"rt","responses","trial_type","trial_index","time_elapsed","internal_node_id","subjID","study","MID","cond","drift","key_press","expt_phase","target","like","value","connected","gems","bombs","no_reward","GemPrChosen","BombPrChosen","GainOverPainPr_0","GainOverPainPr_1","GainOverPainPr_2","GainOverPainPr_3","LosePr_0","LosePr_1","LosePr_2","LosePr_3","WinPr_0","WinPr_1","WinPr_2","WinPr_3","Q0","Q1","Q2","gender","age","ethnicity","respCharCode","respKey","respChoiceNum","respChoice","practice","trial_counter","trial_label"
"3740","{""Q0"":""A2MKXI4KCRRI7Y""}","survey-text","0","3746","0.0-0.0","51005789","wem/bandit_either","A2MKXI4KCRRI7Y","either","7","","","","","","","","","","","","","","","","","","","","","","","","","","","","","","","","","","","",""
"8906","","text","1","13655","0.0-1.0","51005789","wem/bandit_either","A2MKXI4KCRRI7Y","either","7","32","","","","","","","","","","","","","","","","","","","","","","","","","","","","","","","","","","",""
"4232","","text","2","17887","0.0-2.0","51005789","wem/bandit_either","A2MKXI4KCRRI7Y","either","7","32","","","","","","","","","","","","","","","","","","","","","","","","","","","","","","","","","","",""
"11632","","text","3","29521","0.0-3.0","51005789","wem/bandit_either","A2MKXI4KCRRI7Y","either","7","32","","","","","","","","","","","","","","","","","","","","","","","","","","","","","","","","","","",""
"8274","","text","4","37797","0.0-4.0","51005789","wem/bandit_either","A2MKXI4KCRRI7Y","either","7","32","","","","","","","","","","","","","","","","","","","","","","","","","","","","","","","","","","",""
"15605","","text","5","53403","0.0-5.0","51005789","wem/bandit_either","A2MKXI4KCRRI7Y","either","7","32","","","","","","","","","","","","","","","","","","","","","","","","","","","","","","","","","","",""
"5194","","text","6","58598","0.0-6.0","51005789","wem/bandit_either","A2MKXI4KCRRI7Y","either","7","32","","","","","","","","","","","","","","","","","","","","","","","","","","","","","","","","","","",""
"3215","","text","7","61814","0.0-7.0","51005789","wem/bandit_either","A2MKXI4KCRRI7Y","either","7","32","","","","","","","","","","","","","","","","","","","","","","","","","","","","","","","","","","",""
"7988","","identification","8","69815","0.0-8.0-0.0","51005789","wem/bandit_either","A2MKXI4KCRRI7Y","either","7","","identification_pre","the village of Zur","","","","","","","","","","","","","","","","","","","","","","","","","","","","","","","","",""
"7338","","identification","9","78162","0.0-8.0-1.0","51005789","wem/bandit_either","A2MKXI4KCRRI7Y","either","7","","identification_pre","the village of Nyx","","","","","","","","","","","","","","","","","","","","","","","","","","","","","","","","",""
"5063","","text","10","84228","0.0-9.0","51005789","wem/bandit_either","A2MKXI4KCRRI7Y","either","7","32","","","","","","","","","","","","","","","","","","","","","","","","","","","","","","","","","","",""
"3133","","text","11","87362","0.0-10.0","51005789","wem/bandit_either","A2MKXI4KCRRI7Y","either","7","32","","","","","","","","","","","","","","","","","","","","","","","","","","","","","","","","","","",""
"3472","","text","12","90834","0.0-11.0","51005789","wem/bandit_either","A2MKXI4KCRRI7Y","either","7","32","","","","","","","","","","","","","","","","","","","","","","","","","","","","","","","","","","",""
"2854","","text","13","93690","0.0-12.0","51005789","wem/bandit_either","A2MKXI4KCRRI7Y","either","7","32","","","","","","","","","","","","","","","","","","","","","","","","","","","","","","","","","","",""
"1515","","bandit","14","96712","0.0-13.0-0.0","51005789","wem/bandit_either","A2MKXI4KCRRI7Y","either","7","","","","","","","0","0","1","0","0","","","","","0","","","","0","","","","","","","","","","74","J","0","img/none_selected_demo.jpg","true","0",""
"962","","bandit","15","99178","0.0-14.0-0.0","51005789","wem/bandit_either","A2MKXI4KCRRI7Y","either","7","","","","","","","0","0","1","0","0","","","","","0","","","","0","","","","","","","","","","75","K","0","img/none_selected_demo.jpg","true","0",""
"72","","text","16","99252","0.0-15.0","51005789","wem/bandit_either","A2MKXI4KCRRI7Y","either","7","32","","","","","","","","","","","","","","","","","","","","","","","","","","","","","","","","","","",""
"23816","","text","17","123069","0.0-16.0","51005789","wem/bandit_either","A2MKXI4KCRRI7Y","either","7","32","","","","","","","","","","","","","","","","","","","","","","","","","","","","","","","","","","",""
"5938","","text","18","129007","0.0-17.0","51005789","wem/bandit_either","A2MKXI4KCRRI7Y","either","7","32","","","","","","","","","","","","","","","","","","","","","","","","","","","","","","","","","","",""
"2759","","text","19","131767","0.0-18.0","51005789","wem/bandit_either","A2MKXI4KCRRI7Y","either","7","32","","","","","","","","","","","","","","","","","","","","","","","","","","","","","","","","","","",""
"1055","","bandit","20","134328","0.0-19.0-0.0","51005789","wem/bandit_either","A2MKXI4KCRRI7Y","either","7","","","","","","","0","0","1","","0.8","0.5","0.5","","","0.8","0.2","","","","","","","","","","","","","74","J","0","img/none_selected_demo.jpg","true","0","80_20_practice"
"658","","bandit","21","136493","0.0-19.0-1.0","51005789","wem/bandit_either","A2MKXI4KCRRI7Y","either","7","","","","","","","0","1","0","","0.8","0.5","0.5","","","0.8","0.2","","","","","","","","","","","","","74","J","0","img/none_selected_demo.jpg","true","0","80_20_practice"
"384","","bandit","22","138381","0.0-19.0-2.0","51005789","wem/bandit_either","A2MKXI4KCRRI7Y","either","7","","","","","","","0","0","1","","0.2","0.5","0.5","","","0.8","0.2","","","","","","","","","","","","","75","K","1","","true","0","80_20_practice"
"415","","bandit","23","140299","0.0-19.0-3.0","51005789","wem/bandit_either","A2MKXI4KCRRI7Y","either","7","","","","","","","0","0","1","0.2","","0.5","0.5","","","","","","","0.8","0.2","","","","","","","","","75","K","1","","true","0","80_20_practice"
"223","","bandit","24","142027","0.0-19.0-4.0","51005789","wem/bandit_either","A2MKXI4KCRRI7Y","either","7","","","","","","","0","1","0","","0.2","0.5","0.5","","","0.8","0.2","","","","","","","","","","","","","75","K","1","","true","0","80_20_practice"
"289","","bandit","25","143820","0.0-19.0-5.0","51005789","wem/bandit_either","A2MKXI4KCRRI7Y","either","7","","","","","","","1","0","0","0.8","","0.5","0.5","","","","","","","0.8","0.2","","","","","","","","","74","J","0","img/none_selected_demo.jpg","true","0","80_20_practice"
"211","","bandit","26","145535","0.0-19.0-6.0","51005789","wem/bandit_either","A2MKXI4KCRRI7Y","either","7","","","","","","","0","1","0","","0.8","0.5","0.5","","","0.8","0.2","","","","","","","","","","","","","74","J","0","img/none_selected_demo.jpg","true","0","80_20_practice"
"170","","bandit","27","147209","0.0-19.0-7.0","51005789","wem/bandit_either","A2MKXI4KCRRI7Y","either","7","","","","","","","0","0","1","","0.2","0.5","0.5","","","0.8","0.2","","","","","","","","","","","","","75","K","1","","true","0","80_20_practice"
"181","","bandit","28","148896","0.0-19.0-8.0","51005789","wem/bandit_either","A2MKXI4KCRRI7Y","either","7","","","","","","","0","0","1","","0.2","0.5","0.5","","","0.8","0.2","","","","","","","","","","","","","75","K","1","","true","0","80_20_practice"
"259","","bandit","29","150659","0.0-19.0-9.0","51005789","wem/bandit_either","A2MKXI4KCRRI7Y","either","7","","","","","","","1","0","0","0.2","","0.5","0.5","","","","","","","0.8","0.2","","","","","","","","","75","K","1","","true","0","80_20_practice"
"450","","bandit","30","152612","0.0-19.0-10.0","51005789","wem/bandit_either","A2MKXI4KCRRI7Y","either","7","","","","","","","0","0","1","","0.2","0.5","0.5","","","0.8","0.2","","","","","","","","","","","","","75","K","1","","true","0","80_20_practice"
"222","","bandit","31","154339","0.0-19.0-11.0","51005789","wem/bandit_either","A2MKXI4KCRRI7Y","either","7","","","","","","","0","0","1","","0.2","0.5","0.5","","","0.8","0.2","","","","","","","","","","","","","75","K","1","","true","0","80_20_practice"
"226","","bandit","32","156069","0.0-19.0-12.0","51005789","wem/bandit_either","A2MKXI4KCRRI7Y","either","7","","","","","","","0","0","1","","0.2","0.5","0.5","","","0.8","0.2","","","","","","","","","","","","","75","K","1","","true","0","80_20_practice"
"263","","bandit","33","157838","0.0-19.0-13.0","51005789","wem/bandit_either","A2MKXI4KCRRI7Y","either","7","","","","","","","1","0","0","0.2","","0.5","0.5","","","","","","","0.8","0.2","","","","","","","","","75","K","1","","true","0","80_20_practice"
"225","","bandit","34","159568","0.0-19.0-14.0","51005789","wem/bandit_either","A2MKXI4KCRRI7Y","either","7","","","","","","","0","1","0","","0.2","0.5","0.5","","","0.8","0.2","","","","","","","","","","","","","75","K","1","","true","0","80_20_practice"
"214","","bandit","35","161287","0.0-19.0-15.0","51005789","wem/bandit_either","A2MKXI4KCRRI7Y","either","7","","","","","","","0","0","1","0.2","","0.5","0.5","","","","","","","0.8","0.2","","","","","","","","","75","K","1","","true","0","80_20_practice"
"290","","bandit","36","163082","0.0-19.0-16.0","51005789","wem/bandit_either","A2MKXI4KCRRI7Y","either","7","","","","","","","0","0","1","","0.2","0.5","0.5","","","0.8","0.2","","","","","","","","","","","","","75","K","1","","true","0","80_20_practice"
"245","","bandit","37","164832","0.0-19.0-17.0","51005789","wem/bandit_either","A2MKXI4KCRRI7Y","either","7","","","","","","","0","0","1","0.2","","0.5","0.5","","","","","","","0.8","0.2","","","","","","","","","75","K","1","","true","0","80_20_practice"
"216","","bandit","38","166553","0.0-19.0-18.0","51005789","wem/bandit_either","A2MKXI4KCRRI7Y","either","7","","","","","","","0","0","1","","0.8","0.5","0.5","","","0.8","0.2","","","","","","","","","","","","","74","J","0","img/none_selected_demo.jpg","true","0","80_20_practice"
"202","","bandit","39","168259","0.0-19.0-19.0","51005789","wem/bandit_either","A2MKXI4KCRRI7Y","either","7","","","","","","","1","0","0","0.8","","0.5","0.5","","","","","","","0.8","0.2","","","","","","","","","74","J","0","img/none_selected_demo.jpg","true","0","80_20_practice"
"6077","","text","40","174337","0.0-20.0","51005789","wem/bandit_either","A2MKXI4KCRRI7Y","either","7","32","","","","","","","","","","","","","","","","","","","","","","","","","","","","","","","","","","",""
"1823","","bandit","41","177665","0.0-21.0-0.0","51005789","wem/bandit_either","A2MKXI4KCRRI7Y","either","7","","","","","","","1","0","0","1","0","","","","","0","1","","","1","0","","","","","","","","","74","J","0","img/none_selected_demo.jpg","true","0",""
"7532","","text","42","185200","0.0-22.0","51005789","wem/bandit_either","A2MKXI4KCRRI7Y","either","7","32","","","","","","","","","","","","","","","","","","","","","","","","","","","","","","","","","","",""
"2666","","text","43","187867","0.0-23.0","51005789","wem/bandit_either","A2MKXI4KCRRI7Y","either","7","32","","","","","","","","","","","","","","","","","","","","","","","","","","","","","","","","","","",""
"2774","","text","44","190643","0.0-24.0","51005789","wem/bandit_either","A2MKXI4KCRRI7Y","either","7","32","","","","","","","","","","","","","","","","","","","","","","","","","","","","","","","","","","",""
"3549","","text","45","194193","0.0-25.0","51005789","wem/bandit_either","A2MKXI4KCRRI7Y","either","7","32","","","","","","","","","","","","","","","","","","","","","","","","","","","","","","","","","","",""
"7692","","text","46","201887","0.0-26.0","51005789","wem/bandit_either","A2MKXI4KCRRI7Y","either","7","32","","","","","","","","","","","","","","","","","","","","","","","","","","","","","","","","","","",""
"3307","","text","47","205195","0.0-27.0","51005789","wem/bandit_either","A2MKXI4KCRRI7Y","either","7","32","","","","","","","","","","","","","","","","","","","","","","","","","","","","","","","","","","",""
"3612","","text","48","208809","0.0-28.0","51005789","wem/bandit_either","A2MKXI4KCRRI7Y","either","7","32","","","","","","","","","","","","","","","","","","","","","","","","","","","","","","","","","","",""
"2126","","text","49","210935","0.0-29.0","51005789","wem/bandit_either","A2MKXI4KCRRI7Y","either","7","32","","","","","","","","","","","","","","","","","","","","","","","","","","","","","","","","","","",""
"2667","","text","50","213603","0.0-30.0","51005789","wem/bandit_either","A2MKXI4KCRRI7Y","either","7","32","","","","","","","","","","","","","","","","","","","","","","","","","","","","","","","","","","",""
"956","","text","51","214561","0.0-31.0","51005789","wem/bandit_either","A2MKXI4KCRRI7Y","either","7","32","","","","","","","","","","","","","","","","","","","","","","","","","","","","","","","","","","",""
"1762","","text","52","216323","0.0-32.0","51005789","wem/bandit_either","A2MKXI4KCRRI7Y","either","7","32","","","","","","","","","","","","","","","","","","","","","","","","","","","","","","","","","","",""
"626","","bandit","53","218456","0.0-33.0-0.0","51005789","wem/bandit_either","A2MKXI4KCRRI7Y","either","7","","","","","","","0","0","1","","0.2","0.5","0.5","0.5","0.5","0.8","0.2","0.6","0.2","","","","","","","","","","","74","J","1","","true","0","full_practice"
"1188","","bandit","54","221150","0.0-33.0-1.0","51005789","wem/bandit_either","A2MKXI4KCRRI7Y","either","7","","","","","","","0","0","1","0.8","","0.5","0.5","0.5","0.5","","","","","0.8","0.2","0.6","0.2","","","","","","","72","H","0","img/none_selected.jpg","true","0","full_practice"
"1129","","bandit","55","223784","0.0-33.0-2.0","51005789","wem/bandit_either","A2MKXI4KCRRI7Y","either","7","","","","","","","1","0","0","0.6","","0.5","0.5","0.5","0.5","","","","","0.8","0.2","0.6","0.2","","","","","","","75","K","2","","true","0","full_practice"
"219","","bandit","56","225507","0.0-33.0-3.0","51005789","wem/bandit_either","A2MKXI4KCRRI7Y","either","7","","","","","","","1","0","0","0.6","","0.5","0.5","0.5","0.5","","","","","0.8","0.2","0.6","0.2","","","","","","","75","K","2","","true","0","full_practice"
"166","","bandit","57","227176","0.0-33.0-4.0","51005789","wem/bandit_either","A2MKXI4KCRRI7Y","either","7","","","","","","","0","0","1","0.6","","0.5","0.5","0.5","0.5","","","","","0.8","0.2","0.6","0.2","","","","","","","75","K","2","","true","0","full_practice"
"71","","bandit","58","228752","0.0-33.0-5.0","51005789","wem/bandit_either","A2MKXI4KCRRI7Y","either","7","","","","","","","1","0","0","0.6","","0.5","0.5","0.5","0.5","","","","","0.8","0.2","0.6","0.2","","","","","","","75","K","2","","true","0","full_practice"
"385","","bandit","59","230640","0.0-33.0-6.0","51005789","wem/bandit_either","A2MKXI4KCRRI7Y","either","7","","","","","","","0","0","1","0.6","","0.5","0.5","0.5","0.5","","","","","0.8","0.2","0.6","0.2","","","","","","","75","K","2","","true","0","full_practice"
"108","","bandit","60","232253","0.0-33.0-7.0","51005789","wem/bandit_either","A2MKXI4KCRRI7Y","either","7","","","","","","","1","0","0","0.6","","0.5","0.5","0.5","0.5","","","","","0.8","0.2","0.6","0.2","","","","","","","75","K","2","","true","0","full_practice"
"110","","bandit","61","233868","0.0-33.0-8.0","51005789","wem/bandit_either","A2MKXI4KCRRI7Y","either","7","","","","","","","1","0","0","0.6","","0.5","0.5","0.5","0.5","","","","","0.8","0.2","0.6","0.2","","","","","","","75","K","2","","true","0","full_practice"
"64","","bandit","62","235437","0.0-33.0-9.0","51005789","wem/bandit_either","A2MKXI4KCRRI7Y","either","7","","","","","","","1","0","0","0.6","","0.5","0.5","0.5","0.5","","","","","0.8","0.2","0.6","0.2","","","","","","","75","K","2","","true","0","full_practice"
"1","","bandit","63","236941","0.0-33.0-10.0","51005789","wem/bandit_either","A2MKXI4KCRRI7Y","either","7","","","","","","","0","1","0","","0.6","0.5","0.5","0.5","0.5","0.8","0.2","0.6","0.2","","","","","","","","","","","75","K","2","","true","0","full_practice"
"10","","bandit","64","238456","0.0-33.0-11.0","51005789","wem/bandit_either","A2MKXI4KCRRI7Y","either","7","","","","","","","0","0","1","0.6","","0.5","0.5","0.5","0.5","","","","","0.8","0.2","0.6","0.2","","","","","","","75","K","2","","true","0","full_practice"
"134","","bandit","65","240095","0.0-33.0-12.0","51005789","wem/bandit_either","A2MKXI4KCRRI7Y","either","7","","","","","","","0","0","1","0.6","","0.5","0.5","0.5","0.5","","","","","0.8","0.2","0.6","0.2","","","","","","","75","K","2","","true","0","full_practice"
"245","","bandit","66","241845","0.0-33.0-13.0","51005789","wem/bandit_either","A2MKXI4KCRRI7Y","either","7","","","","","","","0","0","1","0.2","","0.5","0.5","0.5","0.5","","","","","0.8","0.2","0.6","0.2","","","","","","","76","L","3","","true","0","full_practice"
"206","","bandit","67","243556","0.0-33.0-14.0","51005789","wem/bandit_either","A2MKXI4KCRRI7Y","either","7","","","","","","","0","1","0","","0.2","0.5","0.5","0.5","0.5","0.8","0.2","0.6","0.2","","","","","","","","","","","76","L","3","","true","0","full_practice"
"166","","bandit","68","245228","0.0-33.0-15.0","51005789","wem/bandit_either","A2MKXI4KCRRI7Y","either","7","","","","","","","0","0","1","","0.2","0.5","0.5","0.5","0.5","0.8","0.2","0.6","0.2","","","","","","","","","","","76","L","3","","true","0","full_practice"
"319","","bandit","69","247053","0.0-33.0-16.0","51005789","wem/bandit_either","A2MKXI4KCRRI7Y","either","7","","","","","","","0","1","0","","0.8","0.5","0.5","0.5","0.5","0.8","0.2","0.6","0.2","","","","","","","","","","","72","H","0","img/none_selected.jpg","true","0","full_practice"
"205","","bandit","70","248762","0.0-33.0-17.0","51005789","wem/bandit_either","A2MKXI4KCRRI7Y","either","7","","","","","","","1","0","0","0.8","","0.5","0.5","0.5","0.5","","","","","0.8","0.2","0.6","0.2","","","","","","","72","H","0","img/none_selected.jpg","true","0","full_practice"
"71","","bandit","71","250338","0.0-33.0-18.0","51005789","wem/bandit_either","A2MKXI4KCRRI7Y","either","7","","","","","","","0","1","0","","0.8","0.5","0.5","0.5","0.5","0.8","0.2","0.6","0.2","","","","","","","","","","","72","H","0","img/none_selected.jpg","true","0","full_practice"
"163","","bandit","72","252009","0.0-33.0-19.0","51005789","wem/bandit_either","A2MKXI4KCRRI7Y","either","7","","","","","","","0","1","0","","0.8","0.5","0.5","0.5","0.5","0.8","0.2","0.6","0.2","","","","","","","","","","","72","H","0","img/none_selected.jpg","true","0","full_practice"
"3394","","text","73","255406","0.0-34.0","51005789","wem/bandit_either","A2MKXI4KCRRI7Y","either","7","32","","","","","","","","","","","","","","","","","","","","","","","","","","","","","","","","","","",""
"11757","","text","74","268166","0.0-35.0","51005789","wem/bandit_either","A2MKXI4KCRRI7Y","either","7","32","","","","","","","","","","","","","","","","","","","","","","","","","","","","","","","","","","",""
"7122","","text","75","275290","0.0-36.0","51005789","wem/bandit_either","A2MKXI4KCRRI7Y","either","7","32","","","","","","","","","","","","","","","","","","","","","","","","","","","","","","","","","","",""
"4802","","text","76","280094","0.0-37.0","51005789","wem/bandit_either","A2MKXI4KCRRI7Y","either","7","32","","","","","","","","","","","","","","","","","","","","","","","","","","","","","","","","","","",""
"5706","","text","77","285802","0.0-38.0","51005789","wem/bandit_either","A2MKXI4KCRRI7Y","either","7","32","","","","","","","","","","","","","","","","","","","","","","","","","","","","","","","","","","",""
"5915","","text","78","291718","0.0-39.0","51005789","wem/bandit_either","A2MKXI4KCRRI7Y","either","7","32","","","","","","","","","","","","","","","","","","","","","","","","","","","","","","","","","","",""
"1030","","bandit","79","294256","0.0-40.0-0.0","51005789","wem/bandit_either","A2MKXI4KCRRI7Y","either","7","","","","","","","1","0","0","0.1952616071","","0.8","0.2","0.4","0.6","","","","","0.1952616071","0.1480066451","0.01738065524","0.06530018083","","","","","","","72","H","0","img/none_selected.jpg","","1","main_expt"
"15","","bandit","80","295777","0.0-41.0-0.0","51005789","wem/bandit_either","A2MKXI4KCRRI7Y","either","7","","","","","","","0","0","1","0.1652234336","","0.8","0.2","0.4","0.6","","","","","0.1652234336","0.1053714073","0.0196943787","0.1011701763","","","","","","","72","H","0","img/none_selected.jpg","","2","main_expt"
"119","","bandit","81","297400","0.0-42.0-0.0","51005789","wem/bandit_either","A2MKXI4KCRRI7Y","either","7","","","","","","","0","0","1","0.1347382479","","0.8","0.2","0.4","0.6","","","","","0.1347382479","0.1460078221","0.01678573497","0.09486719381","","","","","","","72","H","0","img/none_selected.jpg","","3","main_expt"
"169","","bandit","82","299076","0.0-43.0-0.0","51005789","wem/bandit_either","A2MKXI4KCRRI7Y","either","7","","","","","","","0","0","1","","0.1866138214","0.8","0.2","0.4","0.6","0.1684625442","0.1866138214","0.02981965743","0.06705802814","","","","","","","","","","","74","J","1","","","4","main_expt"
"203","","bandit","83","300784","0.0-44.0-0.0","51005789","wem/bandit_either","A2MKXI4KCRRI7Y","either","7","","","","","","","0","0","1","","0.2445348717","0.8","0.2","0.4","0.6","0.1792029032","0.2445348717","0.02600208211","0.0822298525","","","","","","","","","","","74","J","1","","","5","main_expt"
"29","","bandit","84","302318","0.0-45.0-0.0","51005789","wem/bandit_either","A2MKXI4KCRRI7Y","either","7","","","","","","","0","0","1","0.02332436933","","0.8","0.2","0.4","0.6","","","","","0.2153873139","0.2546962146","0.02332436933","0.09162209411","","","","","","","75","K","2","","","6","main_expt"
"57","","bandit","85","303880","0.0-46.0-0.0","51005789","wem/bandit_either","A2MKXI4KCRRI7Y","either","7","","","","","","","0","0","1","","0.02864040813","0.8","0.2","0.4","0.6","0.1757762721","0.2344841702","0.02864040813","0.1028820098","","","","","","","","","","","75","K","2","","","7","main_expt"
"53","","bandit","86","305438","0.0-47.0-0.0","51005789","wem/bandit_either","A2MKXI4KCRRI7Y","either","7","","","","","","","0","0","1","","0.1532270122","0.8","0.2","0.4","0.6","0.2241229746","0.2473344203","0.02951264166","0.1532270122","","","","","","","","","","","76","L","3","","","8","main_expt"
"30","","bandit","87","306974","0.0-48.0-0.0","51005789","wem/bandit_either","A2MKXI4KCRRI7Y","either","7","","","","","","","0","0","1","0.2131450397","","0.8","0.2","0.4","0.6","","","","","0.2199426203","0.2642160399","0.02997011939","0.2131450397","","","","","","","76","L","3","","","9","main_expt"
"285","","bandit","88","308767","0.0-49.0-0.0","51005789","wem/bandit_either","A2MKXI4KCRRI7Y","either","7","","","","","","","0","0","1","0.1520686932","","0.8","0.2","0.4","0.6","","","","","0.1520686932","0.2104627424","0.02489651457","0.2985754635","","","","","","","72","H","0","img/none_selected.jpg","","10","main_expt"
"149","","bandit","89","310421","0.0-50.0-0.0","51005789","wem/bandit_either","A2MKXI4KCRRI7Y","either","7","","","","","","","0","0","1","","0.01651058827","0.8","0.2","0.4","0.6","0.2013349999","0.219372878","0.01651058827","0.2924640086","","","","","","","","","","","75","K","2","","","11","main_expt"
"9","","bandit","90","311934","0.0-51.0-0.0","51005789","wem/bandit_either","A2MKXI4KCRRI7Y","either","7","","","","","","","1","0","0","0.2105839871","","0.8","0.2","0.4","0.6","","","","","0.2156800105","0.2105839871","0.02341729431","0.3264291113","","","","","","","74","J","1","","","12","main_expt"
"493","","bandit","91","313934","0.0-52.0-0.0","51005789","wem/bandit_either","A2MKXI4KCRRI7Y","either","7","","","","","","","0","0","1","0.2511698571","","0.8","0.2","0.4","0.6","","","","","0.1833947696","0.2511698571","0.0257410372","0.3254913314","","","","","","","74","J","1","","","13","main_expt"
"332","","bandit","92","315773","0.0-53.0-0.0","51005789","wem/bandit_either","A2MKXI4KCRRI7Y","either","7","","","","","","","0","0","1","0.3428504842","","0.8","0.2","0.4","0.6","","","","","0.243643366","0.2158977649","0.02570014082","0.3428504842","","","","","","","76","L","3","","","14","main_expt"
"131","","bandit","93","317409","0.0-54.0-0.0","51005789","wem/bandit_either","A2MKXI4KCRRI7Y","either","7","","","","","","","0","0","1","0.2762480727","","0.8","0.2","0.4","0.6","","","","","0.2265365198","0.2762480727","0.04268316416","0.3244047679","","","","","","","74","J","1","","","15","main_expt"
"20","","bandit","94","318937","0.0-55.0-0.0","51005789","wem/bandit_either","A2MKXI4KCRRI7Y","either","7","","","","","","","0","0","1","","0.04667408308","0.8","0.2","0.4","0.6","0.2484951132","0.3202890724","0.04667408308","0.3025313629","","","","","","","","","","","75","K","2","","","16","main_expt"
"368","","bandit","95","320809","0.0-56.0-0.0","51005789","wem/bandit_either","A2MKXI4KCRRI7Y","either","7","","","","","","","0","0","1","0.2570267238","","0.8","0.2","0.4","0.6","","","","","0.2570267238","0.3680552247","0.0506688767","0.3291216938","","","","","","","72","H","0","img/none_selected.jpg","","17","main_expt"
"25","","bandit","96","322339","0.0-57.0-0.0","51005789","wem/bandit_either","A2MKXI4KCRRI7Y","either","7","","","","","","","0","0","1","","0.3968593921","0.8","0.2","0.4","0.6","0.287418789","0.3968593921","0.02988526167","0.2987881532","","","","","","","","","","","74","J","1","","","18","main_expt"
"43","","bandit","97","323887","0.0-58.0-0.0","51005789","wem/bandit_either","A2MKXI4KCRRI7Y","either","7","","","","","","","0","0","1","0.03476350355","","0.8","0.2","0.4","0.6","","","","","0.2338710899","0.4192996399","0.03476350355","0.281207523","","","","","","","75","K","2","","","19","main_expt"
"36","","bandit","98","325431","0.0-59.0-0.0","51005789","wem/bandit_either","A2MKXI4KCRRI7Y","either","7","","","","","","","0","0","1","0.291129981","","0.8","0.2","0.4","0.6","","","","","0.2335293464","0.4362768361","0.0233687216","0.291129981","","","","","","","76","L","3","","","20","main_expt"
"77","","bandit","99","327012","0.0-60.0-0.0","51005789","wem/bandit_either","A2MKXI4KCRRI7Y","either","7","","","","","","","0","0","1","0.2434826965","","0.8","0.2","0.4","0.6","","","","","0.2434826965","0.4599691003","0.01272547494","0.2729578326","","","","","","","72","H","0","img/none_selected.jpg","","21","main_expt"
"425","","bandit","100","328943","0.0-61.0-0.0","51005789","wem/bandit_either","A2MKXI4KCRRI7Y","either","7","","","","","","","0","0","1","","0.44353765","0.8","0.2","0.4","0.6","0.2702300591","0.44353765","0.01739491555","0.2805141014","","","","","","","","","","","74","J","1","","","22","main_expt"
"125","","bandit","101","330574","0.0-62.0-0.0","51005789","wem/bandit_either","A2MKXI4KCRRI7Y","either","7","","","","","","","0","0","1","","0.4105594395","0.8","0.2","0.4","0.6","0.2424740502","0.4105594395","0.006692102231","0.3016389313","","","","","","","","","","","74","J","1","","","23","main_expt"
"50","","bandit","102","332129","0.0-63.0-0.0","51005789","wem/bandit_either","A2MKXI4KCRRI7Y","either","7","","","","","","","0","0","1","","0.01209419849","0.8","0.2","0.4","0.6","0.1754503809","0.4243351486","0.01209419849","0.2475621169","","","","","","","","","","","75","K","2","","","24","main_expt"
"339","","bandit","103","333973","0.0-64.0-0.0","51005789","wem/bandit_either","A2MKXI4KCRRI7Y","either","7","","","","","","","0","0","1","","0.009734580702","0.8","0.2","0.4","0.6","0.2023019753","0.4172780312","0.009734580702","0.2607476102","","","","","","","","","","","75","K","2","","","25","main_expt"
"299","","bandit","104","335778","0.0-65.0-0.0","51005789","wem/bandit_either","A2MKXI4KCRRI7Y","either","7","","","","","","","0","0","1","","0.292589008","0.8","0.2","0.4","0.6","0.1887270612","0.3981062588","0.008596148908","0.292589008","","","","","","","","","","","76","L","3","","","26","main_expt"
"163","","bandit","105","337445","0.0-66.0-0.0","51005789","wem/bandit_either","A2MKXI4KCRRI7Y","either","7","","","","","","","0","0","1","0.2526986378","","0.8","0.2","0.4","0.6","","","","","0.2526986378","0.3889188119","0.01380650739","0.2978950393","","","","","","","72","H","0","img/none_selected.jpg","","27","main_expt"
"142","","bandit","106","339093","0.0-67.0-0.0","51005789","wem/bandit_either","A2MKXI4KCRRI7Y","either","7","","","","","","","0","1","0","","0.3699095679","0.8","0.2","0.4","0.6","0.2536033627","0.3699095679","0.01160852189","0.337392419","","","","","","","","","","","74","J","1","","","28","main_expt"
"71","","bandit","107","340670","0.0-68.0-0.0","51005789","wem/bandit_either","A2MKXI4KCRRI7Y","either","7","","","","","","","0","0","1","","0.4087832773","0.8","0.2","0.4","0.6","0.258258936","0.4087832773","0.02858314752","0.3830759015","","","","","","","","","","","74","J","1","","","29","main_expt"
"230","","bandit","108","342405","0.0-69.0-0.0","51005789","wem/bandit_either","A2MKXI4KCRRI7Y","either","7","","","","","","","0","0","1","","0.4162513677","0.8","0.2","0.4","0.6","0.3152574144","0.4162513677","0.0265596094","0.3778881599","","","","","","","","","","","74","J","1","","","30","main_expt"
"91","","bandit","109","344002","0.0-70.0-0.0","51005789","wem/bandit_either","A2MKXI4KCRRI7Y","either","7","","","","","","","0","0","1","0.02828816112","","0.8","0.2","0.4","0.6","","","","","0.3508579725","0.43337534","0.02828816112","0.3585458117","","","","","","","75","K","2","","","31","main_expt"
"442","","bandit","110","345948","0.0-71.0-0.0","51005789","wem/bandit_either","A2MKXI4KCRRI7Y","either","7","","","","","","","0","0","1","","0.03857304495","0.8","0.2","0.4","0.6","0.3902021543","0.4399105216","0.03857304495","0.3511664436","","","","","","","","","","","75","K","2","","","32","main_expt"
"386","","bandit","111","347839","0.0-72.0-0.0","51005789","wem/bandit_either","A2MKXI4KCRRI7Y","either","7","","","","","","","0","0","1","0.3924960189","","0.8","0.2","0.4","0.6","","","","","0.4112626521","0.3859623535","0.02642959278","0.3924960189","","","","","","","76","L","3","","","33","main_expt"
"80","","bandit","112","349426","0.0-73.0-0.0","51005789","wem/bandit_either","A2MKXI4KCRRI7Y","either","7","","","","","","","0","1","0","","0.3713907517","0.8","0.2","0.4","0.6","0.3912589523","0.4231921331","0.06800028167","0.3713907517","","","","","","","","","","","76","L","3","","","34","main_expt"
"129","","bandit","113","351062","0.0-74.0-0.0","51005789","wem/bandit_either","A2MKXI4KCRRI7Y","either","7","","","","","","","0","0","1","","0.3929004689","0.8","0.2","0.4","0.6","0.3663646496","0.3950458867","0.05710280771","0.3929004689","","","","","","","","","","","76","L","3","","","35","main_expt"
"192","","bandit","114","352759","0.0-75.0-0.0","51005789","wem/bandit_either","A2MKXI4KCRRI7Y","either","7","","","","","","","0","1","0","","0.3820467604","0.8","0.2","0.4","0.6","0.3045225128","0.4005306787","0.07756943076","0.3820467604","","","","","","","","","","","76","L","3","","","36","main_expt"
"174","","bandit","115","354440","0.0-76.0-0.0","51005789","wem/bandit_either","A2MKXI4KCRRI7Y","either","7","","","","","","","0","0","1","0.3948022939","","0.8","0.2","0.4","0.6","","","","","0.2806474599","0.3972735937","0.06074629621","0.3948022939","","","","","","","76","L","3","","","37","main_expt"
"70","","bandit","116","356016","0.0-77.0-0.0","51005789","wem/bandit_either","A2MKXI4KCRRI7Y","either","7","","","","","","","0","0","1","","0.3769579019","0.8","0.2","0.4","0.6","0.3558759705","0.38339591","0.07063042774","0.3769579019","","","","","","","","","","","76","L","3","","","38","main_expt"
"130","","bandit","117","357651","0.0-78.0-0.0","51005789","wem/bandit_either","A2MKXI4KCRRI7Y","either","7","","","","","","","0","0","1","0.3194138052","","0.8","0.2","0.4","0.6","","","","","0.3194138052","0.3906354184","0.06209293178","0.4030344636","","","","","","","72","H","0","img/none_selected.jpg","","39","main_expt"
"392","","bandit","118","359550","0.0-79.0-0.0","51005789","wem/bandit_either","A2MKXI4KCRRI7Y","either","7","","","","","","","1","0","0","0.3549086085","","0.8","0.2","0.4","0.6","","","","","0.3549086085","0.3623676206","0.06952578958","0.3622335218","","","","","","","72","H","0","img/none_selected.jpg","","40","main_expt"
"114","","bandit","119","361169","0.0-80.0-0.0","51005789","wem/bandit_either","A2MKXI4KCRRI7Y","either","7","","","","","","","0","0","1","0.3452113815","","0.8","0.2","0.4","0.6","","","","","0.3452113815","0.3873704927","0.1291245709","0.3911596719","","","","","","","72","H","0","img/none_selected.jpg","","41","main_expt"
"260","","bandit","120","362936","0.0-81.0-0.0","51005789","wem/bandit_either","A2MKXI4KCRRI7Y","either","7","","","","","","","0","0","1","0.3522960267","","0.8","0.2","0.4","0.6","","","","","0.3522960267","0.359823116","0.1174523948","0.3921858285","","","","","","","72","H","0","img/none_selected.jpg","","42","main_expt"
"229","","bandit","121","364669","0.0-82.0-0.0","51005789","wem/bandit_either","A2MKXI4KCRRI7Y","either","7","","","","","","","1","0","0","0.3710191411","","0.8","0.2","0.4","0.6","","","","","0.3093122096","0.3710191411","0.1201484523","0.3831213528","","","","","","","74","J","1","","","43","main_expt"
"359","","bandit","122","366534","0.0-83.0-0.0","51005789","wem/bandit_either","A2MKXI4KCRRI7Y","either","7","","","","","","","0","1","0","","0.3874065465","0.8","0.2","0.4","0.6","0.3026159556","0.3874065465","0.09958360536","0.3518708159","","","","","","","","","","","74","J","1","","","44","main_expt"
"312","","bandit","123","368353","0.0-84.0-0.0","51005789","wem/bandit_either","A2MKXI4KCRRI7Y","either","7","","","","","","","0","0","1","","0.3851533971","0.8","0.2","0.4","0.6","0.3336294247","0.3851533971","0.05173655998","0.3122870636","","","","","","","","","","","74","J","1","","","45","main_expt"
"12","","bandit","124","369870","0.0-85.0-0.0","51005789","wem/bandit_either","A2MKXI4KCRRI7Y","either","7","","","","","","","0","0","1","","0.4055883719","0.8","0.2","0.4","0.6","0.3400222736","0.4055883719","0.05945041096","0.2635721956","","","","","","","","","","","74","J","1","","","46","main_expt"
"239","","bandit","125","371617","0.0-86.0-0.0","51005789","wem/bandit_either","A2MKXI4KCRRI7Y","either","7","","","","","","","0","0","1","0.04375763727","","0.8","0.2","0.4","0.6","","","","","0.328707825","0.3671593179","0.04375763727","0.2856785865","","","","","","","75","K","2","","","47","main_expt"
"469","","bandit","126","373593","0.0-87.0-0.0","51005789","wem/bandit_either","A2MKXI4KCRRI7Y","either","7","","","","","","","0","0","1","0.0666370861","","0.8","0.2","0.4","0.6","","","","","0.3307690822","0.3198203038","0.0666370861","0.2649087478","","","","","","","75","K","2","","","48","main_expt"
"23","","bandit","127","375123","0.0-88.0-0.0","51005789","wem/bandit_either","A2MKXI4KCRRI7Y","either","7","","","","","","","0","0","1","","0.08266213623","0.8","0.2","0.4","0.6","0.3438067684","0.3111357295","0.08266213623","0.2462979357","","","","","","","","","","","75","K","2","","","49","main_expt"
"62","","bandit","128","376690","0.0-89.0-0.0","51005789","wem/bandit_either","A2MKXI4KCRRI7Y","either","7","","","","","","","0","1","0","","0.2490076798","0.8","0.2","0.4","0.6","0.4037002216","0.3196682981","0.08795051988","0.2490076798","","","","","","","","","","","76","L","3","","","50","main_expt"
"1","","bandit","129","378197","0.0-90.0-0.0","51005789","wem/bandit_either","A2MKXI4KCRRI7Y","either","7","","","","","","","0","1","0","","0.305209751","0.8","0.2","0.4","0.6","0.3557518394","0.3088596379","0.07533366945","0.305209751","","","","","","","","","","","76","L","3","","","51","main_expt"
"1","","bandit","130","379704","0.0-91.0-0.0","51005789","wem/bandit_either","A2MKXI4KCRRI7Y","either","7","","","","","","","1","0","0","0.3087204988","","0.8","0.2","0.4","0.6","","","","","0.3254324358","0.3060924957","0.06506638851","0.3087204988","","","","","","","76","L","3","","","52","main_expt"
"152","","bandit","131","381362","0.0-92.0-0.0","51005789","wem/bandit_either","A2MKXI4KCRRI7Y","either","7","","","","","","","0","0","1","0.2984188648","","0.8","0.2","0.4","0.6","","","","","0.2952150256","0.3229319808","0.06562792832","0.2984188648","","","","","","","76","L","3","","","53","main_expt"
"79","","bandit","132","382949","0.0-93.0-0.0","51005789","wem/bandit_either","A2MKXI4KCRRI7Y","either","7","","","","","","","0","0","1","","0.3353917468","0.8","0.2","0.4","0.6","0.300320608","0.3280138586","0.04630081711","0.3353917468","","","","","","","","","","","76","L","3","","","54","main_expt"
"429","","bandit","133","384885","0.0-94.0-0.0","51005789","wem/bandit_either","A2MKXI4KCRRI7Y","either","7","","","","","","","0","0","1","","0.3259144651","0.8","0.2","0.4","0.6","0.2985084879","0.2777260571","0.03868373719","0.3259144651","","","","","","","","","","","76","L","3","","","55","main_expt"
"49","","bandit","134","386442","0.0-95.0-0.0","51005789","wem/bandit_either","A2MKXI4KCRRI7Y","either","7","","","","","","","0","0","1","0.06235362297","","0.8","0.2","0.4","0.6","","","","","0.2607009345","0.1791004868","0.06235362297","0.3259049121","","","","","","","75","K","2","","","56","main_expt"
"86","","bandit","135","388034","0.0-96.0-0.0","51005789","wem/bandit_either","A2MKXI4KCRRI7Y","either","7","","","","","","","0","0","1","","0.2182265394","0.8","0.2","0.4","0.6","0.2565854794","0.2182265394","0.04639461243","0.3687904078","","","","","","","","","","","74","J","1","","","57","main_expt"
"70","","bandit","136","389611","0.0-97.0-0.0","51005789","wem/bandit_either","A2MKXI4KCRRI7Y","either","7","","","","","","","0","0","1","","0.319121847","0.8","0.2","0.4","0.6","0.319121847","0.2970860181","0.08954448139","0.3422038875","","","","","","","","","","","72","H","0","img/none_selected.jpg","","58","main_expt"
"179","","bandit","137","391297","0.0-98.0-0.0","51005789","wem/bandit_either","A2MKXI4KCRRI7Y","either","7","","","","","","","0","1","0","","0.3771421139","0.8","0.2","0.4","0.6","0.3269923399","0.3249685468","0.07390342289","0.3771421139","","","","","","","","","","","76","L","3","","","59","main_expt"
"148","","bandit","138","392952","0.0-99.0-0.0","51005789","wem/bandit_either","A2MKXI4KCRRI7Y","either","7","","","","","","","0","0","1","","0.3620124399","0.8","0.2","0.4","0.6","0.3150968823","0.2931470039","0.05801548519","0.3620124399","","","","","","","","","","","76","L","3","","","60","main_expt"
"134","","bandit","139","394594","0.0-100.0-0.0","51005789","wem/bandit_either","A2MKXI4KCRRI7Y","either","7","","","","","","","0","0","1","","0.3958116198","0.8","0.2","0.4","0.6","0.324539239","0.2646536279","0.07333263924","0.3958116198","","","","","","","","","","","76","L","3","","","61","main_expt"
"273","","bandit","140","396373","0.0-101.0-0.0","51005789","wem/bandit_either","A2MKXI4KCRRI7Y","either","7","","","","","","","0","0","1","","0.07563430262","0.8","0.2","0.4","0.6","0.3066306166","0.242461968","0.07563430262","0.3615218546","","","","","","","","","","","75","K","2","","","62","main_expt"
"178","","bandit","141","398060","0.0-102.0-0.0","51005789","wem/bandit_either","A2MKXI4KCRRI7Y","either","7","","","","","","","0","0","1","","0.2206683029","0.8","0.2","0.4","0.6","0.3068900116","0.2206683029","0.06826526778","0.3574266064","","","","","","","","","","","74","J","1","","","63","main_expt"
"113","","bandit","142","399679","0.0-103.0-0.0","51005789","wem/bandit_either","A2MKXI4KCRRI7Y","either","7","","","","","","","0","0","1","0.2936494982","","0.8","0.2","0.4","0.6","","","","","0.2936494982","0.2288959862","0.1175271989","0.3541915859","","","","","","","72","H","0","img/none_selected.jpg","","64","main_expt"
"84","","bandit","143","401270","0.0-104.0-0.0","51005789","wem/bandit_either","A2MKXI4KCRRI7Y","either","7","","","","","","","1","0","0","0.3339820985","","0.8","0.2","0.4","0.6","","","","","0.290236101","0.2346523549","0.1273865191","0.3339820985","","","","","","","76","L","3","","","65","main_expt"
"228","","bandit","144","403005","0.0-105.0-0.0","51005789","wem/bandit_either","A2MKXI4KCRRI7Y","either","7","","","","","","","1","0","0","0.3195467083","","0.8","0.2","0.4","0.6","","","","","0.2512036594","0.1881688105","0.09075088943","0.3195467083","","","","","","","76","L","3","","","66","main_expt"
"187","","bandit","145","404700","0.0-106.0-0.0","51005789","wem/bandit_either","A2MKXI4KCRRI7Y","either","7","","","","","","","1","0","0","0.3477383846","","0.8","0.2","0.4","0.6","","","","","0.263747572","0.231043846","0.08077075725","0.3477383846","","","","","","","76","L","3","","","67","main_expt"
"127","","bandit","146","406332","0.0-107.0-0.0","51005789","wem/bandit_either","A2MKXI4KCRRI7Y","either","7","","","","","","","0","0","1","0.3365352069","","0.8","0.2","0.4","0.6","","","","","0.2892519303","0.2576664243","0.08810311296","0.3365352069","","","","","","","76","L","3","","","68","main_expt"
"20","","bandit","147","407859","0.0-108.0-0.0","51005789","wem/bandit_either","A2MKXI4KCRRI7Y","either","7","","","","","","","0","0","1","0.3148812039","","0.8","0.2","0.4","0.6","","","","","0.2383664846","0.2183283259","0.1260156682","0.3148812039","","","","","","","76","L","3","","","69","main_expt"
"128","","bandit","148","409493","0.0-109.0-0.0","51005789","wem/bandit_either","A2MKXI4KCRRI7Y","either","7","","","","","","","0","0","1","0.3154014692","","0.8","0.2","0.4","0.6","","","","","0.2497111545","0.2260484764","0.08773951932","0.3154014692","","","","","","","76","L","3","","","70","main_expt"
"62","","bandit","149","411063","0.0-110.0-0.0","51005789","wem/bandit_either","A2MKXI4KCRRI7Y","either","7","","","","","","","0","0","1","","0.219815459","0.8","0.2","0.4","0.6","0.2095843002","0.3196469567","0.1154304285","0.219815459","","","","","","","","","","","76","L","3","","","71","main_expt"
"175","","bandit","150","412746","0.0-111.0-0.0","51005789","wem/bandit_either","A2MKXI4KCRRI7Y","either","7","","","","","","","0","0","1","0.10097247","","0.8","0.2","0.4","0.6","","","","","0.1972488467","0.3644141189","0.10097247","0.2623730272","","","","","","","75","K","2","","","72","main_expt"
"0","","bandit","151","414252","0.0-112.0-0.0","51005789","wem/bandit_either","A2MKXI4KCRRI7Y","either","7","","","","","","","0","1","0","","0.4081842109","0.8","0.2","0.4","0.6","0.15494396","0.4081842109","0.0746930591","0.2639805735","","","","","","","","","","","74","J","1","","","73","main_expt"
"35","","bandit","152","415795","0.0-113.0-0.0","51005789","wem/bandit_either","A2MKXI4KCRRI7Y","either","7","","","","","","","1","0","0","0.4506698749","","0.8","0.2","0.4","0.6","","","","","0.1324790415","0.4506698749","0.1124392477","0.2770925356","","","","","","","74","J","1","","","74","main_expt"
"35","","bandit","153","417338","0.0-114.0-0.0","51005789","wem/bandit_either","A2MKXI4KCRRI7Y","either","7","","","","","","","0","1","0","","0.454520075","0.8","0.2","0.4","0.6","0.179195356","0.454520075","0.113494578","0.2796652475","","","","","","","","","","","74","J","1","","","75","main_expt"
"245","","bandit","154","419088","0.0-115.0-0.0","51005789","wem/bandit_either","A2MKXI4KCRRI7Y","either","7","","","","","","","0","0","1","0.466199952","","0.8","0.2","0.4","0.6","","","","","0.215808919","0.466199952","0.1469344428","0.3153427244","","","","","","","74","J","1","","","76","main_expt"
"246","","bandit","155","420840","0.0-116.0-0.0","51005789","wem/bandit_either","A2MKXI4KCRRI7Y","either","7","","","","","","","0","0","1","","0.4402141775","0.8","0.2","0.4","0.6","0.2312347408","0.4402141775","0.2152215887","0.3676911864","","","","","","","","","","","74","J","1","","","77","main_expt"
"68","","bandit","156","422415","0.0-117.0-0.0","51005789","wem/bandit_either","A2MKXI4KCRRI7Y","either","7","","","","","","","0","0","1","0.2197025874","","0.8","0.2","0.4","0.6","","","","","0.2197025874","0.4525957793","0.2055177618","0.3434277392","","","","","","","72","H","0","img/none_selected.jpg","","78","main_expt"
"100","","bandit","157","424023","0.0-118.0-0.0","51005789","wem/bandit_either","A2MKXI4KCRRI7Y","either","7","","","","","","","0","0","1","0.2227420924","","0.8","0.2","0.4","0.6","","","","","0.2227420924","0.4630799716","0.222262525","0.3758616161","","","","","","","72","H","0","img/none_selected.jpg","","79","main_expt"
"50","","bandit","158","425580","0.0-119.0-0.0","51005789","wem/bandit_either","A2MKXI4KCRRI7Y","either","7","","","","","","","0","0","1","0.3862393514","","0.8","0.2","0.4","0.6","","","","","0.2283057493","0.423693353","0.2700860438","0.3862393514","","","","","","","76","L","3","","","80","main_expt"
"17","","bandit","159","427103","0.0-120.0-0.0","51005789","wem/bandit_either","A2MKXI4KCRRI7Y","either","7","","","","","","","0","1","0","","0.4319112677","0.8","0.2","0.4","0.6","0.2721525977","0.4319112677","0.2642688004","0.3593770893","","","","","","","","","","","74","J","1","","","81","main_expt"
"101","","bandit","160","428711","0.0-121.0-0.0","51005789","wem/bandit_either","A2MKXI4KCRRI7Y","either","7","","","","","","","0","1","0","","0.441827487","0.8","0.2","0.4","0.6","0.2850237184","0.441827487","0.2824164754","0.4035110645","","","","","","","","","","","74","J","1","","","82","main_expt"
"222","","bandit","161","430439","0.0-122.0-0.0","51005789","wem/bandit_either","A2MKXI4KCRRI7Y","either","7","","","","","","","1","0","0","0.4288861504","","0.8","0.2","0.4","0.6","","","","","0.3236436683","0.4288861504","0.2819095575","0.3719627038","","","","","","","74","J","1","","","83","main_expt"
"174","","bandit","162","432119","0.0-123.0-0.0","51005789","wem/bandit_either","A2MKXI4KCRRI7Y","either","7","","","","","","","0","0","1","","0.4350385517","0.8","0.2","0.4","0.6","0.3339638593","0.4350385517","0.2589745902","0.3349288927","","","","","","","","","","","74","J","1","","","84","main_expt"
"39","","bandit","163","433666","0.0-124.0-0.0","51005789","wem/bandit_either","A2MKXI4KCRRI7Y","either","7","","","","","","","1","0","0","0.3247899262","","0.8","0.2","0.4","0.6","","","","","0.3795022601","0.4255505645","0.3626504113","0.3247899262","","","","","","","76","L","3","","","85","main_expt"
"409","","bandit","164","435583","0.0-125.0-0.0","51005789","wem/bandit_either","A2MKXI4KCRRI7Y","either","7","","","","","","","0","0","1","","0.3443557019","0.8","0.2","0.4","0.6","0.3835523064","0.4330938692","0.3598915268","0.3443557019","","","","","","","","","","","76","L","3","","","86","main_expt"
"325","","bandit","165","437413","0.0-126.0-0.0","51005789","wem/bandit_either","A2MKXI4KCRRI7Y","either","7","","","","","","","0","1","0","","0.4548398529","0.8","0.2","0.4","0.6","0.3772514457","0.4548398529","0.3433052933","0.3648776167","","","","","","","","","","","74","J","1","","","87","main_expt"
"126","","bandit","166","439046","0.0-127.0-0.0","51005789","wem/bandit_either","A2MKXI4KCRRI7Y","either","7","","","","","","","0","1","0","","0.4493124031","0.8","0.2","0.4","0.6","0.3766830519","0.4493124031","0.4022938878","0.3609631839","","","","","","","","","","","74","J","1","","","88","main_expt"
"172","","bandit","167","440727","0.0-128.0-0.0","51005789","wem/bandit_either","A2MKXI4KCRRI7Y","either","7","","","","","","","0","0","1","","0.4161110063","0.8","0.2","0.4","0.6","0.3537755119","0.4161110063","0.4141493151","0.3636167192","","","","","","","","","","","74","J","1","","","89","main_expt"
"161","","bandit","168","442394","0.0-129.0-0.0","51005789","wem/bandit_either","A2MKXI4KCRRI7Y","either","7","","","","","","","0","0","1","0.3563441379","","0.8","0.2","0.4","0.6","","","","","0.3014761449","0.405260856","0.4136124289","0.3563441379","","","","","","","76","L","3","","","90","main_expt"
"387","","bandit","169","444288","0.0-130.0-0.0","51005789","wem/bandit_either","A2MKXI4KCRRI7Y","either","7","","","","","","","0","0","1","","0.4184852842","0.8","0.2","0.4","0.6","0.2694038268","0.3827048226","0.4184852842","0.3389138503","","","","","","","","","","","75","K","2","","","91","main_expt"
"1","","bandit","170","445795","0.0-131.0-0.0","51005789","wem/bandit_either","A2MKXI4KCRRI7Y","either","7","","","","","","","1","0","0","0.3552182969","","0.8","0.2","0.4","0.6","","","","","0.2651536323","0.3552182969","0.4456808576","0.3263360165","","","","","","","74","J","1","","","92","main_expt"
"60","","bandit","171","447360","0.0-132.0-0.0","51005789","wem/bandit_either","A2MKXI4KCRRI7Y","either","7","","","","","","","0","1","0","","0.3286897504","0.8","0.2","0.4","0.6","0.1997208586","0.3286897504","0.4355219805","0.2844131911","","","","","","","","","","","74","J","1","","","93","main_expt"
"144","","bandit","172","449012","0.0-133.0-0.0","51005789","wem/bandit_either","A2MKXI4KCRRI7Y","either","7","","","","","","","0","1","0","","0.3422490236","0.8","0.2","0.4","0.6","0.2442555344","0.3422490236","0.4609821192","0.2978465223","","","","","","","","","","","74","J","1","","","94","main_expt"
"79","","bandit","173","450597","0.0-134.0-0.0","51005789","wem/bandit_either","A2MKXI4KCRRI7Y","either","7","","","","","","","0","1","0","","0.3160161054","0.8","0.2","0.4","0.6","0.2638839348","0.3160161054","0.4419374505","0.2638723705","","","","","","","","","","","74","J","1","","","95","main_expt"
"54","","bandit","174","452160","0.0-135.0-0.0","51005789","wem/bandit_either","A2MKXI4KCRRI7Y","either","7","","","","","","","0","0","1","","0.2945538732","0.8","0.2","0.4","0.6","0.2265245807","0.2945538732","0.39438674","0.2276010735","","","","","","","","","","","74","J","1","","","96","main_expt"
"44","","bandit","175","453710","0.0-136.0-0.0","51005789","wem/bandit_either","A2MKXI4KCRRI7Y","either","7","","","","","","","0","0","1","","0.393563827","0.8","0.2","0.4","0.6","0.1969189177","0.393563827","0.3617668419","0.2045446072","","","","","","","","","","","74","J","1","","","97","main_expt"
"122","","bandit","176","455340","0.0-137.0-0.0","51005789","wem/bandit_either","A2MKXI4KCRRI7Y","either","7","","","","","","","0","0","1","","0.2436418828","0.8","0.2","0.4","0.6","0.1761144245","0.4046254927","0.3737913853","0.2436418828","","","","","","","","","","","76","L","3","","","98","main_expt"
"367","","bandit","177","457215","0.0-138.0-0.0","51005789","wem/bandit_either","A2MKXI4KCRRI7Y","either","7","","","","","","","0","0","1","","0.3659012549","0.8","0.2","0.4","0.6","0.1211630765","0.3659012549","0.4221129479","0.2473144087","","","","","","","","","","","74","J","1","","","99","main_expt"
"85","","bandit","178","458807","0.0-139.0-0.0","51005789","wem/bandit_either","A2MKXI4KCRRI7Y","either","7","","","","","","","0","0","1","","0.1257326749","0.8","0.2","0.4","0.6","0.1257326749","0.400368336","0.3857893684","0.2707360286","","","","","","","","","","","72","H","0","img/none_selected.jpg","","100","main_expt"
"218","","bandit","179","460532","0.0-140.0-0.0","51005789","wem/bandit_either","A2MKXI4KCRRI7Y","either","7","","","","","","","0","0","1","","0.3635527264","0.8","0.2","0.4","0.6","0.09975532208","0.4367931528","0.3635527264","0.3250409822","","","","","","","","","","","75","K","2","","","101","main_expt"
"15","","bandit","180","462053","0.0-141.0-0.0","51005789","wem/bandit_either","A2MKXI4KCRRI7Y","either","7","","","","","","","1","0","0","0.3088580598","","0.8","0.2","0.4","0.6","","","","","0.1127414424","0.4371155326","0.3738375489","0.3088580598","","","","","","","76","L","3","","","102","main_expt"
"870","","bandit","181","464430","0.0-142.0-0.0","51005789","wem/bandit_either","A2MKXI4KCRRI7Y","either","7","","","","","","","0","0","1","0.2901001995","","0.8","0.2","0.4","0.6","","","","","0.1232600734","0.388648264","0.3860163181","0.2901001995","","","","","","","76","L","3","","","103","main_expt"
"313","","bandit","182","466250","0.0-143.0-0.0","51005789","wem/bandit_either","A2MKXI4KCRRI7Y","either","7","","","","","","","1","0","0","0.390692362","","0.8","0.2","0.4","0.6","","","","","0.08156843846","0.3718469433","0.390692362","0.309645936","","","","","","","75","K","2","","","104","main_expt"
"120","","bandit","183","467877","0.0-144.0-0.0","51005789","wem/bandit_either","A2MKXI4KCRRI7Y","either","7","","","","","","","0","0","1","0.4139082553","","0.8","0.2","0.4","0.6","","","","","0.08245659199","0.3920304628","0.4139082553","0.3386062745","","","","","","","75","K","2","","","105","main_expt"
"324","","bandit","184","469707","0.0-145.0-0.0","51005789","wem/bandit_either","A2MKXI4KCRRI7Y","either","7","","","","","","","0","0","1","","0.3733497125","0.8","0.2","0.4","0.6","0.1276639339","0.3733497125","0.3295275825","0.3827539061","","","","","","","","","","","74","J","1","","","106","main_expt"
"53","","bandit","185","471268","0.0-146.0-0.0","51005789","wem/bandit_either","A2MKXI4KCRRI7Y","either","7","","","","","","","0","0","1","0.1812689745","","0.8","0.2","0.4","0.6","","","","","0.1812689745","0.3878439861","0.3499712774","0.3401355396","","","","","","","72","H","0","img/none_selected.jpg","","107","main_expt"
"451","","bandit","186","473225","0.0-147.0-0.0","51005789","wem/bandit_either","A2MKXI4KCRRI7Y","either","7","","","","","","","0","0","1","0.3258039352","","0.8","0.2","0.4","0.6","","","","","0.2187982558","0.3529013302","0.2666891207","0.3258039352","","","","","","","76","L","3","","","108","main_expt"
"108","","bandit","187","474840","0.0-148.0-0.0","51005789","wem/bandit_either","A2MKXI4KCRRI7Y","either","7","","","","","","","0","0","1","0.3457683734","","0.8","0.2","0.4","0.6","","","","","0.2201216928","0.3457683734","0.2575067634","0.374919859","","","","","","","74","J","1","","","109","main_expt"
"236","","bandit","188","476584","0.0-149.0-0.0","51005789","wem/bandit_either","A2MKXI4KCRRI7Y","either","7","","","","","","","0","0","1","","0.2664913793","0.8","0.2","0.4","0.6","0.1789817232","0.3316873257","0.2664913793","0.3656186065","","","","","","","","","","","75","K","2","","","110","main_expt"
"43","","bandit","189","478135","0.0-150.0-0.0","51005789","wem/bandit_either","A2MKXI4KCRRI7Y","either","7","","","","","","","1","0","0","0.3649701027","","0.8","0.2","0.4","0.6","","","","","0.2404947452","0.3434945318","0.2233446911","0.3649701027","","","","","","","76","L","3","","","111","main_expt"
"276","","bandit","190","479917","0.0-151.0-0.0","51005789","wem/bandit_either","A2MKXI4KCRRI7Y","either","7","","","","","","","1","0","0","0.3371716456","","0.8","0.2","0.4","0.6","","","","","0.2959558532","0.2729480053","0.2170082082","0.3371716456","","","","","","","76","L","3","","","112","main_expt"
"165","","bandit","191","481589","0.0-152.0-0.0","51005789","wem/bandit_either","A2MKXI4KCRRI7Y","either","7","","","","","","","0","0","1","0.2587224119","","0.8","0.2","0.4","0.6","","","","","0.2966985553","0.2579672073","0.1912277411","0.2587224119","","","","","","","76","L","3","","","113","main_expt"
"75","","bandit","192","483171","0.0-153.0-0.0","51005789","wem/bandit_either","A2MKXI4KCRRI7Y","either","7","","","","","","","0","0","1","0.2384324947","","0.8","0.2","0.4","0.6","","","","","0.3289730608","0.24654084","0.1691995451","0.2384324947","","","","","","","76","L","3","","","114","main_expt"
"177","","bandit","193","484857","0.0-154.0-0.0","51005789","wem/bandit_either","A2MKXI4KCRRI7Y","either","7","","","","","","","0","0","1","","0.2705755989","0.8","0.2","0.4","0.6","0.2783705844","0.246649757","0.1263730162","0.2705755989","","","","","","","","","","","76","L","3","","","115","main_expt"
"47","","bandit","194","486413","0.0-155.0-0.0","51005789","wem/bandit_either","A2MKXI4KCRRI7Y","either","7","","","","","","","0","0","1","","0.2190482835","0.8","0.2","0.4","0.6","0.2990421824","0.2190482835","0.1130092975","0.2666822","","","","","","","","","","","74","J","1","","","116","main_expt"
"396","","bandit","195","488317","0.0-156.0-0.0","51005789","wem/bandit_either","A2MKXI4KCRRI7Y","either","7","","","","","","","0","0","1","0.1317362661","","0.8","0.2","0.4","0.6","","","","","0.3214730448","0.1860086181","0.1317362661","0.2664749026","","","","","","","75","K","2","","","117","main_expt"
"105","","bandit","196","489930","0.0-157.0-0.0","51005789","wem/bandit_either","A2MKXI4KCRRI7Y","either","7","","","","","","","0","0","1","0.1765749983","","0.8","0.2","0.4","0.6","","","","","0.3996160597","0.1765749983","0.08460291254","0.285497096","","","","","","","74","J","1","","","118","main_expt"
"121","","bandit","197","491559","0.0-158.0-0.0","51005789","wem/bandit_either","A2MKXI4KCRRI7Y","either","7","","","","","","","0","1","0","","0.4143362638","0.8","0.2","0.4","0.6","0.4143362638","0.1840588368","0.09168363065","0.3004427434","","","","","","","","","","","72","H","0","img/none_selected.jpg","","119","main_expt"
"78","","bandit","198","493144","0.0-159.0-0.0","51005789","wem/bandit_either","A2MKXI4KCRRI7Y","either","7","","","","","","","0","0","1","0.372340151","","0.8","0.2","0.4","0.6","","","","","0.372340151","0.1988357929","0.06729372802","0.2419855731","","","","","","","72","H","0","img/none_selected.jpg","","120","main_expt"
"378","","bandit","199","495029","0.0-160.0-0.0","51005789","wem/bandit_either","A2MKXI4KCRRI7Y","either","7","","","","","","","0","0","1","0.3910424524","","0.8","0.2","0.4","0.6","","","","","0.3910424524","0.2315674","0.08346408207","0.3054132847","","","","","","","72","H","0","img/none_selected.jpg","","121","main_expt"
"350","","bandit","200","496887","0.0-161.0-0.0","51005789","wem/bandit_either","A2MKXI4KCRRI7Y","either","7","","","","","","","0","0","1","0.2041322171","","0.8","0.2","0.4","0.6","","","","","0.3813410711","0.2041322171","0.05632743158","0.2473202095","","","","","","","74","J","1","","","122","main_expt"
"370","","bandit","201","498763","0.0-162.0-0.0","51005789","wem/bandit_either","A2MKXI4KCRRI7Y","either","7","","","","","","","1","0","0","0.2909195989","","0.8","0.2","0.4","0.6","","","","","0.4247291795","0.1945268209","0.05516745574","0.2909195989","","","","","","","76","L","3","","","123","main_expt"
"100","","bandit","202","500368","0.0-163.0-0.0","51005789","wem/bandit_either","A2MKXI4KCRRI7Y","either","7","","","","","","","0","0","1","","0.3493750294","0.8","0.2","0.4","0.6","0.4311179713","0.2206749142","0.05528311039","0.3493750294","","","","","","","","","","","76","L","3","","","124","main_expt"
"230","","bandit","203","502105","0.0-164.0-0.0","51005789","wem/bandit_either","A2MKXI4KCRRI7Y","either","7","","","","","","","1","0","0","0.3883668019","","0.8","0.2","0.4","0.6","","","","","0.4085782939","0.212012295","0.07149807259","0.3883668019","","","","","","","76","L","3","","","125","main_expt"
"164","","bandit","204","503779","0.0-165.0-0.0","51005789","wem/bandit_either","A2MKXI4KCRRI7Y","either","7","","","","","","","0","1","0","","0.3888129637","0.8","0.2","0.4","0.6","0.4110861309","0.1656684785","0.1137803622","0.3888129637","","","","","","","","","","","76","L","3","","","126","main_expt"
"92","","bandit","205","505378","0.0-166.0-0.0","51005789","wem/bandit_either","A2MKXI4KCRRI7Y","either","7","","","","","","","0","1","0","","0.3659195129","0.8","0.2","0.4","0.6","0.4214671818","0.1685301808","0.1003054442","0.3659195129","","","","","","","","","","","76","L","3","","","127","main_expt"
"94","","bandit","206","506979","0.0-167.0-0.0","51005789","wem/bandit_either","A2MKXI4KCRRI7Y","either","7","","","","","","","1","0","0","0.3689954399","","0.8","0.2","0.4","0.6","","","","","0.36889317","0.1703551811","0.1378169536","0.3689954399","","","","","","","76","L","3","","","128","main_expt"
"275","","bandit","207","508761","0.0-168.0-0.0","51005789","wem/bandit_either","A2MKXI4KCRRI7Y","either","7","","","","","","","0","1","0","","0.3600340942","0.8","0.2","0.4","0.6","0.3840267129","0.1624753709","0.1333081235","0.3600340942","","","","","","","","","","","76","L","3","","","129","main_expt"
"106","","bandit","208","510374","0.0-169.0-0.0","51005789","wem/bandit_either","A2MKXI4KCRRI7Y","either","7","","","","","","","0","0","1","","0.3580797835","0.8","0.2","0.4","0.6","0.3809677701","0.2335662737","0.1682212827","0.3580797835","","","","","","","","","","","76","L","3","","","130","main_expt"
"70","","bandit","209","511952","0.0-170.0-0.0","51005789","wem/bandit_either","A2MKXI4KCRRI7Y","either","7","","","","","","","0","1","0","","0.240441026","0.8","0.2","0.4","0.6","0.3681933818","0.240441026","0.2193829955","0.3785893338","","","","","","","","","","","74","J","1","","","131","main_expt"
"59","","bandit","210","513520","0.0-171.0-0.0","51005789","wem/bandit_either","A2MKXI4KCRRI7Y","either","7","","","","","","","0","0","1","","0.2266699971","0.8","0.2","0.4","0.6","0.3664045944","0.2266699971","0.2693349046","0.3764735404","","","","","","","","","","","74","J","1","","","132","main_expt"
"33","","bandit","211","515061","0.0-172.0-0.0","51005789","wem/bandit_either","A2MKXI4KCRRI7Y","either","7","","","","","","","0","0","1","","0.2576546077","0.8","0.2","0.4","0.6","0.4046437197","0.1994193025","0.2576546077","0.3433534211","","","","","","","","","","","75","K","2","","","133","main_expt"
"244","","bandit","212","516810","0.0-173.0-0.0","51005789","wem/bandit_either","A2MKXI4KCRRI7Y","either","7","","","","","","","0","0","1","","0.1891464922","0.8","0.2","0.4","0.6","0.364490756","0.1891464922","0.2412372273","0.3606247271","","","","","","","","","","","74","J","1","","","134","main_expt"
"131","","bandit","213","518451","0.0-174.0-0.0","51005789","wem/bandit_either","A2MKXI4KCRRI7Y","either","7","","","","","","","0","0","1","0.3268624306","","0.8","0.2","0.4","0.6","","","","","0.311914316","0.1614798668","0.2198641054","0.3268624306","","","","","","","76","L","3","","","135","main_expt"
"368","","bandit","214","520328","0.0-175.0-0.0","51005789","wem/bandit_either","A2MKXI4KCRRI7Y","either","7","","","","","","","0","0","1","","0.1880386222","0.8","0.2","0.4","0.6","0.2653901568","0.1880386222","0.2504132697","0.2854606769","","","","","","","","","","","74","J","1","","","136","main_expt"
"336","","bandit","215","522172","0.0-176.0-0.0","51005789","wem/bandit_either","A2MKXI4KCRRI7Y","either","7","","","","","","","0","0","1","0.2413295316","","0.8","0.2","0.4","0.6","","","","","0.2413295316","0.1961818793","0.1912230989","0.3311747399","","","","","","","72","H","0","img/none_selected.jpg","","137","main_expt"
"193","","bandit","216","523871","0.0-177.0-0.0","51005789","wem/bandit_either","A2MKXI4KCRRI7Y","either","7","","","","","","","0","0","1","","0.1576256809","0.8","0.2","0.4","0.6","0.2060295423","0.2857678963","0.1576256809","0.2570785188","","","","","","","","","","","75","K","2","","","138","main_expt"
"183","","bandit","217","525561","0.0-178.0-0.0","51005789","wem/bandit_either","A2MKXI4KCRRI7Y","either","7","","","","","","","0","0","1","0.1019788138","","0.8","0.2","0.4","0.6","","","","","0.1809645164","0.3449131854","0.1019788138","0.2858060749","","","","","","","75","K","2","","","139","main_expt"
"119","","bandit","218","527189","0.0-179.0-0.0","51005789","wem/bandit_either","A2MKXI4KCRRI7Y","either","7","","","","","","","0","0","1","","0.2975559752","0.8","0.2","0.4","0.6","0.1843216893","0.2537716732","0.07754087054","0.2975559752","","","","","","","","","","","76","L","3","","","140","main_expt"
"171","","bandit","219","528867","0.0-180.0-0.0","51005789","wem/bandit_either","A2MKXI4KCRRI7Y","either","7","","","","","","","0","0","1","0.1651876155","","0.8","0.2","0.4","0.6","","","","","0.1651876155","0.2858111263","0.09489610577","0.2802168405","","","","","","","72","H","0","img/none_selected.jpg","","141","main_expt"
"151","","bandit","220","530525","0.0-181.0-0.0","51005789","wem/bandit_either","A2MKXI4KCRRI7Y","either","7","","","","","","","0","1","0","","0.303049367","0.8","0.2","0.4","0.6","0.1536427928","0.303049367","0.09601428546","0.2231986748","","","","","","","","","","","74","J","1","","","142","main_expt"
"807","","bandit","221","532839","0.0-182.0-0.0","51005789","wem/bandit_either","A2MKXI4KCRRI7Y","either","7","","","","","","","0","0","1","","0.2969419413","0.8","0.2","0.4","0.6","0.1546140226","0.2969419413","0.08301142993","0.2032880393","","","","","","","","","","","74","J","1","","","143","main_expt"
"171","","bandit","222","534518","0.0-183.0-0.0","51005789","wem/bandit_either","A2MKXI4KCRRI7Y","either","7","","","","","","","0","1","0","","0.3128690494","0.8","0.2","0.4","0.6","0.1746031107","0.3128690494","0.09599686985","0.1967741464","","","","","","","","","","","74","J","1","","","144","main_expt"
"116","","bandit","223","536142","0.0-184.0-0.0","51005789","wem/bandit_either","A2MKXI4KCRRI7Y","either","7","","","","","","","0","0","1","","0.2991796355","0.8","0.2","0.4","0.6","0.2021387556","0.2991796355","0.07499383622","0.2283154954","","","","","","","","","","","74","J","1","","","145","main_expt"
"228","","bandit","224","537878","0.0-185.0-0.0","51005789","wem/bandit_either","A2MKXI4KCRRI7Y","either","7","","","","","","","1","0","0","0.3163763193","","0.8","0.2","0.4","0.6","","","","","0.2504344391","0.3163763193","0.09566861","0.2118700154","","","","","","","74","J","1","","","146","main_expt"
"195","","bandit","225","539581","0.0-186.0-0.0","51005789","wem/bandit_either","A2MKXI4KCRRI7Y","either","7","","","","","","","0","0","1","","0.3198025905","0.8","0.2","0.4","0.6","0.2437718569","0.3198025905","0.08578591382","0.210437557","","","","","","","","","","","74","J","1","","","147","main_expt"
"29","","bandit","226","541117","0.0-187.0-0.0","51005789","wem/bandit_either","A2MKXI4KCRRI7Y","either","7","","","","","","","1","0","0","0.2370661354","","0.8","0.2","0.4","0.6","","","","","0.2446677265","0.2588245921","0.1147887709","0.2370661354","","","","","","","76","L","3","","","148","main_expt"
"231","","bandit","227","542855","0.0-188.0-0.0","51005789","wem/bandit_either","A2MKXI4KCRRI7Y","either","7","","","","","","","1","0","0","0.2430363771","","0.8","0.2","0.4","0.6","","","","","0.2911002833","0.248712437","0.1378203382","0.2430363771","","","","","","","76","L","3","","","149","main_expt"
"85","","bandit","228","544449","0.0-189.0-0.0","51005789","wem/bandit_either","A2MKXI4KCRRI7Y","either","7","","","","","","","0","0","1","0.2242182381","","0.8","0.2","0.4","0.6","","","","","0.3529655025","0.179144869","0.1414499273","0.2242182381","","","","","","","76","L","3","","","150","main_expt"
"104","","bandit","229","546061","0.0-190.0-0.0","51005789","wem/bandit_either","A2MKXI4KCRRI7Y","either","7","","","","","","","0","0","1","0.1545669956","","0.8","0.2","0.4","0.6","","","","","0.3885741111","0.1545669956","0.07852348772","0.1997145133","","","","","","","74","J","1","","","151","main_expt"
"215","","bandit","230","547783","0.0-191.0-0.0","51005789","wem/bandit_either","A2MKXI4KCRRI7Y","either","7","","","","","","","0","0","1","0.2195927633","","0.8","0.2","0.4","0.6","","","","","0.3690499696","0.1651714415","0.08485793113","0.2195927633","","","","","","","76","L","3","","","152","main_expt"
"369","","bandit","231","549659","0.0-192.0-0.0","51005789","wem/bandit_either","A2MKXI4KCRRI7Y","either","7","","","","","","","0","0","1","","0.2396245514","0.8","0.2","0.4","0.6","0.3710492515","0.2396245514","0.1083789561","0.2121816628","","","","","","","","","","","74","J","1","","","153","main_expt"
"199","","bandit","232","551366","0.0-193.0-0.0","51005789","wem/bandit_either","A2MKXI4KCRRI7Y","either","7","","","","","","","0","0","1","","0.109098481","0.8","0.2","0.4","0.6","0.3483335413","0.2085838567","0.109098481","0.1830588608","","","","","","","","","","","75","K","2","","","154","main_expt"
"92","","bandit","233","552967","0.0-194.0-0.0","51005789","wem/bandit_either","A2MKXI4KCRRI7Y","either","7","","","","","","","1","0","0","0.3343760247","","0.8","0.2","0.4","0.6","","","","","0.3343760247","0.1864274254","0.1758262092","0.2031423662","","","","","","","72","H","0","img/none_selected.jpg","","155","main_expt"
"73","","bandit","234","554547","0.0-195.0-0.0","51005789","wem/bandit_either","A2MKXI4KCRRI7Y","either","7","","","","","","","0","0","1","0.3742013553","","0.8","0.2","0.4","0.6","","","","","0.3742013553","0.1750870897","0.2046597001","0.2022731065","","","","","","","72","H","0","img/none_selected.jpg","","156","main_expt"
"207","","bandit","235","556263","0.0-196.0-0.0","51005789","wem/bandit_either","A2MKXI4KCRRI7Y","either","7","","","","","","","0","0","1","","0.1321985386","0.8","0.2","0.4","0.6","0.3620366094","0.1321985386","0.1774751899","0.1826661219","","","","","","","","","","","74","J","1","","","157","main_expt"
"53","","bandit","236","557823","0.0-197.0-0.0","51005789","wem/bandit_either","A2MKXI4KCRRI7Y","either","7","","","","","","","0","0","1","0.1658993888","","0.8","0.2","0.4","0.6","","","","","0.3671714071","0.1341899746","0.1612033886","0.1658993888","","","","","","","76","L","3","","","158","main_expt"
"97","","bandit","237","559428","0.0-198.0-0.0","51005789","wem/bandit_either","A2MKXI4KCRRI7Y","either","7","","","","","","","0","0","1","0.4015988616","","0.8","0.2","0.4","0.6","","","","","0.4015988616","0.1567784951","0.1586838935","0.1620079643","","","","","","","72","H","0","img/none_selected.jpg","","159","main_expt"
"107","","bandit","238","561044","0.0-199.0-0.0","51005789","wem/bandit_either","A2MKXI4KCRRI7Y","either","7","","","","","","","0","0","1","","0.1615549635","0.8","0.2","0.4","0.6","0.4004877553","0.1615549635","0.2159944071","0.2453635642","","","","","","","","","","","74","J","1","","","160","main_expt"
"230","","bandit","239","562781","0.0-200.0-0.0","51005789","wem/bandit_either","A2MKXI4KCRRI7Y","either","7","","","","","","","0","0","1","","0.2105769377","0.8","0.2","0.4","0.6","0.4095849454","0.1854631015","0.2105769377","0.2456373749","","","","","","","","","","","75","K","2","","","161","main_expt"
"25","","bandit","240","564315","0.0-201.0-0.0","51005789","wem/bandit_either","A2MKXI4KCRRI7Y","either","7","","","","","","","0","0","1","","0.2460125232","0.8","0.2","0.4","0.6","0.3978002783","0.21229469","0.2006925765","0.2460125232","","","","","","","","","","","76","L","3","","","162","main_expt"
"127","","bandit","241","565950","0.0-202.0-0.0","51005789","wem/bandit_either","A2MKXI4KCRRI7Y","either","7","","","","","","","0","0","1","0.162194177","","0.8","0.2","0.4","0.6","","","","","0.4180552148","0.162194177","0.2365124807","0.2013568893","","","","","","","74","J","1","","","163","main_expt"
"223","","bandit","242","567682","0.0-203.0-0.0","51005789","wem/bandit_either","A2MKXI4KCRRI7Y","either","7","","","","","","","1","0","0","0.4407560021","","0.8","0.2","0.4","0.6","","","","","0.4407560021","0.1535707797","0.2157370886","0.1933595846","","","","","","","72","H","0","img/none_selected.jpg","","164","main_expt"
"72","","bandit","243","569262","0.0-204.0-0.0","51005789","wem/bandit_either","A2MKXI4KCRRI7Y","either","7","","","","","","","1","0","0","0.4582960521","","0.8","0.2","0.4","0.6","","","","","0.4582960521","0.2315934193","0.2166787898","0.167552211","","","","","","","72","H","0","img/none_selected.jpg","","165","main_expt"
"87","","bandit","244","570858","0.0-205.0-0.0","51005789","wem/bandit_either","A2MKXI4KCRRI7Y","either","7","","","","","","","0","0","1","0.4337500892","","0.8","0.2","0.4","0.6","","","","","0.4337500892","0.2579087381","0.1846262972","0.1311237951","","","","","","","72","H","0","img/none_selected.jpg","","166","main_expt"
"300","","bandit","245","572666","0.0-206.0-0.0","51005789","wem/bandit_either","A2MKXI4KCRRI7Y","either","7","","","","","","","0","0","1","","0.2496457694","0.8","0.2","0.4","0.6","0.4537582576","0.2496457694","0.1888750078","0.1714029316","","","","","","","","","","","74","J","1","","","167","main_expt"
"1","","bandit","246","574174","0.0-207.0-0.0","51005789","wem/bandit_either","A2MKXI4KCRRI7Y","either","7","","","","","","","1","0","0","0.4473485534","","0.8","0.2","0.4","0.6","","","","","0.4473485534","0.234558796","0.2315683769","0.1494402723","","","","","","","72","H","0","img/none_selected.jpg","","168","main_expt"
"201","","bandit","247","575885","0.0-208.0-0.0","51005789","wem/bandit_either","A2MKXI4KCRRI7Y","either","7","","","","","","","1","0","0","0.4471591033","","0.8","0.2","0.4","0.6","","","","","0.4471591033","0.2458600006","0.2018123945","0.1819888556","","","","","","","72","H","0","img/none_selected.jpg","","169","main_expt"
"175","","bandit","248","577568","0.0-209.0-0.0","51005789","wem/bandit_either","A2MKXI4KCRRI7Y","either","7","","","","","","","0","0","1","0.4581839475","","0.8","0.2","0.4","0.6","","","","","0.4581839475","0.2214583157","0.139238222","0.2329206984","","","","","","","72","H","0","img/none_selected.jpg","","170","main_expt"
"66","","bandit","249","579142","0.0-210.0-0.0","51005789","wem/bandit_either","A2MKXI4KCRRI7Y","either","7","","","","","","","0","1","0","","0.4674995421","0.8","0.2","0.4","0.6","0.4674995421","0.296208115","0.1466511374","0.2000607923","","","","","","","","","","","72","H","0","img/none_selected.jpg","","171","main_expt"
"457","","bandit","250","581108","0.0-211.0-0.0","51005789","wem/bandit_either","A2MKXI4KCRRI7Y","either","7","","","","","","","1","0","0","0.4455620345","","0.8","0.2","0.4","0.6","","","","","0.4455620345","0.3062379281","0.1348290388","0.2342957318","","","","","","","72","H","0","img/none_selected.jpg","","172","main_expt"
"58","","bandit","251","582673","0.0-212.0-0.0","51005789","wem/bandit_either","A2MKXI4KCRRI7Y","either","7","","","","","","","0","0","1","0.4471610379","","0.8","0.2","0.4","0.6","","","","","0.4471610379","0.2498067723","0.1521691919","0.2189308077","","","","","","","72","H","0","img/none_selected.jpg","","173","main_expt"
"29","","bandit","252","584209","0.0-213.0-0.0","51005789","wem/bandit_either","A2MKXI4KCRRI7Y","either","7","","","","","","","0","0","1","0.4496576915","","0.8","0.2","0.4","0.6","","","","","0.4496576915","0.1803522277","0.2191935525","0.2373932689","","","","","","","72","H","0","img/none_selected.jpg","","174","main_expt"
"188","","bandit","253","585906","0.0-214.0-0.0","51005789","wem/bandit_either","A2MKXI4KCRRI7Y","either","7","","","","","","","0","0","1","","0.4715297358","0.8","0.2","0.4","0.6","0.4715297358","0.2014319342","0.219961305","0.2160264752","","","","","","","","","","","72","H","0","img/none_selected.jpg","","175","main_expt"
"140","","bandit","254","587555","0.0-215.0-0.0","51005789","wem/bandit_either","A2MKXI4KCRRI7Y","either","7","","","","","","","0","0","1","","0.2122003168","0.8","0.2","0.4","0.6","0.477956151","0.2122003168","0.1882485239","0.1990604306","","","","","","","","","","","74","J","1","","","176","main_expt"
"90","","bandit","255","589155","0.0-216.0-0.0","51005789","wem/bandit_either","A2MKXI4KCRRI7Y","either","7","","","","","","","0","0","1","","0.1729978196","0.8","0.2","0.4","0.6","0.4563721206","0.2629069455","0.1644902553","0.1729978196","","","","","","","","","","","76","L","3","","","177","main_expt"
"79","","bandit","256","590746","0.0-217.0-0.0","51005789","wem/bandit_either","A2MKXI4KCRRI7Y","either","7","","","","","","","0","0","1","0.4409869931","","0.8","0.2","0.4","0.6","","","","","0.4409869931","0.2336104206","0.1713669852","0.1633080779","","","","","","","72","H","0","img/none_selected.jpg","","178","main_expt"
"69","","bandit","257","592324","0.0-218.0-0.0","51005789","wem/bandit_either","A2MKXI4KCRRI7Y","either","7","","","","","","","0","0","1","","0.1887504226","0.8","0.2","0.4","0.6","0.4243126063","0.1887504226","0.2263400462","0.1243251356","","","","","","","","","","","74","J","1","","","179","main_expt"
"236","","bandit","258","594072","0.0-219.0-0.0","51005789","wem/bandit_either","A2MKXI4KCRRI7Y","either","7","","","","","","","0","0","1","0.2036870175","","0.8","0.2","0.4","0.6","","","","","0.4312830743","0.138376641","0.2036870175","0.1150149055","","","","","","","75","K","2","","","180","main_expt"
"89","","bandit","259","595669","0.0-220.0-0.0","51005789","wem/bandit_either","A2MKXI4KCRRI7Y","either","7","","","","","","","0","0","1","0.1407924877","","0.8","0.2","0.4","0.6","","","","","0.4433127893","0.1883992559","0.1934599198","0.1407924877","","","","","","","76","L","3","","","181","main_expt"
"49","","bandit","260","597226","0.0-221.0-0.0","51005789","wem/bandit_either","A2MKXI4KCRRI7Y","either","7","","","","","","","1","0","0","0.440136403","","0.8","0.2","0.4","0.6","","","","","0.440136403","0.128889003","0.2424515525","0.09672650852","","","","","","","72","H","0","img/none_selected.jpg","","182","main_expt"
"131","","bandit","261","598866","0.0-222.0-0.0","51005789","wem/bandit_either","A2MKXI4KCRRI7Y","either","7","","","","","","","0","0","1","0.4347693449","","0.8","0.2","0.4","0.6","","","","","0.4347693449","0.1748769843","0.1961777535","0.09888002855","","","","","","","72","H","0","img/none_selected.jpg","","183","main_expt"
"90","","bandit","262","600464","0.0-223.0-0.0","51005789","wem/bandit_either","A2MKXI4KCRRI7Y","either","7","","","","","","","0","0","1","0.1945994373","","0.8","0.2","0.4","0.6","","","","","0.4277130926","0.1945994373","0.1489283113","0.07200145298","","","","","","","74","J","1","","","184","main_expt"
"401","","bandit","263","602374","0.0-224.0-0.0","51005789","wem/bandit_either","A2MKXI4KCRRI7Y","either","7","","","","","","","0","0","1","0.1499965078","","0.8","0.2","0.4","0.6","","","","","0.3956248437","0.1644748654","0.1499965078","0.09476413333","","","","","","","75","K","2","","","185","main_expt"
"223","","bandit","264","604107","0.0-225.0-0.0","51005789","wem/bandit_either","A2MKXI4KCRRI7Y","either","7","","","","","","","0","0","1","","0.06556422103","0.8","0.2","0.4","0.6","0.3748928266","0.1504635592","0.2169832988","0.06556422103","","","","","","","","","","","76","L","3","","","186","main_expt"
"185","","bandit","265","605801","0.0-226.0-0.0","51005789","wem/bandit_either","A2MKXI4KCRRI7Y","either","7","","","","","","","1","0","0","0.3848139325","","0.8","0.2","0.4","0.6","","","","","0.3848139325","0.1760039214","0.2655186329","0.08901149072","","","","","","","72","H","0","img/none_selected.jpg","","187","main_expt"
"42","","bandit","266","607352","0.0-227.0-0.0","51005789","wem/bandit_either","A2MKXI4KCRRI7Y","either","7","","","","","","","0","1","0","","0.3990176401","0.8","0.2","0.4","0.6","0.3990176401","0.1203267588","0.2738785118","0.09471428588","","","","","","","","","","","72","H","0","img/none_selected.jpg","","188","main_expt"
"198","","bandit","267","609060","0.0-228.0-0.0","51005789","wem/bandit_either","A2MKXI4KCRRI7Y","either","7","","","","","","","0","0","1","0.3581396838","","0.8","0.2","0.4","0.6","","","","","0.3581396838","0.1171540391","0.3041874674","0.05118235823","","","","","","","72","H","0","img/none_selected.jpg","","189","main_expt"
"226","","bandit","268","610794","0.0-229.0-0.0","51005789","wem/bandit_either","A2MKXI4KCRRI7Y","either","7","","","","","","","0","0","1","0.2882972244","","0.8","0.2","0.4","0.6","","","","","0.2882972244","0.1535230761","0.3229453735","0.05788318751","","","","","","","72","H","0","img/none_selected.jpg","","190","main_expt"
"73","","bandit","269","612374","0.0-230.0-0.0","51005789","wem/bandit_either","A2MKXI4KCRRI7Y","either","7","","","","","","","0","0","1","","0.3818249757","0.8","0.2","0.4","0.6","0.3145326233","0.1372750947","0.3818249757","0.08736915481","","","","","","","","","","","75","K","2","","","191","main_expt"
"0","","bandit","270","613882","0.0-231.0-0.0","51005789","wem/bandit_either","A2MKXI4KCRRI7Y","either","7","","","","","","","0","0","1","0.08251019118","","0.8","0.2","0.4","0.6","","","","","0.3270603702","0.1047771501","0.4157726243","0.08251019118","","","","","","","76","L","3","","","192","main_expt"
"220","","bandit","271","615612","0.0-232.0-0.0","51005789","wem/bandit_either","A2MKXI4KCRRI7Y","either","7","","","","","","","0","0","1","","0.1100845432","0.8","0.2","0.4","0.6","0.3604030797","0.1100845432","0.4611608212","0.06897628064","","","","","","","","","","","74","J","1","","","193","main_expt"
"185","","bandit","272","617306","0.0-233.0-0.0","51005789","wem/bandit_either","A2MKXI4KCRRI7Y","either","7","","","","","","","0","0","1","0.357423186","","0.8","0.2","0.4","0.6","","","","","0.357423186","0.1468163818","0.4508818777","0.06801266305","","","","","","","72","H","0","img/none_selected.jpg","","194","main_expt"
"259","","bandit","273","619075","0.0-234.0-0.0","51005789","wem/bandit_either","A2MKXI4KCRRI7Y","either","7","","","","","","","1","0","0","0.3697779856","","0.8","0.2","0.4","0.6","","","","","0.3697779856","0.1495594621","0.4278921451","0.09923709358","","","","","","","72","H","0","img/none_selected.jpg","","195","main_expt"
"151","","bandit","274","620735","0.0-235.0-0.0","51005789","wem/bandit_either","A2MKXI4KCRRI7Y","either","7","","","","","","","1","0","0","0.3617177512","","0.8","0.2","0.4","0.6","","","","","0.3617177512","0.2263220537","0.4256293003","0.1103063831","","","","","","","72","H","0","img/none_selected.jpg","","196","main_expt"
"218","","bandit","275","622460","0.0-236.0-0.0","51005789","wem/bandit_either","A2MKXI4KCRRI7Y","either","7","","","","","","","0","0","1","0.3775990084","","0.8","0.2","0.4","0.6","","","","","0.3775990084","0.2204718804","0.4476975038","0.07377144043","","","","","","","72","H","0","img/none_selected.jpg","","197","main_expt"
"70","","bandit","276","624038","0.0-237.0-0.0","51005789","wem/bandit_either","A2MKXI4KCRRI7Y","either","7","","","","","","","0","0","1","","0.4144042571","0.8","0.2","0.4","0.6","0.4144042571","0.2401118457","0.4434357272","0.08863448313","","","","","","","","","","","72","H","0","img/none_selected.jpg","","198","main_expt"
"172","","bandit","277","625720","0.0-238.0-0.0","51005789","wem/bandit_either","A2MKXI4KCRRI7Y","either","7","","","","","","","0","0","1","0.4081775392","","0.8","0.2","0.4","0.6","","","","","0.4081775392","0.2673724497","0.4245114622","0.1082179128","","","","","","","72","H","0","img/none_selected.jpg","","199","main_expt"
"159","","bandit","278","627386","0.0-239.0-0.0","51005789","wem/bandit_either","A2MKXI4KCRRI7Y","either","7","","","","","","","1","0","0","0.4166156547","","0.8","0.2","0.4","0.6","","","","","0.4166156547","0.3125307902","0.4087100315","0.09350688576","","","","","","","72","H","0","img/none_selected.jpg","","200","main_expt"
"3","","bandit","279","628899","0.0-240.0-0.0","51005789","wem/bandit_either","A2MKXI4KCRRI7Y","either","7","","","","","","","1","0","0","0.4306537176","","0.8","0.2","0.4","0.6","","","","","0.4306537176","0.2914574258","0.4361521275","0.1036625099","","","","","","","72","H","0","img/none_selected.jpg","","201","main_expt"
"152","","bandit","280","630559","0.0-241.0-0.0","51005789","wem/bandit_either","A2MKXI4KCRRI7Y","either","7","","","","","","","1","0","0","0.449382563","","0.8","0.2","0.4","0.6","","","","","0.449382563","0.2550600684","0.3332596158","0.1216733889","","","","","","","72","H","0","img/none_selected.jpg","","202","main_expt"
"52","","bandit","281","632121","0.0-242.0-0.0","51005789","wem/bandit_either","A2MKXI4KCRRI7Y","either","7","","","","","","","0","0","1","0.4506576586","","0.8","0.2","0.4","0.6","","","","","0.4506576586","0.2769745997","0.3581848779","0.120655788","","","","","","","72","H","0","img/none_selected.jpg","","203","main_expt"
"154","","bandit","282","633783","0.0-243.0-0.0","51005789","wem/bandit_either","A2MKXI4KCRRI7Y","either","7","","","","","","","1","0","0","0.454839243","","0.8","0.2","0.4","0.6","","","","","0.454839243","0.2752990059","0.3597133043","0.1082970726","","","","","","","72","H","0","img/none_selected.jpg","","204","main_expt"
"210","","bandit","283","635501","0.0-244.0-0.0","51005789","wem/bandit_either","A2MKXI4KCRRI7Y","either","7","","","","","","","1","0","0","0.4512889682","","0.8","0.2","0.4","0.6","","","","","0.4512889682","0.2901512169","0.3630183988","0.09143681274","","","","","","","72","H","0","img/none_selected.jpg","","205","main_expt"
"175","","bandit","284","637186","0.0-245.0-0.0","51005789","wem/bandit_either","A2MKXI4KCRRI7Y","either","7","","","","","","","0","0","1","0.4591490044","","0.8","0.2","0.4","0.6","","","","","0.4591490044","0.2823763913","0.3737494834","0.08377413986","","","","","","","72","H","0","img/none_selected.jpg","","206","main_expt"
"92","","bandit","285","638787","0.0-246.0-0.0","51005789","wem/bandit_either","A2MKXI4KCRRI7Y","either","7","","","","","","","0","1","0","","0.2708062506","0.8","0.2","0.4","0.6","0.4650593633","0.2708062506","0.3668784438","0.1585073664","","","","","","","","","","","74","J","1","","","207","main_expt"
"436","","bandit","286","640732","0.0-247.0-0.0","51005789","wem/bandit_either","A2MKXI4KCRRI7Y","either","7","","","","","","","0","0","1","","0.2641553663","0.8","0.2","0.4","0.6","0.4641513068","0.2641553663","0.4045351895","0.162299901","","","","","","","","","","","74","J","1","","","208","main_expt"
"226","","bandit","287","642467","0.0-248.0-0.0","51005789","wem/bandit_either","A2MKXI4KCRRI7Y","either","7","","","","","","","1","0","0","0.4567807332","","0.8","0.2","0.4","0.6","","","","","0.4567807332","0.2704675845","0.4402386934","0.1542266077","","","","","","","72","H","0","img/none_selected.jpg","","209","main_expt"
"96","","bandit","288","644073","0.0-249.0-0.0","51005789","wem/bandit_either","A2MKXI4KCRRI7Y","either","7","","","","","","","0","0","1","0.428253188","","0.8","0.2","0.4","0.6","","","","","0.428253188","0.3420868926","0.4483623408","0.1890415559","","","","","","","72","H","0","img/none_selected.jpg","","210","main_expt"
"37","","bandit","289","645618","0.0-250.0-0.0","51005789","wem/bandit_either","A2MKXI4KCRRI7Y","either","7","","","","","","","0","0","1","","0.3069688952","0.8","0.2","0.4","0.6","0.410271385","0.3069688952","0.4471415093","0.1818133019","","","","","","","","","","","74","J","1","","","211","main_expt"
"72","","bandit","290","647199","0.0-251.0-0.0","51005789","wem/bandit_either","A2MKXI4KCRRI7Y","either","7","","","","","","","0","1","0","","0.4065587724","0.8","0.2","0.4","0.6","0.4065587724","0.3005379093","0.4374655127","0.1782747956","","","","","","","","","","","72","H","0","img/none_selected.jpg","","212","main_expt"
"73","","bandit","291","648780","0.0-252.0-0.0","51005789","wem/bandit_either","A2MKXI4KCRRI7Y","either","7","","","","","","","1","0","0","0.4007116542","","0.8","0.2","0.4","0.6","","","","","0.4007116542","0.213882915","0.4381457257","0.1935195711","","","","","","","72","H","0","img/none_selected.jpg","","213","main_expt"
"704","","bandit","292","650992","0.0-253.0-0.0","51005789","wem/bandit_either","A2MKXI4KCRRI7Y","either","7","","","","","","","0","0","1","0.4246209323","","0.8","0.2","0.4","0.6","","","","","0.4246209323","0.2138557204","0.4643769008","0.2421176173","","","","","","","72","H","0","img/none_selected.jpg","","214","main_expt"
"352","","bandit","293","652853","0.0-254.0-0.0","51005789","wem/bandit_either","A2MKXI4KCRRI7Y","either","7","","","","","","","0","0","1","","0.2142566612","0.8","0.2","0.4","0.6","0.3993057066","0.2142566612","0.4328812357","0.2629876012","","","","","","","","","","","74","J","1","","","215","main_expt"
"100","","bandit","294","654460","0.0-255.0-0.0","51005789","wem/bandit_either","A2MKXI4KCRRI7Y","either","7","","","","","","","1","0","0","0.3987772474","","0.8","0.2","0.4","0.6","","","","","0.3987772474","0.1900351118","0.4064507999","0.2977714141","","","","","","","72","H","0","img/none_selected.jpg","","216","main_expt"
"138","","bandit","295","656107","0.0-256.0-0.0","51005789","wem/bandit_either","A2MKXI4KCRRI7Y","either","7","","","","","","","1","0","0","0.4101433534","","0.8","0.2","0.4","0.6","","","","","0.4101433534","0.2185169477","0.4197961641","0.3017601552","","","","","","","72","H","0","img/none_selected.jpg","","217","main_expt"
"209","","bandit","296","657826","0.0-257.0-0.0","51005789","wem/bandit_either","A2MKXI4KCRRI7Y","either","7","","","","","","","0","0","1","0.4448029092","","0.8","0.2","0.4","0.6","","","","","0.4448029092","0.2240895604","0.4167397569","0.2888566207","","","","","","","72","H","0","img/none_selected.jpg","","218","main_expt"
"132","","bandit","297","659468","0.0-258.0-0.0","51005789","wem/bandit_either","A2MKXI4KCRRI7Y","either","7","","","","","","","0","1","0","","0.1990808675","0.8","0.2","0.4","0.6","0.4454766299","0.1990808675","0.4250944588","0.2844008008","","","","","","","","","","","74","J","1","","","219","main_expt"
"56","","bandit","298","661032","0.0-259.0-0.0","51005789","wem/bandit_either","A2MKXI4KCRRI7Y","either","7","","","","","","","1","0","0","0.266602996","","0.8","0.2","0.4","0.6","","","","","0.4610997771","0.266602996","0.4173336587","0.2225062479","","","","","","","74","J","1","","","220","main_expt"
"86","","bandit","299","662626","0.0-260.0-0.0","51005789","wem/bandit_either","A2MKXI4KCRRI7Y","either","7","","","","","","","1","0","0","0.2443661227","","0.8","0.2","0.4","0.6","","","","","0.4642289789","0.2443661227","0.3944711005","0.2409900116","","","","","","","74","J","1","","","221","main_expt"
"97","","bandit","300","664231","0.0-261.0-0.0","51005789","wem/bandit_either","A2MKXI4KCRRI7Y","either","7","","","","","","","0","0","1","","0.2205922116","0.8","0.2","0.4","0.6","0.4641270597","0.2205922116","0.3619306912","0.1989678636","","","","","","","","","","","74","J","1","","","222","main_expt"
"119","","bandit","301","665860","0.0-262.0-0.0","51005789","wem/bandit_either","A2MKXI4KCRRI7Y","either","7","","","","","","","0","1","0","","0.4697433819","0.8","0.2","0.4","0.6","0.4697433819","0.1861223506","0.4117842179","0.1902867071","","","","","","","","","","","72","H","0","img/none_selected.jpg","","223","main_expt"
"74","","bandit","302","667445","0.0-263.0-0.0","51005789","wem/bandit_either","A2MKXI4KCRRI7Y","either","7","","","","","","","0","0","1","0.460898083","","0.8","0.2","0.4","0.6","","","","","0.460898083","0.1668884863","0.3965092367","0.2076415522","","","","","","","72","H","0","img/none_selected.jpg","","224","main_expt"
"209","","bandit","303","669162","0.0-264.0-0.0","51005789","wem/bandit_either","A2MKXI4KCRRI7Y","either","7","","","","","","","0","1","0","","0.1481472712","0.8","0.2","0.4","0.6","0.4394890665","0.1481472712","0.4084477862","0.2393469174","","","","","","","","","","","74","J","1","","","225","main_expt"
"62","","bandit","304","670733","0.0-265.0-0.0","51005789","wem/bandit_either","A2MKXI4KCRRI7Y","either","7","","","","","","","0","0","1","","0.1140846591","0.8","0.2","0.4","0.6","0.4520955237","0.1140846591","0.4104601526","0.2425440376","","","","","","","","","","","74","J","1","","","226","main_expt"
"27","","bandit","305","672267","0.0-266.0-0.0","51005789","wem/bandit_either","A2MKXI4KCRRI7Y","either","7","","","","","","","0","1","0","","0.4324220164","0.8","0.2","0.4","0.6","0.4324220164","0.1074218354","0.3899733519","0.2365603363","","","","","","","","","","","72","H","0","img/none_selected.jpg","","227","main_expt"
"166","","bandit","306","673945","0.0-267.0-0.0","51005789","wem/bandit_either","A2MKXI4KCRRI7Y","either","7","","","","","","","0","0","1","0.4220482421","","0.8","0.2","0.4","0.6","","","","","0.4220482421","0.08065165665","0.3796730737","0.2127958296","","","","","","","72","H","0","img/none_selected.jpg","","228","main_expt"
"172","","bandit","307","675625","0.0-268.0-0.0","51005789","wem/bandit_either","A2MKXI4KCRRI7Y","either","7","","","","","","","0","1","0","","0.3885749154","0.8","0.2","0.4","0.6","0.3885749154","0.07774059362","0.4046866514","0.2207861463","","","","","","","","","","","72","H","0","img/none_selected.jpg","","229","main_expt"
"185","","bandit","308","677319","0.0-269.0-0.0","51005789","wem/bandit_either","A2MKXI4KCRRI7Y","either","7","","","","","","","1","0","0","0.4023755806","","0.8","0.2","0.4","0.6","","","","","0.4023755806","0.1109483114","0.3988793555","0.2589226453","","","","","","","72","H","0","img/none_selected.jpg","","230","main_expt"
"237","","bandit","309","679067","0.0-270.0-0.0","51005789","wem/bandit_either","A2MKXI4KCRRI7Y","either","7","","","","","","","0","0","1","","0.3768725222","0.8","0.2","0.4","0.6","0.3768725222","0.05902300203","0.3981898202","0.2956158432","","","","","","","","","","","72","H","0","img/none_selected.jpg","","231","main_expt"
"102","","bandit","310","680678","0.0-271.0-0.0","51005789","wem/bandit_either","A2MKXI4KCRRI7Y","either","7","","","","","","","0","0","1","","0.06675855664","0.8","0.2","0.4","0.6","0.3619917427","0.06675855664","0.4411941832","0.3202484073","","","","","","","","","","","74","J","1","","","232","main_expt"
"392","","bandit","311","682580","0.0-272.0-0.0","51005789","wem/bandit_either","A2MKXI4KCRRI7Y","either","7","","","","","","","1","0","0","0.2933644042","","0.8","0.2","0.4","0.6","","","","","0.3833578816","0.06703699679","0.42967461","0.2933644042","","","","","","","76","L","3","","","233","main_expt"
"166","","bandit","312","684255","0.0-273.0-0.0","51005789","wem/bandit_either","A2MKXI4KCRRI7Y","either","7","","","","","","","0","0","1","0.3106154811","","0.8","0.2","0.4","0.6","","","","","0.3552131768","0.05331023031","0.4242798354","0.3106154811","","","","","","","76","L","3","","","234","main_expt"
"331","","bandit","313","686097","0.0-274.0-0.0","51005789","wem/bandit_either","A2MKXI4KCRRI7Y","either","7","","","","","","","0","1","0","","0.3158990995","0.8","0.2","0.4","0.6","0.3135084543","0.05187545802","0.4617388459","0.3158990995","","","","","","","","","","","76","L","3","","","235","main_expt"
"292","","bandit","314","687898","0.0-275.0-0.0","51005789","wem/bandit_either","A2MKXI4KCRRI7Y","either","7","","","","","","","0","1","0","","0.3036927748","0.8","0.2","0.4","0.6","0.244945467","0.06939909985","0.4619510484","0.3036927748","","","","","","","","","","","76","L","3","","","236","main_expt"
"97","","bandit","315","689507","0.0-276.0-0.0","51005789","wem/bandit_either","A2MKXI4KCRRI7Y","either","7","","","","","","","0","0","1","","0.3491021326","0.8","0.2","0.4","0.6","0.1823839079","0.1210409879","0.4482398789","0.3491021326","","","","","","","","","","","76","L","3","","","237","main_expt"
"150","","bandit","316","691166","0.0-277.0-0.0","51005789","wem/bandit_either","A2MKXI4KCRRI7Y","either","7","","","","","","","0","0","1","","0.1147840357","0.8","0.2","0.4","0.6","0.1685050226","0.1147840357","0.4193969143","0.3939254097","","","","","","","","","","","74","J","1","","","238","main_expt"
"14","","bandit","317","692690","0.0-278.0-0.0","51005789","wem/bandit_either","A2MKXI4KCRRI7Y","either","7","","","","","","","0","0","1","0.1606472637","","0.8","0.2","0.4","0.6","","","","","0.1606472637","0.1006463842","0.4203848948","0.379108978","","","","","","","72","H","0","img/none_selected.jpg","","239","main_expt"
"63","","bandit","318","694262","0.0-279.0-0.0","51005789","wem/bandit_either","A2MKXI4KCRRI7Y","either","7","","","","","","","0","1","0","","0.4489383263","0.8","0.2","0.4","0.6","0.1512795466","0.1008771133","0.4489383263","0.3876209848","","","","","","","","","","","75","K","2","","","240","main_expt"
"45","","bandit","319","695816","0.0-280.0-0.0","51005789","wem/bandit_either","A2MKXI4KCRRI7Y","either","7","","","","","","","0","0","1","0.4636195567","","0.8","0.2","0.4","0.6","","","","","0.1916219391","0.09981833296","0.4636195567","0.3839625774","","","","","","","75","K","2","","","241","main_expt"
"119","","bandit","320","697443","0.0-281.0-0.0","51005789","wem/bandit_either","A2MKXI4KCRRI7Y","either","7","","","","","","","0","0","1","","0.4575307695","0.8","0.2","0.4","0.6","0.1641013935","0.1171772993","0.4575307695","0.3477958629","","","","","","","","","","","75","K","2","","","242","main_expt"
"25","","bandit","321","698978","0.0-282.0-0.0","51005789","wem/bandit_either","A2MKXI4KCRRI7Y","either","7","","","","","","","0","1","0","","0.3500658948","0.8","0.2","0.4","0.6","0.2064320789","0.1239984651","0.4449554393","0.3500658948","","","","","","","","","","","76","L","3","","","243","main_expt"
"92","","bandit","322","700581","0.0-283.0-0.0","51005789","wem/bandit_either","A2MKXI4KCRRI7Y","either","7","","","","","","","1","0","0","0.3452717574","","0.8","0.2","0.4","0.6","","","","","0.2205496082","0.1126152289","0.4525763452","0.3452717574","","","","","","","76","L","3","","","244","main_expt"
"101","","bandit","323","702193","0.0-284.0-0.0","51005789","wem/bandit_either","A2MKXI4KCRRI7Y","either","7","","","","","","","0","0","1","","0.3162288444","0.8","0.2","0.4","0.6","0.214276823","0.1524829061","0.4753838692","0.3162288444","","","","","","","","","","","76","L","3","","","245","main_expt"
"453","","bandit","324","704155","0.0-285.0-0.0","51005789","wem/bandit_either","A2MKXI4KCRRI7Y","either","7","","","","","","","0","1","0","","0.4623654582","0.8","0.2","0.4","0.6","0.2084567316","0.1921750243","0.4623654582","0.2894596967","","","","","","","","","","","75","K","2","","","246","main_expt"
"239","","bandit","325","705903","0.0-286.0-0.0","51005789","wem/bandit_either","A2MKXI4KCRRI7Y","either","7","","","","","","","0","1","0","","0.4331165165","0.8","0.2","0.4","0.6","0.2232303491","0.1931065189","0.4331165165","0.2642296388","","","","","","","","","","","75","K","2","","","247","main_expt"
"228","","bandit","326","707640","0.0-287.0-0.0","51005789","wem/bandit_either","A2MKXI4KCRRI7Y","either","7","","","","","","","1","0","0","0.4401602984","","0.8","0.2","0.4","0.6","","","","","0.2541796534","0.2189994516","0.4401602984","0.2534255255","","","","","","","75","K","2","","","248","main_expt"
"226","","bandit","327","709376","0.0-288.0-0.0","51005789","wem/bandit_either","A2MKXI4KCRRI7Y","either","7","","","","","","","0","1","0","","0.430892824","0.8","0.2","0.4","0.6","0.232462199","0.1989243371","0.430892824","0.2252980971","","","","","","","","","","","75","K","2","","","249","main_expt"
"275","","bandit","328","711161","0.0-289.0-0.0","51005789","wem/bandit_either","A2MKXI4KCRRI7Y","either","7","","","","","","","0","0","1","","0.4282509168","0.8","0.2","0.4","0.6","0.2877664065","0.1635706079","0.4282509168","0.298830738","","","","","","","","","","","75","K","2","","","250","main_expt"
"275","","bandit","329","712945","0.0-290.0-0.0","51005789","wem/bandit_either","A2MKXI4KCRRI7Y","either","7","","","","","","","0","0","1","","0.1738575253","0.8","0.2","0.4","0.6","0.2947451014","0.1738575253","0.4499649657","0.3113207693","","","","","","","","","","","74","J","1","","","251","main_expt"
"4","","bandit","330","714460","0.0-291.0-0.0","51005789","wem/bandit_either","A2MKXI4KCRRI7Y","either","7","","","","","","","0","0","1","0.2952600368","","0.8","0.2","0.4","0.6","","","","","0.2581410112","0.1868362494","0.458069626","0.2952600368","","","","","","","76","L","3","","","252","main_expt"
"327","","bandit","331","716298","0.0-292.0-0.0","51005789","wem/bandit_either","A2MKXI4KCRRI7Y","either","7","","","","","","","1","0","0","0.2526573277","","0.8","0.2","0.4","0.6","","","","","0.2526573277","0.1888839862","0.4419078322","0.2837805879","","","","","","","72","H","0","img/none_selected.jpg","","253","main_expt"
"206","","bandit","332","718014","0.0-293.0-0.0","51005789","wem/bandit_either","A2MKXI4KCRRI7Y","either","7","","","","","","","1","0","0","0.2625272406","","0.8","0.2","0.4","0.6","","","","","0.2625272406","0.1763585164","0.4374591364","0.2664224025","","","","","","","72","H","0","img/none_selected.jpg","","254","main_expt"
