"rt","responses","trial_type","trial_index","time_elapsed","internal_node_id","subjID","study","MID","cond","drift","key_press","expt_phase","target","like","value","connected","respCharCode","respKey","respChoiceNum","respChoice","gems","bombs","no_reward","GemPrChosen","BombPrChosen","practice","trial_counter","WinPr_0","LosePr_0","trial_label","GainOverPainPr_0","WinPr_1","GainOverPainPr_1","LosePr_1","WinPr_2","GainOverPainPr_2","WinPr_3","GainOverPainPr_3","LosePr_2","LosePr_3","Q0","Q1","Q2","gender","age","ethnicity"
"5107","{""Q0"":""A1YVMDRR9W1LZ1""}","survey-text","0","5113","0.0-0.0","51686832","wem/bandit_either","A1YVMDRR9W1LZ1","either","3","","","","","","","","","","","","","","","","","","","","","","","","","","","","","","","","","","","",""
"17262","","text","1","23381","0.0-1.0","51686832","wem/bandit_either","A1YVMDRR9W1LZ1","either","3","32","","","","","","","","","","","","","","","","","","","","","","","","","","","","","","","","","","",""
"6362","","text","2","29744","0.0-2.0","51686832","wem/bandit_either","A1YVMDRR9W1LZ1","either","3","32","","","","","","","","","","","","","","","","","","","","","","","","","","","","","","","","","","",""
"5333","","text","3","35080","0.0-3.0","51686832","wem/bandit_either","A1YVMDRR9W1LZ1","either","3","32","","","","","","","","","","","","","","","","","","","","","","","","","","","","","","","","","","",""
"4581","","text","4","39663","0.0-4.0","51686832","wem/bandit_either","A1YVMDRR9W1LZ1","either","3","32","","","","","","","","","","","","","","","","","","","","","","","","","","","","","","","","","","",""
"4103","","text","5","43769","0.0-5.0","51686832","wem/bandit_either","A1YVMDRR9W1LZ1","either","3","32","","","","","","","","","","","","","","","","","","","","","","","","","","","","","","","","","","",""
"3927","","text","6","47698","0.0-6.0","51686832","wem/bandit_either","A1YVMDRR9W1LZ1","either","3","32","","","","","","","","","","","","","","","","","","","","","","","","","","","","","","","","","","",""
"1863","","text","7","49564","0.0-7.0","51686832","wem/bandit_either","A1YVMDRR9W1LZ1","either","3","32","","","","","","","","","","","","","","","","","","","","","","","","","","","","","","","","","","",""
"8747","","identification","8","58329","0.0-8.0-0.0","51686832","wem/bandit_either","A1YVMDRR9W1LZ1","either","3","","identification_pre","the village of Zur","3","4","2","","","","","","","","","","","","","","","","","","","","","","","","","","","","","",""
"3796","","identification","9","63141","0.0-8.0-1.0","51686832","wem/bandit_either","A1YVMDRR9W1LZ1","either","3","","identification_pre","the village of Nyx","3","3","3","","","","","","","","","","","","","","","","","","","","","","","","","","","","","",""
"7441","","text","10","71584","0.0-9.0","51686832","wem/bandit_either","A1YVMDRR9W1LZ1","either","3","32","","","","","","","","","","","","","","","","","","","","","","","","","","","","","","","","","","",""
"5075","","text","11","76661","0.0-10.0","51686832","wem/bandit_either","A1YVMDRR9W1LZ1","either","3","32","","","","","","","","","","","","","","","","","","","","","","","","","","","","","","","","","","",""
"1818","","text","12","78481","0.0-11.0","51686832","wem/bandit_either","A1YVMDRR9W1LZ1","either","3","32","","","","","","","","","","","","","","","","","","","","","","","","","","","","","","","","","","",""
"2061","","text","13","80543","0.0-12.0","51686832","wem/bandit_either","A1YVMDRR9W1LZ1","either","3","32","","","","","","","","","","","","","","","","","","","","","","","","","","","","","","","","","","",""
"1172","","bandit","14","83222","0.0-13.0-0.0","51686832","wem/bandit_either","A1YVMDRR9W1LZ1","either","3","","","","","","","74","J","0","img/none_selected_demo.jpg","0","0","1","0","0","true","0","0","0","","","","","","","","","","","","","","","","",""
"7006","","bandit","15","91738","0.0-14.0-0.0","51686832","wem/bandit_either","A1YVMDRR9W1LZ1","either","3","","","","","","","75","K","0","img/none_selected_demo.jpg","0","0","1","0","0","true","0","0","0","","","","","","","","","","","","","","","","",""
"4630","","text","16","96371","0.0-15.0","51686832","wem/bandit_either","A1YVMDRR9W1LZ1","either","3","32","","","","","","","","","","","","","","","","","","","","","","","","","","","","","","","","","","",""
"4510","","text","17","100883","0.0-16.0","51686832","wem/bandit_either","A1YVMDRR9W1LZ1","either","3","32","","","","","","","","","","","","","","","","","","","","","","","","","","","","","","","","","","",""
"3351","","text","18","104235","0.0-17.0","51686832","wem/bandit_either","A1YVMDRR9W1LZ1","either","3","32","","","","","","","","","","","","","","","","","","","","","","","","","","","","","","","","","","",""
"2599","","text","19","106838","0.0-18.0","51686832","wem/bandit_either","A1YVMDRR9W1LZ1","either","3","32","","","","","","","","","","","","","","","","","","","","","","","","","","","","","","","","","","",""
"2101","","bandit","20","110449","0.0-19.0-0.0","51686832","wem/bandit_either","A1YVMDRR9W1LZ1","either","3","","","","","","","74","J","0","img/none_selected_demo.jpg","1","0","0","0.8","","true","0","0.8","","80_20_practice","0.5","0.2","0.5","","","","","","","","","","","","",""
"478","","bandit","21","112436","0.0-19.0-1.0","51686832","wem/bandit_either","A1YVMDRR9W1LZ1","either","3","","","","","","","74","J","0","img/none_selected_demo.jpg","1","0","0","0.8","","true","0","0.8","","80_20_practice","0.5","0.2","0.5","","","","","","","","","","","","",""
"596","","bandit","22","114538","0.0-19.0-2.0","51686832","wem/bandit_either","A1YVMDRR9W1LZ1","either","3","","","","","","","74","J","0","img/none_selected_demo.jpg","0","0","1","","0.8","true","0","","0.8","80_20_practice","0.5","","0.5","0.2","","","","","","","","","","","",""
"830","","bandit","23","116875","0.0-19.0-3.0","51686832","wem/bandit_either","A1YVMDRR9W1LZ1","either","3","","","","","","","74","J","0","img/none_selected_demo.jpg","1","0","0","0.8","","true","0","0.8","","80_20_practice","0.5","0.2","0.5","","","","","","","","","","","","",""
"858","","bandit","24","119237","0.0-19.0-4.0","51686832","wem/bandit_either","A1YVMDRR9W1LZ1","either","3","","","","","","","74","J","0","img/none_selected_demo.jpg","0","0","1","","0.8","true","0","","0.8","80_20_practice","0.5","","0.5","0.2","","","","","","","","","","","",""
"758","","bandit","25","121502","0.0-19.0-5.0","51686832","wem/bandit_either","A1YVMDRR9W1LZ1","either","3","","","","","","","74","J","0","img/none_selected_demo.jpg","0","1","0","","0.8","true","0","","0.8","80_20_practice","0.5","","0.5","0.2","","","","","","","","","","","",""
"757","","bandit","26","123767","0.0-19.0-6.0","51686832","wem/bandit_either","A1YVMDRR9W1LZ1","either","3","","","","","","","75","K","1","","0","0","1","0.2","","true","0","0.8","","80_20_practice","0.5","0.2","0.5","","","","","","","","","","","","",""
"828","","bandit","27","126107","0.0-19.0-7.0","51686832","wem/bandit_either","A1YVMDRR9W1LZ1","either","3","","","","","","","75","K","1","","0","0","1","","0.2","true","0","","0.8","80_20_practice","0.5","","0.5","0.2","","","","","","","","","","","",""
"437","","bandit","28","128062","0.0-19.0-8.0","51686832","wem/bandit_either","A1YVMDRR9W1LZ1","either","3","","","","","","","75","K","1","","0","0","1","0.2","","true","0","0.8","","80_20_practice","0.5","0.2","0.5","","","","","","","","","","","","",""
"393","","bandit","29","129962","0.0-19.0-9.0","51686832","wem/bandit_either","A1YVMDRR9W1LZ1","either","3","","","","","","","75","K","1","","0","0","1","0.2","","true","0","0.8","","80_20_practice","0.5","0.2","0.5","","","","","","","","","","","","",""
"126","","bandit","30","131595","0.0-19.0-10.0","51686832","wem/bandit_either","A1YVMDRR9W1LZ1","either","3","","","","","","","74","J","0","img/none_selected_demo.jpg","0","0","1","0.8","","true","0","0.8","","80_20_practice","0.5","0.2","0.5","","","","","","","","","","","","",""
"367","","bandit","31","133468","0.0-19.0-11.0","51686832","wem/bandit_either","A1YVMDRR9W1LZ1","either","3","","","","","","","74","J","0","img/none_selected_demo.jpg","0","0","1","0.8","","true","0","0.8","","80_20_practice","0.5","0.2","0.5","","","","","","","","","","","","",""
"229","","bandit","32","135203","0.0-19.0-12.0","51686832","wem/bandit_either","A1YVMDRR9W1LZ1","either","3","","","","","","","74","J","0","img/none_selected_demo.jpg","0","1","0","","0.8","true","0","","0.8","80_20_practice","0.5","","0.5","0.2","","","","","","","","","","","",""
"330","","bandit","33","137044","0.0-19.0-13.0","51686832","wem/bandit_either","A1YVMDRR9W1LZ1","either","3","","","","","","","74","J","0","img/none_selected_demo.jpg","0","1","0","","0.8","true","0","","0.8","80_20_practice","0.5","","0.5","0.2","","","","","","","","","","","",""
"350","","bandit","34","138905","0.0-19.0-14.0","51686832","wem/bandit_either","A1YVMDRR9W1LZ1","either","3","","","","","","","75","K","1","","0","0","1","0.2","","true","0","0.8","","80_20_practice","0.5","0.2","0.5","","","","","","","","","","","","",""
"298","","bandit","35","140711","0.0-19.0-15.0","51686832","wem/bandit_either","A1YVMDRR9W1LZ1","either","3","","","","","","","74","J","0","img/none_selected_demo.jpg","0","0","1","0.8","","true","0","0.8","","80_20_practice","0.5","0.2","0.5","","","","","","","","","","","","",""
"354","","bandit","36","142570","0.0-19.0-16.0","51686832","wem/bandit_either","A1YVMDRR9W1LZ1","either","3","","","","","","","74","J","0","img/none_selected_demo.jpg","0","1","0","","0.8","true","0","","0.8","80_20_practice","0.5","","0.5","0.2","","","","","","","","","","","",""
"397","","bandit","37","144474","0.0-19.0-17.0","51686832","wem/bandit_either","A1YVMDRR9W1LZ1","either","3","","","","","","","74","J","0","img/none_selected_demo.jpg","0","1","0","","0.8","true","0","","0.8","80_20_practice","0.5","","0.5","0.2","","","","","","","","","","","",""
"244","","bandit","38","146224","0.0-19.0-18.0","51686832","wem/bandit_either","A1YVMDRR9W1LZ1","either","3","","","","","","","75","K","1","","0","0","1","0.2","","true","0","0.8","","80_20_practice","0.5","0.2","0.5","","","","","","","","","","","","",""
"342","","bandit","39","148112","0.0-19.0-19.0","51686832","wem/bandit_either","A1YVMDRR9W1LZ1","either","3","","","","","","","75","K","1","","0","0","1","","0.2","true","0","","0.8","80_20_practice","0.5","","0.5","0.2","","","","","","","","","","","",""
"6196","","text","40","154312","0.0-20.0","51686832","wem/bandit_either","A1YVMDRR9W1LZ1","either","3","32","","","","","","","","","","","","","","","","","","","","","","","","","","","","","","","","","","",""
"1214","","bandit","41","157035","0.0-21.0-0.0","51686832","wem/bandit_either","A1YVMDRR9W1LZ1","either","3","","","","","","","74","J","0","img/none_selected_demo.jpg","1","0","0","1","0","true","0","1","0","","","0","","1","","","","","","","","","","","",""
"6093","","text","42","163131","0.0-22.0","51686832","wem/bandit_either","A1YVMDRR9W1LZ1","either","3","32","","","","","","","","","","","","","","","","","","","","","","","","","","","","","","","","","","",""
"4071","","text","43","167207","0.0-23.0","51686832","wem/bandit_either","A1YVMDRR9W1LZ1","either","3","32","","","","","","","","","","","","","","","","","","","","","","","","","","","","","","","","","","",""
"3143","","text","44","170352","0.0-24.0","51686832","wem/bandit_either","A1YVMDRR9W1LZ1","either","3","32","","","","","","","","","","","","","","","","","","","","","","","","","","","","","","","","","","",""
"1355","","text","45","171709","0.0-25.0","51686832","wem/bandit_either","A1YVMDRR9W1LZ1","either","3","32","","","","","","","","","","","","","","","","","","","","","","","","","","","","","","","","","","",""
"1142","","text","46","172853","0.0-26.0","51686832","wem/bandit_either","A1YVMDRR9W1LZ1","either","3","32","","","","","","","","","","","","","","","","","","","","","","","","","","","","","","","","","","",""
"1333","","text","47","174189","0.0-27.0","51686832","wem/bandit_either","A1YVMDRR9W1LZ1","either","3","32","","","","","","","","","","","","","","","","","","","","","","","","","","","","","","","","","","",""
"1275","","text","48","175466","0.0-28.0","51686832","wem/bandit_either","A1YVMDRR9W1LZ1","either","3","32","","","","","","","","","","","","","","","","","","","","","","","","","","","","","","","","","","",""
"1056","","text","49","176524","0.0-29.0","51686832","wem/bandit_either","A1YVMDRR9W1LZ1","either","3","32","","","","","","","","","","","","","","","","","","","","","","","","","","","","","","","","","","",""
"1621","","text","50","178147","0.0-30.0","51686832","wem/bandit_either","A1YVMDRR9W1LZ1","either","3","32","","","","","","","","","","","","","","","","","","","","","","","","","","","","","","","","","","",""
"1207","","text","51","179356","0.0-31.0","51686832","wem/bandit_either","A1YVMDRR9W1LZ1","either","3","32","","","","","","","","","","","","","","","","","","","","","","","","","","","","","","","","","","",""
"2587","","text","52","181946","0.0-32.0","51686832","wem/bandit_either","A1YVMDRR9W1LZ1","either","3","32","","","","","","","","","","","","","","","","","","","","","","","","","","","","","","","","","","",""
"1244","","bandit","53","184701","0.0-33.0-0.0","51686832","wem/bandit_either","A1YVMDRR9W1LZ1","either","3","","","","","","","72","H","0","img/none_selected.jpg","1","0","0","0.8","","true","0","0.8","","full_practice","0.5","0.2","0.5","","0.6","0.5","0.2","0.5","","","","","","","",""
"23","","bandit","54","186231","0.0-33.0-1.0","51686832","wem/bandit_either","A1YVMDRR9W1LZ1","either","3","","","","","","","74","J","1","","0","0","1","0.2","","true","0","0.8","","full_practice","0.5","0.2","0.5","","0.6","0.5","0.2","0.5","","","","","","","",""
"407","","bandit","55","188147","0.0-33.0-2.0","51686832","wem/bandit_either","A1YVMDRR9W1LZ1","either","3","","","","","","","75","K","2","","1","0","0","0.6","","true","0","0.8","","full_practice","0.5","0.2","0.5","","0.6","0.5","0.2","0.5","","","","","","","",""
"350","","bandit","56","190014","0.0-33.0-3.0","51686832","wem/bandit_either","A1YVMDRR9W1LZ1","either","3","","","","","","","76","L","3","","0","1","0","","0.2","true","0","","0.8","full_practice","0.5","","0.5","0.2","","0.5","","0.5","0.6","0.2","","","","","",""
"610","","bandit","57","192128","0.0-33.0-4.0","51686832","wem/bandit_either","A1YVMDRR9W1LZ1","either","3","","","","","","","74","J","1","","1","0","0","0.2","","true","0","0.8","","full_practice","0.5","0.2","0.5","","0.6","0.5","0.2","0.5","","","","","","","",""
"372","","bandit","58","194044","0.0-33.0-5.0","51686832","wem/bandit_either","A1YVMDRR9W1LZ1","either","3","","","","","","","72","H","0","img/none_selected.jpg","1","0","0","0.8","","true","0","0.8","","full_practice","0.5","0.2","0.5","","0.6","0.5","0.2","0.5","","","","","","","",""
"244","","bandit","59","195794","0.0-33.0-6.0","51686832","wem/bandit_either","A1YVMDRR9W1LZ1","either","3","","","","","","","75","K","2","","0","0","1","0.6","","true","0","0.8","","full_practice","0.5","0.2","0.5","","0.6","0.5","0.2","0.5","","","","","","","",""
"275","","bandit","60","197576","0.0-33.0-7.0","51686832","wem/bandit_either","A1YVMDRR9W1LZ1","either","3","","","","","","","76","L","3","","0","0","1","","0.2","true","0","","0.8","full_practice","0.5","","0.5","0.2","","0.5","","0.5","0.6","0.2","","","","","",""
"281","","bandit","61","199366","0.0-33.0-8.0","51686832","wem/bandit_either","A1YVMDRR9W1LZ1","either","3","","","","","","","74","J","1","","0","0","1","0.2","","true","0","0.8","","full_practice","0.5","0.2","0.5","","0.6","0.5","0.2","0.5","","","","","","","",""
"5137","","bandit","62","206008","0.0-33.0-9.0","51686832","wem/bandit_either","A1YVMDRR9W1LZ1","either","3","","","","","","","74","J","1","","1","0","0","0.2","","true","0","0.8","","full_practice","0.5","0.2","0.5","","0.6","0.5","0.2","0.5","","","","","","","",""
"116","","bandit","63","207635","0.0-33.0-10.0","51686832","wem/bandit_either","A1YVMDRR9W1LZ1","either","3","","","","","","","74","J","1","","0","0","1","0.2","","true","0","0.8","","full_practice","0.5","0.2","0.5","","0.6","0.5","0.2","0.5","","","","","","","",""
"1325","","bandit","64","210467","0.0-33.0-11.0","51686832","wem/bandit_either","A1YVMDRR9W1LZ1","either","3","","","","","","","74","J","1","","1","0","0","0.2","","true","0","0.8","","full_practice","0.5","0.2","0.5","","0.6","0.5","0.2","0.5","","","","","","","",""
"1721","","bandit","65","213704","0.0-33.0-12.0","51686832","wem/bandit_either","A1YVMDRR9W1LZ1","either","3","","","","","","","75","K","2","","0","0","1","","0.6","true","0","","0.8","full_practice","0.5","","0.5","0.2","","0.5","","0.5","0.6","0.2","","","","","",""
"16","","bandit","66","215226","0.0-33.0-13.0","51686832","wem/bandit_either","A1YVMDRR9W1LZ1","either","3","","","","","","","76","L","3","","0","0","1","0.2","","true","0","0.8","","full_practice","0.5","0.2","0.5","","0.6","0.5","0.2","0.5","","","","","","","",""
"122","","bandit","67","216859","0.0-33.0-14.0","51686832","wem/bandit_either","A1YVMDRR9W1LZ1","either","3","","","","","","","74","J","1","","1","0","0","0.2","","true","0","0.8","","full_practice","0.5","0.2","0.5","","0.6","0.5","0.2","0.5","","","","","","","",""
"188","","bandit","68","218552","0.0-33.0-15.0","51686832","wem/bandit_either","A1YVMDRR9W1LZ1","either","3","","","","","","","72","H","0","img/none_selected.jpg","1","0","0","0.8","","true","0","0.8","","full_practice","0.5","0.2","0.5","","0.6","0.5","0.2","0.5","","","","","","","",""
"217","","bandit","69","220273","0.0-33.0-16.0","51686832","wem/bandit_either","A1YVMDRR9W1LZ1","either","3","","","","","","","72","H","0","img/none_selected.jpg","0","1","0","","0.8","true","0","","0.8","full_practice","0.5","","0.5","0.2","","0.5","","0.5","0.6","0.2","","","","","",""
"3","","bandit","70","221780","0.0-33.0-17.0","51686832","wem/bandit_either","A1YVMDRR9W1LZ1","either","3","","","","","","","72","H","0","img/none_selected.jpg","1","0","0","0.8","","true","0","0.8","","full_practice","0.5","0.2","0.5","","0.6","0.5","0.2","0.5","","","","","","","",""
"105","","bandit","71","223389","0.0-33.0-18.0","51686832","wem/bandit_either","A1YVMDRR9W1LZ1","either","3","","","","","","","72","H","0","img/none_selected.jpg","1","0","0","0.8","","true","0","0.8","","full_practice","0.5","0.2","0.5","","0.6","0.5","0.2","0.5","","","","","","","",""
"161","","bandit","72","225056","0.0-33.0-19.0","51686832","wem/bandit_either","A1YVMDRR9W1LZ1","either","3","","","","","","","74","J","1","","0","0","1","","0.2","true","0","","0.8","full_practice","0.5","","0.5","0.2","","0.5","","0.5","0.6","0.2","","","","","",""
"2016","","text","73","227083","0.0-34.0","51686832","wem/bandit_either","A1YVMDRR9W1LZ1","either","3","32","","","","","","","","","","","","","","","","","","","","","","","","","","","","","","","","","","",""
"7129","","text","74","235269","0.0-35.0","51686832","wem/bandit_either","A1YVMDRR9W1LZ1","either","3","32","","","","","","","","","","","","","","","","","","","","","","","","","","","","","","","","","","",""
"2061","","text","75","237334","0.0-36.0","51686832","wem/bandit_either","A1YVMDRR9W1LZ1","either","3","32","","","","","","","","","","","","","","","","","","","","","","","","","","","","","","","","","","",""
"5373","","text","76","242710","0.0-37.0","51686832","wem/bandit_either","A1YVMDRR9W1LZ1","either","3","32","","","","","","","","","","","","","","","","","","","","","","","","","","","","","","","","","","",""
"5680","","text","77","248393","0.0-38.0","51686832","wem/bandit_either","A1YVMDRR9W1LZ1","either","3","32","","","","","","","","","","","","","","","","","","","","","","","","","","","","","","","","","","",""
"4534","","text","78","252930","0.0-39.0","51686832","wem/bandit_either","A1YVMDRR9W1LZ1","either","3","32","","","","","","","","","","","","","","","","","","","","","","","","","","","","","","","","","","",""
"1280","","bandit","79","255716","0.0-40.0-0.0","51686832","wem/bandit_either","A1YVMDRR9W1LZ1","either","3","","","","","","","72","H","0","img/none_selected.jpg","0","0","1","","0.1426046982","","1","","0.1426046982","main_expt","0.4","","0.6","0.07685641067","","0.8","","0.2","0.4870892339","0.1646489015","","","","","",""
"203","","bandit","80","257427","0.0-41.0-0.0","51686832","wem/bandit_either","A1YVMDRR9W1LZ1","either","3","","","","","","","72","H","0","img/none_selected.jpg","0","0","1","0.1597004976","","","2","0.1597004976","","main_expt","0.4","0.08388143876","0.6","","0.4875162112","0.8","0.2180431119","0.2","","","","","","","",""
"492","","bandit","81","259427","0.0-42.0-0.0","51686832","wem/bandit_either","A1YVMDRR9W1LZ1","either","3","","","","","","","72","H","0","img/none_selected.jpg","0","0","1","","0.1381850853","","3","","0.1381850853","main_expt","0.4","","0.6","0.06528774038","","0.8","","0.2","0.4909945117","0.2294217256","","","","","",""
"268","","bandit","82","261201","0.0-43.0-0.0","51686832","wem/bandit_either","A1YVMDRR9W1LZ1","either","3","","","","","","","74","J","1","","0","0","1","","0.07987899881","","4","","0.1787932262","main_expt","0.4","","0.6","0.07987899881","","0.8","","0.2","0.482579304","0.2162119515","","","","","",""
"252","","bandit","83","262959","0.0-44.0-0.0","51686832","wem/bandit_either","A1YVMDRR9W1LZ1","either","3","","","","","","","74","J","1","","0","0","1","","0.0432391811","","5","","0.1795032464","main_expt","0.4","","0.6","0.0432391811","","0.8","","0.2","0.4887913002","0.2246316054","","","","","",""
"7","","bandit","84","264472","0.0-45.0-0.0","51686832","wem/bandit_either","A1YVMDRR9W1LZ1","either","3","","","","","","","74","J","1","","0","0","1","0.03467601655","","","6","0.164375756","","main_expt","0.4","0.03467601655","0.6","","0.4887860333","0.8","0.2061018479","0.2","","","","","","","",""
"189","","bandit","85","266166","0.0-46.0-0.0","51686832","wem/bandit_either","A1YVMDRR9W1LZ1","either","3","","","","","","","75","K","2","","1","0","0","0.4901971563","","","7","0.204957223","","main_expt","0.4","0.05033951668","0.6","","0.4901971563","0.8","0.1795347326","0.2","","","","","","","",""
"33","","bandit","86","267703","0.0-47.0-0.0","51686832","wem/bandit_either","A1YVMDRR9W1LZ1","either","3","","","","","","","75","K","2","","0","0","1","","0.4862230721","","8","","0.2162036531","main_expt","0.4","","0.6","0.07676355645","","0.8","","0.2","0.4862230721","0.1290452752","","","","","",""
"213","","bandit","87","269437","0.0-48.0-0.0","51686832","wem/bandit_either","A1YVMDRR9W1LZ1","either","3","","","","","","","75","K","2","","0","0","1","0.4759730645","","","9","0.2167418122","","main_expt","0.4","0.08620859221","0.6","","0.4759730645","0.8","0.1559184374","0.2","","","","","","","",""
"63","","bandit","88","271006","0.0-49.0-0.0","51686832","wem/bandit_either","A1YVMDRR9W1LZ1","either","3","","","","","","","76","L","3","","0","1","0","","0.1381514788","","10","","0.1607923637","main_expt","0.4","","0.6","0.1103839657","","0.8","","0.2","0.4560980466","0.1381514788","","","","","",""
"157","","bandit","89","272670","0.0-50.0-0.0","51686832","wem/bandit_either","A1YVMDRR9W1LZ1","either","3","","","","","","","76","L","3","","0","0","1","","0.1271140015","","11","","0.1386410957","main_expt","0.4","","0.6","0.1334948588","","0.8","","0.2","0.4775116046","0.1271140015","","","","","",""
"152","","bandit","90","274332","0.0-51.0-0.0","51686832","wem/bandit_either","A1YVMDRR9W1LZ1","either","3","","","","","","","76","L","3","","0","0","1","","0.1854664659","","12","","0.1718380738","main_expt","0.4","","0.6","0.1535602519","","0.8","","0.2","0.4705073552","0.1854664659","","","","","",""
"5","","bandit","91","275849","0.0-52.0-0.0","51686832","wem/bandit_either","A1YVMDRR9W1LZ1","either","3","","","","","","","72","H","0","img/none_selected.jpg","0","0","1","0.1686303413","","","13","0.1686303413","","main_expt","0.4","0.127854239","0.6","","0.4851887342","0.8","0.1869952656","0.2","","","","","","","",""
"168","","bandit","92","277526","0.0-53.0-0.0","51686832","wem/bandit_either","A1YVMDRR9W1LZ1","either","3","","","","","","","72","H","0","img/none_selected.jpg","0","0","1","","0.1460019496","","14","","0.1460019496","main_expt","0.4","","0.6","0.1507911491","","0.8","","0.2","0.4731273917","0.2035171393","","","","","",""
"36","","bandit","93","279078","0.0-54.0-0.0","51686832","wem/bandit_either","A1YVMDRR9W1LZ1","either","3","","","","","","","72","H","0","img/none_selected.jpg","0","0","1","","0.1667614464","","15","","0.1667614464","main_expt","0.4","","0.6","0.1741212098","","0.8","","0.2","0.4585867004","0.2800299461","","","","","",""
"125","","bandit","94","280712","0.0-55.0-0.0","51686832","wem/bandit_either","A1YVMDRR9W1LZ1","either","3","","","","","","","74","J","1","","1","0","0","0.1918308831","","","16","0.1973644546","","main_expt","0.4","0.1918308831","0.6","","0.4366533258","0.8","0.2725454461","0.2","","","","","","","",""
"259","","bandit","95","282480","0.0-56.0-0.0","51686832","wem/bandit_either","A1YVMDRR9W1LZ1","either","3","","","","","","","74","J","1","","0","1","0","","0.1950212473","","17","","0.1873415792","main_expt","0.4","","0.6","0.1950212473","","0.8","","0.2","0.4405228744","0.1570621471","","","","","",""
"223","","bandit","96","284211","0.0-57.0-0.0","51686832","wem/bandit_either","A1YVMDRR9W1LZ1","either","3","","","","","","","74","J","1","","0","0","1","","0.2094813194","","18","","0.1875860444","main_expt","0.4","","0.6","0.2094813194","","0.8","","0.2","0.4678551263","0.1968188506","","","","","",""
"159","","bandit","97","285882","0.0-58.0-0.0","51686832","wem/bandit_either","A1YVMDRR9W1LZ1","either","3","","","","","","","75","K","2","","0","0","1","0.466140525","","","19","0.1988439388","","main_expt","0.4","0.2628959394","0.6","","0.466140525","0.8","0.2439518204","0.2","","","","","","","",""
"188","","bandit","98","287577","0.0-59.0-0.0","51686832","wem/bandit_either","A1YVMDRR9W1LZ1","either","3","","","","","","","75","K","2","","0","0","1","0.4094087999","","","20","0.1813993393","","main_expt","0.4","0.2116504525","0.6","","0.4094087999","0.8","0.2806117898","0.2","","","","","","","",""
"17","","bandit","99","289108","0.0-60.0-0.0","51686832","wem/bandit_either","A1YVMDRR9W1LZ1","either","3","","","","","","","75","K","2","","0","0","1","0.4386974508","","","21","0.2012004452","","main_expt","0.4","0.1904426465","0.6","","0.4386974508","0.8","0.2658005831","0.2","","","","","","","",""
"176","","bandit","100","290791","0.0-61.0-0.0","51686832","wem/bandit_either","A1YVMDRR9W1LZ1","either","3","","","","","","","76","L","3","","0","1","0","","0.2774390086","","22","","0.1958646163","main_expt","0.4","","0.6","0.1581796968","","0.8","","0.2","0.4505723784","0.2774390086","","","","","",""
"34","","bandit","101","292332","0.0-62.0-0.0","51686832","wem/bandit_either","A1YVMDRR9W1LZ1","either","3","","","","","","","76","L","3","","0","1","0","","0.2795917474","","23","","0.2626819079","main_expt","0.4","","0.6","0.2039009352","","0.8","","0.2","0.4568000239","0.2795917474","","","","","",""
"52","","bandit","102","293893","0.0-63.0-0.0","51686832","wem/bandit_either","A1YVMDRR9W1LZ1","either","3","","","","","","","76","L","3","","0","0","1","","0.2981059477","","24","","0.2906682881","main_expt","0.4","","0.6","0.228339491","","0.8","","0.2","0.4518339256","0.2981059477","","","","","",""
"63","","bandit","103","295467","0.0-64.0-0.0","51686832","wem/bandit_either","A1YVMDRR9W1LZ1","either","3","","","","","","","74","J","1","","1","0","0","0.2602465224","","","25","0.3270173502","","main_expt","0.4","0.2602465224","0.6","","0.4120159309","0.8","0.3272059922","0.2","","","","","","","",""
"131","","bandit","104","297132","0.0-65.0-0.0","51686832","wem/bandit_either","A1YVMDRR9W1LZ1","either","3","","","","","","","76","L","3","","0","1","0","","0.3369826645","","26","","0.2951289915","main_expt","0.4","","0.6","0.1939420306","","0.8","","0.2","0.4134154185","0.3369826645","","","","","",""
"57","","bandit","105","298707","0.0-66.0-0.0","51686832","wem/bandit_either","A1YVMDRR9W1LZ1","either","3","","","","","","","74","J","1","","0","0","1","0.2387331149","","","27","0.3520126272","","main_expt","0.4","0.2387331149","0.6","","0.4031068294","0.8","0.2531212506","0.2","","","","","","","",""
"300","","bandit","106","300513","0.0-67.0-0.0","51686832","wem/bandit_either","A1YVMDRR9W1LZ1","either","3","","","","","","","76","L","3","","0","1","0","","0.2170461037","","28","","0.3369287003","main_expt","0.4","","0.6","0.2183458617","","0.8","","0.2","0.4305883772","0.2170461037","","","","","",""
"80","","bandit","107","302100","0.0-68.0-0.0","51686832","wem/bandit_either","A1YVMDRR9W1LZ1","either","3","","","","","","","74","J","1","","1","0","0","0.2151501268","","","29","0.3591799128","","main_expt","0.4","0.2151501268","0.6","","0.4383329838","0.8","0.2346211465","0.2","","","","","","","",""
"138","","bandit","108","303746","0.0-69.0-0.0","51686832","wem/bandit_either","A1YVMDRR9W1LZ1","either","3","","","","","","","76","L","3","","0","0","1","","0.2450860663","","30","","0.3324285477","main_expt","0.4","","0.6","0.2267233056","","0.8","","0.2","0.4233276099","0.2450860663","","","","","",""
"91","","bandit","109","305343","0.0-70.0-0.0","51686832","wem/bandit_either","A1YVMDRR9W1LZ1","either","3","","","","","","","74","J","1","","0","0","1","0.2663701676","","","31","0.327032362","","main_expt","0.4","0.2663701676","0.6","","0.4016185005","0.8","0.2141169407","0.2","","","","","","","",""
"65","","bandit","110","306916","0.0-71.0-0.0","51686832","wem/bandit_either","A1YVMDRR9W1LZ1","either","3","","","","","","","76","L","3","","0","0","1","","0.2347854155","","32","","0.3230905041","main_expt","0.4","","0.6","0.275969473","","0.8","","0.2","0.4134940178","0.2347854155","","","","","",""
"37","","bandit","111","308459","0.0-72.0-0.0","51686832","wem/bandit_either","A1YVMDRR9W1LZ1","either","3","","","","","","","74","J","1","","0","0","1","0.3365270118","","","33","0.2969008969","","main_expt","0.4","0.3365270118","0.6","","0.4331174495","0.8","0.246596708","0.2","","","","","","","",""
"168","","bandit","112","310135","0.0-73.0-0.0","51686832","wem/bandit_either","A1YVMDRR9W1LZ1","either","3","","","","","","","75","K","2","","0","0","1","0.4454497031","","","34","0.2536392951","","main_expt","0.4","0.2916301021","0.6","","0.4454497031","0.8","0.1914370393","0.2","","","","","","","",""
"148","","bandit","113","311789","0.0-74.0-0.0","51686832","wem/bandit_either","A1YVMDRR9W1LZ1","either","3","","","","","","","74","J","1","","0","0","1","0.3236538836","","","35","0.2336030597","","main_expt","0.4","0.3236538836","0.6","","0.4419706984","0.8","0.1408207185","0.2","","","","","","","",""
"30","","bandit","114","313328","0.0-75.0-0.0","51686832","wem/bandit_either","A1YVMDRR9W1LZ1","either","3","","","","","","","72","H","0","img/none_selected.jpg","0","0","1","","0.3110392291","","36","","0.3110392291","main_expt","0.4","","0.6","0.3317439785","","0.8","","0.2","0.4205940312","0.09539735145","","","","","",""
"116","","bandit","115","314959","0.0-76.0-0.0","51686832","wem/bandit_either","A1YVMDRR9W1LZ1","either","3","","","","","","","74","J","1","","0","0","1","0.3620900841","","","37","0.3354302382","","main_expt","0.4","0.3620900841","0.6","","0.4227305347","0.8","0.08867332122","0.2","","","","","","","",""
"104","","bandit","116","316570","0.0-77.0-0.0","51686832","wem/bandit_either","A1YVMDRR9W1LZ1","either","3","","","","","","","76","L","3","","0","0","1","0.0804097964","","","38","0.3359947902","","main_expt","0.4","0.3649119955","0.6","","0.3904174821","0.8","0.0804097964","0.2","","","","","","","",""
"166","","bandit","117","318245","0.0-78.0-0.0","51686832","wem/bandit_either","A1YVMDRR9W1LZ1","either","3","","","","","","","74","J","1","","0","0","1","0.3993258453","","","39","0.3719467902","","main_expt","0.4","0.3993258453","0.6","","0.3704092514","0.8","0.1092906338","0.2","","","","","","","",""
"45","","bandit","118","319797","0.0-79.0-0.0","51686832","wem/bandit_either","A1YVMDRR9W1LZ1","either","3","","","","","","","76","L","3","","0","0","1","","0.08771014895","","40","","0.37180955","main_expt","0.4","","0.6","0.43145226","","0.8","","0.2","0.3250394812","0.08771014895","","","","","",""
"193","","bandit","119","321502","0.0-80.0-0.0","51686832","wem/bandit_either","A1YVMDRR9W1LZ1","either","3","","","","","","","74","J","1","","0","0","1","","0.3925837484","","41","","0.3972707938","main_expt","0.4","","0.6","0.3925837484","","0.8","","0.2","0.3633775572","0.1065106481","","","","","",""
"237","","bandit","120","323249","0.0-81.0-0.0","51686832","wem/bandit_either","A1YVMDRR9W1LZ1","either","3","","","","","","","76","L","3","","0","0","1","","0.0926848955","","42","","0.3981555674","main_expt","0.4","","0.6","0.4020613291","","0.8","","0.2","0.3708570881","0.0926848955","","","","","",""
"19","","bandit","121","324781","0.0-82.0-0.0","51686832","wem/bandit_either","A1YVMDRR9W1LZ1","either","3","","","","","","","74","J","1","","0","1","0","","0.4199094288","","43","","0.3698022864","main_expt","0.4","","0.6","0.4199094288","","0.8","","0.2","0.3852030547","0.09213729174","","","","","",""
"232","","bandit","122","326518","0.0-83.0-0.0","51686832","wem/bandit_either","A1YVMDRR9W1LZ1","either","3","","","","","","","76","L","3","","0","0","1","0.0950319608","","","44","0.3278340923","","main_expt","0.4","0.4362917367","0.6","","0.3653477133","0.8","0.0950319608","0.2","","","","","","","",""
"65","","bandit","123","328695","0.0-84.0-0.0","51686832","wem/bandit_either","A1YVMDRR9W1LZ1","either","3","","","","","","","74","J","1","","1","0","0","0.4310393502","","","45","0.4004869948","","main_expt","0.4","0.4310393502","0.6","","0.3423722135","0.8","0.07917944011","0.2","","","","","","","",""
"2318","","bandit","124","332518","0.0-85.0-0.0","51686832","wem/bandit_either","A1YVMDRR9W1LZ1","either","3","","","","","","","74","J","1","","0","0","1","0.4301719659","","","46","0.4389658195","","main_expt","0.4","0.4301719659","0.6","","0.2713785315","0.8","0.08528552535","0.2","","","","","","","",""
"87","","bandit","125","334134","0.0-86.0-0.0","51686832","wem/bandit_either","A1YVMDRR9W1LZ1","either","3","","","","","","","76","L","3","","0","0","1","","0.08303267599","","47","","0.4294918489","main_expt","0.4","","0.6","0.4274268526","","0.8","","0.2","0.2675382036","0.08303267599","","","","","",""
"158","","bandit","126","335801","0.0-87.0-0.0","51686832","wem/bandit_either","A1YVMDRR9W1LZ1","either","3","","","","","","","74","J","1","","0","0","1","0.4559220927","","","48","0.3948346084","","main_expt","0.4","0.4559220927","0.6","","0.3006553151","0.8","0.1183490009","0.2","","","","","","","",""
"3","","bandit","127","337313","0.0-88.0-0.0","51686832","wem/bandit_either","A1YVMDRR9W1LZ1","either","3","","","","","","","76","L","3","","0","0","1","","0.09831357925","","49","","0.4226663974","main_expt","0.4","","0.6","0.4362936898","","0.8","","0.2","0.2865645246","0.09831357925","","","","","",""
"50","","bandit","128","338873","0.0-89.0-0.0","51686832","wem/bandit_either","A1YVMDRR9W1LZ1","either","3","","","","","","","74","J","1","","0","0","1","","0.4001593617","","50","","0.3943232949","main_expt","0.4","","0.6","0.4001593617","","0.8","","0.2","0.2842330123","0.0896163698","","","","","",""
"36","","bandit","129","340418","0.0-90.0-0.0","51686832","wem/bandit_either","A1YVMDRR9W1LZ1","either","3","","","","","","","76","L","3","","0","1","0","","0.08239790895","","51","","0.3911898034","main_expt","0.4","","0.6","0.3737598101","","0.8","","0.2","0.2933637591","0.08239790895","","","","","",""
"35","","bandit","130","341963","0.0-91.0-0.0","51686832","wem/bandit_either","A1YVMDRR9W1LZ1","either","3","","","","","","","74","J","1","","0","0","1","","0.3490564905","","52","","0.3897106723","main_expt","0.4","","0.6","0.3490564905","","0.8","","0.2","0.2802127762","0.06509061927","","","","","",""
"68","","bandit","131","343541","0.0-92.0-0.0","51686832","wem/bandit_either","A1YVMDRR9W1LZ1","either","3","","","","","","","76","L","3","","0","0","1","","0.05503049918","","53","","0.3977919118","main_expt","0.4","","0.6","0.3606416198","","0.8","","0.2","0.2567133084","0.05503049918","","","","","",""
"78","","bandit","132","345126","0.0-93.0-0.0","51686832","wem/bandit_either","A1YVMDRR9W1LZ1","either","3","","","","","","","74","J","1","","0","0","1","0.3920172378","","","54","0.3803623479","","main_expt","0.4","0.3920172378","0.6","","0.304436262","0.8","0.06606451817","0.2","","","","","","","",""
"40","","bandit","133","346674","0.0-94.0-0.0","51686832","wem/bandit_either","A1YVMDRR9W1LZ1","either","3","","","","","","","75","K","2","","0","0","1","0.3050376594","","","55","0.3898030924","","main_expt","0.4","0.3841867886","0.6","","0.3050376594","0.8","0.0812436444","0.2","","","","","","","",""
"58","","bandit","134","348242","0.0-95.0-0.0","51686832","wem/bandit_either","A1YVMDRR9W1LZ1","either","3","","","","","","","72","H","0","img/none_selected.jpg","0","0","1","","0.4332266089","","56","","0.4332266089","main_expt","0.4","","0.6","0.3752679739","","0.8","","0.2","0.2874076515","0.05752214818","","","","","",""
"52","","bandit","135","349802","0.0-96.0-0.0","51686832","wem/bandit_either","A1YVMDRR9W1LZ1","either","3","","","","","","","75","K","2","","0","0","1","0.2633226407","","","57","0.4598680415","","main_expt","0.4","0.3595388075","0.6","","0.2633226407","0.8","0.05957573693","0.2","","","","","","","",""
"2","","bandit","136","351313","0.0-97.0-0.0","51686832","wem/bandit_either","A1YVMDRR9W1LZ1","either","3","","","","","","","74","J","1","","0","0","1","0.2926617498","","","58","0.4510058242","","main_expt","0.4","0.2926617498","0.6","","0.282557186","0.8","0.08347810371","0.2","","","","","","","",""
"167","","bandit","137","352993","0.0-98.0-0.0","51686832","wem/bandit_either","A1YVMDRR9W1LZ1","either","3","","","","","","","76","L","3","","0","0","1","","0.1166757522","","59","","0.4587464736","main_expt","0.4","","0.6","0.2854140482","","0.8","","0.2","0.2675679041","0.1166757522","","","","","",""
"13","","bandit","138","354514","0.0-99.0-0.0","51686832","wem/bandit_either","A1YVMDRR9W1LZ1","either","3","","","","","","","74","J","1","","1","0","0","0.2767785787","","","60","0.4534111386","","main_expt","0.4","0.2767785787","0.6","","0.2654645802","0.8","0.1223048521","0.2","","","","","","","",""
"53","","bandit","139","356072","0.0-100.0-0.0","51686832","wem/bandit_either","A1YVMDRR9W1LZ1","either","3","","","","","","","76","L","3","","0","1","0","","0.1341525672","","61","","0.4581751116","main_expt","0.4","","0.6","0.3110110239","","0.8","","0.2","0.2326588137","0.1341525672","","","","","",""
"116","","bandit","140","357697","0.0-101.0-0.0","51686832","wem/bandit_either","A1YVMDRR9W1LZ1","either","3","","","","","","","74","J","1","","0","0","1","","0.2739379344","","62","","0.4447189615","main_expt","0.4","","0.6","0.2739379344","","0.8","","0.2","0.2430345153","0.1748443247","","","","","",""
"18","","bandit","141","359223","0.0-102.0-0.0","51686832","wem/bandit_either","A1YVMDRR9W1LZ1","either","3","","","","","","","76","L","3","","0","0","1","","0.1872250423","","63","","0.4351057758","main_expt","0.4","","0.6","0.2518438402","","0.8","","0.2","0.2682261916","0.1872250423","","","","","",""
"63","","bandit","142","360800","0.0-103.0-0.0","51686832","wem/bandit_either","A1YVMDRR9W1LZ1","either","3","","","","","","","74","J","1","","0","0","1","","0.216118181","","64","","0.4559228662","main_expt","0.4","","0.6","0.216118181","","0.8","","0.2","0.3136585585","0.1592276408","","","","","",""
"178","","bandit","143","362492","0.0-104.0-0.0","51686832","wem/bandit_either","A1YVMDRR9W1LZ1","either","3","","","","","","","76","L","3","","0","0","1","0.1881419285","","","65","0.4526438492","","main_expt","0.4","0.1961712117","0.6","","0.3208042698","0.8","0.1881419285","0.2","","","","","","","",""
"164","","bandit","144","364161","0.0-105.0-0.0","51686832","wem/bandit_either","A1YVMDRR9W1LZ1","either","3","","","","","","","76","L","3","","0","0","1","","0.2075830042","","66","","0.4604690516","main_expt","0.4","","0.6","0.1821057022","","0.8","","0.2","0.3550213758","0.2075830042","","","","","",""
"21","","bandit","145","365690","0.0-106.0-0.0","51686832","wem/bandit_either","A1YVMDRR9W1LZ1","either","3","","","","","","","74","J","1","","0","0","1","0.2221692745","","","67","0.4479534522","","main_expt","0.4","0.2221692745","0.6","","0.2883445083","0.8","0.210321401","0.2","","","","","","","",""
"118","","bandit","146","367321","0.0-107.0-0.0","51686832","wem/bandit_either","A1YVMDRR9W1LZ1","either","3","","","","","","","72","H","0","img/none_selected.jpg","0","0","1","0.4420076102","","","68","0.4420076102","","main_expt","0.4","0.2385328342","0.6","","0.2492112051","0.8","0.1740681144","0.2","","","","","","","",""
"196","","bandit","147","369024","0.0-108.0-0.0","51686832","wem/bandit_either","A1YVMDRR9W1LZ1","either","3","","","","","","","75","K","2","","0","0","1","0.1725364023","","","69","0.3840886122","","main_expt","0.4","0.2693988132","0.6","","0.1725364023","0.8","0.1495678232","0.2","","","","","","","",""
"186","","bandit","148","370717","0.0-109.0-0.0","51686832","wem/bandit_either","A1YVMDRR9W1LZ1","either","3","","","","","","","74","J","1","","1","0","0","0.2633889128","","","70","0.3764426572","","main_expt","0.4","0.2633889128","0.6","","0.2081322216","0.8","0.1594524764","0.2","","","","","","","",""
"19","","bandit","149","372245","0.0-110.0-0.0","51686832","wem/bandit_either","A1YVMDRR9W1LZ1","either","3","","","","","","","76","L","3","","0","0","1","","0.1308665948","","71","","0.3925575972","main_expt","0.4","","0.6","0.2881785301","","0.8","","0.2","0.2222096595","0.1308665948","","","","","",""
"50","","bandit","150","373806","0.0-111.0-0.0","51686832","wem/bandit_either","A1YVMDRR9W1LZ1","either","3","","","","","","","74","J","1","","0","0","1","0.3496752211","","","72","0.4055717031","","main_expt","0.4","0.3496752211","0.6","","0.2276413934","0.8","0.1413665491","0.2","","","","","","","",""
"81","","bandit","151","375395","0.0-112.0-0.0","51686832","wem/bandit_either","A1YVMDRR9W1LZ1","either","3","","","","","","","74","J","1","","1","0","0","0.3662649551","","","73","0.4313753627","","main_expt","0.4","0.3662649551","0.6","","0.202726327","0.8","0.1562096843","0.2","","","","","","","",""
"208","","bandit","152","377109","0.0-113.0-0.0","51686832","wem/bandit_either","A1YVMDRR9W1LZ1","either","3","","","","","","","75","K","2","","0","0","1","","0.2465356434","","74","","0.4294283137","main_expt","0.4","","0.6","0.3318597218","","0.8","","0.2","0.2465356434","0.1601549975","","","","","",""
"257","","bandit","153","378873","0.0-114.0-0.0","51686832","wem/bandit_either","A1YVMDRR9W1LZ1","either","3","","","","","","","75","K","2","","0","0","1","","0.2780880013","","75","","0.4114775526","main_expt","0.4","","0.6","0.3129946244","","0.8","","0.2","0.2780880013","0.1962365409","","","","","",""
"84","","bandit","154","380464","0.0-115.0-0.0","51686832","wem/bandit_either","A1YVMDRR9W1LZ1","either","3","","","","","","","74","J","1","","0","0","1","0.3299880354","","","76","0.4038916894","","main_expt","0.4","0.3299880354","0.6","","0.230570622","0.8","0.2315068675","0.2","","","","","","","",""
"151","","bandit","155","382124","0.0-116.0-0.0","51686832","wem/bandit_either","A1YVMDRR9W1LZ1","either","3","","","","","","","76","L","3","","0","0","1","","0.1749603823","","77","","0.4028298088","main_expt","0.4","","0.6","0.2704336052","","0.8","","0.2","0.1747897532","0.1749603823","","","","","",""
"93","","bandit","156","383722","0.0-117.0-0.0","51686832","wem/bandit_either","A1YVMDRR9W1LZ1","either","3","","","","","","","76","L","3","","1","0","0","0.2091975686","","","78","0.4004321452","","main_expt","0.4","0.2489008917","0.6","","0.2009150394","0.8","0.2091975686","0.2","","","","","","","",""
"48","","bandit","157","385280","0.0-118.0-0.0","51686832","wem/bandit_either","A1YVMDRR9W1LZ1","either","3","","","","","","","74","J","1","","0","0","1","0.2182462247","","","79","0.3909827091","","main_expt","0.4","0.2182462247","0.6","","0.2090883318","0.8","0.2699334682","0.2","","","","","","","",""
"109","","bandit","158","386898","0.0-119.0-0.0","51686832","wem/bandit_either","A1YVMDRR9W1LZ1","either","3","","","","","","","74","J","1","","0","0","1","","0.1591694045","","80","","0.4289339141","main_expt","0.4","","0.6","0.1591694045","","0.8","","0.2","0.215522018","0.2712134299","","","","","",""
"219","","bandit","159","388633","0.0-120.0-0.0","51686832","wem/bandit_either","A1YVMDRR9W1LZ1","either","3","","","","","","","76","L","3","","0","0","1","","0.2563236188","","81","","0.4256341571","main_expt","0.4","","0.6","0.1661146317","","0.8","","0.2","0.2655955182","0.2563236188","","","","","",""
"130","","bandit","160","390275","0.0-121.0-0.0","51686832","wem/bandit_either","A1YVMDRR9W1LZ1","either","3","","","","","","","74","J","1","","0","0","1","0.2249160828","","","82","0.4153375647","","main_expt","0.4","0.2249160828","0.6","","0.2642342948","0.8","0.2474856626","0.2","","","","","","","",""
"28","","bandit","161","391813","0.0-122.0-0.0","51686832","wem/bandit_either","A1YVMDRR9W1LZ1","either","3","","","","","","","76","L","3","","0","0","1","0.2338037125","","","83","0.4239102097","","main_expt","0.4","0.2194800234","0.6","","0.2615040017","0.8","0.2338037125","0.2","","","","","","","",""
"78","","bandit","162","393396","0.0-123.0-0.0","51686832","wem/bandit_either","A1YVMDRR9W1LZ1","either","3","","","","","","","76","L","3","","0","0","1","0.2929655049","","","84","0.4021041833","","main_expt","0.4","0.2020024956","0.6","","0.3136368113","0.8","0.2929655049","0.2","","","","","","","",""
"85","","bandit","163","394995","0.0-124.0-0.0","51686832","wem/bandit_either","A1YVMDRR9W1LZ1","either","3","","","","","","","74","J","1","","0","0","1","0.1639230135","","","85","0.4322374594","","main_expt","0.4","0.1639230135","0.6","","0.2433538552","0.8","0.2755572306","0.2","","","","","","","",""
"67","","bandit","164","396570","0.0-125.0-0.0","51686832","wem/bandit_either","A1YVMDRR9W1LZ1","either","3","","","","","","","76","L","3","","0","0","1","","0.2706615249","","86","","0.4247618508","main_expt","0.4","","0.6","0.1423092638","","0.8","","0.2","0.2583740773","0.2706615249","","","","","",""
"241","","bandit","165","398322","0.0-126.0-0.0","51686832","wem/bandit_either","A1YVMDRR9W1LZ1","either","3","","","","","","","76","L","3","","0","1","0","","0.3259805539","","87","","0.4130492334","main_expt","0.4","","0.6","0.1623313408","","0.8","","0.2","0.2656778135","0.3259805539","","","","","",""
"128","","bandit","166","399967","0.0-127.0-0.0","51686832","wem/bandit_either","A1YVMDRR9W1LZ1","either","3","","","","","","","74","J","1","","0","0","1","","0.1459946163","","88","","0.3883747858","main_expt","0.4","","0.6","0.1459946163","","0.8","","0.2","0.2565525481","0.3471137027","","","","","",""
"80","","bandit","167","401557","0.0-128.0-0.0","51686832","wem/bandit_either","A1YVMDRR9W1LZ1","either","3","","","","","","","76","L","3","","0","0","1","","0.3715311126","","89","","0.3950807547","main_expt","0.4","","0.6","0.1684807643","","0.8","","0.2","0.2471999074","0.3715311126","","","","","",""
"26","","bandit","168","403094","0.0-129.0-0.0","51686832","wem/bandit_either","A1YVMDRR9W1LZ1","either","3","","","","","","","76","L","3","","0","1","0","","0.3571728809","","90","","0.420982679","main_expt","0.4","","0.6","0.1937692241","","0.8","","0.2","0.2204199549","0.3571728809","","","","","",""
"184","","bandit","169","404788","0.0-130.0-0.0","51686832","wem/bandit_either","A1YVMDRR9W1LZ1","either","3","","","","","","","74","J","1","","0","0","1","0.1670397906","","","91","0.4012606491","","main_expt","0.4","0.1670397906","0.6","","0.2013548925","0.8","0.3348642023","0.2","","","","","","","",""
"146","","bandit","170","406448","0.0-131.0-0.0","51686832","wem/bandit_either","A1YVMDRR9W1LZ1","either","3","","","","","","","76","L","3","","0","0","1","","0.3551195155","","92","","0.3950870333","main_expt","0.4","","0.6","0.1936095216","","0.8","","0.2","0.174921714","0.3551195155","","","","","",""
"96","","bandit","171","408052","0.0-132.0-0.0","51686832","wem/bandit_either","A1YVMDRR9W1LZ1","either","3","","","","","","","76","L","3","","0","0","1","","0.3494458231","","93","","0.3797372222","main_expt","0.4","","0.6","0.2399824117","","0.8","","0.2","0.1972058505","0.3494458231","","","","","",""
"56","","bandit","172","409614","0.0-133.0-0.0","51686832","wem/bandit_either","A1YVMDRR9W1LZ1","either","3","","","","","","","74","J","1","","0","0","1","0.242536602","","","94","0.3346339076","","main_expt","0.4","0.242536602","0.6","","0.2144007407","0.8","0.3759818745","0.2","","","","","","","",""
"58","","bandit","173","411189","0.0-134.0-0.0","51686832","wem/bandit_either","A1YVMDRR9W1LZ1","either","3","","","","","","","74","J","1","","1","0","0","0.3081296623","","","95","0.3433005441","","main_expt","0.4","0.3081296623","0.6","","0.2025691914","0.8","0.3467088588","0.2","","","","","","","",""
"413","","bandit","174","413112","0.0-135.0-0.0","51686832","wem/bandit_either","A1YVMDRR9W1LZ1","either","3","","","","","","","74","J","1","","1","0","0","0.371766452","","","96","0.2900415689","","main_expt","0.4","0.371766452","0.6","","0.1750118246","0.8","0.3520186383","0.2","","","","","","","",""
"74","","bandit","175","414694","0.0-136.0-0.0","51686832","wem/bandit_either","A1YVMDRR9W1LZ1","either","3","","","","","","","76","L","3","","0","0","1","0.342216001","","","97","0.3136050561","","main_expt","0.4","0.3737721809","0.6","","0.2433812568","0.8","0.342216001","0.2","","","","","","","",""
"199","","bandit","176","416403","0.0-137.0-0.0","51686832","wem/bandit_either","A1YVMDRR9W1LZ1","either","3","","","","","","","74","J","1","","0","0","1","","0.3662625892","","98","","0.3236610102","main_expt","0.4","","0.6","0.3662625892","","0.8","","0.2","0.1834100281","0.3775958225","","","","","",""
"99","","bandit","177","418016","0.0-138.0-0.0","51686832","wem/bandit_either","A1YVMDRR9W1LZ1","either","3","","","","","","","76","L","3","","0","0","1","","0.3490624926","","99","","0.3116662608","main_expt","0.4","","0.6","0.3912879072","","0.8","","0.2","0.146161558","0.3490624926","","","","","",""
"121","","bandit","178","419651","0.0-139.0-0.0","51686832","wem/bandit_either","A1YVMDRR9W1LZ1","either","3","","","","","","","72","H","0","img/none_selected.jpg","0","1","0","","0.3806420769","","100","","0.3806420769","main_expt","0.4","","0.6","0.3916888764","","0.8","","0.2","0.1186266926","0.3418910903","","","","","",""
"75","","bandit","179","421233","0.0-140.0-0.0","51686832","wem/bandit_either","A1YVMDRR9W1LZ1","either","3","","","","","","","75","K","2","","0","0","1","0.1467879228","","","101","0.3825052475","","main_expt","0.4","0.3803758031","0.6","","0.1467879228","0.8","0.3544055354","0.2","","","","","","","",""
"87","","bandit","180","422830","0.0-141.0-0.0","51686832","wem/bandit_either","A1YVMDRR9W1LZ1","either","3","","","","","","","72","H","0","img/none_selected.jpg","0","0","1","","0.3799327693","","102","","0.3799327693","main_expt","0.4","","0.6","0.3685266224","","0.8","","0.2","0.1336514036","0.3580864163","","","","","",""
"147","","bandit","181","424486","0.0-142.0-0.0","51686832","wem/bandit_either","A1YVMDRR9W1LZ1","either","3","","","","","","","76","L","3","","0","0","1","","0.336528594","","103","","0.3502018886","main_expt","0.4","","0.6","0.3754978655","","0.8","","0.2","0.1325092095","0.336528594","","","","","",""
"134","","bandit","182","426130","0.0-143.0-0.0","51686832","wem/bandit_either","A1YVMDRR9W1LZ1","either","3","","","","","","","74","J","1","","0","0","1","0.4033056484","","","104","0.3443431466","","main_expt","0.4","0.4033056484","0.6","","0.1162839287","0.8","0.3190078166","0.2","","","","","","","",""
"159","","bandit","183","427804","0.0-144.0-0.0","51686832","wem/bandit_either","A1YVMDRR9W1LZ1","either","3","","","","","","","76","L","3","","0","1","0","","0.3100940773","","105","","0.3551378046","main_expt","0.4","","0.6","0.3617388181","","0.8","","0.2","0.115620258","0.3100940773","","","","","",""
"184","","bandit","184","429498","0.0-145.0-0.0","51686832","wem/bandit_either","A1YVMDRR9W1LZ1","either","3","","","","","","","74","J","1","","1","0","0","0.3656875331","","","106","0.3177956882","","main_expt","0.4","0.3656875331","0.6","","0.1102569517","0.8","0.2964842485","0.2","","","","","","","",""
"31","","bandit","185","431037","0.0-146.0-0.0","51686832","wem/bandit_either","A1YVMDRR9W1LZ1","either","3","","","","","","","76","L","3","","0","1","0","","0.3224579283","","107","","0.3463124521","main_expt","0.4","","0.6","0.3478183852","","0.8","","0.2","0.110599846","0.3224579283","","","","","",""
"7","","bandit","186","432549","0.0-147.0-0.0","51686832","wem/bandit_either","A1YVMDRR9W1LZ1","either","3","","","","","","","74","J","1","","0","0","1","","0.3715517583","","108","","0.330790185","main_expt","0.4","","0.6","0.3715517583","","0.8","","0.2","0.1647947233","0.3365568187","","","","","",""
"59","","bandit","187","434115","0.0-148.0-0.0","51686832","wem/bandit_either","A1YVMDRR9W1LZ1","either","3","","","","","","","76","L","3","","0","0","1","","0.3200824859","","109","","0.3259779601","main_expt","0.4","","0.6","0.3713851569","","0.8","","0.2","0.146095753","0.3200824859","","","","","",""
"95","","bandit","188","435723","0.0-149.0-0.0","51686832","wem/bandit_either","A1YVMDRR9W1LZ1","either","3","","","","","","","74","J","1","","1","0","0","0.3401672382","","","110","0.3169053314","","main_expt","0.4","0.3401672382","0.6","","0.1691954855","0.8","0.3179471713","0.2","","","","","","","",""
"89","","bandit","189","437323","0.0-150.0-0.0","51686832","wem/bandit_either","A1YVMDRR9W1LZ1","either","3","","","","","","","75","K","2","","0","0","1","","0.1690298198","","111","","0.342138516","main_expt","0.4","","0.6","0.3242328008","","0.8","","0.2","0.1690298198","0.3168158386","","","","","",""
"24","","bandit","190","438856","0.0-151.0-0.0","51686832","wem/bandit_either","A1YVMDRR9W1LZ1","either","3","","","","","","","72","H","0","img/none_selected.jpg","0","1","0","","0.3597886873","","112","","0.3597886873","main_expt","0.4","","0.6","0.2991119965","","0.8","","0.2","0.2196992501","0.3551606626","","","","","",""
"33","","bandit","191","440397","0.0-152.0-0.0","51686832","wem/bandit_either","A1YVMDRR9W1LZ1","either","3","","","","","","","76","L","3","","0","0","1","0.3615444015","","","113","0.3580549124","","main_expt","0.4","0.3364281798","0.6","","0.2723467559","0.8","0.3615444015","0.2","","","","","","","",""
"176","","bandit","192","442089","0.0-153.0-0.0","51686832","wem/bandit_either","A1YVMDRR9W1LZ1","either","3","","","","","","","74","J","1","","1","0","0","0.3495122724","","","114","0.3556181037","","main_expt","0.4","0.3495122724","0.6","","0.2470985199","0.8","0.4043222556","0.2","","","","","","","",""
"56","","bandit","193","443659","0.0-154.0-0.0","51686832","wem/bandit_either","A1YVMDRR9W1LZ1","either","3","","","","","","","76","L","3","","0","0","1","","0.4179696435","","115","","0.3489042174","main_expt","0.4","","0.6","0.324938203","","0.8","","0.2","0.2482590513","0.4179696435","","","","","",""
"1","","bandit","194","445167","0.0-155.0-0.0","51686832","wem/bandit_either","A1YVMDRR9W1LZ1","either","3","","","","","","","72","H","0","img/none_selected.jpg","1","0","0","0.3466245191","","","116","0.3466245191","","main_expt","0.4","0.3227512736","0.6","","0.1992012358","0.8","0.4324393975","0.2","","","","","","","",""
"171","","bandit","195","446846","0.0-156.0-0.0","51686832","wem/bandit_either","A1YVMDRR9W1LZ1","either","3","","","","","","","75","K","2","","0","0","1","0.216355905","","","117","0.3581754781","","main_expt","0.4","0.2585209305","0.6","","0.216355905","0.8","0.4290779421","0.2","","","","","","","",""
"12","","bandit","196","448371","0.0-157.0-0.0","51686832","wem/bandit_either","A1YVMDRR9W1LZ1","either","3","","","","","","","72","H","0","img/none_selected.jpg","0","1","0","","0.283939031","","118","","0.283939031","main_expt","0.4","","0.6","0.2817260076","","0.8","","0.2","0.1715453935","0.4459264202","","","","","",""
"41","","bandit","197","449926","0.0-158.0-0.0","51686832","wem/bandit_either","A1YVMDRR9W1LZ1","either","3","","","","","","","76","L","3","","0","1","0","","0.436995295","","119","","0.2992634423","main_expt","0.4","","0.6","0.328214026","","0.8","","0.2","0.1843456939","0.436995295","","","","","",""
"164","","bandit","198","451598","0.0-159.0-0.0","51686832","wem/bandit_either","A1YVMDRR9W1LZ1","either","3","","","","","","","74","J","1","","0","0","1","0.3355603121","","","120","0.1878150733","","main_expt","0.4","0.3355603121","0.6","","0.1848061615","0.8","0.4151314625","0.2","","","","","","","",""
"79","","bandit","199","453185","0.0-160.0-0.0","51686832","wem/bandit_either","A1YVMDRR9W1LZ1","either","3","","","","","","","72","H","0","img/none_selected.jpg","1","0","0","0.1447458933","","","121","0.1447458933","","main_expt","0.4","0.3829587724","0.6","","0.1679578636","0.8","0.4384064527","0.2","","","","","","","",""
"29","","bandit","200","454723","0.0-161.0-0.0","51686832","wem/bandit_either","A1YVMDRR9W1LZ1","either","3","","","","","","","76","L","3","","0","0","1","0.4417589501","","","122","0.1176060398","","main_expt","0.4","0.3995678287","0.6","","0.197295971","0.8","0.4417589501","0.2","","","","","","","",""
"228","","bandit","201","456462","0.0-162.0-0.0","51686832","wem/bandit_either","A1YVMDRR9W1LZ1","either","3","","","","","","","75","K","2","","0","0","1","0.2184653352","","","123","0.1097677055","","main_expt","0.4","0.3656739583","0.6","","0.2184653352","0.8","0.4017154396","0.2","","","","","","","",""
"92","","bandit","202","458075","0.0-163.0-0.0","51686832","wem/bandit_either","A1YVMDRR9W1LZ1","either","3","","","","","","","74","J","1","","0","0","1","0.3862549257","","","124","0.08048168986","","main_expt","0.4","0.3862549257","0.6","","0.2147868977","0.8","0.3619070526","0.2","","","","","","","",""
"126","","bandit","203","459725","0.0-164.0-0.0","51686832","wem/bandit_either","A1YVMDRR9W1LZ1","either","3","","","","","","","76","L","3","","0","0","1","","0.3567490645","","125","","0.07842900555","main_expt","0.4","","0.6","0.3593796239","","0.8","","0.2","0.1667936559","0.3567490645","","","","","",""
"188","","bandit","204","461423","0.0-165.0-0.0","51686832","wem/bandit_either","A1YVMDRR9W1LZ1","either","3","","","","","","","72","H","0","img/none_selected.jpg","1","0","0","0.08318363027","","","126","0.08318363027","","main_expt","0.4","0.3413194209","0.6","","0.1453295256","0.8","0.3558473019","0.2","","","","","","","",""
"14","","bandit","205","462944","0.0-166.0-0.0","51686832","wem/bandit_either","A1YVMDRR9W1LZ1","either","3","","","","","","","74","J","1","","0","0","1","0.3369929262","","","127","0.06812438963","","main_expt","0.4","0.3369929262","0.6","","0.1635755653","0.8","0.3543069734","0.2","","","","","","","",""
"31","","bandit","206","464483","0.0-167.0-0.0","51686832","wem/bandit_either","A1YVMDRR9W1LZ1","either","3","","","","","","","76","L","3","","0","1","0","","0.3328374851","","128","","0.08303766286","main_expt","0.4","","0.6","0.2922989636","","0.8","","0.2","0.1872639566","0.3328374851","","","","","",""
"93","","bandit","207","466088","0.0-168.0-0.0","51686832","wem/bandit_either","A1YVMDRR9W1LZ1","either","3","","","","","","","74","J","1","","1","0","0","0.3095146075","","","129","0.09047360051","","main_expt","0.4","0.3095146075","0.6","","0.2032718864","0.8","0.3238683282","0.2","","","","","","","",""
"179","","bandit","208","467777","0.0-169.0-0.0","51686832","wem/bandit_either","A1YVMDRR9W1LZ1","either","3","","","","","","","75","K","2","","0","0","1","","0.2025864764","","130","","0.131542256","main_expt","0.4","","0.6","0.3068425872","","0.8","","0.2","0.2025864764","0.2750329062","","","","","",""
"18","","bandit","209","469304","0.0-170.0-0.0","51686832","wem/bandit_either","A1YVMDRR9W1LZ1","either","3","","","","","","","74","J","1","","1","0","0","0.3112504131","","","131","0.1492019489","","main_expt","0.4","0.3112504131","0.6","","0.2158584071","0.8","0.2751886228","0.2","","","","","","","",""
"30","","bandit","210","470841","0.0-171.0-0.0","51686832","wem/bandit_either","A1YVMDRR9W1LZ1","either","3","","","","","","","76","L","3","","0","0","1","","0.2729729886","","132","","0.1571188116","main_expt","0.4","","0.6","0.3595653039","","0.8","","0.2","0.2105840197","0.2729729886","","","","","",""
"70","","bandit","211","472424","0.0-172.0-0.0","51686832","wem/bandit_either","A1YVMDRR9W1LZ1","either","3","","","","","","","74","J","1","","0","0","1","0.3873527377","","","133","0.2021073832","","main_expt","0.4","0.3873527377","0.6","","0.2328486735","0.8","0.3248088544","0.2","","","","","","","",""
"83","","bandit","212","474022","0.0-173.0-0.0","51686832","wem/bandit_either","A1YVMDRR9W1LZ1","either","3","","","","","","","76","L","3","","0","0","1","","0.3596446835","","134","","0.2693148074","main_expt","0.4","","0.6","0.3973884711","","0.8","","0.2","0.2589092944","0.3596446835","","","","","",""
"82","","bandit","213","475617","0.0-174.0-0.0","51686832","wem/bandit_either","A1YVMDRR9W1LZ1","either","3","","","","","","","74","J","1","","0","0","1","","0.4080523157","","135","","0.2625780805","main_expt","0.4","","0.6","0.4080523157","","0.8","","0.2","0.2637326353","0.318377279","","","","","",""
"53","","bandit","214","477180","0.0-175.0-0.0","51686832","wem/bandit_either","A1YVMDRR9W1LZ1","either","3","","","","","","","76","L","3","","0","0","1","","0.3160887017","","136","","0.2981707722","main_expt","0.4","","0.6","0.4176503084","","0.8","","0.2","0.2718680576","0.3160887017","","","","","",""
"57","","bandit","215","478746","0.0-176.0-0.0","51686832","wem/bandit_either","A1YVMDRR9W1LZ1","either","3","","","","","","","74","J","1","","0","0","1","0.3859803947","","","137","0.3148158286","","main_expt","0.4","0.3859803947","0.6","","0.2919957672","0.8","0.2883225013","0.2","","","","","","","",""
"5","","bandit","216","480263","0.0-177.0-0.0","51686832","wem/bandit_either","A1YVMDRR9W1LZ1","either","3","","","","","","","76","L","3","","0","0","1","","0.3009152141","","138","","0.3111523267","main_expt","0.4","","0.6","0.358492916","","0.8","","0.2","0.3193993407","0.3009152141","","","","","",""
"92","","bandit","217","481864","0.0-178.0-0.0","51686832","wem/bandit_either","A1YVMDRR9W1LZ1","either","3","","","","","","","74","J","1","","1","0","0","0.3608756281","","","139","0.3034593298","","main_expt","0.4","0.3608756281","0.6","","0.3404434035","0.8","0.293720077","0.2","","","","","","","",""
"116","","bandit","218","483490","0.0-179.0-0.0","51686832","wem/bandit_either","A1YVMDRR9W1LZ1","either","3","","","","","","","76","L","3","","0","0","1","","0.286059761","","140","","0.2507495005","main_expt","0.4","","0.6","0.3421836092","","0.8","","0.2","0.3278052243","0.286059761","","","","","",""
"182","","bandit","219","485181","0.0-180.0-0.0","51686832","wem/bandit_either","A1YVMDRR9W1LZ1","either","3","","","","","","","74","J","1","","0","0","1","","0.3737340371","","141","","0.2220694513","main_expt","0.4","","0.6","0.3737340371","","0.8","","0.2","0.3038906839","0.2931724706","","","","","",""
"173","","bandit","220","486861","0.0-181.0-0.0","51686832","wem/bandit_either","A1YVMDRR9W1LZ1","either","3","","","","","","","76","L","3","","0","1","0","","0.2182180164","","142","","0.2119249064","main_expt","0.4","","0.6","0.3461121542","","0.8","","0.2","0.2924195757","0.2182180164","","","","","",""
"184","","bandit","221","488559","0.0-182.0-0.0","51686832","wem/bandit_either","A1YVMDRR9W1LZ1","either","3","","","","","","","74","J","1","","0","0","1","0.3305931074","","","143","0.2665135591","","main_expt","0.4","0.3305931074","0.6","","0.2816149275","0.8","0.2015475508","0.2","","","","","","","",""
"66","","bandit","222","490139","0.0-183.0-0.0","51686832","wem/bandit_either","A1YVMDRR9W1LZ1","either","3","","","","","","","76","L","3","","0","0","1","0.2074070562","","","144","0.2854155153","","main_expt","0.4","0.3561039987","0.6","","0.2355525614","0.8","0.2074070562","0.2","","","","","","","",""
"157","","bandit","223","491808","0.0-184.0-0.0","51686832","wem/bandit_either","A1YVMDRR9W1LZ1","either","3","","","","","","","74","J","1","","1","0","0","0.3648023512","","","145","0.2521048148","","main_expt","0.4","0.3648023512","0.6","","0.2185662272","0.8","0.1415368311","0.2","","","","","","","",""
"23","","bandit","224","493343","0.0-185.0-0.0","51686832","wem/bandit_either","A1YVMDRR9W1LZ1","either","3","","","","","","","74","J","1","","0","0","1","0.3450315","","","146","0.2321266643","","main_expt","0.4","0.3450315","0.6","","0.2209315791","0.8","0.1549520657","0.2","","","","","","","",""
"106","","bandit","225","494963","0.0-186.0-0.0","51686832","wem/bandit_either","A1YVMDRR9W1LZ1","either","3","","","","","","","76","L","3","","0","0","1","0.1469310363","","","147","0.3159383216","","main_expt","0.4","0.2720321141","0.6","","0.2889766311","0.8","0.1469310363","0.2","","","","","","","",""
"194","","bandit","226","496670","0.0-187.0-0.0","51686832","wem/bandit_either","A1YVMDRR9W1LZ1","either","3","","","","","","","74","J","1","","0","0","1","0.2598972664","","","148","0.2673485129","","main_expt","0.4","0.2598972664","0.6","","0.2859466156","0.8","0.1332828417","0.2","","","","","","","",""
"129","","bandit","227","498306","0.0-188.0-0.0","51686832","wem/bandit_either","A1YVMDRR9W1LZ1","either","3","","","","","","","76","L","3","","0","0","1","","0.1102010463","","149","","0.3348600541","main_expt","0.4","","0.6","0.2343157719","","0.8","","0.2","0.2588478233","0.1102010463","","","","","",""
"112","","bandit","228","499931","0.0-189.0-0.0","51686832","wem/bandit_either","A1YVMDRR9W1LZ1","either","3","","","","","","","74","J","1","","0","0","1","0.2451363599","","","150","0.3659656834","","main_expt","0.4","0.2451363599","0.6","","0.2224653457","0.8","0.1356103494","0.2","","","","","","","",""
"131","","bandit","229","501578","0.0-190.0-0.0","51686832","wem/bandit_either","A1YVMDRR9W1LZ1","either","3","","","","","","","76","L","3","","0","1","0","","0.1621229287","","151","","0.36397653","main_expt","0.4","","0.6","0.2053737132","","0.8","","0.2","0.2387237716","0.1621229287","","","","","",""
"141","","bandit","230","503228","0.0-191.0-0.0","51686832","wem/bandit_either","A1YVMDRR9W1LZ1","either","3","","","","","","","75","K","2","","0","0","1","0.2519133504","","","152","0.3710672623","","main_expt","0.4","0.2396242378","0.6","","0.2519133504","0.8","0.1412745606","0.2","","","","","","","",""
"118","","bandit","231","504854","0.0-192.0-0.0","51686832","wem/bandit_either","A1YVMDRR9W1LZ1","either","3","","","","","","","72","H","0","img/none_selected.jpg","0","0","1","","0.3828607765","","153","","0.3828607765","main_expt","0.4","","0.6","0.2923277395","","0.8","","0.2","0.3078499427","0.1707580034","","","","","",""
"39","","bandit","232","506403","0.0-193.0-0.0","51686832","wem/bandit_either","A1YVMDRR9W1LZ1","either","3","","","","","","","74","J","1","","0","0","1","","0.3166515581","","154","","0.3526468527","main_expt","0.4","","0.6","0.3166515581","","0.8","","0.2","0.3283820497","0.1717455462","","","","","",""
"82","","bandit","233","508018","0.0-194.0-0.0","51686832","wem/bandit_either","A1YVMDRR9W1LZ1","either","3","","","","","","","76","L","3","","0","1","0","","0.1785539081","","155","","0.3865981945","main_expt","0.4","","0.6","0.3194616596","","0.8","","0.2","0.3303057687","0.1785539081","","","","","",""
"152","","bandit","234","509686","0.0-195.0-0.0","51686832","wem/bandit_either","A1YVMDRR9W1LZ1","either","3","","","","","","","74","J","1","","1","0","0","0.3767011333","","","156","0.4328422877","","main_expt","0.4","0.3767011333","0.6","","0.3178912443","0.8","0.2175815231","0.2","","","","","","","",""
"129","","bandit","235","511331","0.0-196.0-0.0","51686832","wem/bandit_either","A1YVMDRR9W1LZ1","either","3","","","","","","","76","L","3","","0","1","0","","0.216674397","","157","","0.4224906378","main_expt","0.4","","0.6","0.3853144204","","0.8","","0.2","0.3236874272","0.216674397","","","","","",""
"124","","bandit","236","512965","0.0-197.0-0.0","51686832","wem/bandit_either","A1YVMDRR9W1LZ1","either","3","","","","","","","74","J","1","","0","0","1","0.3519128793","","","158","0.4428847078","","main_expt","0.4","0.3519128793","0.6","","0.3731337511","0.8","0.2184316938","0.2","","","","","","","",""
"251","","bandit","237","514732","0.0-198.0-0.0","51686832","wem/bandit_either","A1YVMDRR9W1LZ1","either","3","","","","","","","76","L","3","","0","0","1","","0.2603966468","","159","","0.4498083842","main_expt","0.4","","0.6","0.3255157266","","0.8","","0.2","0.3758107074","0.2603966468","","","","","",""
"185","","bandit","238","516430","0.0-199.0-0.0","51686832","wem/bandit_either","A1YVMDRR9W1LZ1","either","3","","","","","","","74","J","1","","0","0","1","","0.379238532","","160","","0.4319550234","main_expt","0.4","","0.6","0.379238532","","0.8","","0.2","0.3494215766","0.2242017374","","","","","",""
"10","","bandit","239","517951","0.0-200.0-0.0","51686832","wem/bandit_either","A1YVMDRR9W1LZ1","either","3","","","","","","","75","K","2","","0","0","1","0.3327111917","","","161","0.4417514389","","main_expt","0.4","0.3776335756","0.6","","0.3327111917","0.8","0.2014027125","0.2","","","","","","","",""
"156","","bandit","240","519617","0.0-201.0-0.0","51686832","wem/bandit_either","A1YVMDRR9W1LZ1","either","3","","","","","","","72","H","0","img/none_selected.jpg","0","0","1","","0.4081293495","","162","","0.4081293495","main_expt","0.4","","0.6","0.2955751891","","0.8","","0.2","0.3171011618","0.2038621466","","","","","",""
"44","","bandit","241","521174","0.0-202.0-0.0","51686832","wem/bandit_either","A1YVMDRR9W1LZ1","either","3","","","","","","","74","J","1","","0","0","1","0.30851492","","","163","0.4265776113","","main_expt","0.4","0.30851492","0.6","","0.364183239","0.8","0.1238136799","0.2","","","","","","","",""
"175","","bandit","242","522857","0.0-203.0-0.0","51686832","wem/bandit_either","A1YVMDRR9W1LZ1","either","3","","","","","","","76","L","3","","0","0","1","","0.1104941302","","164","","0.427472809","main_expt","0.4","","0.6","0.3074756362","","0.8","","0.2","0.3917374524","0.1104941302","","","","","",""
"50","","bandit","243","524419","0.0-204.0-0.0","51686832","wem/bandit_either","A1YVMDRR9W1LZ1","either","3","","","","","","","74","J","1","","0","0","1","","0.2743039079","","165","","0.4016343469","main_expt","0.4","","0.6","0.2743039079","","0.8","","0.2","0.3629360172","0.1099358877","","","","","",""
"168","","bandit","244","526100","0.0-205.0-0.0","51686832","wem/bandit_either","A1YVMDRR9W1LZ1","either","3","","","","","","","74","J","1","","1","0","0","0.2900226329","","","166","0.3578169927","","main_expt","0.4","0.2900226329","0.6","","0.3697042915","0.8","0.08082918558","0.2","","","","","","","",""
"41","","bandit","245","527653","0.0-206.0-0.0","51686832","wem/bandit_either","A1YVMDRR9W1LZ1","either","3","","","","","","","74","J","1","","0","1","0","","0.3444017494","","167","","0.3346076013","main_expt","0.4","","0.6","0.3444017494","","0.8","","0.2","0.3626443337","0.08539074978","","","","","",""
"172","","bandit","246","529343","0.0-207.0-0.0","51686832","wem/bandit_either","A1YVMDRR9W1LZ1","either","3","","","","","","","76","L","3","","0","0","1","0.1307687804","","","168","0.36326211","","main_expt","0.4","0.3934904689","0.6","","0.3488380128","0.8","0.1307687804","0.2","","","","","","","",""
"132","","bandit","247","530993","0.0-208.0-0.0","51686832","wem/bandit_either","A1YVMDRR9W1LZ1","either","3","","","","","","","74","J","1","","0","1","0","","0.3712778229","","169","","0.3389060657","main_expt","0.4","","0.6","0.3712778229","","0.8","","0.2","0.3338465455","0.09435724838","","","","","",""
"22","","bandit","248","532521","0.0-209.0-0.0","51686832","wem/bandit_either","A1YVMDRR9W1LZ1","either","3","","","","","","","74","J","1","","1","0","0","0.3348119161","","","170","0.3820287301","","main_expt","0.4","0.3348119161","0.6","","0.3675902536","0.8","0.09371103674","0.2","","","","","","","",""
"25","","bandit","249","534053","0.0-210.0-0.0","51686832","wem/bandit_either","A1YVMDRR9W1LZ1","either","3","","","","","","","76","L","3","","0","0","1","","0.0912992704","","171","","0.3738350687","main_expt","0.4","","0.6","0.3697689907","","0.8","","0.2","0.3663425941","0.0912992704","","","","","",""
"127","","bandit","250","535697","0.0-211.0-0.0","51686832","wem/bandit_either","A1YVMDRR9W1LZ1","either","3","","","","","","","76","L","3","","0","0","1","","0.1053216192","","172","","0.3449486646","main_expt","0.4","","0.6","0.3438364448","","0.8","","0.2","0.3571019768","0.1053216192","","","","","",""
"174","","bandit","251","537381","0.0-212.0-0.0","51686832","wem/bandit_either","A1YVMDRR9W1LZ1","either","3","","","","","","","74","J","1","","0","0","1","0.4064517123","","","173","0.3754463001","","main_expt","0.4","0.4064517123","0.6","","0.383943734","0.8","0.1119971747","0.2","","","","","","","",""
"13","","bandit","252","538901","0.0-213.0-0.0","51686832","wem/bandit_either","A1YVMDRR9W1LZ1","either","3","","","","","","","75","K","2","","0","0","1","","0.378453819","","174","","0.3983783957","main_expt","0.4","","0.6","0.4266345201","","0.8","","0.2","0.378453819","0.1049574405","","","","","",""
"85","","bandit","253","540496","0.0-214.0-0.0","51686832","wem/bandit_either","A1YVMDRR9W1LZ1","either","3","","","","","","","72","H","0","img/none_selected.jpg","0","0","1","","0.4176958341","","175","","0.4176958341","main_expt","0.4","","0.6","0.4413212306","","0.8","","0.2","0.3577460836","0.07351671593","","","","","",""
"134","","bandit","254","542139","0.0-215.0-0.0","51686832","wem/bandit_either","A1YVMDRR9W1LZ1","either","3","","","","","","","76","L","3","","0","0","1","","0.06097876817","","176","","0.4336280271","main_expt","0.4","","0.6","0.438548454","","0.8","","0.2","0.3346789668","0.06097876817","","","","","",""
"84","","bandit","255","543739","0.0-216.0-0.0","51686832","wem/bandit_either","A1YVMDRR9W1LZ1","either","3","","","","","","","74","J","1","","0","0","1","0.4350726265","","","177","0.3863917124","","main_expt","0.4","0.4350726265","0.6","","0.3720341948","0.8","0.05873143133","0.2","","","","","","","",""
"102","","bandit","256","545352","0.0-217.0-0.0","51686832","wem/bandit_either","A1YVMDRR9W1LZ1","either","3","","","","","","","76","L","3","","0","0","1","","0.07829718294","","178","","0.3826512014","main_expt","0.4","","0.6","0.4029859975","","0.8","","0.2","0.4243236705","0.07829718294","","","","","",""
"54","","bandit","257","546923","0.0-218.0-0.0","51686832","wem/bandit_either","A1YVMDRR9W1LZ1","either","3","","","","","","","75","K","2","","0","0","1","0.4396564102","","","179","0.3681046487","","main_expt","0.4","0.3738585124","0.6","","0.4396564102","0.8","0.05868413977","0.2","","","","","","","",""
"195","","bandit","258","548637","0.0-219.0-0.0","51686832","wem/bandit_either","A1YVMDRR9W1LZ1","either","3","","","","","","","74","J","1","","0","0","1","0.3884150149","","","180","0.374340785","","main_expt","0.4","0.3884150149","0.6","","0.4501825932","0.8","0.04540529238","0.2","","","","","","","",""
"70","","bandit","259","550222","0.0-220.0-0.0","51686832","wem/bandit_either","A1YVMDRR9W1LZ1","either","3","","","","","","","76","L","3","","0","0","1","0.04810206047","","","181","0.3844034803","","main_expt","0.4","0.3977335033","0.6","","0.4527537228","0.8","0.04810206047","0.2","","","","","","","",""
"197","","bandit","260","551930","0.0-221.0-0.0","51686832","wem/bandit_either","A1YVMDRR9W1LZ1","either","3","","","","","","","74","J","1","","0","0","1","0.4194204302","","","182","0.3569363444","","main_expt","0.4","0.4194204302","0.6","","0.4733821952","0.8","0.0564969073","0.2","","","","","","","",""
"166","","bandit","261","553611","0.0-222.0-0.0","51686832","wem/bandit_either","A1YVMDRR9W1LZ1","either","3","","","","","","","76","L","3","","0","0","1","","0.06674959941","","183","","0.3930074682","main_expt","0.4","","0.6","0.4050300101","","0.8","","0.2","0.4741352064","0.06674959941","","","","","",""
"155","","bandit","262","555280","0.0-223.0-0.0","51686832","wem/bandit_either","A1YVMDRR9W1LZ1","either","3","","","","","","","75","K","2","","0","0","1","","0.4835015011","","184","","0.4105724965","main_expt","0.4","","0.6","0.4272992256","","0.8","","0.2","0.4835015011","0.05730522946","","","","","",""
"189","","bandit","263","556980","0.0-224.0-0.0","51686832","wem/bandit_either","A1YVMDRR9W1LZ1","either","3","","","","","","","74","J","1","","0","1","0","","0.4213026748","","185","","0.4230276401","main_expt","0.4","","0.6","0.4213026748","","0.8","","0.2","0.4907566516","0.0759668512","","","","","",""
"180","","bandit","264","558667","0.0-225.0-0.0","51686832","wem/bandit_either","A1YVMDRR9W1LZ1","either","3","","","","","","","76","L","3","","0","0","1","","0.0736669194","","186","","0.4243078066","main_expt","0.4","","0.6","0.3729626057","","0.8","","0.2","0.4777100538","0.0736669194","","","","","",""
"80","","bandit","265","560263","0.0-226.0-0.0","51686832","wem/bandit_either","A1YVMDRR9W1LZ1","either","3","","","","","","","74","J","1","","1","0","0","0.4022080601","","","187","0.419104652","","main_expt","0.4","0.4022080601","0.6","","0.4751658893","0.8","0.1020870739","0.2","","","","","","","",""
"81","","bandit","266","562305","0.0-227.0-0.0","51686832","wem/bandit_either","A1YVMDRR9W1LZ1","either","3","","","","","","","76","L","3","","0","0","1","","0.110066606","","188","","0.3917910895","main_expt","0.4","","0.6","0.4218987807","","0.8","","0.2","0.4711403756","0.110066606","","","","","",""
"601","","bandit","267","564419","0.0-228.0-0.0","51686832","wem/bandit_either","A1YVMDRR9W1LZ1","either","3","","","","","","","74","J","1","","0","0","1","0.4284519853","","","189","0.3696037293","","main_expt","0.4","0.4284519853","0.6","","0.4848283219","0.8","0.1616324423","0.2","","","","","","","",""
"190","","bandit","268","566121","0.0-229.0-0.0","51686832","wem/bandit_either","A1YVMDRR9W1LZ1","either","3","","","","","","","76","L","3","","0","1","0","","0.1401199573","","190","","0.3722688899","main_expt","0.4","","0.6","0.4104863902","","0.8","","0.2","0.4906713727","0.1401199573","","","","","",""
"61","","bandit","269","567697","0.0-230.0-0.0","51686832","wem/bandit_either","A1YVMDRR9W1LZ1","either","3","","","","","","","74","J","1","","0","0","1","0.4071825693","","","191","0.3956575009","","main_expt","0.4","0.4071825693","0.6","","0.4944082075","0.8","0.1782786715","0.2","","","","","","","",""
"161","","bandit","270","569367","0.0-231.0-0.0","51686832","wem/bandit_either","A1YVMDRR9W1LZ1","either","3","","","","","","","75","K","2","","1","0","0","0.4922337742","","","192","0.3843500594","","main_expt","0.4","0.4172763132","0.6","","0.4922337742","0.8","0.203517815","0.2","","","","","","","",""
"15","","bandit","271","570891","0.0-232.0-0.0","51686832","wem/bandit_either","A1YVMDRR9W1LZ1","either","3","","","","","","","76","L","3","","0","0","1","0.172030281","","","193","0.3801723293","","main_expt","0.4","0.3965334946","0.6","","0.4887356563","0.8","0.172030281","0.2","","","","","","","",""
"102","","bandit","272","572501","0.0-233.0-0.0","51686832","wem/bandit_either","A1YVMDRR9W1LZ1","either","3","","","","","","","74","J","1","","0","0","1","","0.383316574","","194","","0.3871645121","main_expt","0.4","","0.6","0.383316574","","0.8","","0.2","0.4850955297","0.1813301739","","","","","",""
"63","","bandit","273","574106","0.0-234.0-0.0","51686832","wem/bandit_either","A1YVMDRR9W1LZ1","either","3","","","","","","","74","J","1","","0","0","1","","0.3965345796","","195","","0.3633903175","main_expt","0.4","","0.6","0.3965345796","","0.8","","0.2","0.4848341758","0.2284295163","","","","","",""
"147","","bandit","274","575765","0.0-235.0-0.0","51686832","wem/bandit_either","A1YVMDRR9W1LZ1","either","3","","","","","","","76","L","3","","0","0","1","","0.2501246714","","196","","0.3811675741","main_expt","0.4","","0.6","0.3978469093","","0.8","","0.2","0.490049139","0.2501246714","","","","","",""
"46","","bandit","275","577321","0.0-236.0-0.0","51686832","wem/bandit_either","A1YVMDRR9W1LZ1","either","3","","","","","","","74","J","1","","0","0","1","0.3172926233","","","197","0.3487868089","","main_expt","0.4","0.3172926233","0.6","","0.4912643012","0.8","0.3150809007","0.2","","","","","","","",""
"6","","bandit","276","578844","0.0-237.0-0.0","51686832","wem/bandit_either","A1YVMDRR9W1LZ1","either","3","","","","","","","75","K","2","","0","0","1","0.4793615714","","","198","0.2986771554","","main_expt","0.4","0.3113170709","0.6","","0.4793615714","0.8","0.3442077965","0.2","","","","","","","",""
"7","","bandit","277","580368","0.0-238.0-0.0","51686832","wem/bandit_either","A1YVMDRR9W1LZ1","either","3","","","","","","","76","L","3","","0","0","1","","0.3675051223","","199","","0.3481418533","main_expt","0.4","","0.6","0.3066116159","","0.8","","0.2","0.4661622676","0.3675051223","","","","","",""
"23","","bandit","278","581904","0.0-239.0-0.0","51686832","wem/bandit_either","A1YVMDRR9W1LZ1","either","3","","","","","","","76","L","3","","0","0","1","","0.3044821291","","200","","0.353319573","main_expt","0.4","","0.6","0.2521122026","","0.8","","0.2","0.4479238565","0.3044821291","","","","","",""
"69","","bandit","279","583490","0.0-240.0-0.0","51686832","wem/bandit_either","A1YVMDRR9W1LZ1","either","3","","","","","","","74","J","1","","0","0","1","0.2679963248","","","201","0.3676338631","","main_expt","0.4","0.2679963248","0.6","","0.4429166455","0.8","0.3013824411","0.2","","","","","","","",""
"77","","bandit","280","585077","0.0-241.0-0.0","51686832","wem/bandit_either","A1YVMDRR9W1LZ1","either","3","","","","","","","76","L","3","","0","0","1","0.3001954661","","","202","0.311657493","","main_expt","0.4","0.2076546236","0.6","","0.442820363","0.8","0.3001954661","0.2","","","","","","","",""
"25","","bandit","281","586608","0.0-242.0-0.0","51686832","wem/bandit_either","A1YVMDRR9W1LZ1","either","3","","","","","","","75","K","2","","0","0","1","0.4539008368","","","203","0.3364041998","","main_expt","0.4","0.1881707852","0.6","","0.4539008368","0.8","0.3189156814","0.2","","","","","","","",""
"31","","bandit","282","588149","0.0-243.0-0.0","51686832","wem/bandit_either","A1YVMDRR9W1LZ1","either","3","","","","","","","74","J","1","","0","0","1","","0.2057853427","","204","","0.3148670147","main_expt","0.4","","0.6","0.2057853427","","0.8","","0.2","0.4163307037","0.3162062407","","","","","",""
"142","","bandit","283","589804","0.0-244.0-0.0","51686832","wem/bandit_either","A1YVMDRR9W1LZ1","either","3","","","","","","","76","L","3","","0","1","0","","0.347278619","","205","","0.3293187519","main_expt","0.4","","0.6","0.2564451259","","0.8","","0.2","0.4045388199","0.347278619","","","","","",""
"180","","bandit","284","591501","0.0-245.0-0.0","51686832","wem/bandit_either","A1YVMDRR9W1LZ1","either","3","","","","","","","74","J","1","","1","0","0","0.3082896296","","","206","0.2705077244","","main_expt","0.4","0.3082896296","0.6","","0.4083422121","0.8","0.2970129147","0.2","","","","","","","",""
"83","","bandit","285","593095","0.0-246.0-0.0","51686832","wem/bandit_either","A1YVMDRR9W1LZ1","either","3","","","","","","","76","L","3","","0","0","1","","0.3331481178","","207","","0.3083591011","main_expt","0.4","","0.6","0.3235103938","","0.8","","0.2","0.4033585138","0.3331481178","","","","","",""
"154","","bandit","286","594756","0.0-247.0-0.0","51686832","wem/bandit_either","A1YVMDRR9W1LZ1","either","3","","","","","","","75","K","2","","1","0","0","0.3753320851","","","208","0.2489273718","","main_expt","0.4","0.3563539536","0.6","","0.3753320851","0.8","0.3195917859","0.2","","","","","","","",""
"28","","bandit","287","596297","0.0-248.0-0.0","51686832","wem/bandit_either","A1YVMDRR9W1LZ1","either","3","","","","","","","74","J","1","","0","0","1","0.3821305916","","","209","0.2224321457","","main_expt","0.4","0.3821305916","0.6","","0.3864970555","0.8","0.3642345195","0.2","","","","","","","",""
"3","","bandit","288","597819","0.0-249.0-0.0","51686832","wem/bandit_either","A1YVMDRR9W1LZ1","either","3","","","","","","","76","L","3","","0","1","0","","0.3518797164","","210","","0.2184729634","main_expt","0.4","","0.6","0.4067483812","","0.8","","0.2","0.3894881908","0.3518797164","","","","","",""
"63","","bandit","289","599395","0.0-250.0-0.0","51686832","wem/bandit_either","A1YVMDRR9W1LZ1","either","3","","","","","","","74","J","1","","0","1","0","","0.376825818","","211","","0.2178464352","main_expt","0.4","","0.6","0.376825818","","0.8","","0.2","0.4052823736","0.3781537602","","","","","",""
"155","","bandit","290","601090","0.0-251.0-0.0","51686832","wem/bandit_either","A1YVMDRR9W1LZ1","either","3","","","","","","","74","J","1","","0","0","1","","0.3481764155","","212","","0.1644702768","main_expt","0.4","","0.6","0.3481764155","","0.8","","0.2","0.3783189977","0.3773353051","","","","","",""
"102","","bandit","291","602697","0.0-252.0-0.0","51686832","wem/bandit_either","A1YVMDRR9W1LZ1","either","3","","","","","","","76","L","3","","0","1","0","","0.3448860985","","213","","0.1271660564","main_expt","0.4","","0.6","0.3239198888","","0.8","","0.2","0.3804187243","0.3448860985","","","","","",""
"163","","bandit","292","604369","0.0-253.0-0.0","51686832","wem/bandit_either","A1YVMDRR9W1LZ1","either","3","","","","","","","74","J","1","","0","0","1","0.3592643085","","","214","0.1368129038","","main_expt","0.4","0.3592643085","0.6","","0.3964056757","0.8","0.3622000499","0.2","","","","","","","",""
"95","","bandit","293","605981","0.0-254.0-0.0","51686832","wem/bandit_either","A1YVMDRR9W1LZ1","either","3","","","","","","","72","H","0","img/none_selected.jpg","0","0","1","","0.07615368859","","215","","0.07615368859","main_expt","0.4","","0.6","0.3482739819","","0.8","","0.2","0.3939862607","0.3408682726","","","","","",""
"22","","bandit","294","607520","0.0-255.0-0.0","51686832","wem/bandit_either","A1YVMDRR9W1LZ1","either","3","","","","","","","75","K","2","","1","0","0","0.4062496234","","","216","0.07711559412","","main_expt","0.4","0.2972527025","0.6","","0.4062496234","0.8","0.328819006","0.2","","","","","","","",""
"109","","bandit","295","609136","0.0-256.0-0.0","51686832","wem/bandit_either","A1YVMDRR9W1LZ1","either","3","","","","","","","74","J","1","","1","0","0","0.2850944341","","","217","0.07728173513","","main_expt","0.4","0.2850944341","0.6","","0.3440498305","0.8","0.3229374792","0.2","","","","","","","",""
"158","","bandit","296","610809","0.0-257.0-0.0","51686832","wem/bandit_either","A1YVMDRR9W1LZ1","either","3","","","","","","","76","L","3","","0","1","0","","0.3616220652","","218","","0.07919919155","main_expt","0.4","","0.6","0.2483413171","","0.8","","0.2","0.3198020565","0.3616220652","","","","","",""
"191","","bandit","297","612515","0.0-258.0-0.0","51686832","wem/bandit_either","A1YVMDRR9W1LZ1","either","3","","","","","","","74","J","1","","0","0","1","","0.2680513607","","219","","0.1270410367","main_expt","0.4","","0.6","0.2680513607","","0.8","","0.2","0.3078290176","0.3591176528","","","","","",""
"43","","bandit","298","614080","0.0-259.0-0.0","51686832","wem/bandit_either","A1YVMDRR9W1LZ1","either","3","","","","","","","75","K","2","","1","0","0","0.2961895162","","","220","0.1117499599","","main_expt","0.4","0.304668496","0.6","","0.2961895162","0.8","0.2758994579","0.2","","","","","","","",""
"175","","bandit","299","615768","0.0-260.0-0.0","51686832","wem/bandit_either","A1YVMDRR9W1LZ1","either","3","","","","","","","72","H","0","img/none_selected.jpg","0","0","1","","0.1186324211","","221","","0.1186324211","main_expt","0.4","","0.6","0.2773284289","","0.8","","0.2","0.2658603678","0.3119987931","","","","","",""
"75","","bandit","300","617355","0.0-261.0-0.0","51686832","wem/bandit_either","A1YVMDRR9W1LZ1","either","3","","","","","","","74","J","1","","0","0","1","0.2152506718","","","222","0.1141050397","","main_expt","0.4","0.2152506718","0.6","","0.274695037","0.8","0.3106374463","0.2","","","","","","","",""
"40","","bandit","301","618906","0.0-262.0-0.0","51686832","wem/bandit_either","A1YVMDRR9W1LZ1","either","3","","","","","","","76","L","3","","0","0","1","","0.3131570504","","223","","0.1007228699","main_expt","0.4","","0.6","0.2445797097","","0.8","","0.2","0.2210940289","0.3131570504","","","","","",""
"5","","bandit","302","620435","0.0-263.0-0.0","51686832","wem/bandit_either","A1YVMDRR9W1LZ1","either","3","","","","","","","72","H","0","img/none_selected.jpg","0","0","1","0.1380584308","","","224","0.1380584308","","main_expt","0.4","0.2559263424","0.6","","0.1843933297","0.8","0.3025994915","0.2","","","","","","","",""
"3","","bandit","303","621954","0.0-264.0-0.0","51686832","wem/bandit_either","A1YVMDRR9W1LZ1","either","3","","","","","","","75","K","2","","0","0","1","0.212211923","","","225","0.1393521225","","main_expt","0.4","0.2702522324","0.6","","0.212211923","0.8","0.2994132709","0.2","","","","","","","",""
"116","","bandit","304","623584","0.0-265.0-0.0","51686832","wem/bandit_either","A1YVMDRR9W1LZ1","either","3","","","","","","","74","J","1","","0","0","1","0.2646860425","","","226","0.2094269877","","main_expt","0.4","0.2646860425","0.6","","0.2315036379","0.8","0.2866794375","0.2","","","","","","","",""
"60","","bandit","305","625159","0.0-266.0-0.0","51686832","wem/bandit_either","A1YVMDRR9W1LZ1","either","3","","","","","","","76","L","3","","0","1","0","","0.2299222882","","227","","0.2959232149","main_expt","0.4","","0.6","0.269556559","","0.8","","0.2","0.2646353212","0.2299222882","","","","","",""
"85","","bandit","306","626751","0.0-267.0-0.0","51686832","wem/bandit_either","A1YVMDRR9W1LZ1","either","3","","","","","","","74","J","1","","0","0","1","0.2498152532","","","228","0.374355758","","main_expt","0.4","0.2498152532","0.6","","0.2443517867","0.8","0.2991813551","0.2","","","","","","","",""
"2","","bandit","307","628270","0.0-268.0-0.0","51686832","wem/bandit_either","A1YVMDRR9W1LZ1","either","3","","","","","","","76","L","3","","0","0","1","","0.3295538921","","229","","0.3876740502","main_expt","0.4","","0.6","0.2495566458","","0.8","","0.2","0.2569692975","0.3295538921","","","","","",""
"240","","bandit","308","630024","0.0-269.0-0.0","51686832","wem/bandit_either","A1YVMDRR9W1LZ1","either","3","","","","","","","74","J","1","","0","0","1","","0.2134382902","","230","","0.3341674595","main_expt","0.4","","0.6","0.2134382902","","0.8","","0.2","0.2490290172","0.2713593359","","","","","",""
"25","","bandit","309","631566","0.0-270.0-0.0","51686832","wem/bandit_either","A1YVMDRR9W1LZ1","either","3","","","","","","","75","K","2","","0","0","1","0.2368643707","","","231","0.3558281537","","main_expt","0.4","0.2099205747","0.6","","0.2368643707","0.8","0.2746975787","0.2","","","","","","","",""
"152","","bandit","310","633230","0.0-271.0-0.0","51686832","wem/bandit_either","A1YVMDRR9W1LZ1","either","3","","","","","","","74","J","1","","0","0","1","0.1598609145","","","232","0.3293076861","","main_expt","0.4","0.1598609145","0.6","","0.2857324616","0.8","0.2817934899","0.2","","","","","","","",""
"171","","bandit","311","634910","0.0-272.0-0.0","51686832","wem/bandit_either","A1YVMDRR9W1LZ1","either","3","","","","","","","76","L","3","","0","0","1","","0.3139736629","","233","","0.3271309306","main_expt","0.4","","0.6","0.1472569172","","0.8","","0.2","0.226619475","0.3139736629","","","","","",""
"58","","bandit","312","636485","0.0-273.0-0.0","51686832","wem/bandit_either","A1YVMDRR9W1LZ1","either","3","","","","","","","74","J","1","","0","0","1","","0.1123375355","","234","","0.3510228885","main_expt","0.4","","0.6","0.1123375355","","0.8","","0.2","0.2448251662","0.3332560948","","","","","",""
"66","","bandit","313","638059","0.0-274.0-0.0","51686832","wem/bandit_either","A1YVMDRR9W1LZ1","either","3","","","","","","","76","L","3","","0","0","1","","0.3475281657","","235","","0.3346663699","main_expt","0.4","","0.6","0.1562424728","","0.8","","0.2","0.2996798263","0.3475281657","","","","","",""
"170","","bandit","314","639743","0.0-275.0-0.0","51686832","wem/bandit_either","A1YVMDRR9W1LZ1","either","3","","","","","","","74","J","1","","0","0","1","","0.1623269298","","236","","0.332043614","main_expt","0.4","","0.6","0.1623269298","","0.8","","0.2","0.3220329496","0.3170984437","","","","","",""
"39","","bandit","315","641294","0.0-276.0-0.0","51686832","wem/bandit_either","A1YVMDRR9W1LZ1","either","3","","","","","","","76","L","3","","0","0","1","","0.3611259067","","237","","0.2780661838","main_expt","0.4","","0.6","0.1362759337","","0.8","","0.2","0.3672390457","0.3611259067","","","","","",""
"97","","bandit","316","642904","0.0-277.0-0.0","51686832","wem/bandit_either","A1YVMDRR9W1LZ1","either","3","","","","","","","74","J","1","","0","0","1","","0.1282223372","","238","","0.3071002506","main_expt","0.4","","0.6","0.1282223372","","0.8","","0.2","0.3702030288","0.3449339383","","","","","",""
"64","","bandit","317","644481","0.0-278.0-0.0","51686832","wem/bandit_either","A1YVMDRR9W1LZ1","either","3","","","","","","","75","K","2","","0","0","1","0.3486367063","","","239","0.3101279526","","main_expt","0.4","0.08262393641","0.6","","0.3486367063","0.8","0.3006984684","0.2","","","","","","","",""
"115","","bandit","318","646113","0.0-279.0-0.0","51686832","wem/bandit_either","A1YVMDRR9W1LZ1","either","3","","","","","","","72","H","0","img/none_selected.jpg","0","0","1","0.3071576631","","","240","0.3071576631","","main_expt","0.4","0.09366491666","0.6","","0.3422639114","0.8","0.3355390738","0.2","","","","","","","",""
"181","","bandit","319","647818","0.0-280.0-0.0","51686832","wem/bandit_either","A1YVMDRR9W1LZ1","either","3","","","","","","","74","J","1","","0","0","1","","0.09778426954","","241","","0.3213727252","main_expt","0.4","","0.6","0.09778426954","","0.8","","0.2","0.3703795114","0.3513118525","","","","","",""
"161","","bandit","320","649499","0.0-281.0-0.0","51686832","wem/bandit_either","A1YVMDRR9W1LZ1","either","3","","","","","","","76","L","3","","0","1","0","","0.2871404103","","242","","0.3303042821","main_expt","0.4","","0.6","0.0684580113","","0.8","","0.2","0.3362310887","0.2871404103","","","","","",""
"105","","bandit","321","651131","0.0-282.0-0.0","51686832","wem/bandit_either","A1YVMDRR9W1LZ1","either","3","","","","","","","74","J","1","","0","0","1","0.05756719403","","","243","0.386578507","","main_expt","0.4","0.05756719403","0.6","","0.3855302341","0.8","0.2582353252","0.2","","","","","","","",""
"67","","bandit","322","652719","0.0-283.0-0.0","51686832","wem/bandit_either","A1YVMDRR9W1LZ1","either","3","","","","","","","76","L","3","","0","0","1","","0.2108553612","","244","","0.3582196724","main_expt","0.4","","0.6","0.07954378931","","0.8","","0.2","0.3504604058","0.2108553612","","","","","",""
"101","","bandit","323","654704","0.0-284.0-0.0","51686832","wem/bandit_either","A1YVMDRR9W1LZ1","either","3","","","","","","","74","J","1","","1","0","0","0.07668718344","","","245","0.3626170977","","main_expt","0.4","0.07668718344","0.6","","0.3586275713","0.8","0.190308294","0.2","","","","","","","",""
"4","","bandit","324","656224","0.0-285.0-0.0","51686832","wem/bandit_either","A1YVMDRR9W1LZ1","either","3","","","","","","","74","J","1","","0","0","1","0.08627194322","","","246","0.2778980274","","main_expt","0.4","0.08627194322","0.6","","0.3202710015","0.8","0.2079876503","0.2","","","","","","","",""
"152","","bandit","325","657892","0.0-286.0-0.0","51686832","wem/bandit_either","A1YVMDRR9W1LZ1","either","3","","","","","","","76","L","3","","0","1","0","","0.2053262284","","247","","0.2864864277","main_expt","0.4","","0.6","0.1009858539","","0.8","","0.2","0.2874587678","0.2053262284","","","","","",""
"104","","bandit","326","659508","0.0-287.0-0.0","51686832","wem/bandit_either","A1YVMDRR9W1LZ1","either","3","","","","","","","74","J","1","","0","0","1","","0.1044033157","","248","","0.2883304048","main_expt","0.4","","0.6","0.1044033157","","0.8","","0.2","0.2703076155","0.2699327364","","","","","",""
"66","","bandit","327","661089","0.0-288.0-0.0","51686832","wem/bandit_either","A1YVMDRR9W1LZ1","either","3","","","","","","","74","J","1","","0","0","1","0.07254640656","","","249","0.3034325887","","main_expt","0.4","0.07254640656","0.6","","0.2212833967","0.8","0.2917851334","0.2","","","","","","","",""
"237","","bandit","328","662835","0.0-289.0-0.0","51686832","wem/bandit_either","A1YVMDRR9W1LZ1","either","3","","","","","","","75","K","2","","0","0","1","0.2174917034","","","250","0.2582013927","","main_expt","0.4","0.09512939239","0.6","","0.2174917034","0.8","0.2530543584","0.2","","","","","","","",""
"137","","bandit","329","664488","0.0-290.0-0.0","51686832","wem/bandit_either","A1YVMDRR9W1LZ1","either","3","","","","","","","74","J","1","","0","0","1","","0.06759478125","","251","","0.2337836179","main_expt","0.4","","0.6","0.06759478125","","0.8","","0.2","0.2008338107","0.2345859063","","","","","",""
"183","","bandit","330","666182","0.0-291.0-0.0","51686832","wem/bandit_either","A1YVMDRR9W1LZ1","either","3","","","","","","","76","L","3","","0","0","1","","0.2407419433","","252","","0.2477033955","main_expt","0.4","","0.6","0.05682902113","","0.8","","0.2","0.2294508047","0.2407419433","","","","","",""
"41","","bandit","331","667737","0.0-292.0-0.0","51686832","wem/bandit_either","A1YVMDRR9W1LZ1","either","3","","","","","","","75","K","2","","0","0","1","0.2678406235","","","253","0.2187012899","","main_expt","0.4","0.04662337877","0.6","","0.2678406235","0.8","0.2016139721","0.2","","","","","","","",""
"39","","bandit","332","669288","0.0-293.0-0.0","51686832","wem/bandit_either","A1YVMDRR9W1LZ1","either","3","","","","","","","74","J","1","","0","0","1","","0.05613237953","","254","","0.2247734494","main_expt","0.4","","0.6","0.05613237953","","0.8","","0.2","0.3248943382","0.2204455337","","","","","",""
"213","","bandit","333","671012","0.0-294.0-0.0","51686832","wem/bandit_either","A1YVMDRR9W1LZ1","either","3","","","","","","","74","J","1","","0","0","1","","0.05644163561","","255","","0.2421740144","main_expt","0.4","","0.6","0.05644163561","","0.8","","0.2","0.2917783391","0.2064376997","","","","","",""
"140","","bandit","334","672661","0.0-295.0-0.0","51686832","wem/bandit_either","A1YVMDRR9W1LZ1","either","3","","","","","","","76","L","3","","0","1","0","","0.2475065377","","256","","0.1607391421","main_expt","0.4","","0.6","0.0822638557","","0.8","","0.2","0.2890466427","0.2475065377","","","","","",""
"93","","bandit","335","674268","0.0-296.0-0.0","51686832","wem/bandit_either","A1YVMDRR9W1LZ1","either","3","","","","","","","74","J","1","","0","0","1","0.1670427545","","","257","0.1396226214","","main_expt","0.4","0.1670427545","0.6","","0.2606634298","0.8","0.2406261574","0.2","","","","","","","",""
