"rt","responses","trial_type","trial_index","time_elapsed","internal_node_id","subjID","study","MID","cond","drift","key_press","expt_phase","target","like","value","connected","respCharCode","respKey","respChoiceNum","respChoice","gems","bombs","no_reward","GemPrChosen","BombPrChosen","practice","trial_counter","WinPr_0","LosePr_0","trial_label","GainOverPainPr_0","WinPr_1","GainOverPainPr_1","LosePr_1","LosePr_2","GainOverPainPr_2","LosePr_3","GainOverPainPr_3","WinPr_2","WinPr_3","Q0","Q1","Q2","gender","age","ethnicity"
"3437","{""Q0"":""A1EYJNJFSRMDWW""}","survey-text","0","3448","0.0-0.0","55651629","wem/bandit_either","A1EYJNJFSRMDWW","either","2","","","","","","","","","","","","","","","","","","","","","","","","","","","","","","","","","","","",""
"53902","","text","1","58361","0.0-1.0","55651629","wem/bandit_either","A1EYJNJFSRMDWW","either","2","32","","","","","","","","","","","","","","","","","","","","","","","","","","","","","","","","","","",""
"6690","","text","2","65054","0.0-2.0","55651629","wem/bandit_either","A1EYJNJFSRMDWW","either","2","32","","","","","","","","","","","","","","","","","","","","","","","","","","","","","","","","","","",""
"86300","","text","3","151356","0.0-3.0","55651629","wem/bandit_either","A1EYJNJFSRMDWW","either","2","32","","","","","","","","","","","","","","","","","","","","","","","","","","","","","","","","","","",""
"9337","","text","4","160696","0.0-4.0","55651629","wem/bandit_either","A1EYJNJFSRMDWW","either","2","32","","","","","","","","","","","","","","","","","","","","","","","","","","","","","","","","","","",""
"13197","","text","5","173897","0.0-5.0","55651629","wem/bandit_either","A1EYJNJFSRMDWW","either","2","32","","","","","","","","","","","","","","","","","","","","","","","","","","","","","","","","","","",""
"5926","","text","6","179825","0.0-6.0","55651629","wem/bandit_either","A1EYJNJFSRMDWW","either","2","32","","","","","","","","","","","","","","","","","","","","","","","","","","","","","","","","","","",""
"3410","","text","7","183239","0.0-7.0","55651629","wem/bandit_either","A1EYJNJFSRMDWW","either","2","32","","","","","","","","","","","","","","","","","","","","","","","","","","","","","","","","","","",""
"5787","","identification","8","189061","0.0-8.0-0.0","55651629","wem/bandit_either","A1EYJNJFSRMDWW","either","2","","identification_pre","the village of Zur","0","0","0","","","","","","","","","","","","","","","","","","","","","","","","","","","","","",""
"4126","","identification","9","194208","0.0-8.0-1.0","55651629","wem/bandit_either","A1EYJNJFSRMDWW","either","2","","identification_pre","the village of Nyx","0","0","0","","","","","","","","","","","","","","","","","","","","","","","","","","","","","",""
"6078","","text","10","201290","0.0-9.0","55651629","wem/bandit_either","A1EYJNJFSRMDWW","either","2","32","","","","","","","","","","","","","","","","","","","","","","","","","","","","","","","","","","",""
"3479","","text","11","204771","0.0-10.0","55651629","wem/bandit_either","A1EYJNJFSRMDWW","either","2","32","","","","","","","","","","","","","","","","","","","","","","","","","","","","","","","","","","",""
"2485","","text","12","207261","0.0-11.0","55651629","wem/bandit_either","A1EYJNJFSRMDWW","either","2","32","","","","","","","","","","","","","","","","","","","","","","","","","","","","","","","","","","",""
"3001","","text","13","210265","0.0-12.0","55651629","wem/bandit_either","A1EYJNJFSRMDWW","either","2","32","","","","","","","","","","","","","","","","","","","","","","","","","","","","","","","","","","",""
"5058","","bandit","14","216842","0.0-13.0-0.0","55651629","wem/bandit_either","A1EYJNJFSRMDWW","either","2","","","","","","","74","J","0","img/none_selected_demo.jpg","0","0","1","0","0","true","0","0","0","","","","","","","","","","","","","","","","",""
"1837","","bandit","15","220193","0.0-14.0-0.0","55651629","wem/bandit_either","A1EYJNJFSRMDWW","either","2","","","","","","","75","K","0","img/none_selected_demo.jpg","0","0","1","0","0","true","0","0","0","","","","","","","","","","","","","","","","",""
"3587","","text","16","223785","0.0-15.0","55651629","wem/bandit_either","A1EYJNJFSRMDWW","either","2","32","","","","","","","","","","","","","","","","","","","","","","","","","","","","","","","","","","",""
"8799","","text","17","232588","0.0-16.0","55651629","wem/bandit_either","A1EYJNJFSRMDWW","either","2","32","","","","","","","","","","","","","","","","","","","","","","","","","","","","","","","","","","",""
"6437","","text","18","239025","0.0-17.0","55651629","wem/bandit_either","A1EYJNJFSRMDWW","either","2","32","","","","","","","","","","","","","","","","","","","","","","","","","","","","","","","","","","",""
"5134","","text","19","244162","0.0-18.0","55651629","wem/bandit_either","A1EYJNJFSRMDWW","either","2","32","","","","","","","","","","","","","","","","","","","","","","","","","","","","","","","","","","",""
"1498","","bandit","20","247177","0.0-19.0-0.0","55651629","wem/bandit_either","A1EYJNJFSRMDWW","either","2","","","","","","","74","J","0","img/none_selected_demo.jpg","1","0","0","0.8","","true","0","0.8","","80_20_practice","0.5","0.2","0.5","","","","","","","","","","","","",""
"772","","bandit","21","249476","0.0-19.0-1.0","55651629","wem/bandit_either","A1EYJNJFSRMDWW","either","2","","","","","","","74","J","0","img/none_selected_demo.jpg","0","1","0","","0.8","true","0","","0.8","80_20_practice","0.5","","0.5","0.2","","","","","","","","","","","",""
"401","","bandit","22","251390","0.0-19.0-2.0","55651629","wem/bandit_either","A1EYJNJFSRMDWW","either","2","","","","","","","75","K","1","","1","0","0","0.2","","true","0","0.8","","80_20_practice","0.5","0.2","0.5","","","","","","","","","","","","",""
"352","","bandit","23","253269","0.0-19.0-3.0","55651629","wem/bandit_either","A1EYJNJFSRMDWW","either","2","","","","","","","75","K","1","","0","0","1","0.2","","true","0","0.8","","80_20_practice","0.5","0.2","0.5","","","","","","","","","","","","",""
"466","","bandit","24","255250","0.0-19.0-4.0","55651629","wem/bandit_either","A1EYJNJFSRMDWW","either","2","","","","","","","75","K","1","","0","0","1","","0.2","true","0","","0.8","80_20_practice","0.5","","0.5","0.2","","","","","","","","","","","",""
"657","","bandit","25","257432","0.0-19.0-5.0","55651629","wem/bandit_either","A1EYJNJFSRMDWW","either","2","","","","","","","75","K","1","","0","0","1","","0.2","true","0","","0.8","80_20_practice","0.5","","0.5","0.2","","","","","","","","","","","",""
"454","","bandit","26","259406","0.0-19.0-6.0","55651629","wem/bandit_either","A1EYJNJFSRMDWW","either","2","","","","","","","74","J","0","img/none_selected_demo.jpg","0","1","0","","0.8","true","0","","0.8","80_20_practice","0.5","","0.5","0.2","","","","","","","","","","","",""
"335","","bandit","27","261264","0.0-19.0-7.0","55651629","wem/bandit_either","A1EYJNJFSRMDWW","either","2","","","","","","","75","K","1","","0","0","1","","0.2","true","0","","0.8","80_20_practice","0.5","","0.5","0.2","","","","","","","","","","","",""
"333","","bandit","28","263116","0.0-19.0-8.0","55651629","wem/bandit_either","A1EYJNJFSRMDWW","either","2","","","","","","","75","K","1","","0","1","0","","0.2","true","0","","0.8","80_20_practice","0.5","","0.5","0.2","","","","","","","","","","","",""
"528","","bandit","29","265157","0.0-19.0-9.0","55651629","wem/bandit_either","A1EYJNJFSRMDWW","either","2","","","","","","","75","K","1","","0","0","1","","0.2","true","0","","0.8","80_20_practice","0.5","","0.5","0.2","","","","","","","","","","","",""
"343","","bandit","30","267021","0.0-19.0-10.0","55651629","wem/bandit_either","A1EYJNJFSRMDWW","either","2","","","","","","","75","K","1","","0","0","1","","0.2","true","0","","0.8","80_20_practice","0.5","","0.5","0.2","","","","","","","","","","","",""
"464","","bandit","31","269000","0.0-19.0-11.0","55651629","wem/bandit_either","A1EYJNJFSRMDWW","either","2","","","","","","","75","K","1","","0","0","1","","0.2","true","0","","0.8","80_20_practice","0.5","","0.5","0.2","","","","","","","","","","","",""
"420","","bandit","32","270943","0.0-19.0-12.0","55651629","wem/bandit_either","A1EYJNJFSRMDWW","either","2","","","","","","","75","K","1","","0","0","1","0.2","","true","0","0.8","","80_20_practice","0.5","0.2","0.5","","","","","","","","","","","","",""
"417","","bandit","33","272883","0.0-19.0-13.0","55651629","wem/bandit_either","A1EYJNJFSRMDWW","either","2","","","","","","","75","K","1","","0","0","1","","0.2","true","0","","0.8","80_20_practice","0.5","","0.5","0.2","","","","","","","","","","","",""
"335","","bandit","34","274731","0.0-19.0-14.0","55651629","wem/bandit_either","A1EYJNJFSRMDWW","either","2","","","","","","","75","K","1","","0","0","1","0.2","","true","0","0.8","","80_20_practice","0.5","0.2","0.5","","","","","","","","","","","","",""
"409","","bandit","35","276653","0.0-19.0-15.0","55651629","wem/bandit_either","A1EYJNJFSRMDWW","either","2","","","","","","","75","K","1","","0","0","1","0.2","","true","0","0.8","","80_20_practice","0.5","0.2","0.5","","","","","","","","","","","","",""
"455","","bandit","36","278628","0.0-19.0-16.0","55651629","wem/bandit_either","A1EYJNJFSRMDWW","either","2","","","","","","","75","K","1","","1","0","0","0.2","","true","0","0.8","","80_20_practice","0.5","0.2","0.5","","","","","","","","","","","","",""
"502","","bandit","37","280653","0.0-19.0-17.0","55651629","wem/bandit_either","A1EYJNJFSRMDWW","either","2","","","","","","","75","K","1","","1","0","0","0.2","","true","0","0.8","","80_20_practice","0.5","0.2","0.5","","","","","","","","","","","","",""
"670","","bandit","38","282842","0.0-19.0-18.0","55651629","wem/bandit_either","A1EYJNJFSRMDWW","either","2","","","","","","","75","K","1","","0","0","1","0.2","","true","0","0.8","","80_20_practice","0.5","0.2","0.5","","","","","","","","","","","","",""
"511","","bandit","39","284880","0.0-19.0-19.0","55651629","wem/bandit_either","A1EYJNJFSRMDWW","either","2","","","","","","","75","K","1","","0","1","0","","0.2","true","0","","0.8","80_20_practice","0.5","","0.5","0.2","","","","","","","","","","","",""
"2862","","text","40","287749","0.0-20.0","55651629","wem/bandit_either","A1EYJNJFSRMDWW","either","2","32","","","","","","","","","","","","","","","","","","","","","","","","","","","","","","","","","","",""
"2028","","bandit","41","291289","0.0-21.0-0.0","55651629","wem/bandit_either","A1EYJNJFSRMDWW","either","2","","","","","","","75","K","1","","0","1","0","0","1","true","0","1","0","","","0","","1","","","","","","","","","","","",""
"4104","","text","42","295399","0.0-22.0","55651629","wem/bandit_either","A1EYJNJFSRMDWW","either","2","32","","","","","","","","","","","","","","","","","","","","","","","","","","","","","","","","","","",""
"3697","","text","43","299099","0.0-23.0","55651629","wem/bandit_either","A1EYJNJFSRMDWW","either","2","32","","","","","","","","","","","","","","","","","","","","","","","","","","","","","","","","","","",""
"2600","","text","44","301702","0.0-24.0","55651629","wem/bandit_either","A1EYJNJFSRMDWW","either","2","32","","","","","","","","","","","","","","","","","","","","","","","","","","","","","","","","","","",""
"2487","","text","45","304194","0.0-25.0","55651629","wem/bandit_either","A1EYJNJFSRMDWW","either","2","32","","","","","","","","","","","","","","","","","","","","","","","","","","","","","","","","","","",""
"2228","","text","46","306428","0.0-26.0","55651629","wem/bandit_either","A1EYJNJFSRMDWW","either","2","32","","","","","","","","","","","","","","","","","","","","","","","","","","","","","","","","","","",""
"1793","","text","47","308225","0.0-27.0","55651629","wem/bandit_either","A1EYJNJFSRMDWW","either","2","32","","","","","","","","","","","","","","","","","","","","","","","","","","","","","","","","","","",""
"1849","","text","48","310078","0.0-28.0","55651629","wem/bandit_either","A1EYJNJFSRMDWW","either","2","32","","","","","","","","","","","","","","","","","","","","","","","","","","","","","","","","","","",""
"1358","","text","49","311439","0.0-29.0","55651629","wem/bandit_either","A1EYJNJFSRMDWW","either","2","32","","","","","","","","","","","","","","","","","","","","","","","","","","","","","","","","","","",""
"1539","","text","50","312982","0.0-30.0","55651629","wem/bandit_either","A1EYJNJFSRMDWW","either","2","32","","","","","","","","","","","","","","","","","","","","","","","","","","","","","","","","","","",""
"1270","","text","51","314256","0.0-31.0","55651629","wem/bandit_either","A1EYJNJFSRMDWW","either","2","32","","","","","","","","","","","","","","","","","","","","","","","","","","","","","","","","","","",""
"3960","","text","52","318220","0.0-32.0","55651629","wem/bandit_either","A1EYJNJFSRMDWW","either","2","32","","","","","","","","","","","","","","","","","","","","","","","","","","","","","","","","","","",""
"1269","","bandit","53","321003","0.0-33.0-0.0","55651629","wem/bandit_either","A1EYJNJFSRMDWW","either","2","","","","","","","72","H","0","img/none_selected.jpg","0","1","0","","0.8","true","0","","0.8","full_practice","0.5","","0.5","0.2","0.6","0.5","0.2","0.5","","","","","","","",""
"435","","bandit","54","322963","0.0-33.0-1.0","55651629","wem/bandit_either","A1EYJNJFSRMDWW","either","2","","","","","","","72","H","0","img/none_selected.jpg","0","0","1","","0.8","true","0","","0.8","full_practice","0.5","","0.5","0.2","0.6","0.5","0.2","0.5","","","","","","","",""
"792","","bandit","55","325275","0.0-33.0-2.0","55651629","wem/bandit_either","A1EYJNJFSRMDWW","either","2","","","","","","","74","J","1","","0","0","1","","0.2","true","0","","0.8","full_practice","0.5","","0.5","0.2","0.6","0.5","0.2","0.5","","","","","","","",""
"404","","bandit","56","327200","0.0-33.0-3.0","55651629","wem/bandit_either","A1EYJNJFSRMDWW","either","2","","","","","","","74","J","1","","0","0","1","0.2","","true","0","0.8","","full_practice","0.5","0.2","0.5","","","0.5","","0.5","0.6","0.2","","","","","",""
"200","","bandit","57","328920","0.0-33.0-4.0","55651629","wem/bandit_either","A1EYJNJFSRMDWW","either","2","","","","","","","75","K","2","","0","1","0","","0.6","true","0","","0.8","full_practice","0.5","","0.5","0.2","0.6","0.5","0.2","0.5","","","","","","","",""
"292","","bandit","58","330726","0.0-33.0-5.0","55651629","wem/bandit_either","A1EYJNJFSRMDWW","either","2","","","","","","","75","K","2","","1","0","0","0.6","","true","0","0.8","","full_practice","0.5","0.2","0.5","","","0.5","","0.5","0.6","0.2","","","","","",""
"1004","","bandit","59","333253","0.0-33.0-6.0","55651629","wem/bandit_either","A1EYJNJFSRMDWW","either","2","","","","","","","75","K","2","","0","1","0","","0.6","true","0","","0.8","full_practice","0.5","","0.5","0.2","0.6","0.5","0.2","0.5","","","","","","","",""
"708","","bandit","60","335473","0.0-33.0-7.0","55651629","wem/bandit_either","A1EYJNJFSRMDWW","either","2","","","","","","","76","L","3","","0","0","1","","0.2","true","0","","0.8","full_practice","0.5","","0.5","0.2","0.6","0.5","0.2","0.5","","","","","","","",""
"30","","bandit","61","337019","0.0-33.0-8.0","55651629","wem/bandit_either","A1EYJNJFSRMDWW","either","2","","","","","","","76","L","3","","0","0","1","0.2","","true","0","0.8","","full_practice","0.5","0.2","0.5","","","0.5","","0.5","0.6","0.2","","","","","",""
"3138","","bandit","62","341672","0.0-33.0-9.0","55651629","wem/bandit_either","A1EYJNJFSRMDWW","either","2","","","","","","","72","H","0","img/none_selected.jpg","0","1","0","","0.8","true","0","","0.8","full_practice","0.5","","0.5","0.2","0.6","0.5","0.2","0.5","","","","","","","",""
"1135","","bandit","63","344327","0.0-33.0-10.0","55651629","wem/bandit_either","A1EYJNJFSRMDWW","either","2","","","","","","","72","H","0","img/none_selected.jpg","0","1","0","","0.8","true","0","","0.8","full_practice","0.5","","0.5","0.2","0.6","0.5","0.2","0.5","","","","","","","",""
"259","","bandit","64","346100","0.0-33.0-11.0","55651629","wem/bandit_either","A1EYJNJFSRMDWW","either","2","","","","","","","74","J","1","","0","1","0","","0.2","true","0","","0.8","full_practice","0.5","","0.5","0.2","0.6","0.5","0.2","0.5","","","","","","","",""
"316","","bandit","65","347932","0.0-33.0-12.0","55651629","wem/bandit_either","A1EYJNJFSRMDWW","either","2","","","","","","","74","J","1","","0","0","1","","0.2","true","0","","0.8","full_practice","0.5","","0.5","0.2","0.6","0.5","0.2","0.5","","","","","","","",""
"735","","bandit","66","350192","0.0-33.0-13.0","55651629","wem/bandit_either","A1EYJNJFSRMDWW","either","2","","","","","","","74","J","1","","0","0","1","","0.2","true","0","","0.8","full_practice","0.5","","0.5","0.2","0.6","0.5","0.2","0.5","","","","","","","",""
"498","","bandit","67","352214","0.0-33.0-14.0","55651629","wem/bandit_either","A1EYJNJFSRMDWW","either","2","","","","","","","74","J","1","","0","0","1","0.2","","true","0","0.8","","full_practice","0.5","0.2","0.5","","","0.5","","0.5","0.6","0.2","","","","","",""
"356","","bandit","68","354091","0.0-33.0-15.0","55651629","wem/bandit_either","A1EYJNJFSRMDWW","either","2","","","","","","","74","J","1","","0","0","1","","0.2","true","0","","0.8","full_practice","0.5","","0.5","0.2","0.6","0.5","0.2","0.5","","","","","","","",""
"335","","bandit","69","355938","0.0-33.0-16.0","55651629","wem/bandit_either","A1EYJNJFSRMDWW","either","2","","","","","","","74","J","1","","0","0","1","","0.2","true","0","","0.8","full_practice","0.5","","0.5","0.2","0.6","0.5","0.2","0.5","","","","","","","",""
"314","","bandit","70","357777","0.0-33.0-17.0","55651629","wem/bandit_either","A1EYJNJFSRMDWW","either","2","","","","","","","75","K","2","","0","1","0","","0.6","true","0","","0.8","full_practice","0.5","","0.5","0.2","0.6","0.5","0.2","0.5","","","","","","","",""
"457","","bandit","71","359758","0.0-33.0-18.0","55651629","wem/bandit_either","A1EYJNJFSRMDWW","either","2","","","","","","","75","K","2","","0","1","0","","0.6","true","0","","0.8","full_practice","0.5","","0.5","0.2","0.6","0.5","0.2","0.5","","","","","","","",""
"349","","bandit","72","361634","0.0-33.0-19.0","55651629","wem/bandit_either","A1EYJNJFSRMDWW","either","2","","","","","","","75","K","2","","0","1","0","","0.6","true","0","","0.8","full_practice","0.5","","0.5","0.2","0.6","0.5","0.2","0.5","","","","","","","",""
"2780","","text","73","364420","0.0-34.0","55651629","wem/bandit_either","A1EYJNJFSRMDWW","either","2","32","","","","","","","","","","","","","","","","","","","","","","","","","","","","","","","","","","",""
"2640","","text","74","368066","0.0-35.0","55651629","wem/bandit_either","A1EYJNJFSRMDWW","either","2","32","","","","","","","","","","","","","","","","","","","","","","","","","","","","","","","","","","",""
"1281","","text","75","369350","0.0-36.0","55651629","wem/bandit_either","A1EYJNJFSRMDWW","either","2","32","","","","","","","","","","","","","","","","","","","","","","","","","","","","","","","","","","",""
"1411","","text","76","370768","0.0-37.0","55651629","wem/bandit_either","A1EYJNJFSRMDWW","either","2","32","","","","","","","","","","","","","","","","","","","","","","","","","","","","","","","","","","",""
"4615","","text","77","375388","0.0-38.0","55651629","wem/bandit_either","A1EYJNJFSRMDWW","either","2","32","","","","","","","","","","","","","","","","","","","","","","","","","","","","","","","","","","",""
"2792","","text","78","378186","0.0-39.0","55651629","wem/bandit_either","A1EYJNJFSRMDWW","either","2","32","","","","","","","","","","","","","","","","","","","","","","","","","","","","","","","","","","",""
"994","","bandit","79","380695","0.0-40.0-0.0","55651629","wem/bandit_either","A1EYJNJFSRMDWW","either","2","","","","","","","76","L","3","","0","0","1","","0.3653736811","","1","","0.326135308","main_expt","0.6","","0.8","0.4781977867","0.362799796","0.2","0.3653736811","0.4","","","","","","","",""
"430","","bandit","80","382645","0.0-41.0-0.0","55651629","wem/bandit_either","A1EYJNJFSRMDWW","either","2","","","","","","","75","K","2","","0","1","0","","0.3891507205","","2","","0.3564958201","main_expt","0.6","","0.8","0.4765481994","0.3891507205","0.2","0.3999069229","0.4","","","","","","","",""
"492","","bandit","81","384663","0.0-42.0-0.0","55651629","wem/bandit_either","A1EYJNJFSRMDWW","either","2","","","","","","","72","H","0","img/none_selected.jpg","0","0","1","","0.3309056029","","3","","0.3309056029","main_expt","0.6","","0.8","0.4722158263","0.3151339382","0.2","0.4363582421","0.4","","","","","","","",""
"377","","bandit","82","386565","0.0-43.0-0.0","55651629","wem/bandit_either","A1EYJNJFSRMDWW","either","2","","","","","","","72","H","0","img/none_selected.jpg","0","1","0","","0.308467875","","4","","0.308467875","main_expt","0.6","","0.8","0.4609570051","0.250648122","0.2","0.4300921111","0.4","","","","","","","",""
"258","","bandit","83","388374","0.0-44.0-0.0","55651629","wem/bandit_either","A1EYJNJFSRMDWW","either","2","","","","","","","76","L","3","","0","0","1","","0.3863220662","","5","","0.3349995635","main_expt","0.6","","0.8","0.4707799186","0.2382585344","0.2","0.3863220662","0.4","","","","","","","",""
"374","","bandit","84","390257","0.0-45.0-0.0","55651629","wem/bandit_either","A1EYJNJFSRMDWW","either","2","","","","","","","74","J","1","","0","0","1","0.4676743975","","","6","0.3743101545","","main_expt","0.6","0.4676743975","0.8","","","0.2","","0.4","0.2088101903","0.4192648028","","","","","",""
"434","","bandit","85","392208","0.0-46.0-0.0","55651629","wem/bandit_either","A1EYJNJFSRMDWW","either","2","","","","","","","75","K","2","","0","0","1","","0.1884279889","","7","","0.377506125","main_expt","0.6","","0.8","0.4767364015","0.1884279889","0.2","0.4218548145","0.4","","","","","","","",""
"358","","bandit","86","394092","0.0-47.0-0.0","55651629","wem/bandit_either","A1EYJNJFSRMDWW","either","2","","","","","","","74","J","1","","0","0","1","","0.4837409877","","8","","0.3452849142","main_expt","0.6","","0.8","0.4837409877","0.2297930851","0.2","0.4298914749","0.4","","","","","","","",""
"305","","bandit","87","395923","0.0-48.0-0.0","55651629","wem/bandit_either","A1EYJNJFSRMDWW","either","2","","","","","","","72","H","0","img/none_selected.jpg","1","0","0","0.2713567333","","","9","0.2713567333","","main_expt","0.6","0.4825212187","0.8","","","0.2","","0.4","0.2219539873","0.4215440671","","","","","",""
"1275","","bandit","88","398738","0.0-49.0-0.0","55651629","wem/bandit_either","A1EYJNJFSRMDWW","either","2","","","","","","","74","J","1","","0","0","1","0.4791264729","","","10","0.2712708503","","main_expt","0.6","0.4791264729","0.8","","","0.2","","0.4","0.2398128751","0.3991616263","","","","","",""
"1342","","bandit","89","401598","0.0-50.0-0.0","55651629","wem/bandit_either","A1EYJNJFSRMDWW","either","2","","","","","","","75","K","2","","0","0","1","","0.2551733424","","11","","0.2635531688","main_expt","0.6","","0.8","0.4762013833","0.2551733424","0.2","0.4002673883","0.4","","","","","","","",""
"511","","bandit","90","403626","0.0-51.0-0.0","55651629","wem/bandit_either","A1EYJNJFSRMDWW","either","2","","","","","","","76","L","3","","0","1","0","","0.368629831","","12","","0.2669056975","main_expt","0.6","","0.8","0.4729837645","0.2593424883","0.2","0.368629831","0.4","","","","","","","",""
"1984","","bandit","91","407134","0.0-52.0-0.0","55651629","wem/bandit_either","A1EYJNJFSRMDWW","either","2","","","","","","","72","H","0","img/none_selected.jpg","0","1","0","","0.3204456557","","13","","0.3204456557","main_expt","0.6","","0.8","0.4749786695","0.2493591627","0.2","0.4189726289","0.4","","","","","","","",""
"1273","","bandit","92","409931","0.0-53.0-0.0","55651629","wem/bandit_either","A1EYJNJFSRMDWW","either","2","","","","","","","75","K","2","","0","0","1","","0.2686446846","","14","","0.3466526728","main_expt","0.6","","0.8","0.4810115094","0.2686446846","0.2","0.4352425359","0.4","","","","","","","",""
"3751","","bandit","93","415196","0.0-54.0-0.0","55651629","wem/bandit_either","A1EYJNJFSRMDWW","either","2","","","","","","","72","H","0","img/none_selected.jpg","0","1","0","","0.3736671224","","15","","0.3736671224","main_expt","0.6","","0.8","0.4705329286","0.2690169042","0.2","0.3819090161","0.4","","","","","","","",""
"1489","","bandit","94","418205","0.0-55.0-0.0","55651629","wem/bandit_either","A1EYJNJFSRMDWW","either","2","","","","","","","76","L","3","","0","0","1","","0.3737760256","","16","","0.3778143907","main_expt","0.6","","0.8","0.4687419894","0.2518303543","0.2","0.3737760256","0.4","","","","","","","",""
"348","","bandit","95","420078","0.0-56.0-0.0","55651629","wem/bandit_either","A1EYJNJFSRMDWW","either","2","","","","","","","76","L","3","","0","0","1","","0.4151791473","","17","","0.3845750066","main_expt","0.6","","0.8","0.4594180265","0.2406549936","0.2","0.4151791473","0.4","","","","","","","",""
"459","","bandit","96","422053","0.0-57.0-0.0","55651629","wem/bandit_either","A1EYJNJFSRMDWW","either","2","","","","","","","76","L","3","","1","0","0","0.4137363134","","","18","0.4041286345","","main_expt","0.6","0.425397146","0.8","","","0.2","","0.4","0.2670149403","0.4137363134","","","","","",""
"1832","","bandit","97","425412","0.0-58.0-0.0","55651629","wem/bandit_either","A1EYJNJFSRMDWW","either","2","","","","","","","76","L","3","","0","0","1","","0.4084056464","","19","","0.4127350431","main_expt","0.6","","0.8","0.4201246927","0.2658482338","0.2","0.4084056464","0.4","","","","","","","",""
"1694","","bandit","98","428626","0.0-59.0-0.0","55651629","wem/bandit_either","A1EYJNJFSRMDWW","either","2","","","","","","","76","L","3","","0","1","0","","0.4129175496","","20","","0.4107359536","main_expt","0.6","","0.8","0.3954271328","0.2452433766","0.2","0.4129175496","0.4","","","","","","","",""
"434","","bandit","99","430590","0.0-60.0-0.0","55651629","wem/bandit_either","A1EYJNJFSRMDWW","either","2","","","","","","","75","K","2","","0","0","1","","0.2298761452","","21","","0.3954861765","main_expt","0.6","","0.8","0.4196431029","0.2298761452","0.2","0.3888488162","0.4","","","","","","","",""
"330","","bandit","100","432438","0.0-61.0-0.0","55651629","wem/bandit_either","A1EYJNJFSRMDWW","either","2","","","","","","","76","L","3","","0","0","1","","0.3873149631","","22","","0.3805979297","main_expt","0.6","","0.8","0.3843335182","0.266827693","0.2","0.3873149631","0.4","","","","","","","",""
"459","","bandit","101","434411","0.0-62.0-0.0","55651629","wem/bandit_either","A1EYJNJFSRMDWW","either","2","","","","","","","76","L","3","","0","0","1","0.3659772031","","","23","0.425451992","","main_expt","0.6","0.3839977458","0.8","","","0.2","","0.4","0.2519769849","0.3659772031","","","","","",""
"1902","","bandit","102","437824","0.0-63.0-0.0","55651629","wem/bandit_either","A1EYJNJFSRMDWW","either","2","","","","","","","76","L","3","","0","0","1","0.3594327093","","","24","0.4699447661","","main_expt","0.6","0.3338939571","0.8","","","0.2","","0.4","0.2447613107","0.3594327093","","","","","",""
"678","","bandit","103","440025","0.0-64.0-0.0","55651629","wem/bandit_either","A1EYJNJFSRMDWW","either","2","","","","","","","76","L","3","","0","0","1","","0.3719143394","","25","","0.4484050393","main_expt","0.6","","0.8","0.324486952","0.2350413847","0.2","0.3719143394","0.4","","","","","","","",""
"328","","bandit","104","441879","0.0-65.0-0.0","55651629","wem/bandit_either","A1EYJNJFSRMDWW","either","2","","","","","","","76","L","3","","0","0","1","0.3690014044","","","26","0.4190234423","","main_expt","0.6","0.3095710384","0.8","","","0.2","","0.4","0.207774486","0.3690014044","","","","","",""
"293","","bandit","105","443698","0.0-66.0-0.0","55651629","wem/bandit_either","A1EYJNJFSRMDWW","either","2","","","","","","","74","J","1","","1","0","0","0.3355629191","","","27","0.4251478254","","main_expt","0.6","0.3355629191","0.8","","","0.2","","0.4","0.2164182795","0.3940030818","","","","","",""
"414","","bandit","106","445638","0.0-67.0-0.0","55651629","wem/bandit_either","A1EYJNJFSRMDWW","either","2","","","","","","","74","J","1","","0","1","0","","0.3668681485","","28","","0.4287328697","main_expt","0.6","","0.8","0.3668681485","0.2164031865","0.2","0.4111080327","0.4","","","","","","","",""
"1583","","bandit","107","448748","0.0-68.0-0.0","55651629","wem/bandit_either","A1EYJNJFSRMDWW","either","2","","","","","","","76","L","3","","0","0","1","0.41290056","","","29","0.4106025245","","main_expt","0.6","0.343198694","0.8","","","0.2","","0.4","0.2770000278","0.41290056","","","","","",""
"420","","bandit","108","450680","0.0-69.0-0.0","55651629","wem/bandit_either","A1EYJNJFSRMDWW","either","2","","","","","","","76","L","3","","0","0","1","","0.3937480262","","30","","0.3942494676","main_expt","0.6","","0.8","0.326069126","0.2354797847","0.2","0.3937480262","0.4","","","","","","","",""
"276","","bandit","109","452473","0.0-70.0-0.0","55651629","wem/bandit_either","A1EYJNJFSRMDWW","either","2","","","","","","","76","L","3","","0","1","0","","0.3997016236","","31","","0.4285056211","main_expt","0.6","","0.8","0.3390127419","0.2692030882","0.2","0.3997016236","0.4","","","","","","","",""
"371","","bandit","110","454374","0.0-71.0-0.0","55651629","wem/bandit_either","A1EYJNJFSRMDWW","either","2","","","","","","","76","L","3","","1","0","0","0.3574295763","","","32","0.4249454459","","main_expt","0.6","0.3360649894","0.8","","","0.2","","0.4","0.2471118655","0.3574295763","","","","","",""
"591","","bandit","111","456492","0.0-72.0-0.0","55651629","wem/bandit_either","A1EYJNJFSRMDWW","either","2","","","","","","","74","J","1","","1","0","0","0.3052602024","","","33","0.416417765","","main_expt","0.6","0.3052602024","0.8","","","0.2","","0.4","0.2879199001","0.3877818659","","","","","",""
"1591","","bandit","112","459609","0.0-73.0-0.0","55651629","wem/bandit_either","A1EYJNJFSRMDWW","either","2","","","","","","","74","J","1","","0","0","1","0.3594788954","","","34","0.4623714429","","main_expt","0.6","0.3594788954","0.8","","","0.2","","0.4","0.3180115212","0.3799496232","","","","","",""
"362","","bandit","113","461499","0.0-74.0-0.0","55651629","wem/bandit_either","A1EYJNJFSRMDWW","either","2","","","","","","","74","J","1","","0","0","1","0.380235832","","","35","0.4591977302","","main_expt","0.6","0.380235832","0.8","","","0.2","","0.4","0.2524306687","0.3577573403","","","","","",""
"321","","bandit","114","463349","0.0-75.0-0.0","55651629","wem/bandit_either","A1EYJNJFSRMDWW","either","2","","","","","","","74","J","1","","1","0","0","0.3459989602","","","36","0.4686235256","","main_expt","0.6","0.3459989602","0.8","","","0.2","","0.4","0.2351869563","0.3895375856","","","","","",""
"342","","bandit","115","465220","0.0-76.0-0.0","55651629","wem/bandit_either","A1EYJNJFSRMDWW","either","2","","","","","","","76","L","3","","0","0","1","","0.3783527007","","37","","0.4571547709","main_expt","0.6","","0.8","0.3320905149","0.2629170466","0.2","0.3783527007","0.4","","","","","","","",""
"495","","bandit","116","467245","0.0-77.0-0.0","55651629","wem/bandit_either","A1EYJNJFSRMDWW","either","2","","","","","","","76","L","3","","0","0","1","0.284076782","","","38","0.4688430709","","main_expt","0.6","0.3471020919","0.8","","","0.2","","0.4","0.3090194305","0.284076782","","","","","",""
"743","","bandit","117","469500","0.0-78.0-0.0","55651629","wem/bandit_either","A1EYJNJFSRMDWW","either","2","","","","","","","74","J","1","","0","0","1","0.3401763967","","","39","0.4612923778","","main_expt","0.6","0.3401763967","0.8","","","0.2","","0.4","0.2845371228","0.3388972186","","","","","",""
"3424","","bandit","118","474451","0.0-79.0-0.0","55651629","wem/bandit_either","A1EYJNJFSRMDWW","either","2","","","","","","","76","L","3","","0","0","1","","0.2663655232","","40","","0.4576194683","main_expt","0.6","","0.8","0.3260487483","0.3076259244","0.2","0.2663655232","0.4","","","","","","","",""
"4176","","bandit","119","480152","0.0-80.0-0.0","55651629","wem/bandit_either","A1EYJNJFSRMDWW","either","2","","","","","","","74","J","1","","0","0","1","","0.3390218734","","41","","0.4473921051","main_expt","0.6","","0.8","0.3390218734","0.2888769276","0.2","0.2608266697","0.4","","","","","","","",""
"297","","bandit","120","481962","0.0-81.0-0.0","55651629","wem/bandit_either","A1EYJNJFSRMDWW","either","2","","","","","","","74","J","1","","0","0","1","","0.2889680017","","42","","0.425470286","main_expt","0.6","","0.8","0.2889680017","0.2639198141","0.2","0.2287676803","0.4","","","","","","","",""
"4258","","bandit","121","487750","0.0-82.0-0.0","55651629","wem/bandit_either","A1EYJNJFSRMDWW","either","2","","","","","","","76","L","3","","0","0","1","","0.2043112358","","43","","0.4030522017","main_expt","0.6","","0.8","0.2784828801","0.2255441472","0.2","0.2043112358","0.4","","","","","","","",""
"956","","bandit","122","490220","0.0-83.0-0.0","55651629","wem/bandit_either","A1EYJNJFSRMDWW","either","2","","","","","","","76","L","3","","0","0","1","","0.1957049551","","44","","0.4106315797","main_expt","0.6","","0.8","0.2805729819","0.2050272072","0.2","0.1957049551","0.4","","","","","","","",""
"1561","","bandit","123","493300","0.0-84.0-0.0","55651629","wem/bandit_either","A1EYJNJFSRMDWW","either","2","","","","","","","74","J","1","","0","0","1","0.2195119073","","","45","0.4258527362","","main_expt","0.6","0.2195119073","0.8","","","0.2","","0.4","0.239455925","0.2207366272","","","","","",""
"404","","bandit","124","495229","0.0-85.0-0.0","55651629","wem/bandit_either","A1EYJNJFSRMDWW","either","2","","","","","","","75","K","2","","0","0","1","","0.2414778298","","46","","0.4425966235","main_expt","0.6","","0.8","0.2657932304","0.2414778298","0.2","0.1727988076","0.4","","","","","","","",""
"336","","bandit","125","497095","0.0-86.0-0.0","55651629","wem/bandit_either","A1EYJNJFSRMDWW","either","2","","","","","","","75","K","2","","0","0","1","0.1884211613","","","47","0.4428977597","","main_expt","0.6","0.2678398397","0.8","","","0.2","","0.4","0.1884211613","0.1446735631","","","","","",""
"347","","bandit","126","498976","0.0-87.0-0.0","55651629","wem/bandit_either","A1EYJNJFSRMDWW","either","2","","","","","","","75","K","2","","0","0","1","","0.1755274282","","48","","0.4479964269","main_expt","0.6","","0.8","0.2866904938","0.1755274282","0.2","0.1681765936","0.4","","","","","","","",""
"314","","bandit","127","500823","0.0-88.0-0.0","55651629","wem/bandit_either","A1EYJNJFSRMDWW","either","2","","","","","","","75","K","2","","0","1","0","","0.1646396384","","49","","0.4660387519","main_expt","0.6","","0.8","0.2803848884","0.1646396384","0.2","0.1473883531","0.4","","","","","","","",""
"177","","bandit","128","502518","0.0-89.0-0.0","55651629","wem/bandit_either","A1EYJNJFSRMDWW","either","2","","","","","","","74","J","1","","0","0","1","0.2587411269","","","50","0.4345757832","","main_expt","0.6","0.2587411269","0.8","","","0.2","","0.4","0.2024226619","0.1378170987","","","","","",""
"514","","bandit","129","504549","0.0-90.0-0.0","55651629","wem/bandit_either","A1EYJNJFSRMDWW","either","2","","","","","","","76","L","3","","0","1","0","","0.1430360168","","51","","0.4450950844","main_expt","0.6","","0.8","0.2212901065","0.1976760068","0.2","0.1430360168","0.4","","","","","","","",""
"413","","bandit","130","506475","0.0-91.0-0.0","55651629","wem/bandit_either","A1EYJNJFSRMDWW","either","2","","","","","","","76","L","3","","0","0","1","0.1731798725","","","52","0.4475354499","","main_expt","0.6","0.236006857","0.8","","","0.2","","0.4","0.1796352224","0.1731798725","","","","","",""
"499","","bandit","131","508499","0.0-92.0-0.0","55651629","wem/bandit_either","A1EYJNJFSRMDWW","either","2","","","","","","","76","L","3","","0","0","1","","0.1312409056","","53","","0.4627294295","main_expt","0.6","","0.8","0.2660825342","0.2451732725","0.2","0.1312409056","0.4","","","","","","","",""
"123","","bandit","132","510140","0.0-93.0-0.0","55651629","wem/bandit_either","A1EYJNJFSRMDWW","either","2","","","","","","","74","J","1","","1","0","0","0.2458345041","","","54","0.44829207","","main_expt","0.6","0.2458345041","0.8","","","0.2","","0.4","0.2621482643","0.1862053218","","","","","",""
"4948","","bandit","133","516622","0.0-94.0-0.0","55651629","wem/bandit_either","A1EYJNJFSRMDWW","either","2","","","","","","","76","L","3","","1","0","0","0.1733563037","","","55","0.4505537928","","main_expt","0.6","0.2265690781","0.8","","","0.2","","0.4","0.2441780383","0.1733563037","","","","","",""
"1358","","bandit","134","519499","0.0-95.0-0.0","55651629","wem/bandit_either","A1EYJNJFSRMDWW","either","2","","","","","","","74","J","1","","1","0","0","0.2741820357","","","56","0.4686400132","","main_expt","0.6","0.2741820357","0.8","","","0.2","","0.4","0.199729785","0.1728369204","","","","","",""
"497","","bandit","135","521512","0.0-96.0-0.0","55651629","wem/bandit_either","A1EYJNJFSRMDWW","either","2","","","","","","","74","J","1","","1","0","0","0.2937641054","","","57","0.4572679106","","main_expt","0.6","0.2937641054","0.8","","","0.2","","0.4","0.1945085845","0.09176359954","","","","","",""
"326","","bandit","136","523404","0.0-97.0-0.0","55651629","wem/bandit_either","A1EYJNJFSRMDWW","either","2","","","","","","","74","J","1","","1","0","0","0.2949827607","","","58","0.4300169527","","main_expt","0.6","0.2949827607","0.8","","","0.2","","0.4","0.2614759052","0.04991422033","","","","","",""
"386","","bandit","137","525314","0.0-98.0-0.0","55651629","wem/bandit_either","A1EYJNJFSRMDWW","either","2","","","","","","","74","J","1","","1","0","0","0.2710075273","","","59","0.4050829606","","main_expt","0.6","0.2710075273","0.8","","","0.2","","0.4","0.2426118991","0.053239915","","","","","",""
"311","","bandit","138","527145","0.0-99.0-0.0","55651629","wem/bandit_either","A1EYJNJFSRMDWW","either","2","","","","","","","74","J","1","","1","0","0","0.2766623035","","","60","0.4070720156","","main_expt","0.6","0.2766623035","0.8","","","0.2","","0.4","0.2623750897","0.06994226662","","","","","",""
"335","","bandit","139","529019","0.0-100.0-0.0","55651629","wem/bandit_either","A1EYJNJFSRMDWW","either","2","","","","","","","74","J","1","","1","0","0","0.2574592035","","","61","0.3895400789","","main_expt","0.6","0.2574592035","0.8","","","0.2","","0.4","0.2139103784","0.07064832373","","","","","",""
"317","","bandit","140","530855","0.0-101.0-0.0","55651629","wem/bandit_either","A1EYJNJFSRMDWW","either","2","","","","","","","74","J","1","","0","0","1","0.2425209234","","","62","0.4050708951","","main_expt","0.6","0.2425209234","0.8","","","0.2","","0.4","0.2566580444","0.08925217872","","","","","",""
"524","","bandit","141","532906","0.0-102.0-0.0","55651629","wem/bandit_either","A1EYJNJFSRMDWW","either","2","","","","","","","76","L","3","","0","0","1","0.08505035955","","","63","0.3765761212","","main_expt","0.6","0.2294211584","0.8","","","0.2","","0.4","0.2393402704","0.08505035955","","","","","",""
"329","","bandit","142","534760","0.0-103.0-0.0","55651629","wem/bandit_either","A1EYJNJFSRMDWW","either","2","","","","","","","74","J","1","","0","0","1","0.2350173232","","","64","0.3859881554","","main_expt","0.6","0.2350173232","0.8","","","0.2","","0.4","0.300105392","0.09892528285","","","","","",""
"22","","bandit","143","536295","0.0-104.0-0.0","55651629","wem/bandit_either","A1EYJNJFSRMDWW","either","2","","","","","","","76","L","3","","0","0","1","","0.1428545766","","65","","0.3817039273","main_expt","0.6","","0.8","0.2775473173","0.2584268813","0.2","0.1428545766","0.4","","","","","","","",""
"265","","bandit","144","538076","0.0-105.0-0.0","55651629","wem/bandit_either","A1EYJNJFSRMDWW","either","2","","","","","","","74","J","1","","0","0","1","0.298861572","","","66","0.3622232449","","main_expt","0.6","0.298861572","0.8","","","0.2","","0.4","0.2536378703","0.120440259","","","","","",""
"350","","bandit","145","539939","0.0-106.0-0.0","55651629","wem/bandit_either","A1EYJNJFSRMDWW","either","2","","","","","","","74","J","1","","1","0","0","0.3043747659","","","67","0.3768721334","","main_expt","0.6","0.3043747659","0.8","","","0.2","","0.4","0.2548884231","0.2019700983","","","","","",""
"459","","bandit","146","541924","0.0-107.0-0.0","55651629","wem/bandit_either","A1EYJNJFSRMDWW","either","2","","","","","","","74","J","1","","0","0","1","0.2533072519","","","68","0.3826604183","","main_expt","0.6","0.2533072519","0.8","","","0.2","","0.4","0.2105458193","0.1467862533","","","","","",""
"324","","bandit","147","543767","0.0-108.0-0.0","55651629","wem/bandit_either","A1EYJNJFSRMDWW","either","2","","","","","","","74","J","1","","0","0","1","0.2451677402","","","69","0.3981811202","","main_expt","0.6","0.2451677402","0.8","","","0.2","","0.4","0.2901666962","0.09022805221","","","","","",""
"309","","bandit","148","545605","0.0-109.0-0.0","55651629","wem/bandit_either","A1EYJNJFSRMDWW","either","2","","","","","","","76","L","3","","0","0","1","","0.1128827508","","70","","0.3936557204","main_expt","0.6","","0.8","0.2403061491","0.2973761433","0.2","0.1128827508","0.4","","","","","","","",""
"242","","bandit","149","547377","0.0-110.0-0.0","55651629","wem/bandit_either","A1EYJNJFSRMDWW","either","2","","","","","","","74","J","1","","0","0","1","0.1917576795","","","71","0.3949471057","","main_expt","0.6","0.1917576795","0.8","","","0.2","","0.4","0.2737706179","0.1184182172","","","","","",""
"326","","bandit","150","549233","0.0-111.0-0.0","55651629","wem/bandit_either","A1EYJNJFSRMDWW","either","2","","","","","","","72","H","0","img/none_selected.jpg","1","0","0","0.3888869603","","","72","0.3888869603","","main_expt","0.6","0.1894079546","0.8","","","0.2","","0.4","0.3005227265","0.1038133506","","","","","",""
"383","","bandit","151","551147","0.0-112.0-0.0","55651629","wem/bandit_either","A1EYJNJFSRMDWW","either","2","","","","","","","72","H","0","img/none_selected.jpg","1","0","0","0.4015056825","","","73","0.4015056825","","main_expt","0.6","0.235909594","0.8","","","0.2","","0.4","0.3205676235","0.07830871569","","","","","",""
"334","","bandit","152","553009","0.0-113.0-0.0","55651629","wem/bandit_either","A1EYJNJFSRMDWW","either","2","","","","","","","72","H","0","img/none_selected.jpg","0","0","1","0.4200542591","","","74","0.4200542591","","main_expt","0.6","0.2772030277","0.8","","","0.2","","0.4","0.3040473008","0.09226686474","","","","","",""
"334","","bandit","153","554864","0.0-114.0-0.0","55651629","wem/bandit_either","A1EYJNJFSRMDWW","either","2","","","","","","","74","J","1","","1","0","0","0.2237268092","","","75","0.4353174817","","main_expt","0.6","0.2237268092","0.8","","","0.2","","0.4","0.2686744794","0.07948082514","","","","","",""
"327","","bandit","154","556705","0.0-115.0-0.0","55651629","wem/bandit_either","A1EYJNJFSRMDWW","either","2","","","","","","","72","H","0","img/none_selected.jpg","1","0","0","0.4196821318","","","76","0.4196821318","","main_expt","0.6","0.1739375455","0.8","","","0.2","","0.4","0.258707356","0.1279570505","","","","","",""
"271","","bandit","155","558507","0.0-116.0-0.0","55651629","wem/bandit_either","A1EYJNJFSRMDWW","either","2","","","","","","","74","J","1","","0","0","1","0.1648796623","","","77","0.3787369199","","main_expt","0.6","0.1648796623","0.8","","","0.2","","0.4","0.3010070056","0.1202820049","","","","","",""
"319","","bandit","156","560355","0.0-117.0-0.0","55651629","wem/bandit_either","A1EYJNJFSRMDWW","either","2","","","","","","","74","J","1","","0","0","1","0.1637798684","","","78","0.4314930014","","main_expt","0.6","0.1637798684","0.8","","","0.2","","0.4","0.2648586626","0.1054071572","","","","","",""
"318","","bandit","157","562205","0.0-118.0-0.0","55651629","wem/bandit_either","A1EYJNJFSRMDWW","either","2","","","","","","","72","H","0","img/none_selected.jpg","0","0","1","","0.4155078174","","79","","0.4155078174","main_expt","0.6","","0.8","0.1490076182","0.1984114041","0.2","0.1403095361","0.4","","","","","","","",""
"162","","bandit","158","563901","0.0-119.0-0.0","55651629","wem/bandit_either","A1EYJNJFSRMDWW","either","2","","","","","","","72","H","0","img/none_selected.jpg","0","1","0","","0.4226243671","","80","","0.4226243671","main_expt","0.6","","0.8","0.1093198388","0.180325551","0.2","0.1891235553","0.4","","","","","","","",""
"331","","bandit","159","565766","0.0-120.0-0.0","55651629","wem/bandit_either","A1EYJNJFSRMDWW","either","2","","","","","","","74","J","1","","0","0","1","0.08868186825","","","81","0.4474166549","","main_expt","0.6","0.08868186825","0.8","","","0.2","","0.4","0.224531153","0.1858030354","","","","","",""
"317","","bandit","160","567613","0.0-121.0-0.0","55651629","wem/bandit_either","A1EYJNJFSRMDWW","either","2","","","","","","","72","H","0","img/none_selected.jpg","0","0","1","0.4636297045","","","82","0.4636297045","","main_expt","0.6","0.1073880826","0.8","","","0.2","","0.4","0.221125015","0.2476542501","","","","","",""
"222","","bandit","161","569373","0.0-122.0-0.0","55651629","wem/bandit_either","A1EYJNJFSRMDWW","either","2","","","","","","","72","H","0","img/none_selected.jpg","0","1","0","","0.467509749","","83","","0.467509749","main_expt","0.6","","0.8","0.1022587498","0.2143237207","0.2","0.2188241074","0.4","","","","","","","",""
"249","","bandit","162","571134","0.0-123.0-0.0","55651629","wem/bandit_either","A1EYJNJFSRMDWW","either","2","","","","","","","74","J","1","","0","0","1","0.1085807699","","","84","0.4551111531","","main_expt","0.6","0.1085807699","0.8","","","0.2","","0.4","0.2097367537","0.2754771977","","","","","",""
"308","","bandit","163","572952","0.0-124.0-0.0","55651629","wem/bandit_either","A1EYJNJFSRMDWW","either","2","","","","","","","74","J","1","","0","0","1","0.1263918358","","","85","0.4621419017","","main_expt","0.6","0.1263918358","0.8","","","0.2","","0.4","0.1661536269","0.2965575968","","","","","",""
"490","","bandit","164","574968","0.0-125.0-0.0","55651629","wem/bandit_either","A1EYJNJFSRMDWW","either","2","","","","","","","74","J","1","","0","0","1","","0.1481941301","","86","","0.4612050897","main_expt","0.6","","0.8","0.1481941301","0.1364458955","0.2","0.257129161","0.4","","","","","","","",""
"123","","bandit","165","576609","0.0-126.0-0.0","55651629","wem/bandit_either","A1EYJNJFSRMDWW","either","2","","","","","","","74","J","1","","0","0","1","0.1447872846","","","87","0.4334675206","","main_expt","0.6","0.1447872846","0.8","","","0.2","","0.4","0.08235553135","0.2338967043","","","","","",""
"316","","bandit","166","578437","0.0-127.0-0.0","55651629","wem/bandit_either","A1EYJNJFSRMDWW","either","2","","","","","","","74","J","1","","0","0","1","","0.1391637727","","88","","0.4397617206","main_expt","0.6","","0.8","0.1391637727","0.0754832669","0.2","0.2161535794","0.4","","","","","","","",""
"129","","bandit","167","580090","0.0-128.0-0.0","55651629","wem/bandit_either","A1EYJNJFSRMDWW","either","2","","","","","","","74","J","1","","0","1","0","","0.1476089376","","89","","0.4635478967","main_expt","0.6","","0.8","0.1476089376","0.109361408","0.2","0.2043146745","0.4","","","","","","","",""
"310","","bandit","168","581923","0.0-129.0-0.0","55651629","wem/bandit_either","A1EYJNJFSRMDWW","either","2","","","","","","","74","J","1","","0","0","1","0.2081489191","","","90","0.4234969579","","main_expt","0.6","0.2081489191","0.8","","","0.2","","0.4","0.07391079866","0.2346009907","","","","","",""
"296","","bandit","169","583748","0.0-130.0-0.0","55651629","wem/bandit_either","A1EYJNJFSRMDWW","either","2","","","","","","","74","J","1","","0","0","1","0.1834039029","","","91","0.4267507071","","main_expt","0.6","0.1834039029","0.8","","","0.2","","0.4","0.1164594673","0.2333967219","","","","","",""
"325","","bandit","170","585602","0.0-131.0-0.0","55651629","wem/bandit_either","A1EYJNJFSRMDWW","either","2","","","","","","","74","J","1","","0","1","0","","0.2027314649","","92","","0.4089505196","main_expt","0.6","","0.8","0.2027314649","0.113043345","0.2","0.2150480475","0.4","","","","","","","",""
"648","","bandit","171","587787","0.0-132.0-0.0","55651629","wem/bandit_either","A1EYJNJFSRMDWW","either","2","","","","","","","74","J","1","","0","0","1","0.1738894496","","","93","0.4112501448","","main_expt","0.6","0.1738894496","0.8","","","0.2","","0.4","0.1714352716","0.2588080464","","","","","",""
"407","","bandit","172","589711","0.0-133.0-0.0","55651629","wem/bandit_either","A1EYJNJFSRMDWW","either","2","","","","","","","76","L","3","","0","0","1","","0.2748849181","","94","","0.452415855","main_expt","0.6","","0.8","0.2484708832","0.1253024032","0.2","0.2748849181","0.4","","","","","","","",""
"356","","bandit","173","591580","0.0-134.0-0.0","55651629","wem/bandit_either","A1EYJNJFSRMDWW","either","2","","","","","","","76","L","3","","0","0","1","0.2791739054","","","95","0.4589197587","","main_expt","0.6","0.2914685715","0.8","","","0.2","","0.4","0.1401284447","0.2791739054","","","","","",""
"302","","bandit","174","593417","0.0-135.0-0.0","55651629","wem/bandit_either","A1EYJNJFSRMDWW","either","2","","","","","","","74","J","1","","0","0","1","0.2417524935","","","96","0.4481870348","","main_expt","0.6","0.2417524935","0.8","","","0.2","","0.4","0.1320491369","0.3149564315","","","","","",""
"486","","bandit","175","595435","0.0-136.0-0.0","55651629","wem/bandit_either","A1EYJNJFSRMDWW","either","2","","","","","","","76","L","3","","1","0","0","0.372564007","","","97","0.4597072186","","main_expt","0.6","0.2492821404","0.8","","","0.2","","0.4","0.1518453759","0.372564007","","","","","",""
"587","","bandit","176","597551","0.0-137.0-0.0","55651629","wem/bandit_either","A1EYJNJFSRMDWW","either","2","","","","","","","76","L","3","","0","0","1","","0.393328365","","98","","0.4705619112","main_expt","0.6","","0.8","0.3002958449","0.2173959583","0.2","0.393328365","0.4","","","","","","","",""
"340","","bandit","177","599422","0.0-138.0-0.0","55651629","wem/bandit_either","A1EYJNJFSRMDWW","either","2","","","","","","","76","L","3","","1","0","0","0.421239771","","","99","0.4800968761","","main_expt","0.6","0.3544832656","0.8","","","0.2","","0.4","0.2618725657","0.421239771","","","","","",""
"395","","bandit","178","601349","0.0-139.0-0.0","55651629","wem/bandit_either","A1EYJNJFSRMDWW","either","2","","","","","","","76","L","3","","0","0","1","","0.4130759476","","100","","0.4780143146","main_expt","0.6","","0.8","0.3810954338","0.2487788848","0.2","0.4130759476","0.4","","","","","","","",""
"437","","bandit","179","603320","0.0-140.0-0.0","55651629","wem/bandit_either","A1EYJNJFSRMDWW","either","2","","","","","","","74","J","1","","1","0","0","0.4042362267","","","101","0.4849002763","","main_expt","0.6","0.4042362267","0.8","","","0.2","","0.4","0.2890792313","0.4089462913","","","","","",""
"600","","bandit","180","605456","0.0-141.0-0.0","55651629","wem/bandit_either","A1EYJNJFSRMDWW","either","2","","","","","","","74","J","1","","0","1","0","","0.4594696392","","102","","0.4886078379","main_expt","0.6","","0.8","0.4594696392","0.3136369757","0.2","0.370330464","0.4","","","","","","","",""
"921","","bandit","181","607904","0.0-142.0-0.0","55651629","wem/bandit_either","A1EYJNJFSRMDWW","either","2","","","","","","","74","J","1","","1","0","0","0.4588766667","","","103","0.47121906","","main_expt","0.6","0.4588766667","0.8","","","0.2","","0.4","0.2364671533","0.3306315663","","","","","",""
"871","","bandit","182","610326","0.0-143.0-0.0","55651629","wem/bandit_either","A1EYJNJFSRMDWW","either","2","","","","","","","74","J","1","","0","0","1","0.4372785745","","","104","0.4760763377","","main_expt","0.6","0.4372785745","0.8","","","0.2","","0.4","0.2202486688","0.354634178","","","","","",""
"351","","bandit","183","612199","0.0-144.0-0.0","55651629","wem/bandit_either","A1EYJNJFSRMDWW","either","2","","","","","","","76","L","3","","0","0","1","0.3896605338","","","105","0.4701389446","","main_expt","0.6","0.4063887309","0.8","","","0.2","","0.4","0.1854418088","0.3896605338","","","","","",""
"503","","bandit","184","614265","0.0-145.0-0.0","55651629","wem/bandit_either","A1EYJNJFSRMDWW","either","2","","","","","","","76","L","3","","0","0","1","","0.414339711","","106","","0.471324938","main_expt","0.6","","0.8","0.3778019321","0.1596754559","0.2","0.414339711","0.4","","","","","","","",""
"901","","bandit","185","616683","0.0-146.0-0.0","55651629","wem/bandit_either","A1EYJNJFSRMDWW","either","2","","","","","","","76","L","3","","0","0","1","","0.4164239898","","107","","0.4786694594","main_expt","0.6","","0.8","0.3614143111","0.137099288","0.2","0.4164239898","0.4","","","","","","","",""
"881","","bandit","186","619088","0.0-147.0-0.0","55651629","wem/bandit_either","A1EYJNJFSRMDWW","either","2","","","","","","","76","L","3","","0","0","1","0.3836571442","","","108","0.4810065258","","main_expt","0.6","0.3681250399","0.8","","","0.2","","0.4","0.1443984823","0.3836571442","","","","","",""
"770","","bandit","187","621392","0.0-148.0-0.0","55651629","wem/bandit_either","A1EYJNJFSRMDWW","either","2","","","","","","","76","L","3","","0","1","0","","0.3881214568","","109","","0.4816764674","main_expt","0.6","","0.8","0.3446081275","0.1409511773","0.2","0.3881214568","0.4","","","","","","","",""
"626","","bandit","188","623547","0.0-149.0-0.0","55651629","wem/bandit_either","A1EYJNJFSRMDWW","either","2","","","","","","","76","L","3","","0","0","1","0.4266873791","","","110","0.4882082215","","main_expt","0.6","0.3681270965","0.8","","","0.2","","0.4","0.1787750665","0.4266873791","","","","","",""
"292","","bandit","189","625357","0.0-150.0-0.0","55651629","wem/bandit_either","A1EYJNJFSRMDWW","either","2","","","","","","","74","J","1","","0","0","1","0.391379093","","","111","0.478642168","","main_expt","0.6","0.391379093","0.8","","","0.2","","0.4","0.1862786225","0.4475699482","","","","","",""
"1007","","bandit","190","627886","0.0-151.0-0.0","55651629","wem/bandit_either","A1EYJNJFSRMDWW","either","2","","","","","","","74","J","1","","0","0","1","0.4131544452","","","112","0.4841415165","","main_expt","0.6","0.4131544452","0.8","","","0.2","","0.4","0.1654620982","0.4190314983","","","","","",""
"483","","bandit","191","629904","0.0-152.0-0.0","55651629","wem/bandit_either","A1EYJNJFSRMDWW","either","2","","","","","","","74","J","1","","0","0","1","0.3963985948","","","113","0.4883212127","","main_expt","0.6","0.3963985948","0.8","","","0.2","","0.4","0.1582981878","0.3666128881","","","","","",""
"2023","","bandit","192","633444","0.0-153.0-0.0","55651629","wem/bandit_either","A1EYJNJFSRMDWW","either","2","","","","","","","74","J","1","","1","0","0","0.4117985871","","","114","0.4883790739","","main_expt","0.6","0.4117985871","0.8","","","0.2","","0.4","0.1922757069","0.3866259854","","","","","",""
"1081","","bandit","193","636040","0.0-154.0-0.0","55651629","wem/bandit_either","A1EYJNJFSRMDWW","either","2","","","","","","","74","J","1","","0","0","1","0.394381103","","","115","0.4902011966","","main_expt","0.6","0.394381103","0.8","","","0.2","","0.4","0.185618385","0.354161152","","","","","",""
"1750","","bandit","194","639311","0.0-155.0-0.0","55651629","wem/bandit_either","A1EYJNJFSRMDWW","either","2","","","","","","","74","J","1","","0","0","1","0.3762408663","","","116","0.4844723045","","main_expt","0.6","0.3762408663","0.8","","","0.2","","0.4","0.2057277395","0.3170745426","","","","","",""
"307","","bandit","195","641158","0.0-156.0-0.0","55651629","wem/bandit_either","A1EYJNJFSRMDWW","either","2","","","","","","","76","L","3","","0","0","1","0.304536318","","","117","0.4895589844","","main_expt","0.6","0.3823674378","0.8","","","0.2","","0.4","0.2288411079","0.304536318","","","","","",""
"427","","bandit","196","643123","0.0-157.0-0.0","55651629","wem/bandit_either","A1EYJNJFSRMDWW","either","2","","","","","","","76","L","3","","0","0","1","0.3411026949","","","118","0.4899729034","","main_expt","0.6","0.4050195855","0.8","","","0.2","","0.4","0.2207517482","0.3411026949","","","","","",""
"401","","bandit","197","645042","0.0-158.0-0.0","55651629","wem/bandit_either","A1EYJNJFSRMDWW","either","2","","","","","","","74","J","1","","0","0","1","0.4227562767","","","119","0.4947041593","","main_expt","0.6","0.4227562767","0.8","","","0.2","","0.4","0.1955286499","0.3447942488","","","","","",""
"430","","bandit","198","646988","0.0-159.0-0.0","55651629","wem/bandit_either","A1EYJNJFSRMDWW","either","2","","","","","","","74","J","1","","1","0","0","0.4163810796","","","120","0.4916865355","","main_expt","0.6","0.4163810796","0.8","","","0.2","","0.4","0.2427950695","0.3686185352","","","","","",""
"599","","bandit","199","649104","0.0-160.0-0.0","55651629","wem/bandit_either","A1EYJNJFSRMDWW","either","2","","","","","","","74","J","1","","0","0","1","0.406821829","","","121","0.4860386064","","main_expt","0.6","0.406821829","0.8","","","0.2","","0.4","0.2479682904","0.3547669752","","","","","",""
"519","","bandit","200","651154","0.0-161.0-0.0","55651629","wem/bandit_either","A1EYJNJFSRMDWW","either","2","","","","","","","74","J","1","","0","0","1","0.3999449125","","","122","0.483083859","","main_expt","0.6","0.3999449125","0.8","","","0.2","","0.4","0.3081985406","0.365994073","","","","","",""
"361","","bandit","201","653054","0.0-162.0-0.0","55651629","wem/bandit_either","A1EYJNJFSRMDWW","either","2","","","","","","","74","J","1","","0","0","1","","0.366626489","","123","","0.4791491275","main_expt","0.6","","0.8","0.366626489","0.3089359708","0.2","0.3120596142","0.4","","","","","","","",""
"379","","bandit","202","654955","0.0-163.0-0.0","55651629","wem/bandit_either","A1EYJNJFSRMDWW","either","2","","","","","","","74","J","1","","0","0","1","0.3706278578","","","124","0.4776777384","","main_expt","0.6","0.3706278578","0.8","","","0.2","","0.4","0.3298338218","0.302161917","","","","","",""
"578","","bandit","203","657065","0.0-164.0-0.0","55651629","wem/bandit_either","A1EYJNJFSRMDWW","either","2","","","","","","","74","J","1","","0","0","1","0.3545504723","","","125","0.478983255","","main_expt","0.6","0.3545504723","0.8","","","0.2","","0.4","0.2795250441","0.2794370347","","","","","",""
"391","","bandit","204","658971","0.0-165.0-0.0","55651629","wem/bandit_either","A1EYJNJFSRMDWW","either","2","","","","","","","74","J","1","","0","0","1","0.3106298006","","","126","0.4724726719","","main_expt","0.6","0.3106298006","0.8","","","0.2","","0.4","0.2184127205","0.2466154908","","","","","",""
"450","","bandit","205","660935","0.0-166.0-0.0","55651629","wem/bandit_either","A1EYJNJFSRMDWW","either","2","","","","","","","74","J","1","","1","0","0","0.3351405197","","","127","0.4796244369","","main_expt","0.6","0.3351405197","0.8","","","0.2","","0.4","0.2488858907","0.2712823261","","","","","",""
"624","","bandit","206","663078","0.0-167.0-0.0","55651629","wem/bandit_either","A1EYJNJFSRMDWW","either","2","","","","","","","74","J","1","","0","0","1","","0.2984422464","","128","","0.4825212971","main_expt","0.6","","0.8","0.2984422464","0.2850827173","0.2","0.2095517986","0.4","","","","","","","",""
"666","","bandit","207","665269","0.0-168.0-0.0","55651629","wem/bandit_either","A1EYJNJFSRMDWW","either","2","","","","","","","74","J","1","","0","0","1","","0.2027892291","","129","","0.4877535013","main_expt","0.6","","0.8","0.2027892291","0.2867242009","0.2","0.1986866195","0.4","","","","","","","",""
"592","","bandit","208","667396","0.0-169.0-0.0","55651629","wem/bandit_either","A1EYJNJFSRMDWW","either","2","","","","","","","74","J","1","","0","0","1","0.13768179","","","130","0.4833646461","","main_expt","0.6","0.13768179","0.8","","","0.2","","0.4","0.2509552002","0.172959111","","","","","",""
"592","","bandit","209","669526","0.0-170.0-0.0","55651629","wem/bandit_either","A1EYJNJFSRMDWW","either","2","","","","","","","74","J","1","","1","0","0","0.1352832961","","","131","0.4790990265","","main_expt","0.6","0.1352832961","0.8","","","0.2","","0.4","0.2172434631","0.163172462","","","","","",""
"335","","bandit","210","671397","0.0-171.0-0.0","55651629","wem/bandit_either","A1EYJNJFSRMDWW","either","2","","","","","","","74","J","1","","0","0","1","0.08660982753","","","132","0.4882311922","","main_expt","0.6","0.08660982753","0.8","","","0.2","","0.4","0.158295755","0.161148659","","","","","",""
"702","","bandit","211","673630","0.0-172.0-0.0","55651629","wem/bandit_either","A1EYJNJFSRMDWW","either","2","","","","","","","74","J","1","","0","0","1","0.1020907376","","","133","0.4889625365","","main_expt","0.6","0.1020907376","0.8","","","0.2","","0.4","0.185310911","0.1735641072","","","","","",""
"596","","bandit","212","675758","0.0-173.0-0.0","55651629","wem/bandit_either","A1EYJNJFSRMDWW","either","2","","","","","","","74","J","1","","1","0","0","0.1231499397","","","134","0.4916783795","","main_expt","0.6","0.1231499397","0.8","","","0.2","","0.4","0.1966535246","0.1597390633","","","","","",""
"392","","bandit","213","677686","0.0-174.0-0.0","55651629","wem/bandit_either","A1EYJNJFSRMDWW","either","2","","","","","","","74","J","1","","0","0","1","0.1524236556","","","135","0.4904315354","","main_expt","0.6","0.1524236556","0.8","","","0.2","","0.4","0.2290191974","0.1460070414","","","","","",""
"758","","bandit","214","679992","0.0-175.0-0.0","55651629","wem/bandit_either","A1EYJNJFSRMDWW","either","2","","","","","","","74","J","1","","0","0","1","0.1954247664","","","136","0.491666595","","main_expt","0.6","0.1954247664","0.8","","","0.2","","0.4","0.2929229053","0.105474526","","","","","",""
"391","","bandit","215","681904","0.0-176.0-0.0","55651629","wem/bandit_either","A1EYJNJFSRMDWW","either","2","","","","","","","74","J","1","","0","0","1","0.1833989084","","","137","0.4917142499","","main_expt","0.6","0.1833989084","0.8","","","0.2","","0.4","0.2780805385","0.08835118593","","","","","",""
"428","","bandit","216","683852","0.0-177.0-0.0","55651629","wem/bandit_either","A1EYJNJFSRMDWW","either","2","","","","","","","74","J","1","","0","0","1","0.1490533902","","","138","0.4870170403","","main_expt","0.6","0.1490533902","0.8","","","0.2","","0.4","0.217224157","0.06418360449","","","","","",""
"452","","bandit","217","685847","0.0-178.0-0.0","55651629","wem/bandit_either","A1EYJNJFSRMDWW","either","2","","","","","","","74","J","1","","0","0","1","0.1318817547","","","139","0.4834992155","","main_expt","0.6","0.1318817547","0.8","","","0.2","","0.4","0.2323391466","0.03554325754","","","","","",""
"403","","bandit","218","687785","0.0-179.0-0.0","55651629","wem/bandit_either","A1EYJNJFSRMDWW","either","2","","","","","","","76","L","3","","0","0","1","0.04477370895","","","140","0.4927392517","","main_expt","0.6","0.1877412345","0.8","","","0.2","","0.4","0.244475209","0.04477370895","","","","","",""
"423","","bandit","219","689744","0.0-180.0-0.0","55651629","wem/bandit_either","A1EYJNJFSRMDWW","either","2","","","","","","","76","L","3","","0","0","1","","0.03780119019","","141","","0.4872377518","main_expt","0.6","","0.8","0.2363671377","0.232604034","0.2","0.03780119019","0.4","","","","","","","",""
"462","","bandit","220","691745","0.0-181.0-0.0","55651629","wem/bandit_either","A1EYJNJFSRMDWW","either","2","","","","","","","76","L","3","","0","0","1","0.03149913875","","","142","0.4846254936","","main_expt","0.6","0.2546402356","0.8","","","0.2","","0.4","0.2447345556","0.03149913875","","","","","",""
"643","","bandit","221","693919","0.0-182.0-0.0","55651629","wem/bandit_either","A1EYJNJFSRMDWW","either","2","","","","","","","76","L","3","","0","0","1","","0.04191513266","","143","","0.4815328815","main_expt","0.6","","0.8","0.2825544685","0.26413271","0.2","0.04191513266","0.4","","","","","","","",""
"1351","","bandit","222","696789","0.0-183.0-0.0","55651629","wem/bandit_either","A1EYJNJFSRMDWW","either","2","","","","","","","76","L","3","","0","0","1","","0.05613120157","","144","","0.4854048375","main_expt","0.6","","0.8","0.2731230023","0.1988203511","0.2","0.05613120157","0.4","","","","","","","",""
"978","","bandit","223","699303","0.0-184.0-0.0","55651629","wem/bandit_either","A1EYJNJFSRMDWW","either","2","","","","","","","76","L","3","","0","0","1","0.03827589539","","","145","0.4813029389","","main_expt","0.6","0.2943814715","0.8","","","0.2","","0.4","0.217822638","0.03827589539","","","","","",""
"805","","bandit","224","701636","0.0-185.0-0.0","55651629","wem/bandit_either","A1EYJNJFSRMDWW","either","2","","","","","","","76","L","3","","0","1","0","","0.02861175853","","146","","0.4884824202","main_expt","0.6","","0.8","0.328634005","0.2009042904","0.2","0.02861175853","0.4","","","","","","","",""
"772","","bandit","225","703930","0.0-186.0-0.0","55651629","wem/bandit_either","A1EYJNJFSRMDWW","either","2","","","","","","","76","L","3","","0","0","1","","0.02140640811","","147","","0.4835291327","main_expt","0.6","","0.8","0.3511209141","0.2080446297","0.2","0.02140640811","0.4","","","","","","","",""
"327","","bandit","226","705781","0.0-187.0-0.0","55651629","wem/bandit_either","A1EYJNJFSRMDWW","either","2","","","","","","","76","L","3","","0","0","1","0.0202041473","","","148","0.4716003481","","main_expt","0.6","0.3874996206","0.8","","","0.2","","0.4","0.1536700415","0.0202041473","","","","","",""
"802","","bandit","227","708103","0.0-188.0-0.0","55651629","wem/bandit_either","A1EYJNJFSRMDWW","either","2","","","","","","","76","L","3","","0","0","1","","0.01154190459","","149","","0.4341886607","main_expt","0.6","","0.8","0.3476646045","0.1593661633","0.2","0.01154190459","0.4","","","","","","","",""
"709","","bandit","228","710349","0.0-189.0-0.0","55651629","wem/bandit_either","A1EYJNJFSRMDWW","either","2","","","","","","","76","L","3","","0","0","1","","0.01291237021","","150","","0.4014438172","main_expt","0.6","","0.8","0.3323010919","0.144955896","0.2","0.01291237021","0.4","","","","","","","",""
"720","","bandit","229","712615","0.0-190.0-0.0","55651629","wem/bandit_either","A1EYJNJFSRMDWW","either","2","","","","","","","76","L","3","","0","0","1","0.0137789916","","","151","0.3980713407","","main_expt","0.6","0.3954477196","0.8","","","0.2","","0.4","0.2123564028","0.0137789916","","","","","",""
"321","","bandit","230","714452","0.0-191.0-0.0","55651629","wem/bandit_either","A1EYJNJFSRMDWW","either","2","","","","","","","76","L","3","","0","0","1","","0.01985271471","","152","","0.4002357887","main_expt","0.6","","0.8","0.4186327087","0.2301890466","0.2","0.01985271471","0.4","","","","","","","",""
"397","","bandit","231","716375","0.0-192.0-0.0","55651629","wem/bandit_either","A1EYJNJFSRMDWW","either","2","","","","","","","76","L","3","","0","0","1","","0.02951100453","","153","","0.388677987","main_expt","0.6","","0.8","0.4029566754","0.2295153641","0.2","0.02951100453","0.4","","","","","","","",""
"367","","bandit","232","718263","0.0-193.0-0.0","55651629","wem/bandit_either","A1EYJNJFSRMDWW","either","2","","","","","","","76","L","3","","0","0","1","0.02325572033","","","154","0.3817747688","","main_expt","0.6","0.4037751878","0.8","","","0.2","","0.4","0.2163321136","0.02325572033","","","","","",""
"421","","bandit","233","720205","0.0-194.0-0.0","55651629","wem/bandit_either","A1EYJNJFSRMDWW","either","2","","","","","","","76","L","3","","0","0","1","","0.03925092562","","155","","0.327727533","main_expt","0.6","","0.8","0.4078727314","0.2257858177","0.2","0.03925092562","0.4","","","","","","","",""
"370","","bandit","234","722108","0.0-195.0-0.0","55651629","wem/bandit_either","A1EYJNJFSRMDWW","either","2","","","","","","","74","J","1","","0","0","1","0.3941681487","","","156","0.2821504166","","main_expt","0.6","0.3941681487","0.8","","","0.2","","0.4","0.2077891775","0.05532081832","","","","","",""
"452","","bandit","235","724093","0.0-196.0-0.0","55651629","wem/bandit_either","A1EYJNJFSRMDWW","either","2","","","","","","","74","J","1","","0","0","1","0.3417147062","","","157","0.2784527126","","main_expt","0.6","0.3417147062","0.8","","","0.2","","0.4","0.1742908387","0.05983660039","","","","","",""
"761","","bandit","236","726383","0.0-197.0-0.0","55651629","wem/bandit_either","A1EYJNJFSRMDWW","either","2","","","","","","","74","J","1","","0","0","1","0.2963220618","","","158","0.2857058734","","main_expt","0.6","0.2963220618","0.8","","","0.2","","0.4","0.162057643","0.09347744845","","","","","",""
"301","","bandit","237","728207","0.0-198.0-0.0","55651629","wem/bandit_either","A1EYJNJFSRMDWW","either","2","","","","","","","74","J","1","","0","0","1","0.2961528309","","","159","0.2349295223","","main_expt","0.6","0.2961528309","0.8","","","0.2","","0.4","0.1805514511","0.09649648717","","","","","",""
"646","","bandit","238","730366","0.0-199.0-0.0","55651629","wem/bandit_either","A1EYJNJFSRMDWW","either","2","","","","","","","74","J","1","","0","0","1","0.2842772575","","","160","0.2275717407","","main_expt","0.6","0.2842772575","0.8","","","0.2","","0.4","0.1724629995","0.08382429791","","","","","",""
"402","","bandit","239","732292","0.0-200.0-0.0","55651629","wem/bandit_either","A1EYJNJFSRMDWW","either","2","","","","","","","74","J","1","","0","0","1","","0.2747674873","","161","","0.2559884592","main_expt","0.6","","0.8","0.2747674873","0.1660992999","0.2","0.1466352983","0.4","","","","","","","",""
"552","","bandit","240","734378","0.0-201.0-0.0","55651629","wem/bandit_either","A1EYJNJFSRMDWW","either","2","","","","","","","74","J","1","","0","0","1","0.2993190406","","","162","0.2670526618","","main_expt","0.6","0.2993190406","0.8","","","0.2","","0.4","0.2281832109","0.1569467617","","","","","",""
"645","","bandit","241","736558","0.0-202.0-0.0","55651629","wem/bandit_either","A1EYJNJFSRMDWW","either","2","","","","","","","74","J","1","","0","0","1","0.3102408377","","","163","0.2618894379","","main_expt","0.6","0.3102408377","0.8","","","0.2","","0.4","0.2144285545","0.1437935099","","","","","",""
"1010","","bandit","242","739103","0.0-203.0-0.0","55651629","wem/bandit_either","A1EYJNJFSRMDWW","either","2","","","","","","","74","J","1","","1","0","0","0.2607878409","","","164","0.2977476978","","main_expt","0.6","0.2607878409","0.8","","","0.2","","0.4","0.2131293933","0.1503677763","","","","","",""
"585","","bandit","243","741202","0.0-204.0-0.0","55651629","wem/bandit_either","A1EYJNJFSRMDWW","either","2","","","","","","","74","J","1","","0","0","1","0.2470054868","","","165","0.3138636066","","main_expt","0.6","0.2470054868","0.8","","","0.2","","0.4","0.251698227","0.1574825995","","","","","",""
"933","","bandit","244","743659","0.0-205.0-0.0","55651629","wem/bandit_either","A1EYJNJFSRMDWW","either","2","","","","","","","74","J","1","","0","0","1","","0.2629624785","","166","","0.3204338644","main_expt","0.6","","0.8","0.2629624785","0.2831539445","0.2","0.1500633275","0.4","","","","","","","",""
"798","","bandit","245","745997","0.0-206.0-0.0","55651629","wem/bandit_either","A1EYJNJFSRMDWW","either","2","","","","","","","74","J","1","","0","1","0","","0.2745713682","","167","","0.3600517585","main_expt","0.6","","0.8","0.2745713682","0.2496169508","0.2","0.1137242654","0.4","","","","","","","",""
"1226","","bandit","246","748760","0.0-207.0-0.0","55651629","wem/bandit_either","A1EYJNJFSRMDWW","either","2","","","","","","","74","J","1","","1","0","0","0.2557249153","","","168","0.3678373827","","main_expt","0.6","0.2557249153","0.8","","","0.2","","0.4","0.2315540067","0.145192941","","","","","",""
"518","","bandit","247","750808","0.0-208.0-0.0","55651629","wem/bandit_either","A1EYJNJFSRMDWW","either","2","","","","","","","74","J","1","","0","0","1","0.2016321063","","","169","0.3421512568","","main_expt","0.6","0.2016321063","0.8","","","0.2","","0.4","0.1825517174","0.1863479632","","","","","",""
"771","","bandit","248","753116","0.0-209.0-0.0","55651629","wem/bandit_either","A1EYJNJFSRMDWW","either","2","","","","","","","74","J","1","","0","0","1","0.2210696627","","","170","0.3917895485","","main_expt","0.6","0.2210696627","0.8","","","0.2","","0.4","0.2535959064","0.142304713","","","","","",""
"829","","bandit","249","755463","0.0-210.0-0.0","55651629","wem/bandit_either","A1EYJNJFSRMDWW","either","2","","","","","","","74","J","1","","0","0","1","","0.1627904758","","171","","0.3206692194","main_expt","0.6","","0.8","0.1627904758","0.3004284576","0.2","0.1739768979","0.4","","","","","","","",""
"656","","bandit","250","757634","0.0-211.0-0.0","55651629","wem/bandit_either","A1EYJNJFSRMDWW","either","2","","","","","","","74","J","1","","0","0","1","0.1421076649","","","172","0.3198600846","","main_expt","0.6","0.1421076649","0.8","","","0.2","","0.4","0.2716191145","0.2172659048","","","","","",""
"1222","","bandit","251","760397","0.0-212.0-0.0","55651629","wem/bandit_either","A1EYJNJFSRMDWW","either","2","","","","","","","76","L","3","","1","0","0","0.2419731025","","","173","0.2641483633","","main_expt","0.6","0.165050165","0.8","","","0.2","","0.4","0.3253138029","0.2419731025","","","","","",""
"797","","bandit","252","762733","0.0-213.0-0.0","55651629","wem/bandit_either","A1EYJNJFSRMDWW","either","2","","","","","","","76","L","3","","0","0","1","","0.2239571331","","174","","0.2248062597","main_expt","0.6","","0.8","0.1406738207","0.3419591401","0.2","0.2239571331","0.4","","","","","","","",""
"530","","bandit","253","764785","0.0-214.0-0.0","55651629","wem/bandit_either","A1EYJNJFSRMDWW","either","2","","","","","","","76","L","3","","0","0","1","","0.2311410243","","175","","0.2370379408","main_expt","0.6","","0.8","0.138310495","0.3442692367","0.2","0.2311410243","0.4","","","","","","","",""
"747","","bandit","254","767054","0.0-215.0-0.0","55651629","wem/bandit_either","A1EYJNJFSRMDWW","either","2","","","","","","","76","L","3","","0","1","0","","0.2610077479","","176","","0.2157433706","main_expt","0.6","","0.8","0.1675243642","0.3397266539","0.2","0.2610077479","0.4","","","","","","","",""
"975","","bandit","255","769554","0.0-216.0-0.0","55651629","wem/bandit_either","A1EYJNJFSRMDWW","either","2","","","","","","","76","L","3","","0","0","1","0.2780938204","","","177","0.2014791824","","main_expt","0.6","0.1919885971","0.8","","","0.2","","0.4","0.2997078274","0.2780938204","","","","","",""
"437","","bandit","256","771525","0.0-217.0-0.0","55651629","wem/bandit_either","A1EYJNJFSRMDWW","either","2","","","","","","","74","J","1","","0","0","1","0.2365392944","","","178","0.1913564418","","main_expt","0.6","0.2365392944","0.8","","","0.2","","0.4","0.3064007527","0.3151752793","","","","","",""
"438","","bandit","257","773500","0.0-218.0-0.0","55651629","wem/bandit_either","A1EYJNJFSRMDWW","either","2","","","","","","","74","J","1","","0","0","1","0.2509455726","","","179","0.1980728016","","main_expt","0.6","0.2509455726","0.8","","","0.2","","0.4","0.3533432679","0.2799621139","","","","","",""
"744","","bandit","258","775780","0.0-219.0-0.0","55651629","wem/bandit_either","A1EYJNJFSRMDWW","either","2","","","","","","","74","J","1","","0","0","1","0.2767223981","","","180","0.1833491223","","main_expt","0.6","0.2767223981","0.8","","","0.2","","0.4","0.3652522579","0.3170936092","","","","","",""
"1346","","bandit","259","778667","0.0-220.0-0.0","55651629","wem/bandit_either","A1EYJNJFSRMDWW","either","2","","","","","","","74","J","1","","1","0","0","0.314600373","","","181","0.1342686697","","main_expt","0.6","0.314600373","0.8","","","0.2","","0.4","0.3383156657","0.28101752","","","","","",""
"522","","bandit","260","780725","0.0-221.0-0.0","55651629","wem/bandit_either","A1EYJNJFSRMDWW","either","2","","","","","","","74","J","1","","0","1","0","","0.3943610609","","182","","0.1636660304","main_expt","0.6","","0.8","0.3943610609","0.2902116232","0.2","0.3043342224","0.4","","","","","","","",""
"1188","","bandit","261","783431","0.0-222.0-0.0","55651629","wem/bandit_either","A1EYJNJFSRMDWW","either","2","","","","","","","74","J","1","","0","1","0","","0.3586422101","","183","","0.136761637","main_expt","0.6","","0.8","0.3586422101","0.3026157476","0.2","0.3192524042","0.4","","","","","","","",""
"662","","bandit","262","785609","0.0-223.0-0.0","55651629","wem/bandit_either","A1EYJNJFSRMDWW","either","2","","","","","","","74","J","1","","0","1","0","","0.3879999062","","184","","0.1685989701","main_expt","0.6","","0.8","0.3879999062","0.3360229169","0.2","0.3332516821","0.4","","","","","","","",""
"1338","","bandit","263","788467","0.0-224.0-0.0","55651629","wem/bandit_either","A1EYJNJFSRMDWW","either","2","","","","","","","74","J","1","","1","0","0","0.3831340227","","","185","0.1663529744","","main_expt","0.6","0.3831340227","0.8","","","0.2","","0.4","0.3336456265","0.3228184693","","","","","",""
"572","","bandit","264","790575","0.0-225.0-0.0","55651629","wem/bandit_either","A1EYJNJFSRMDWW","either","2","","","","","","","74","J","1","","0","1","0","","0.3999004662","","186","","0.1916836285","main_expt","0.6","","0.8","0.3999004662","0.3308881938","0.2","0.3111703144","0.4","","","","","","","",""
"755","","bandit","265","792867","0.0-226.0-0.0","55651629","wem/bandit_either","A1EYJNJFSRMDWW","either","2","","","","","","","74","J","1","","0","0","1","0.3875363153","","","187","0.1686829448","","main_expt","0.6","0.3875363153","0.8","","","0.2","","0.4","0.325530054","0.3353611299","","","","","",""
"391","","bandit","266","794791","0.0-227.0-0.0","55651629","wem/bandit_either","A1EYJNJFSRMDWW","either","2","","","","","","","74","J","1","","1","0","0","0.3875691392","","","188","0.1461675531","","main_expt","0.6","0.3875691392","0.8","","","0.2","","0.4","0.3055482451","0.3646937268","","","","","",""
"427","","bandit","267","796766","0.0-228.0-0.0","55651629","wem/bandit_either","A1EYJNJFSRMDWW","either","2","","","","","","","74","J","1","","0","0","1","0.4166866882","","","189","0.1382971047","","main_expt","0.6","0.4166866882","0.8","","","0.2","","0.4","0.3002345065","0.3891323825","","","","","",""
"439","","bandit","268","798745","0.0-229.0-0.0","55651629","wem/bandit_either","A1EYJNJFSRMDWW","either","2","","","","","","","74","J","1","","0","0","1","0.4124474499","","","190","0.1898135375","","main_expt","0.6","0.4124474499","0.8","","","0.2","","0.4","0.2693931213","0.3860741766","","","","","",""
"376","","bandit","269","800639","0.0-230.0-0.0","55651629","wem/bandit_either","A1EYJNJFSRMDWW","either","2","","","","","","","74","J","1","","0","1","0","","0.3638199534","","191","","0.1264917812","main_expt","0.6","","0.8","0.3638199534","0.3009284261","0.2","0.3864243721","0.4","","","","","","","",""
"604","","bandit","270","802764","0.0-231.0-0.0","55651629","wem/bandit_either","A1EYJNJFSRMDWW","either","2","","","","","","","74","J","1","","0","0","1","0.3711146034","","","192","0.1185409567","","main_expt","0.6","0.3711146034","0.8","","","0.2","","0.4","0.3157917784","0.400448014","","","","","",""
"695","","bandit","271","804985","0.0-232.0-0.0","55651629","wem/bandit_either","A1EYJNJFSRMDWW","either","2","","","","","","","74","J","1","","1","0","0","0.3654165885","","","193","0.09837948322","","main_expt","0.6","0.3654165885","0.8","","","0.2","","0.4","0.2999212614","0.3895367297","","","","","",""
"740","","bandit","272","807257","0.0-233.0-0.0","55651629","wem/bandit_either","A1EYJNJFSRMDWW","either","2","","","","","","","74","J","1","","0","0","1","0.3537818584","","","194","0.137690802","","main_expt","0.6","0.3537818584","0.8","","","0.2","","0.4","0.3287494418","0.4032313792","","","","","",""
"1067","","bandit","273","809863","0.0-234.0-0.0","55651629","wem/bandit_either","A1EYJNJFSRMDWW","either","2","","","","","","","74","J","1","","1","0","0","0.3597494918","","","195","0.1683354775","","main_expt","0.6","0.3597494918","0.8","","","0.2","","0.4","0.3031978913","0.337234763","","","","","",""
"1373","","bandit","274","812777","0.0-235.0-0.0","55651629","wem/bandit_either","A1EYJNJFSRMDWW","either","2","","","","","","","74","J","1","","1","0","0","0.3479121901","","","196","0.1561951964","","main_expt","0.6","0.3479121901","0.8","","","0.2","","0.4","0.2901303692","0.3950764453","","","","","",""
"663","","bandit","275","814964","0.0-236.0-0.0","55651629","wem/bandit_either","A1EYJNJFSRMDWW","either","2","","","","","","","74","J","1","","0","0","1","0.3596292454","","","197","0.1329868482","","main_expt","0.6","0.3596292454","0.8","","","0.2","","0.4","0.2444781728","0.4193743727","","","","","",""
"828","","bandit","276","817326","0.0-237.0-0.0","55651629","wem/bandit_either","A1EYJNJFSRMDWW","either","2","","","","","","","74","J","1","","1","0","0","0.3555371828","","","198","0.1730826789","","main_expt","0.6","0.3555371828","0.8","","","0.2","","0.4","0.2140047665","0.4375347816","","","","","",""
"386","","bandit","277","819231","0.0-238.0-0.0","55651629","wem/bandit_either","A1EYJNJFSRMDWW","either","2","","","","","","","74","J","1","","1","0","0","0.4016486285","","","199","0.1385649096","","main_expt","0.6","0.4016486285","0.8","","","0.2","","0.4","0.2077842613","0.4315030007","","","","","",""
"311","","bandit","278","821064","0.0-239.0-0.0","55651629","wem/bandit_either","A1EYJNJFSRMDWW","either","2","","","","","","","74","J","1","","0","1","0","","0.3871107612","","200","","0.1941139053","main_expt","0.6","","0.8","0.3871107612","0.180488049","0.2","0.4340108373","0.4","","","","","","","",""
"632","","bandit","279","823215","0.0-240.0-0.0","55651629","wem/bandit_either","A1EYJNJFSRMDWW","either","2","","","","","","","74","J","1","","1","0","0","0.3856539452","","","201","0.1825013029","","main_expt","0.6","0.3856539452","0.8","","","0.2","","0.4","0.2084987087","0.441078118","","","","","",""
"613","","bandit","280","825354","0.0-241.0-0.0","55651629","wem/bandit_either","A1EYJNJFSRMDWW","either","2","","","","","","","74","J","1","","1","0","0","0.358588673","","","202","0.162440572","","main_expt","0.6","0.358588673","0.8","","","0.2","","0.4","0.1869669721","0.4143682719","","","","","",""
"373","","bandit","281","827262","0.0-242.0-0.0","55651629","wem/bandit_either","A1EYJNJFSRMDWW","either","2","","","","","","","74","J","1","","0","0","1","0.3460881607","","","203","0.1914238456","","main_expt","0.6","0.3460881607","0.8","","","0.2","","0.4","0.1383076553","0.4280720422","","","","","",""
"1012","","bandit","282","829813","0.0-243.0-0.0","55651629","wem/bandit_either","A1EYJNJFSRMDWW","either","2","","","","","","","74","J","1","","1","0","0","0.3091432968","","","204","0.1849793247","","main_expt","0.6","0.3091432968","0.8","","","0.2","","0.4","0.1656187697","0.4113524858","","","","","",""
"452","","bandit","283","831807","0.0-244.0-0.0","55651629","wem/bandit_either","A1EYJNJFSRMDWW","either","2","","","","","","","74","J","1","","0","0","1","0.3016396897","","","205","0.1722293799","","main_expt","0.6","0.3016396897","0.8","","","0.2","","0.4","0.1699285253","0.4151465815","","","","","",""
"969","","bandit","284","834303","0.0-245.0-0.0","55651629","wem/bandit_either","A1EYJNJFSRMDWW","either","2","","","","","","","74","J","1","","0","0","1","0.3300702997","","","206","0.1625694713","","main_expt","0.6","0.3300702997","0.8","","","0.2","","0.4","0.161732949","0.4002359997","","","","","",""
"530","","bandit","285","836353","0.0-246.0-0.0","55651629","wem/bandit_either","A1EYJNJFSRMDWW","either","2","","","","","","","74","J","1","","0","0","1","0.2648848683","","","207","0.1079769143","","main_expt","0.6","0.2648848683","0.8","","","0.2","","0.4","0.1699017951","0.3692387261","","","","","",""
"81","","bandit","286","837970","0.0-247.0-0.0","55651629","wem/bandit_either","A1EYJNJFSRMDWW","either","2","","","","","","","74","J","1","","1","0","0","0.2502792914","","","208","0.1380178959","","main_expt","0.6","0.2502792914","0.8","","","0.2","","0.4","0.1592107695","0.3283471685","","","","","",""
"411","","bandit","287","839915","0.0-248.0-0.0","55651629","wem/bandit_either","A1EYJNJFSRMDWW","either","2","","","","","","","74","J","1","","0","0","1","0.2770073026","","","209","0.1538506734","","main_expt","0.6","0.2770073026","0.8","","","0.2","","0.4","0.1659907122","0.2924758898","","","","","",""
"343","","bandit","288","841783","0.0-249.0-0.0","55651629","wem/bandit_either","A1EYJNJFSRMDWW","either","2","","","","","","","74","J","1","","1","0","0","0.3451435735","","","210","0.1406222791","","main_expt","0.6","0.3451435735","0.8","","","0.2","","0.4","0.229525517","0.2279470939","","","","","",""
"411","","bandit","289","843714","0.0-250.0-0.0","55651629","wem/bandit_either","A1EYJNJFSRMDWW","either","2","","","","","","","74","J","1","","0","0","1","0.3514478275","","","211","0.08987887408","","main_expt","0.6","0.3514478275","0.8","","","0.2","","0.4","0.2434605193","0.2131844406","","","","","",""
"564","","bandit","290","845796","0.0-251.0-0.0","55651629","wem/bandit_either","A1EYJNJFSRMDWW","either","2","","","","","","","74","J","1","","0","0","1","","0.3579324364","","212","","0.1277875359","main_expt","0.6","","0.8","0.3579324364","0.1633214123","0.2","0.1601793481","0.4","","","","","","","",""
"465","","bandit","291","847802","0.0-252.0-0.0","55651629","wem/bandit_either","A1EYJNJFSRMDWW","either","2","","","","","","","74","J","1","","0","1","0","","0.3231243524","","213","","0.134271297","main_expt","0.6","","0.8","0.3231243524","0.1014835246","0.2","0.1354109392","0.4","","","","","","","",""
"431","","bandit","292","849763","0.0-253.0-0.0","55651629","wem/bandit_either","A1EYJNJFSRMDWW","either","2","","","","","","","74","J","1","","0","0","1","","0.2798540136","","214","","0.1385204111","main_expt","0.6","","0.8","0.2798540136","0.09587264096","0.2","0.1142105534","0.4","","","","","","","",""
"584","","bandit","293","851889","0.0-254.0-0.0","55651629","wem/bandit_either","A1EYJNJFSRMDWW","either","2","","","","","","","74","J","1","","1","0","0","0.2469391402","","","215","0.1089132689","","main_expt","0.6","0.2469391402","0.8","","","0.2","","0.4","0.08342689115","0.1031311673","","","","","",""
"753","","bandit","294","854172","0.0-255.0-0.0","55651629","wem/bandit_either","A1EYJNJFSRMDWW","either","2","","","","","","","74","J","1","","0","0","1","0.3211823944","","","216","0.1299508563","","main_expt","0.6","0.3211823944","0.8","","","0.2","","0.4","0.05361264496","0.1031732366","","","","","",""
"462","","bandit","295","856157","0.0-256.0-0.0","55651629","wem/bandit_either","A1EYJNJFSRMDWW","either","2","","","","","","","74","J","1","","0","0","1","0.3545519007","","","217","0.131109262","","main_expt","0.6","0.3545519007","0.8","","","0.2","","0.4","0.09912420903","0.1188097379","","","","","",""
"282","","bandit","296","857955","0.0-257.0-0.0","55651629","wem/bandit_either","A1EYJNJFSRMDWW","either","2","","","","","","","74","J","1","","0","0","1","0.3781539282","","","218","0.1039495344","","main_expt","0.6","0.3781539282","0.8","","","0.2","","0.4","0.1021137889","0.1096623481","","","","","",""
"315","","bandit","297","859794","0.0-258.0-0.0","55651629","wem/bandit_either","A1EYJNJFSRMDWW","either","2","","","","","","","74","J","1","","0","1","0","","0.3674409598","","219","","0.09488552944","main_expt","0.6","","0.8","0.3674409598","0.1025207236","0.2","0.08679630722","0.4","","","","","","","",""
"478","","bandit","298","861806","0.0-259.0-0.0","55651629","wem/bandit_either","A1EYJNJFSRMDWW","either","2","","","","","","","74","J","1","","1","0","0","0.315237632","","","220","0.1311925698","","main_expt","0.6","0.315237632","0.8","","","0.2","","0.4","0.1049734862","0.1482089448","","","","","",""
"729","","bandit","299","864065","0.0-260.0-0.0","55651629","wem/bandit_either","A1EYJNJFSRMDWW","either","2","","","","","","","74","J","1","","0","1","0","","0.3572442142","","221","","0.08224132258","main_expt","0.6","","0.8","0.3572442142","0.08244295151","0.2","0.217172314","0.4","","","","","","","",""
"1218","","bandit","300","866811","0.0-261.0-0.0","55651629","wem/bandit_either","A1EYJNJFSRMDWW","either","2","","","","","","","74","J","1","","0","0","1","0.2796125419","","","222","0.06870998364","","main_expt","0.6","0.2796125419","0.8","","","0.2","","0.4","0.09815111748","0.2227738938","","","","","",""
"1449","","bandit","301","869793","0.0-262.0-0.0","55651629","wem/bandit_either","A1EYJNJFSRMDWW","either","2","","","","","","","74","J","1","","0","0","1","0.2265565182","","","223","0.111762886","","main_expt","0.6","0.2265565182","0.8","","","0.2","","0.4","0.09925351505","0.2768694491","","","","","",""
"738","","bandit","302","872053","0.0-263.0-0.0","55651629","wem/bandit_either","A1EYJNJFSRMDWW","either","2","","","","","","","74","J","1","","0","0","1","0.1727872262","","","224","0.09652303785","","main_expt","0.6","0.1727872262","0.8","","","0.2","","0.4","0.07842644678","0.2895694018","","","","","",""
"1408","","bandit","303","874984","0.0-264.0-0.0","55651629","wem/bandit_either","A1EYJNJFSRMDWW","either","2","","","","","","","74","J","1","","0","0","1","0.1580797834","","","225","0.09424892582","","main_expt","0.6","0.1580797834","0.8","","","0.2","","0.4","0.05284632075","0.3515154126","","","","","",""
"625","","bandit","304","877137","0.0-265.0-0.0","55651629","wem/bandit_either","A1EYJNJFSRMDWW","either","2","","","","","","","74","J","1","","0","0","1","0.1206031336","","","226","0.1094697254","","main_expt","0.6","0.1206031336","0.8","","","0.2","","0.4","0.06788221328","0.3960872924","","","","","",""
"458","","bandit","305","879135","0.0-266.0-0.0","55651629","wem/bandit_either","A1EYJNJFSRMDWW","either","2","","","","","","","74","J","1","","0","0","1","0.1218099769","","","227","0.1055794081","","main_expt","0.6","0.1218099769","0.8","","","0.2","","0.4","0.04226868229","0.3301105445","","","","","",""
"402","","bandit","306","881074","0.0-267.0-0.0","55651629","wem/bandit_either","A1EYJNJFSRMDWW","either","2","","","","","","","74","J","1","","0","0","1","0.08458740206","","","228","0.1210232629","","main_expt","0.6","0.08458740206","0.8","","","0.2","","0.4","0.06174471126","0.3679650562","","","","","",""
"318","","bandit","307","882915","0.0-268.0-0.0","55651629","wem/bandit_either","A1EYJNJFSRMDWW","either","2","","","","","","","74","J","1","","0","0","1","0.06311990622","","","229","0.1249199002","","main_expt","0.6","0.06311990622","0.8","","","0.2","","0.4","0.06122033102","0.3413725311","","","","","",""
"714","","bandit","308","885171","0.0-269.0-0.0","55651629","wem/bandit_either","A1EYJNJFSRMDWW","either","2","","","","","","","74","J","1","","0","0","1","0.04674316758","","","230","0.1423167866","","main_expt","0.6","0.04674316758","0.8","","","0.2","","0.4","0.09369367087","0.3652503211","","","","","",""
"369","","bandit","309","887062","0.0-270.0-0.0","55651629","wem/bandit_either","A1EYJNJFSRMDWW","either","2","","","","","","","74","J","1","","0","0","1","","0.06697327866","","231","","0.1441411413","main_expt","0.6","","0.8","0.06697327866","0.1378364932","0.2","0.3774172636","0.4","","","","","","","",""
"343","","bandit","310","888926","0.0-271.0-0.0","55651629","wem/bandit_either","A1EYJNJFSRMDWW","either","2","","","","","","","74","J","1","","0","0","1","0.08617656909","","","232","0.1132866493","","main_expt","0.6","0.08617656909","0.8","","","0.2","","0.4","0.1138343256","0.3507397895","","","","","",""
"205","","bandit","311","890650","0.0-272.0-0.0","55651629","wem/bandit_either","A1EYJNJFSRMDWW","either","2","","","","","","","74","J","1","","0","0","1","0.08388286328","","","233","0.07587191469","","main_expt","0.6","0.08388286328","0.8","","","0.2","","0.4","0.1602674987","0.3228668676","","","","","",""
"620","","bandit","312","892791","0.0-273.0-0.0","55651629","wem/bandit_either","A1EYJNJFSRMDWW","either","2","","","","","","","74","J","1","","0","0","1","0.08303297831","","","234","0.08330376307","","main_expt","0.6","0.08303297831","0.8","","","0.2","","0.4","0.1399599793","0.3219168209","","","","","",""
"474","","bandit","313","894784","0.0-274.0-0.0","55651629","wem/bandit_either","A1EYJNJFSRMDWW","either","2","","","","","","","74","J","1","","1","0","0","0.08228619446","","","235","0.07960395758","","main_expt","0.6","0.08228619446","0.8","","","0.2","","0.4","0.1577883936","0.2907257894","","","","","",""
"482","","bandit","314","896788","0.0-275.0-0.0","55651629","wem/bandit_either","A1EYJNJFSRMDWW","either","2","","","","","","","74","J","1","","0","0","1","0.07856112713","","","236","0.06703487678","","main_expt","0.6","0.07856112713","0.8","","","0.2","","0.4","0.1206463377","0.2879125653","","","","","",""
"571","","bandit","315","898896","0.0-276.0-0.0","55651629","wem/bandit_either","A1EYJNJFSRMDWW","either","2","","","","","","","74","J","1","","0","0","1","","0.09394336493","","237","","0.07970276757","main_expt","0.6","","0.8","0.09394336493","0.1224948263","0.2","0.3055933028","0.4","","","","","","","",""
"712","","bandit","316","901147","0.0-277.0-0.0","55651629","wem/bandit_either","A1EYJNJFSRMDWW","either","2","","","","","","","74","J","1","","0","0","1","0.1044036833","","","238","0.05589422377","","main_expt","0.6","0.1044036833","0.8","","","0.2","","0.4","0.1163601633","0.3197806133","","","","","",""
"317","","bandit","317","903005","0.0-278.0-0.0","55651629","wem/bandit_either","A1EYJNJFSRMDWW","either","2","","","","","","","74","J","1","","0","0","1","0.1010835707","","","239","0.07304711058","","main_expt","0.6","0.1010835707","0.8","","","0.2","","0.4","0.09302868556","0.2699970134","","","","","",""
"224","","bandit","318","904752","0.0-279.0-0.0","55651629","wem/bandit_either","A1EYJNJFSRMDWW","either","2","","","","","","","74","J","1","","0","0","1","0.1196592177","","","240","0.05193691484","","main_expt","0.6","0.1196592177","0.8","","","0.2","","0.4","0.1142909623","0.2594796501","","","","","",""
"384","","bandit","319","906660","0.0-280.0-0.0","55651629","wem/bandit_either","A1EYJNJFSRMDWW","either","2","","","","","","","74","J","1","","1","0","0","0.127320561","","","241","0.06844812817","","main_expt","0.6","0.127320561","0.8","","","0.2","","0.4","0.1694552561","0.252227353","","","","","",""
"383","","bandit","320","908579","0.0-281.0-0.0","55651629","wem/bandit_either","A1EYJNJFSRMDWW","either","2","","","","","","","74","J","1","","0","0","1","","0.10641745","","242","","0.07869989264","main_expt","0.6","","0.8","0.10641745","0.1828807391","0.2","0.301231011","0.4","","","","","","","",""
"825","","bandit","321","910940","0.0-282.0-0.0","55651629","wem/bandit_either","A1EYJNJFSRMDWW","either","2","","","","","","","74","J","1","","0","0","1","0.131785075","","","243","0.06084245892","","main_expt","0.6","0.131785075","0.8","","","0.2","","0.4","0.1236361748","0.2903867436","","","","","",""
"632","","bandit","322","913105","0.0-283.0-0.0","55651629","wem/bandit_either","A1EYJNJFSRMDWW","either","2","","","","","","","74","J","1","","0","0","1","0.1150513838","","","244","0.04982625113","","main_expt","0.6","0.1150513838","0.8","","","0.2","","0.4","0.1131162958","0.2659167858","","","","","",""
"315","","bandit","323","914943","0.0-284.0-0.0","55651629","wem/bandit_either","A1EYJNJFSRMDWW","either","2","","","","","","","74","J","1","","0","0","1","0.1651966394","","","245","0.04708965441","","main_expt","0.6","0.1651966394","0.8","","","0.2","","0.4","0.08611006768","0.254087564","","","","","",""
"411","","bandit","324","916899","0.0-285.0-0.0","55651629","wem/bandit_either","A1EYJNJFSRMDWW","either","2","","","","","","","74","J","1","","0","0","1","0.1555796254","","","246","0.0280961865","","main_expt","0.6","0.1555796254","0.8","","","0.2","","0.4","0.1123216353","0.2551799517","","","","","",""
"416","","bandit","325","918860","0.0-286.0-0.0","55651629","wem/bandit_either","A1EYJNJFSRMDWW","either","2","","","","","","","74","J","1","","1","0","0","0.1703980626","","","247","0.04499456282","","main_expt","0.6","0.1703980626","0.8","","","0.2","","0.4","0.09475638668","0.2629335529","","","","","",""
"581","","bandit","326","920981","0.0-287.0-0.0","55651629","wem/bandit_either","A1EYJNJFSRMDWW","either","2","","","","","","","74","J","1","","0","0","1","","0.1502680902","","248","","0.03910304398","main_expt","0.6","","0.8","0.1502680902","0.08309477664","0.2","0.2393496224","0.4","","","","","","","",""
"930","","bandit","327","923442","0.0-288.0-0.0","55651629","wem/bandit_either","A1EYJNJFSRMDWW","either","2","","","","","","","74","J","1","","0","0","1","0.1515252412","","","249","0.02658952892","","main_expt","0.6","0.1515252412","0.8","","","0.2","","0.4","0.09118761135","0.2612635012","","","","","",""
"534","","bandit","328","925494","0.0-289.0-0.0","55651629","wem/bandit_either","A1EYJNJFSRMDWW","either","2","","","","","","","74","J","1","","0","0","1","0.164479444","","","250","0.02715120894","","main_expt","0.6","0.164479444","0.8","","","0.2","","0.4","0.1173751119","0.2729339083","","","","","",""
"400","","bandit","329","927414","0.0-290.0-0.0","55651629","wem/bandit_either","A1EYJNJFSRMDWW","either","2","","","","","","","74","J","1","","0","0","1","0.1036013708","","","251","0.02468122838","","main_expt","0.6","0.1036013708","0.8","","","0.2","","0.4","0.10167128","0.2394547858","","","","","",""
"437","","bandit","330","929401","0.0-291.0-0.0","55651629","wem/bandit_either","A1EYJNJFSRMDWW","either","2","","","","","","","74","J","1","","0","0","1","0.1206404305","","","252","0.01934001153","","main_expt","0.6","0.1206404305","0.8","","","0.2","","0.4","0.1297907712","0.1971678968","","","","","",""
"517","","bandit","331","931442","0.0-292.0-0.0","55651629","wem/bandit_either","A1EYJNJFSRMDWW","either","2","","","","","","","74","J","1","","0","0","1","0.144481093","","","253","0.01552303999","","main_expt","0.6","0.144481093","0.8","","","0.2","","0.4","0.08555329314","0.2194815642","","","","","",""
"353","","bandit","332","933314","0.0-293.0-0.0","55651629","wem/bandit_either","A1EYJNJFSRMDWW","either","2","","","","","","","74","J","1","","0","0","1","0.1495858552","","","254","0.02294208798","","main_expt","0.6","0.1495858552","0.8","","","0.2","","0.4","0.05661737176","0.2365987297","","","","","",""
"487","","bandit","333","935342","0.0-294.0-0.0","55651629","wem/bandit_either","A1EYJNJFSRMDWW","either","2","","","","","","","74","J","1","","0","0","1","0.1670870388","","","255","0.03654195668","","main_expt","0.6","0.1670870388","0.8","","","0.2","","0.4","0.04453848373","0.2300386291","","","","","",""
"904","","bandit","334","937785","0.0-295.0-0.0","55651629","wem/bandit_either","A1EYJNJFSRMDWW","either","2","","","","","","","74","J","1","","0","0","1","0.2071608879","","","256","0.02190300888","","main_expt","0.6","0.2071608879","0.8","","","0.2","","0.4","0.09252201943","0.2134781525","","","","","",""
"1388","","bandit","335","940696","0.0-296.0-0.0","55651629","wem/bandit_either","A1EYJNJFSRMDWW","either","2","","","","","","","74","J","1","","0","0","1","","0.2208430453","","257","","0.01137724771","main_expt","0.6","","0.8","0.2208430453","0.1027884094","0.2","0.1634948024","0.4","","","","","","","",""
"794","","bandit","336","943014","0.0-297.0-0.0","55651629","wem/bandit_either","A1EYJNJFSRMDWW","either","2","","","","","","","74","J","1","","0","0","1","","0.2339305434","","258","","0.006046495301","main_expt","0.6","","0.8","0.2339305434","0.1131559407","0.2","0.1347396935","0.4","","","","","","","",""
