"rt","responses","trial_type","trial_index","time_elapsed","internal_node_id","subjID","study","MID","cond","drift","key_press","expt_phase","target","like","value","connected","gems","bombs","no_reward","GemPrChosen","BombPrChosen","GainOverPainPr_0","GainOverPainPr_1","GainOverPainPr_2","GainOverPainPr_3","LosePr_0","LosePr_1","LosePr_2","LosePr_3","WinPr_0","WinPr_1","WinPr_2","WinPr_3","Q0","Q1","Q2","gender","age","ethnicity","respCharCode","respKey","respChoiceNum","respChoice","practice","trial_counter","trial_label"
"1470","{""Q0"":""A2DWQF4ZHHBLOW""}","survey-text","0","1478","0.0-0.0","55698530","wem/bandit_either","A2DWQF4ZHHBLOW","either","5","","","","","","","","","","","","","","","","","","","","","","","","","","","","","","","","","","","",""
"12669","","text","1","15151","0.0-1.0","55698530","wem/bandit_either","A2DWQF4ZHHBLOW","either","5","32","","","","","","","","","","","","","","","","","","","","","","","","","","","","","","","","","","",""
"9132","","text","2","24287","0.0-2.0","55698530","wem/bandit_either","A2DWQF4ZHHBLOW","either","5","32","","","","","","","","","","","","","","","","","","","","","","","","","","","","","","","","","","",""
"6770","","text","3","31059","0.0-3.0","55698530","wem/bandit_either","A2DWQF4ZHHBLOW","either","5","32","","","","","","","","","","","","","","","","","","","","","","","","","","","","","","","","","","",""
"5770","","text","4","36831","0.0-4.0","55698530","wem/bandit_either","A2DWQF4ZHHBLOW","either","5","32","","","","","","","","","","","","","","","","","","","","","","","","","","","","","","","","","","",""
"5518","","text","5","42350","0.0-5.0","55698530","wem/bandit_either","A2DWQF4ZHHBLOW","either","5","32","","","","","","","","","","","","","","","","","","","","","","","","","","","","","","","","","","",""
"7009","","text","6","49361","0.0-6.0","55698530","wem/bandit_either","A2DWQF4ZHHBLOW","either","5","32","","","","","","","","","","","","","","","","","","","","","","","","","","","","","","","","","","",""
"9382","","text","7","58745","0.0-7.0","55698530","wem/bandit_either","A2DWQF4ZHHBLOW","either","5","32","","","","","","","","","","","","","","","","","","","","","","","","","","","","","","","","","","",""
"7266","","identification","8","66039","0.0-8.0-0.0","55698530","wem/bandit_either","A2DWQF4ZHHBLOW","either","5","","identification_pre","the village of Zur","","","","","","","","","","","","","","","","","","","","","","","","","","","","","","","","",""
"4127","","identification","9","71187","0.0-8.0-1.0","55698530","wem/bandit_either","A2DWQF4ZHHBLOW","either","5","","identification_pre","the village of Nyx","","","","","","","","","","","","","","","","","","","","","","","","","","","","","","","","",""
"8511","","text","10","80699","0.0-9.0","55698530","wem/bandit_either","A2DWQF4ZHHBLOW","either","5","32","","","","","","","","","","","","","","","","","","","","","","","","","","","","","","","","","","",""
"3308","","text","11","84009","0.0-10.0","55698530","wem/bandit_either","A2DWQF4ZHHBLOW","either","5","32","","","","","","","","","","","","","","","","","","","","","","","","","","","","","","","","","","",""
"1425","","text","12","85435","0.0-11.0","55698530","wem/bandit_either","A2DWQF4ZHHBLOW","either","5","32","","","","","","","","","","","","","","","","","","","","","","","","","","","","","","","","","","",""
"6363","","text","13","91800","0.0-12.0","55698530","wem/bandit_either","A2DWQF4ZHHBLOW","either","5","32","","","","","","","","","","","","","","","","","","","","","","","","","","","","","","","","","","",""
"1632","","bandit","14","94944","0.0-13.0-0.0","55698530","wem/bandit_either","A2DWQF4ZHHBLOW","either","5","","","","","","","0","0","1","0","0","","","","","0","","","","0","","","","","","","","","","74","J","0","img/none_selected_demo.jpg","true","0",""
"881","","bandit","15","97332","0.0-14.0-0.0","55698530","wem/bandit_either","A2DWQF4ZHHBLOW","either","5","","","","","","","0","0","1","0","0","","","","","0","","","","0","","","","","","","","","","75","K","0","img/none_selected_demo.jpg","true","0",""
"3805","","text","16","101140","0.0-15.0","55698530","wem/bandit_either","A2DWQF4ZHHBLOW","either","5","32","","","","","","","","","","","","","","","","","","","","","","","","","","","","","","","","","","",""
"2117","","text","17","103259","0.0-16.0","55698530","wem/bandit_either","A2DWQF4ZHHBLOW","either","5","32","","","","","","","","","","","","","","","","","","","","","","","","","","","","","","","","","","",""
"4312","","text","18","107573","0.0-17.0","55698530","wem/bandit_either","A2DWQF4ZHHBLOW","either","5","32","","","","","","","","","","","","","","","","","","","","","","","","","","","","","","","","","","",""
"4571","","text","19","112146","0.0-18.0","55698530","wem/bandit_either","A2DWQF4ZHHBLOW","either","5","32","","","","","","","","","","","","","","","","","","","","","","","","","","","","","","","","","","",""
"766","","bandit","20","114422","0.0-19.0-0.0","55698530","wem/bandit_either","A2DWQF4ZHHBLOW","either","5","","","","","","","0","1","0","","0.8","0.5","0.5","","","0.8","0.2","","","","","","","","","","","","","74","J","0","img/none_selected_demo.jpg","true","0","80_20_practice"
"401","","bandit","21","116332","0.0-19.0-1.0","55698530","wem/bandit_either","A2DWQF4ZHHBLOW","either","5","","","","","","","1","0","0","0.8","","0.5","0.5","","","","","","","0.8","0.2","","","","","","","","","74","J","0","img/none_selected_demo.jpg","true","0","80_20_practice"
"300","","bandit","22","118140","0.0-19.0-2.0","55698530","wem/bandit_either","A2DWQF4ZHHBLOW","either","5","","","","","","","1","0","0","0.8","","0.5","0.5","","","","","","","0.8","0.2","","","","","","","","","74","J","0","img/none_selected_demo.jpg","true","0","80_20_practice"
"324","","bandit","23","119973","0.0-19.0-3.0","55698530","wem/bandit_either","A2DWQF4ZHHBLOW","either","5","","","","","","","0","0","1","","0.8","0.5","0.5","","","0.8","0.2","","","","","","","","","","","","","74","J","0","img/none_selected_demo.jpg","true","0","80_20_practice"
"326","","bandit","24","121806","0.0-19.0-4.0","55698530","wem/bandit_either","A2DWQF4ZHHBLOW","either","5","","","","","","","0","0","1","0.8","","0.5","0.5","","","","","","","0.8","0.2","","","","","","","","","74","J","0","img/none_selected_demo.jpg","true","0","80_20_practice"
"1493","","bandit","25","124809","0.0-19.0-5.0","55698530","wem/bandit_either","A2DWQF4ZHHBLOW","either","5","","","","","","","0","1","0","","0.2","0.5","0.5","","","0.8","0.2","","","","","","","","","","","","","75","K","1","","true","0","80_20_practice"
"129","","bandit","26","126446","0.0-19.0-6.0","55698530","wem/bandit_either","A2DWQF4ZHHBLOW","either","5","","","","","","","0","1","0","","0.8","0.5","0.5","","","0.8","0.2","","","","","","","","","","","","","74","J","0","img/none_selected_demo.jpg","true","0","80_20_practice"
"260","","bandit","27","128213","0.0-19.0-7.0","55698530","wem/bandit_either","A2DWQF4ZHHBLOW","either","5","","","","","","","0","1","0","","0.8","0.5","0.5","","","0.8","0.2","","","","","","","","","","","","","74","J","0","img/none_selected_demo.jpg","true","0","80_20_practice"
"377","","bandit","28","130100","0.0-19.0-8.0","55698530","wem/bandit_either","A2DWQF4ZHHBLOW","either","5","","","","","","","0","0","1","","0.8","0.5","0.5","","","0.8","0.2","","","","","","","","","","","","","74","J","0","img/none_selected_demo.jpg","true","0","80_20_practice"
"67","","bandit","29","131675","0.0-19.0-9.0","55698530","wem/bandit_either","A2DWQF4ZHHBLOW","either","5","","","","","","","0","0","1","0.2","","0.5","0.5","","","","","","","0.8","0.2","","","","","","","","","75","K","1","","true","0","80_20_practice"
"1134","","bandit","30","134316","0.0-19.0-10.0","55698530","wem/bandit_either","A2DWQF4ZHHBLOW","either","5","","","","","","","0","0","1","","0.2","0.5","0.5","","","0.8","0.2","","","","","","","","","","","","","75","K","1","","true","0","80_20_practice"
"342","","bandit","31","136166","0.0-19.0-11.0","55698530","wem/bandit_either","A2DWQF4ZHHBLOW","either","5","","","","","","","0","0","1","","0.2","0.5","0.5","","","0.8","0.2","","","","","","","","","","","","","75","K","1","","true","0","80_20_practice"
"539","","bandit","32","138213","0.0-19.0-12.0","55698530","wem/bandit_either","A2DWQF4ZHHBLOW","either","5","","","","","","","0","0","1","0.2","","0.5","0.5","","","","","","","0.8","0.2","","","","","","","","","75","K","1","","true","0","80_20_practice"
"116","","bandit","33","139839","0.0-19.0-13.0","55698530","wem/bandit_either","A2DWQF4ZHHBLOW","either","5","","","","","","","0","0","1","0.2","","0.5","0.5","","","","","","","0.8","0.2","","","","","","","","","75","K","1","","true","0","80_20_practice"
"361","","bandit","34","141708","0.0-19.0-14.0","55698530","wem/bandit_either","A2DWQF4ZHHBLOW","either","5","","","","","","","0","1","0","","0.8","0.5","0.5","","","0.8","0.2","","","","","","","","","","","","","74","J","0","img/none_selected_demo.jpg","true","0","80_20_practice"
"266","","bandit","35","143483","0.0-19.0-15.0","55698530","wem/bandit_either","A2DWQF4ZHHBLOW","either","5","","","","","","","0","0","1","0.2","","0.5","0.5","","","","","","","0.8","0.2","","","","","","","","","75","K","1","","true","0","80_20_practice"
"364","","bandit","36","145355","0.0-19.0-16.0","55698530","wem/bandit_either","A2DWQF4ZHHBLOW","either","5","","","","","","","0","0","1","0.2","","0.5","0.5","","","","","","","0.8","0.2","","","","","","","","","75","K","1","","true","0","80_20_practice"
"997","","bandit","37","147862","0.0-19.0-17.0","55698530","wem/bandit_either","A2DWQF4ZHHBLOW","either","5","","","","","","","0","0","1","0.2","","0.5","0.5","","","","","","","0.8","0.2","","","","","","","","","75","K","1","","true","0","80_20_practice"
"1228","","bandit","38","150598","0.0-19.0-18.0","55698530","wem/bandit_either","A2DWQF4ZHHBLOW","either","5","","","","","","","0","0","1","0.2","","0.5","0.5","","","","","","","0.8","0.2","","","","","","","","","75","K","1","","true","0","80_20_practice"
"633","","bandit","39","152738","0.0-19.0-19.0","55698530","wem/bandit_either","A2DWQF4ZHHBLOW","either","5","","","","","","","0","0","1","0.2","","0.5","0.5","","","","","","","0.8","0.2","","","","","","","","","75","K","1","","true","0","80_20_practice"
"3159","","text","40","155899","0.0-20.0","55698530","wem/bandit_either","A2DWQF4ZHHBLOW","either","5","32","","","","","","","","","","","","","","","","","","","","","","","","","","","","","","","","","","",""
"2355","","bandit","41","159763","0.0-21.0-0.0","55698530","wem/bandit_either","A2DWQF4ZHHBLOW","either","5","","","","","","","0","1","0","0","1","","","","","0","1","","","1","0","","","","","","","","","75","K","1","","true","0",""
"6036","","text","42","165803","0.0-22.0","55698530","wem/bandit_either","A2DWQF4ZHHBLOW","either","5","74","","","","","","","","","","","","","","","","","","","","","","","","","","","","","","","","","","",""
"3992","","text","43","169798","0.0-23.0","55698530","wem/bandit_either","A2DWQF4ZHHBLOW","either","5","32","","","","","","","","","","","","","","","","","","","","","","","","","","","","","","","","","","",""
"2396","","text","44","172196","0.0-24.0","55698530","wem/bandit_either","A2DWQF4ZHHBLOW","either","5","32","","","","","","","","","","","","","","","","","","","","","","","","","","","","","","","","","","",""
"3920","","text","45","176119","0.0-25.0","55698530","wem/bandit_either","A2DWQF4ZHHBLOW","either","5","32","","","","","","","","","","","","","","","","","","","","","","","","","","","","","","","","","","",""
"1684","","text","46","177806","0.0-26.0","55698530","wem/bandit_either","A2DWQF4ZHHBLOW","either","5","32","","","","","","","","","","","","","","","","","","","","","","","","","","","","","","","","","","",""
"550","","text","47","178358","0.0-27.0","55698530","wem/bandit_either","A2DWQF4ZHHBLOW","either","5","32","","","","","","","","","","","","","","","","","","","","","","","","","","","","","","","","","","",""
"422","","text","48","178782","0.0-28.0","55698530","wem/bandit_either","A2DWQF4ZHHBLOW","either","5","32","","","","","","","","","","","","","","","","","","","","","","","","","","","","","","","","","","",""
"407","","text","49","179192","0.0-29.0","55698530","wem/bandit_either","A2DWQF4ZHHBLOW","either","5","32","","","","","","","","","","","","","","","","","","","","","","","","","","","","","","","","","","",""
"421","","text","50","179615","0.0-30.0","55698530","wem/bandit_either","A2DWQF4ZHHBLOW","either","5","32","","","","","","","","","","","","","","","","","","","","","","","","","","","","","","","","","","",""
"993","","text","51","180610","0.0-31.0","55698530","wem/bandit_either","A2DWQF4ZHHBLOW","either","5","32","","","","","","","","","","","","","","","","","","","","","","","","","","","","","","","","","","",""
"2618","","text","52","183230","0.0-32.0","55698530","wem/bandit_either","A2DWQF4ZHHBLOW","either","5","32","","","","","","","","","","","","","","","","","","","","","","","","","","","","","","","","","","",""
"479","","bandit","53","185217","0.0-33.0-0.0","55698530","wem/bandit_either","A2DWQF4ZHHBLOW","either","5","","","","","","","0","1","0","","0.8","0.5","0.5","0.5","0.5","0.8","0.2","0.6","0.2","","","","","","","","","","","72","H","0","img/none_selected.jpg","true","0","full_practice"
"286","","bandit","54","187013","0.0-33.0-1.0","55698530","wem/bandit_either","A2DWQF4ZHHBLOW","either","5","","","","","","","1","0","0","0.8","","0.5","0.5","0.5","0.5","","","","","0.8","0.2","0.6","0.2","","","","","","","72","H","0","img/none_selected.jpg","true","0","full_practice"
"579","","bandit","55","189101","0.0-33.0-2.0","55698530","wem/bandit_either","A2DWQF4ZHHBLOW","either","5","","","","","","","1","0","0","0.8","","0.5","0.5","0.5","0.5","","","","","0.8","0.2","0.6","0.2","","","","","","","72","H","0","img/none_selected.jpg","true","0","full_practice"
"316","","bandit","56","190926","0.0-33.0-3.0","55698530","wem/bandit_either","A2DWQF4ZHHBLOW","either","5","","","","","","","0","0","1","0.2","","0.5","0.5","0.5","0.5","","","","","0.8","0.2","0.6","0.2","","","","","","","74","J","1","","true","0","full_practice"
"262","","bandit","57","192697","0.0-33.0-4.0","55698530","wem/bandit_either","A2DWQF4ZHHBLOW","either","5","","","","","","","0","0","1","0.2","","0.5","0.5","0.5","0.5","","","","","0.8","0.2","0.6","0.2","","","","","","","74","J","1","","true","0","full_practice"
"219","","bandit","58","194425","0.0-33.0-5.0","55698530","wem/bandit_either","A2DWQF4ZHHBLOW","either","5","","","","","","","0","1","0","","0.6","0.5","0.5","0.5","0.5","0.8","0.2","0.6","0.2","","","","","","","","","","","75","K","2","","true","0","full_practice"
"216","","bandit","59","196150","0.0-33.0-6.0","55698530","wem/bandit_either","A2DWQF4ZHHBLOW","either","5","","","","","","","1","0","0","0.6","","0.5","0.5","0.5","0.5","","","","","0.8","0.2","0.6","0.2","","","","","","","75","K","2","","true","0","full_practice"
"101","","bandit","60","197760","0.0-33.0-7.0","55698530","wem/bandit_either","A2DWQF4ZHHBLOW","either","5","","","","","","","1","0","0","0.2","","0.5","0.5","0.5","0.5","","","","","0.8","0.2","0.6","0.2","","","","","","","76","L","3","","true","0","full_practice"
"171","","bandit","61","199440","0.0-33.0-8.0","55698530","wem/bandit_either","A2DWQF4ZHHBLOW","either","5","","","","","","","0","1","0","","0.8","0.5","0.5","0.5","0.5","0.8","0.2","0.6","0.2","","","","","","","","","","","72","H","0","img/none_selected.jpg","true","0","full_practice"
"530","","bandit","62","201477","0.0-33.0-9.0","55698530","wem/bandit_either","A2DWQF4ZHHBLOW","either","5","","","","","","","0","0","1","0.6","","0.5","0.5","0.5","0.5","","","","","0.8","0.2","0.6","0.2","","","","","","","75","K","2","","true","0","full_practice"
"38","","bandit","63","203023","0.0-33.0-10.0","55698530","wem/bandit_either","A2DWQF4ZHHBLOW","either","5","","","","","","","0","0","1","0.2","","0.5","0.5","0.5","0.5","","","","","0.8","0.2","0.6","0.2","","","","","","","76","L","3","","true","0","full_practice"
"116","","bandit","64","204649","0.0-33.0-11.0","55698530","wem/bandit_either","A2DWQF4ZHHBLOW","either","5","","","","","","","1","0","0","0.2","","0.5","0.5","0.5","0.5","","","","","0.8","0.2","0.6","0.2","","","","","","","74","J","1","","true","0","full_practice"
"269","","bandit","65","206425","0.0-33.0-12.0","55698530","wem/bandit_either","A2DWQF4ZHHBLOW","either","5","","","","","","","0","1","0","","0.8","0.5","0.5","0.5","0.5","0.8","0.2","0.6","0.2","","","","","","","","","","","72","H","0","img/none_selected.jpg","true","0","full_practice"
"208","","bandit","66","208142","0.0-33.0-13.0","55698530","wem/bandit_either","A2DWQF4ZHHBLOW","either","5","","","","","","","0","1","0","","0.8","0.5","0.5","0.5","0.5","0.8","0.2","0.6","0.2","","","","","","","","","","","72","H","0","img/none_selected.jpg","true","0","full_practice"
"265","","bandit","67","209915","0.0-33.0-14.0","55698530","wem/bandit_either","A2DWQF4ZHHBLOW","either","5","","","","","","","0","1","0","","0.8","0.5","0.5","0.5","0.5","0.8","0.2","0.6","0.2","","","","","","","","","","","72","H","0","img/none_selected.jpg","true","0","full_practice"
"539","","bandit","68","211965","0.0-33.0-15.0","55698530","wem/bandit_either","A2DWQF4ZHHBLOW","either","5","","","","","","","0","0","1","","0.2","0.5","0.5","0.5","0.5","0.8","0.2","0.6","0.2","","","","","","","","","","","74","J","1","","true","0","full_practice"
"68","","bandit","69","213543","0.0-33.0-16.0","55698530","wem/bandit_either","A2DWQF4ZHHBLOW","either","5","","","","","","","1","0","0","0.8","","0.5","0.5","0.5","0.5","","","","","0.8","0.2","0.6","0.2","","","","","","","72","H","0","img/none_selected.jpg","true","0","full_practice"
"82","","bandit","70","215135","0.0-33.0-17.0","55698530","wem/bandit_either","A2DWQF4ZHHBLOW","either","5","","","","","","","0","0","1","","0.6","0.5","0.5","0.5","0.5","0.8","0.2","0.6","0.2","","","","","","","","","","","75","K","2","","true","0","full_practice"
"575","","bandit","71","217219","0.0-33.0-18.0","55698530","wem/bandit_either","A2DWQF4ZHHBLOW","either","5","","","","","","","0","0","1","","0.2","0.5","0.5","0.5","0.5","0.8","0.2","0.6","0.2","","","","","","","","","","","76","L","3","","true","0","full_practice"
"217","","bandit","72","218944","0.0-33.0-19.0","55698530","wem/bandit_either","A2DWQF4ZHHBLOW","either","5","","","","","","","1","0","0","0.8","","0.5","0.5","0.5","0.5","","","","","0.8","0.2","0.6","0.2","","","","","","","72","H","0","img/none_selected.jpg","true","0","full_practice"
"2656","","text","73","221606","0.0-34.0","55698530","wem/bandit_either","A2DWQF4ZHHBLOW","either","5","32","","","","","","","","","","","","","","","","","","","","","","","","","","","","","","","","","","",""
"10887","","text","74","233497","0.0-35.0","55698530","wem/bandit_either","A2DWQF4ZHHBLOW","either","5","32","","","","","","","","","","","","","","","","","","","","","","","","","","","","","","","","","","",""
"12281","","text","75","245780","0.0-36.0","55698530","wem/bandit_either","A2DWQF4ZHHBLOW","either","5","32","","","","","","","","","","","","","","","","","","","","","","","","","","","","","","","","","","",""
"4278","","text","76","250060","0.0-37.0","55698530","wem/bandit_either","A2DWQF4ZHHBLOW","either","5","32","","","","","","","","","","","","","","","","","","","","","","","","","","","","","","","","","","",""
"6418","","text","77","256480","0.0-38.0","55698530","wem/bandit_either","A2DWQF4ZHHBLOW","either","5","32","","","","","","","","","","","","","","","","","","","","","","","","","","","","","","","","","","",""
"459","","text","78","256942","0.0-39.0","55698530","wem/bandit_either","A2DWQF4ZHHBLOW","either","5","32","","","","","","","","","","","","","","","","","","","","","","","","","","","","","","","","","","",""
"1354","","bandit","79","259805","0.0-40.0-0.0","55698530","wem/bandit_either","A2DWQF4ZHHBLOW","either","5","","","","","","","0","0","1","","0.1165465043","0.8","0.2","0.6","0.4","0.3340388524","0.1165465043","0.3897275569","0.4265570961","","","","","","","","","","","74","J","1","","","1","main_expt"
"308","","bandit","80","261624","0.0-41.0-0.0","55698530","wem/bandit_either","A2DWQF4ZHHBLOW","either","5","","","","","","","0","0","1","","0.08371899021","0.8","0.2","0.6","0.4","0.3223834482","0.08371899021","0.3911966266","0.4177099958","","","","","","","","","","","74","J","1","","","2","main_expt"
"409","","bandit","81","263542","0.0-42.0-0.0","55698530","wem/bandit_either","A2DWQF4ZHHBLOW","either","5","","","","","","","0","0","1","","0.4074861021","0.8","0.2","0.6","0.4","0.3585509001","0.04339790364","0.4074861021","0.4192185534","","","","","","","","","","","75","K","2","","","3","main_expt"
"717","","bandit","82","265769","0.0-43.0-0.0","55698530","wem/bandit_either","A2DWQF4ZHHBLOW","either","5","","","","","","","0","0","1","","0.3965638453","0.8","0.2","0.6","0.4","0.3416436242","0.04073472785","0.3965638453","0.4241610434","","","","","","","","","","","75","K","2","","","4","main_expt"
"612","","bandit","83","267890","0.0-44.0-0.0","55698530","wem/bandit_either","A2DWQF4ZHHBLOW","either","5","","","","","","","0","0","1","","0.4284837315","0.8","0.2","0.6","0.4","0.3444758892","0.04731773769","0.3688269119","0.4284837315","","","","","","","","","","","76","L","3","","","5","main_expt"
"72","","bandit","84","269471","0.0-45.0-0.0","55698530","wem/bandit_either","A2DWQF4ZHHBLOW","either","5","","","","","","","0","0","1","","0.4328708062","0.8","0.2","0.6","0.4","0.3574177426","0.05617088868","0.3865867917","0.4328708062","","","","","","","","","","","76","L","3","","","6","main_expt"
"215","","bandit","85","271194","0.0-46.0-0.0","55698530","wem/bandit_either","A2DWQF4ZHHBLOW","either","5","","","","","","","0","1","0","","0.3634052143","0.8","0.2","0.6","0.4","0.3634052143","0.05606577856","0.4294719924","0.4176545671","","","","","","","","","","","72","H","0","img/none_selected.jpg","","7","main_expt"
"278","","bandit","86","272981","0.0-47.0-0.0","55698530","wem/bandit_either","A2DWQF4ZHHBLOW","either","5","","","","","","","0","0","1","0.3675420607","","0.8","0.2","0.6","0.4","","","","","0.3675420607","0.09244853328","0.4210378118","0.4022395488","","","","","","","72","H","0","img/none_selected.jpg","","8","main_expt"
"662","","bandit","87","275153","0.0-48.0-0.0","55698530","wem/bandit_either","A2DWQF4ZHHBLOW","either","5","","","","","","","0","1","0","","0.3921196104","0.8","0.2","0.6","0.4","0.3921196104","0.1271341085","0.4502112583","0.3929004949","","","","","","","","","","","72","H","0","img/none_selected.jpg","","9","main_expt"
"507","","bandit","88","277170","0.0-49.0-0.0","55698530","wem/bandit_either","A2DWQF4ZHHBLOW","either","5","","","","","","","0","0","1","","0.1370717255","0.8","0.2","0.6","0.4","0.4026182126","0.1370717255","0.4452653155","0.3863711448","","","","","","","","","","","74","J","1","","","10","main_expt"
"590","","bandit","89","279270","0.0-50.0-0.0","55698530","wem/bandit_either","A2DWQF4ZHHBLOW","either","5","","","","","","","0","0","1","","0.1275050207","0.8","0.2","0.6","0.4","0.3543069494","0.1275050207","0.4352349267","0.4205849279","","","","","","","","","","","74","J","1","","","11","main_expt"
"367","","bandit","90","281146","0.0-51.0-0.0","55698530","wem/bandit_either","A2DWQF4ZHHBLOW","either","5","","","","","","","0","0","1","","0.122317004","0.8","0.2","0.6","0.4","0.3504097904","0.122317004","0.4029030639","0.4525069231","","","","","","","","","","","74","J","1","","","12","main_expt"
"351","","bandit","91","283009","0.0-52.0-0.0","55698530","wem/bandit_either","A2DWQF4ZHHBLOW","either","5","","","","","","","0","0","1","","0.1251711411","0.8","0.2","0.6","0.4","0.2787441393","0.1251711411","0.4198147105","0.4485799753","","","","","","","","","","","74","J","1","","","13","main_expt"
"204","","bandit","92","284721","0.0-53.0-0.0","55698530","wem/bandit_either","A2DWQF4ZHHBLOW","either","5","","","","","","","0","0","1","","0.2723245106","0.8","0.2","0.6","0.4","0.2723245106","0.1380641988","0.3761312174","0.4504049656","","","","","","","","","","","72","H","0","img/none_selected.jpg","","14","main_expt"
"69","","bandit","93","286298","0.0-54.0-0.0","55698530","wem/bandit_either","A2DWQF4ZHHBLOW","either","5","","","","","","","1","0","0","0.3687644442","","0.8","0.2","0.6","0.4","","","","","0.3687644442","0.2010812313","0.4017507227","0.4281165459","","","","","","","72","H","0","img/none_selected.jpg","","15","main_expt"
"308","","bandit","94","288115","0.0-55.0-0.0","55698530","wem/bandit_either","A2DWQF4ZHHBLOW","either","5","","","","","","","1","0","0","0.3992289848","","0.8","0.2","0.6","0.4","","","","","0.3992289848","0.1747275657","0.3859888637","0.4035101098","","","","","","","72","H","0","img/none_selected.jpg","","16","main_expt"
"205","","bandit","95","289830","0.0-56.0-0.0","55698530","wem/bandit_either","A2DWQF4ZHHBLOW","either","5","","","","","","","0","0","1","0.3706978481","","0.8","0.2","0.6","0.4","","","","","0.4067061876","0.1816524112","0.3706978481","0.4063691663","","","","","","","75","K","2","","","17","main_expt"
"175","","bandit","96","291514","0.0-57.0-0.0","55698530","wem/bandit_either","A2DWQF4ZHHBLOW","either","5","","","","","","","0","0","1","","0.3969002131","0.8","0.2","0.6","0.4","0.3969002131","0.1700798448","0.3323991027","0.4201618032","","","","","","","","","","","72","H","0","img/none_selected.jpg","","18","main_expt"
"572","","bandit","97","293596","0.0-58.0-0.0","55698530","wem/bandit_either","A2DWQF4ZHHBLOW","either","5","","","","","","","0","0","1","","0.3930099592","0.8","0.2","0.6","0.4","0.3930099592","0.1998500639","0.3301718366","0.3868389751","","","","","","","","","","","72","H","0","img/none_selected.jpg","","19","main_expt"
"314","","bandit","98","295420","0.0-59.0-0.0","55698530","wem/bandit_either","A2DWQF4ZHHBLOW","either","5","","","","","","","1","0","0","0.3791602553","","0.8","0.2","0.6","0.4","","","","","0.3791602553","0.2418808817","0.3714618997","0.3868875991","","","","","","","72","H","0","img/none_selected.jpg","","20","main_expt"
"257","","bandit","99","297187","0.0-60.0-0.0","55698530","wem/bandit_either","A2DWQF4ZHHBLOW","either","5","","","","","","","0","0","1","","0.4253770554","0.8","0.2","0.6","0.4","0.4127515201","0.2293341009","0.3621694591","0.4253770554","","","","","","","","","","","76","L","3","","","21","main_expt"
"112","","bandit","100","298809","0.0-61.0-0.0","55698530","wem/bandit_either","A2DWQF4ZHHBLOW","either","5","","","","","","","0","0","1","","0.4285762007","0.8","0.2","0.6","0.4","0.4164833055","0.2074184163","0.3648829928","0.4285762007","","","","","","","","","","","76","L","3","","","22","main_expt"
"181","","bandit","101","300500","0.0-62.0-0.0","55698530","wem/bandit_either","A2DWQF4ZHHBLOW","either","5","","","","","","","0","0","1","","0.4082522222","0.8","0.2","0.6","0.4","0.4143027846","0.1832507358","0.2856994719","0.4082522222","","","","","","","","","","","76","L","3","","","23","main_expt"
"338","","bandit","102","302348","0.0-63.0-0.0","55698530","wem/bandit_either","A2DWQF4ZHHBLOW","either","5","","","","","","","0","0","1","0.4027270218","","0.8","0.2","0.6","0.4","","","","","0.3649270698","0.1469425149","0.3152516524","0.4027270218","","","","","","","76","L","3","","","24","main_expt"
"176","","bandit","103","304034","0.0-64.0-0.0","55698530","wem/bandit_either","A2DWQF4ZHHBLOW","either","5","","","","","","","0","0","1","0.2778145345","","0.8","0.2","0.6","0.4","","","","","0.392676409","0.102794739","0.2778145345","0.4100212433","","","","","","","75","K","2","","","25","main_expt"
"1780","","bandit","104","307323","0.0-65.0-0.0","55698530","wem/bandit_either","A2DWQF4ZHHBLOW","either","5","","","","","","","1","0","0","0.4031565401","","0.8","0.2","0.6","0.4","","","","","0.4031565401","0.1173732637","0.3170506137","0.4190791169","","","","","","","72","H","0","img/none_selected.jpg","","26","main_expt"
"915","","bandit","105","309749","0.0-66.0-0.0","55698530","wem/bandit_either","A2DWQF4ZHHBLOW","either","5","","","","","","","0","0","1","0.4245959001","","0.8","0.2","0.6","0.4","","","","","0.4245959001","0.08835016803","0.3223143746","0.4527212376","","","","","","","72","H","0","img/none_selected.jpg","","27","main_expt"
"86","","bandit","106","311346","0.0-67.0-0.0","55698530","wem/bandit_either","A2DWQF4ZHHBLOW","either","5","","","","","","","0","0","1","","0.4232885055","0.8","0.2","0.6","0.4","0.4232885055","0.1134440288","0.3234472479","0.4480998813","","","","","","","","","","","72","H","0","img/none_selected.jpg","","28","main_expt"
"25","","bandit","107","312881","0.0-68.0-0.0","55698530","wem/bandit_either","A2DWQF4ZHHBLOW","either","5","","","","","","","1","0","0","0.4495512981","","0.8","0.2","0.6","0.4","","","","","0.4495512981","0.1982905849","0.2881425904","0.4628669208","","","","","","","72","H","0","img/none_selected.jpg","","29","main_expt"
"309","","bandit","108","314700","0.0-69.0-0.0","55698530","wem/bandit_either","A2DWQF4ZHHBLOW","either","5","","","","","","","1","0","0","0.4485299892","","0.8","0.2","0.6","0.4","","","","","0.4485299892","0.2366655967","0.2326555855","0.4565655028","","","","","","","72","H","0","img/none_selected.jpg","","30","main_expt"
"73","","bandit","109","316284","0.0-70.0-0.0","55698530","wem/bandit_either","A2DWQF4ZHHBLOW","either","5","","","","","","","0","0","1","0.4599237238","","0.8","0.2","0.6","0.4","","","","","0.4599237238","0.1622470467","0.2364604256","0.4686031056","","","","","","","72","H","0","img/none_selected.jpg","","31","main_expt"
"1406","","bandit","110","319200","0.0-71.0-0.0","55698530","wem/bandit_either","A2DWQF4ZHHBLOW","either","5","","","","","","","0","1","0","","0.1771911602","0.8","0.2","0.6","0.4","0.4508116693","0.1771911602","0.2451982598","0.4659582456","","","","","","","","","","","74","J","1","","","32","main_expt"
"59","","bandit","111","320770","0.0-72.0-0.0","55698530","wem/bandit_either","A2DWQF4ZHHBLOW","either","5","","","","","","","0","0","1","0.45101727","","0.8","0.2","0.6","0.4","","","","","0.45101727","0.1622836308","0.2360369815","0.4810757035","","","","","","","72","H","0","img/none_selected.jpg","","33","main_expt"
"65","","bandit","112","322346","0.0-73.0-0.0","55698530","wem/bandit_either","A2DWQF4ZHHBLOW","either","5","","","","","","","0","0","1","0.2317763892","","0.8","0.2","0.6","0.4","","","","","0.4340174653","0.1655985557","0.2317763892","0.4842727378","","","","","","","75","K","2","","","34","main_expt"
"109","","bandit","113","323966","0.0-74.0-0.0","55698530","wem/bandit_either","A2DWQF4ZHHBLOW","either","5","","","","","","","0","0","1","0.2527891731","","0.8","0.2","0.6","0.4","","","","","0.4040147441","0.1492797185","0.2527891731","0.4745470136","","","","","","","75","K","2","","","35","main_expt"
"651","","bandit","114","326127","0.0-75.0-0.0","55698530","wem/bandit_either","A2DWQF4ZHHBLOW","either","5","","","","","","","0","0","1","","0.2641283143","0.8","0.2","0.6","0.4","0.4268829696","0.1504543003","0.2641283143","0.4440965139","","","","","","","","","","","75","K","2","","","36","main_expt"
"285","","bandit","115","327922","0.0-76.0-0.0","55698530","wem/bandit_either","A2DWQF4ZHHBLOW","either","5","","","","","","","1","0","0","0.2309310423","","0.8","0.2","0.6","0.4","","","","","0.4562327564","0.1064249526","0.2309310423","0.4544425755","","","","","","","75","K","2","","","37","main_expt"
"417","","bandit","116","329849","0.0-77.0-0.0","55698530","wem/bandit_either","A2DWQF4ZHHBLOW","either","5","","","","","","","0","0","1","0.2093170459","","0.8","0.2","0.6","0.4","","","","","0.4481627861","0.1346530267","0.2093170459","0.4700138218","","","","","","","75","K","2","","","38","main_expt"
"547","","bandit","117","331906","0.0-78.0-0.0","55698530","wem/bandit_either","A2DWQF4ZHHBLOW","either","5","","","","","","","0","0","1","0.1398625959","","0.8","0.2","0.6","0.4","","","","","0.4475890948","0.1303494481","0.1398625959","0.466948448","","","","","","","75","K","2","","","39","main_expt"
"53","","bandit","118","333467","0.0-79.0-0.0","55698530","wem/bandit_either","A2DWQF4ZHHBLOW","either","5","","","","","","","0","0","1","","0.09690087606","0.8","0.2","0.6","0.4","0.4501575696","0.1492074344","0.09690087606","0.4679256248","","","","","","","","","","","75","K","2","","","40","main_expt"
"1542","","bandit","119","336518","0.0-80.0-0.0","55698530","wem/bandit_either","A2DWQF4ZHHBLOW","either","5","","","","","","","0","0","1","0.1129569356","","0.8","0.2","0.6","0.4","","","","","0.4121884666","0.1370672299","0.1129569356","0.445537573","","","","","","","75","K","2","","","41","main_expt"
"6324","","bandit","120","344353","0.0-81.0-0.0","55698530","wem/bandit_either","A2DWQF4ZHHBLOW","either","5","","","","","","","0","0","1","","0.1227033228","0.8","0.2","0.6","0.4","0.4379939247","0.08144147181","0.1227033228","0.4521531226","","","","","","","","","","","75","K","2","","","42","main_expt"
"1191","","bandit","121","347054","0.0-82.0-0.0","55698530","wem/bandit_either","A2DWQF4ZHHBLOW","either","5","","","","","","","0","0","1","0.08393287497","","0.8","0.2","0.6","0.4","","","","","0.4271747655","0.06793865388","0.08393287497","0.4695072217","","","","","","","75","K","2","","","43","main_expt"
"325","","bandit","122","348889","0.0-83.0-0.0","55698530","wem/bandit_either","A2DWQF4ZHHBLOW","either","5","","","","","","","1","0","0","0.4480494518","","0.8","0.2","0.6","0.4","","","","","0.4480494518","0.05295344446","0.06260074275","0.4807409838","","","","","","","72","H","0","img/none_selected.jpg","","44","main_expt"
"219","","bandit","123","350619","0.0-84.0-0.0","55698530","wem/bandit_either","A2DWQF4ZHHBLOW","either","5","","","","","","","0","0","1","","0.4269729589","0.8","0.2","0.6","0.4","0.4269729589","0.02744239742","0.08062123592","0.4507048108","","","","","","","","","","","72","H","0","img/none_selected.jpg","","45","main_expt"
"148","","bandit","124","352278","0.0-85.0-0.0","55698530","wem/bandit_either","A2DWQF4ZHHBLOW","either","5","","","","","","","0","0","1","","0.02347437243","0.8","0.2","0.6","0.4","0.4475746277","0.02347437243","0.1110847749","0.4382321206","","","","","","","","","","","74","J","1","","","46","main_expt"
"171","","bandit","125","353957","0.0-86.0-0.0","55698530","wem/bandit_either","A2DWQF4ZHHBLOW","either","5","","","","","","","0","0","1","0.4295618238","","0.8","0.2","0.6","0.4","","","","","0.4295618238","0.02418160198","0.05346849493","0.4393937913","","","","","","","72","H","0","img/none_selected.jpg","","47","main_expt"
"307","","bandit","126","355774","0.0-87.0-0.0","55698530","wem/bandit_either","A2DWQF4ZHHBLOW","either","5","","","","","","","0","0","1","","0.440318131","0.8","0.2","0.6","0.4","0.4431907244","0.01182676654","0.04499733497","0.440318131","","","","","","","","","","","76","L","3","","","48","main_expt"
"744","","bandit","127","358028","0.0-88.0-0.0","55698530","wem/bandit_either","A2DWQF4ZHHBLOW","either","5","","","","","","","0","1","0","","0.4362102412","0.8","0.2","0.6","0.4","0.4187732916","0.0186287842","0.07378534534","0.4362102412","","","","","","","","","","","76","L","3","","","49","main_expt"
"417","","bandit","128","359954","0.0-89.0-0.0","55698530","wem/bandit_either","A2DWQF4ZHHBLOW","either","5","","","","","","","0","0","1","0.44488671","","0.8","0.2","0.6","0.4","","","","","0.356579213","0.02550629551","0.06168845619","0.44488671","","","","","","","76","L","3","","","50","main_expt"
"749","","bandit","129","362214","0.0-90.0-0.0","55698530","wem/bandit_either","A2DWQF4ZHHBLOW","either","5","","","","","","","1","0","0","0.4633405548","","0.8","0.2","0.6","0.4","","","","","0.2629404955","0.04366809707","0.1062028567","0.4633405548","","","","","","","76","L","3","","","51","main_expt"
"467","","bandit","130","364191","0.0-91.0-0.0","55698530","wem/bandit_either","A2DWQF4ZHHBLOW","either","5","","","","","","","0","0","1","","0.4528043762","0.8","0.2","0.6","0.4","0.2919747068","0.04357168116","0.1379608546","0.4528043762","","","","","","","","","","","76","L","3","","","52","main_expt"
"708","","bandit","131","366411","0.0-92.0-0.0","55698530","wem/bandit_either","A2DWQF4ZHHBLOW","either","5","","","","","","","0","0","1","","0.4390431751","0.8","0.2","0.6","0.4","0.3809901122","0.03899227154","0.1356826849","0.4390431751","","","","","","","","","","","76","L","3","","","53","main_expt"
"655","","bandit","132","368577","0.0-93.0-0.0","55698530","wem/bandit_either","A2DWQF4ZHHBLOW","either","5","","","","","","","0","0","1","","0.4549270822","0.8","0.2","0.6","0.4","0.3452518694","0.04009146386","0.1038772241","0.4549270822","","","","","","","","","","","76","L","3","","","54","main_expt"
"335","","bandit","133","370423","0.0-94.0-0.0","55698530","wem/bandit_either","A2DWQF4ZHHBLOW","either","5","","","","","","","0","0","1","0.3263112327","","0.8","0.2","0.6","0.4","","","","","0.3263112327","0.0155768565","0.1689791829","0.4710341864","","","","","","","72","H","0","img/none_selected.jpg","","55","main_expt"
"1391","","bandit","134","373323","0.0-95.0-0.0","55698530","wem/bandit_either","A2DWQF4ZHHBLOW","either","5","","","","","","","0","0","1","","0.3308963945","0.8","0.2","0.6","0.4","0.3308963945","0.02112461672","0.1108888145","0.4745834276","","","","","","","","","","","72","H","0","img/none_selected.jpg","","56","main_expt"
"2039","","bandit","135","376874","0.0-96.0-0.0","55698530","wem/bandit_either","A2DWQF4ZHHBLOW","either","5","","","","","","","1","0","0","0.3150326571","","0.8","0.2","0.6","0.4","","","","","0.3150326571","0.0126553198","0.1206542402","0.489318572","","","","","","","72","H","0","img/none_selected.jpg","","57","main_expt"
"1616","","bandit","136","379999","0.0-97.0-0.0","55698530","wem/bandit_either","A2DWQF4ZHHBLOW","either","5","","","","","","","0","0","1","0.3049116772","","0.8","0.2","0.6","0.4","","","","","0.3049116772","0.01131359515","0.09707343937","0.480037986","","","","","","","72","H","0","img/none_selected.jpg","","58","main_expt"
"135","","bandit","137","381646","0.0-98.0-0.0","55698530","wem/bandit_either","A2DWQF4ZHHBLOW","either","5","","","","","","","0","0","1","0.3050987947","","0.8","0.2","0.6","0.4","","","","","0.3050987947","0.01030075821","0.1044384952","0.4593461039","","","","","","","72","H","0","img/none_selected.jpg","","59","main_expt"
"3381","","bandit","138","386539","0.0-99.0-0.0","55698530","wem/bandit_either","A2DWQF4ZHHBLOW","either","5","","","","","","","0","0","1","0.3274009355","","0.8","0.2","0.6","0.4","","","","","0.3274009355","0.005868957973","0.08890369623","0.446051488","","","","","","","72","H","0","img/none_selected.jpg","","60","main_expt"
"4002","","bandit","139","392053","0.0-100.0-0.0","55698530","wem/bandit_either","A2DWQF4ZHHBLOW","either","5","","","","","","","0","0","1","0.3428943983","","0.8","0.2","0.6","0.4","","","","","0.3428943983","0.004361943215","0.08921221942","0.4391285327","","","","","","","72","H","0","img/none_selected.jpg","","61","main_expt"
"754","","bandit","140","394315","0.0-101.0-0.0","55698530","wem/bandit_either","A2DWQF4ZHHBLOW","either","5","","","","","","","0","0","1","0.3549763931","","0.8","0.2","0.6","0.4","","","","","0.3549763931","0.005208412743","0.09812025034","0.4063883723","","","","","","","72","H","0","img/none_selected.jpg","","62","main_expt"
"717","","bandit","141","396543","0.0-102.0-0.0","55698530","wem/bandit_either","A2DWQF4ZHHBLOW","either","5","","","","","","","0","0","1","0.3496678451","","0.8","0.2","0.6","0.4","","","","","0.3496678451","0.006461011255","0.09006279409","0.4330387396","","","","","","","72","H","0","img/none_selected.jpg","","63","main_expt"
"92","","bandit","142","398147","0.0-103.0-0.0","55698530","wem/bandit_either","A2DWQF4ZHHBLOW","either","5","","","","","","","0","0","1","0.3188537263","","0.8","0.2","0.6","0.4","","","","","0.3188537263","0.01267926231","0.1118976224","0.4207902426","","","","","","","72","H","0","img/none_selected.jpg","","64","main_expt"
"1597","","bandit","143","401258","0.0-104.0-0.0","55698530","wem/bandit_either","A2DWQF4ZHHBLOW","either","5","","","","","","","0","0","1","0.009732787917","","0.8","0.2","0.6","0.4","","","","","0.3191795336","0.009732787917","0.1053817613","0.3719582347","","","","","","","74","J","1","","","65","main_expt"
"118","","bandit","144","402887","0.0-105.0-0.0","55698530","wem/bandit_either","A2DWQF4ZHHBLOW","either","5","","","","","","","0","0","1","","0.01092542651","0.8","0.2","0.6","0.4","0.268616347","0.01092542651","0.1307356695","0.3748569955","","","","","","","","","","","74","J","1","","","66","main_expt"
"62","","bandit","145","404459","0.0-106.0-0.0","55698530","wem/bandit_either","A2DWQF4ZHHBLOW","either","5","","","","","","","0","0","1","","0.02125534741","0.8","0.2","0.6","0.4","0.259194563","0.02125534741","0.1418436428","0.335252031","","","","","","","","","","","74","J","1","","","67","main_expt"
"1","","bandit","146","405968","0.0-107.0-0.0","55698530","wem/bandit_either","A2DWQF4ZHHBLOW","either","5","","","","","","","0","1","0","","0.1459089566","0.8","0.2","0.6","0.4","0.2281204868","0.02360283027","0.1459089566","0.3199157278","","","","","","","","","","","75","K","2","","","68","main_expt"
"181","","bandit","147","407659","0.0-108.0-0.0","55698530","wem/bandit_either","A2DWQF4ZHHBLOW","either","5","","","","","","","0","0","1","","0.1809721424","0.8","0.2","0.6","0.4","0.2195844169","0.02539305756","0.1809721424","0.3068525281","","","","","","","","","","","75","K","2","","","69","main_expt"
"87","","bandit","148","409255","0.0-109.0-0.0","55698530","wem/bandit_either","A2DWQF4ZHHBLOW","either","5","","","","","","","0","0","1","","0.1784068974","0.8","0.2","0.6","0.4","0.1883338509","0.05014388586","0.1784068974","0.3181076016","","","","","","","","","","","75","K","2","","","70","main_expt"
"1758","","bandit","149","412525","0.0-110.0-0.0","55698530","wem/bandit_either","A2DWQF4ZHHBLOW","either","5","","","","","","","1","0","0","0.1973023396","","0.8","0.2","0.6","0.4","","","","","0.1639708178","0.04209054697","0.1973023396","0.2926426422","","","","","","","75","K","2","","","71","main_expt"
"538","","bandit","150","414573","0.0-111.0-0.0","55698530","wem/bandit_either","A2DWQF4ZHHBLOW","either","5","","","","","","","0","0","1","0.2436342847","","0.8","0.2","0.6","0.4","","","","","0.1312842785","0.05611199342","0.2436342847","0.2380263643","","","","","","","75","K","2","","","72","main_expt"
"24","","bandit","151","416108","0.0-112.0-0.0","55698530","wem/bandit_either","A2DWQF4ZHHBLOW","either","5","","","","","","","0","0","1","0.1992173182","","0.8","0.2","0.6","0.4","","","","","0.1805041857","0.05293238473","0.1992173182","0.2407197948","","","","","","","75","K","2","","","73","main_expt"
"243","","bandit","152","417862","0.0-113.0-0.0","55698530","wem/bandit_either","A2DWQF4ZHHBLOW","either","5","","","","","","","0","1","0","","0.2347098304","0.8","0.2","0.6","0.4","0.1739557812","0.0318456884","0.2347098304","0.2317468449","","","","","","","","","","","75","K","2","","","74","main_expt"
"2196","","bandit","153","421570","0.0-114.0-0.0","55698530","wem/bandit_either","A2DWQF4ZHHBLOW","either","5","","","","","","","0","0","1","","0.2545997551","0.8","0.2","0.6","0.4","0.2434916027","0.03873230677","0.2641442137","0.2545997551","","","","","","","","","","","76","L","3","","","75","main_expt"
"191","","bandit","154","423272","0.0-115.0-0.0","55698530","wem/bandit_either","A2DWQF4ZHHBLOW","either","5","","","","","","","0","1","0","","0.2438468568","0.8","0.2","0.6","0.4","0.2438468568","0.03304947682","0.3192644053","0.2890845388","","","","","","","","","","","72","H","0","img/none_selected.jpg","","76","main_expt"
"864","","bandit","155","425646","0.0-116.0-0.0","55698530","wem/bandit_either","A2DWQF4ZHHBLOW","either","5","","","","","","","0","0","1","","0.02607887458","0.8","0.2","0.6","0.4","0.2425324642","0.02607887458","0.3351132613","0.2386362654","","","","","","","","","","","74","J","1","","","77","main_expt"
"1411","","bandit","156","428568","0.0-117.0-0.0","55698530","wem/bandit_either","A2DWQF4ZHHBLOW","either","5","","","","","","","0","0","1","0.205588479","","0.8","0.2","0.6","0.4","","","","","0.205588479","0.02492981692","0.3086784207","0.2673679704","","","","","","","72","H","0","img/none_selected.jpg","","78","main_expt"
"1092","","bandit","157","431173","0.0-118.0-0.0","55698530","wem/bandit_either","A2DWQF4ZHHBLOW","either","5","","","","","","","0","0","1","0.213062191","","0.8","0.2","0.6","0.4","","","","","0.213062191","0.01824110002","0.3076482073","0.2813811921","","","","","","","72","H","0","img/none_selected.jpg","","79","main_expt"
"355","","bandit","158","433038","0.0-119.0-0.0","55698530","wem/bandit_either","A2DWQF4ZHHBLOW","either","5","","","","","","","0","0","1","0.1852926048","","0.8","0.2","0.6","0.4","","","","","0.1852926048","0.0202176162","0.3605025214","0.2419447949","","","","","","","72","H","0","img/none_selected.jpg","","80","main_expt"
"2376","","bandit","159","436924","0.0-120.0-0.0","55698530","wem/bandit_either","A2DWQF4ZHHBLOW","either","5","","","","","","","0","0","1","","0.3286166321","0.8","0.2","0.6","0.4","0.2332942271","0.0252752587","0.3286166321","0.323481111","","","","","","","","","","","75","K","2","","","81","main_expt"
"888","","bandit","160","439326","0.0-121.0-0.0","55698530","wem/bandit_either","A2DWQF4ZHHBLOW","either","5","","","","","","","1","0","0","0.3459677762","","0.8","0.2","0.6","0.4","","","","","0.2087797338","0.05668457717","0.3459677762","0.3097244961","","","","","","","75","K","2","","","82","main_expt"
"71","","bandit","161","440908","0.0-122.0-0.0","55698530","wem/bandit_either","A2DWQF4ZHHBLOW","either","5","","","","","","","0","0","1","0.2049979043","","0.8","0.2","0.6","0.4","","","","","0.2049979043","0.07760530004","0.3092751195","0.2787498647","","","","","","","72","H","0","img/none_selected.jpg","","83","main_expt"
"93","","bandit","162","442512","0.0-123.0-0.0","55698530","wem/bandit_either","A2DWQF4ZHHBLOW","either","5","","","","","","","0","0","1","0.2151780091","","0.8","0.2","0.6","0.4","","","","","0.2151780091","0.03696005566","0.3044630387","0.2589524449","","","","","","","72","H","0","img/none_selected.jpg","","84","main_expt"
"2120","","bandit","163","446143","0.0-124.0-0.0","55698530","wem/bandit_either","A2DWQF4ZHHBLOW","either","5","","","","","","","0","0","1","0.1497615914","","0.8","0.2","0.6","0.4","","","","","0.1497615914","0.04177257934","0.2812480587","0.2769318636","","","","","","","72","H","0","img/none_selected.jpg","","85","main_expt"
"418","","bandit","164","448074","0.0-125.0-0.0","55698530","wem/bandit_either","A2DWQF4ZHHBLOW","either","5","","","","","","","0","1","0","","0.2506532223","0.8","0.2","0.6","0.4","0.1223687677","0.0385770192","0.2506532223","0.2849222391","","","","","","","","","","","75","K","2","","","86","main_expt"
"505","","bandit","165","450091","0.0-126.0-0.0","55698530","wem/bandit_either","A2DWQF4ZHHBLOW","either","5","","","","","","","0","0","1","","0.2269900387","0.8","0.2","0.6","0.4","0.1472857413","0.03720252147","0.2269900387","0.3131087309","","","","","","","","","","","75","K","2","","","87","main_expt"
"1756","","bandit","166","453359","0.0-127.0-0.0","55698530","wem/bandit_either","A2DWQF4ZHHBLOW","either","5","","","","","","","0","0","1","0.1504729919","","0.8","0.2","0.6","0.4","","","","","0.1252586248","0.06746059371","0.1504729919","0.3038587512","","","","","","","75","K","2","","","88","main_expt"
"1551","","bandit","167","456427","0.0-128.0-0.0","55698530","wem/bandit_either","A2DWQF4ZHHBLOW","either","5","","","","","","","0","0","1","","0.1382070302","0.8","0.2","0.6","0.4","0.1194927994","0.04069757945","0.1382070302","0.3308022157","","","","","","","","","","","75","K","2","","","89","main_expt"
"445","","bandit","168","458382","0.0-129.0-0.0","55698530","wem/bandit_either","A2DWQF4ZHHBLOW","either","5","","","","","","","0","0","1","0.1364765349","","0.8","0.2","0.6","0.4","","","","","0.1589750007","0.07325379503","0.1364765349","0.3574922351","","","","","","","75","K","2","","","90","main_expt"
"327","","bandit","169","460222","0.0-130.0-0.0","55698530","wem/bandit_either","A2DWQF4ZHHBLOW","either","5","","","","","","","0","0","1","0.09318196272","","0.8","0.2","0.6","0.4","","","","","0.1859960426","0.06877471811","0.09318196272","0.3729517688","","","","","","","75","K","2","","","91","main_expt"
"647","","bandit","170","462382","0.0-131.0-0.0","55698530","wem/bandit_either","A2DWQF4ZHHBLOW","either","5","","","","","","","0","0","1","0.06946097624","","0.8","0.2","0.6","0.4","","","","","0.192419488","0.04115987362","0.06946097624","0.398352994","","","","","","","75","K","2","","","92","main_expt"
"984","","bandit","171","464878","0.0-132.0-0.0","55698530","wem/bandit_either","A2DWQF4ZHHBLOW","either","5","","","","","","","0","0","1","0.08102832817","","0.8","0.2","0.6","0.4","","","","","0.1716033463","0.07078892783","0.08102832817","0.4135860398","","","","","","","75","K","2","","","93","main_expt"
"737","","bandit","172","467127","0.0-133.0-0.0","55698530","wem/bandit_either","A2DWQF4ZHHBLOW","either","5","","","","","","","0","0","1","0.1271360848","","0.8","0.2","0.6","0.4","","","","","0.1935897604","0.05572868433","0.1271360848","0.3786880174","","","","","","","75","K","2","","","94","main_expt"
"411","","bandit","173","469046","0.0-134.0-0.0","55698530","wem/bandit_either","A2DWQF4ZHHBLOW","either","5","","","","","","","0","0","1","","0.05056929995","0.8","0.2","0.6","0.4","0.2193228015","0.05056929995","0.1097592989","0.3823424718","","","","","","","","","","","74","J","1","","","95","main_expt"
"517","","bandit","174","471076","0.0-135.0-0.0","55698530","wem/bandit_either","A2DWQF4ZHHBLOW","either","5","","","","","","","0","0","1","","0.04159874267","0.8","0.2","0.6","0.4","0.3262643469","0.04159874267","0.1085490834","0.3642725552","","","","","","","","","","","74","J","1","","","96","main_expt"
"1031","","bandit","175","473617","0.0-136.0-0.0","55698530","wem/bandit_either","A2DWQF4ZHHBLOW","either","5","","","","","","","0","0","1","0.3197717944","","0.8","0.2","0.6","0.4","","","","","0.3207405496","0.03654451862","0.1049812554","0.3197717944","","","","","","","76","L","3","","","97","main_expt"
"140","","bandit","176","475266","0.0-137.0-0.0","55698530","wem/bandit_either","A2DWQF4ZHHBLOW","either","5","","","","","","","0","0","1","0.2514424369","","0.8","0.2","0.6","0.4","","","","","0.3712856991","0.04190300095","0.08177978443","0.2514424369","","","","","","","76","L","3","","","98","main_expt"
"210","","bandit","177","476988","0.0-138.0-0.0","55698530","wem/bandit_either","A2DWQF4ZHHBLOW","either","5","","","","","","","0","1","0","","0.2926772137","0.8","0.2","0.6","0.4","0.3740145378","0.08742990617","0.07574087804","0.2926772137","","","","","","","","","","","76","L","3","","","99","main_expt"
"682","","bandit","178","479182","0.0-139.0-0.0","55698530","wem/bandit_either","A2DWQF4ZHHBLOW","either","5","","","","","","","0","0","1","","0.234485335","0.8","0.2","0.6","0.4","0.3776295542","0.08966523481","0.07829319678","0.234485335","","","","","","","","","","","76","L","3","","","100","main_expt"
"709","","bandit","179","481402","0.0-140.0-0.0","55698530","wem/bandit_either","A2DWQF4ZHHBLOW","either","5","","","","","","","1","0","0","0.3592666398","","0.8","0.2","0.6","0.4","","","","","0.3592666398","0.07849065771","0.07919243683","0.250352175","","","","","","","72","H","0","img/none_selected.jpg","","101","main_expt"
"869","","bandit","180","483782","0.0-141.0-0.0","55698530","wem/bandit_either","A2DWQF4ZHHBLOW","either","5","","","","","","","0","0","1","","0.3412191773","0.8","0.2","0.6","0.4","0.3412191773","0.1054267613","0.1052753188","0.2139972863","","","","","","","","","","","72","H","0","img/none_selected.jpg","","102","main_expt"
"1304","","bandit","181","486596","0.0-142.0-0.0","55698530","wem/bandit_either","A2DWQF4ZHHBLOW","either","5","","","","","","","0","0","1","0.3133100433","","0.8","0.2","0.6","0.4","","","","","0.3133100433","0.1120981937","0.1248526142","0.20092706","","","","","","","72","H","0","img/none_selected.jpg","","103","main_expt"
"529","","bandit","182","488635","0.0-143.0-0.0","55698530","wem/bandit_either","A2DWQF4ZHHBLOW","either","5","","","","","","","0","0","1","0.1034740879","","0.8","0.2","0.6","0.4","","","","","0.3219148419","0.1034740879","0.142969925","0.2305366804","","","","","","","74","J","1","","","104","main_expt"
"452","","bandit","183","490598","0.0-144.0-0.0","55698530","wem/bandit_either","A2DWQF4ZHHBLOW","either","5","","","","","","","0","0","1","0.3300892518","","0.8","0.2","0.6","0.4","","","","","0.3300892518","0.07597240327","0.13947254","0.2102135581","","","","","","","72","H","0","img/none_selected.jpg","","105","main_expt"
"92","","bandit","184","492200","0.0-145.0-0.0","55698530","wem/bandit_either","A2DWQF4ZHHBLOW","either","5","","","","","","","0","0","1","0.3401839058","","0.8","0.2","0.6","0.4","","","","","0.3401839058","0.1124257427","0.1329526997","0.2219457329","","","","","","","72","H","0","img/none_selected.jpg","","106","main_expt"
"1319","","bandit","185","495028","0.0-146.0-0.0","55698530","wem/bandit_either","A2DWQF4ZHHBLOW","either","5","","","","","","","0","0","1","0.3784706915","","0.8","0.2","0.6","0.4","","","","","0.3784706915","0.1133168519","0.1727290233","0.3048423019","","","","","","","72","H","0","img/none_selected.jpg","","107","main_expt"
"1216","","bandit","186","497755","0.0-147.0-0.0","55698530","wem/bandit_either","A2DWQF4ZHHBLOW","either","5","","","","","","","1","0","0","0.1864487031","","0.8","0.2","0.6","0.4","","","","","0.3945753887","0.1752395656","0.1864487031","0.258150515","","","","","","","75","K","2","","","108","main_expt"
"1756","","bandit","187","501023","0.0-148.0-0.0","55698530","wem/bandit_either","A2DWQF4ZHHBLOW","either","5","","","","","","","0","0","1","0.356827327","","0.8","0.2","0.6","0.4","","","","","0.356827327","0.1862973424","0.2463216238","0.1859129148","","","","","","","72","H","0","img/none_selected.jpg","","109","main_expt"
"276","","bandit","188","502810","0.0-149.0-0.0","55698530","wem/bandit_either","A2DWQF4ZHHBLOW","either","5","","","","","","","0","0","1","0.2344179837","","0.8","0.2","0.6","0.4","","","","","0.2344179837","0.2015845776","0.2431522628","0.1371624404","","","","","","","72","H","0","img/none_selected.jpg","","110","main_expt"
"20","","bandit","189","504343","0.0-150.0-0.0","55698530","wem/bandit_either","A2DWQF4ZHHBLOW","either","5","","","","","","","0","1","0","","0.2644823096","0.8","0.2","0.6","0.4","0.2644823096","0.2003651753","0.1757476643","0.1258232978","","","","","","","","","","","72","H","0","img/none_selected.jpg","","111","main_expt"
"281","","bandit","190","506135","0.0-151.0-0.0","55698530","wem/bandit_either","A2DWQF4ZHHBLOW","either","5","","","","","","","0","0","1","0.28311182","","0.8","0.2","0.6","0.4","","","","","0.28311182","0.21392293","0.2451518953","0.1529967373","","","","","","","72","H","0","img/none_selected.jpg","","112","main_expt"
"1493","","bandit","191","509142","0.0-152.0-0.0","55698530","wem/bandit_either","A2DWQF4ZHHBLOW","either","5","","","","","","","1","0","0","0.2413269532","","0.8","0.2","0.6","0.4","","","","","0.2413269532","0.1606798039","0.2407836715","0.148248117","","","","","","","72","H","0","img/none_selected.jpg","","113","main_expt"
"742","","bandit","192","511398","0.0-153.0-0.0","55698530","wem/bandit_either","A2DWQF4ZHHBLOW","either","5","","","","","","","0","0","1","0.3100969134","","0.8","0.2","0.6","0.4","","","","","0.3100969134","0.2095980235","0.3099317417","0.1562208239","","","","","","","72","H","0","img/none_selected.jpg","","114","main_expt"
"36","","bandit","193","512947","0.0-154.0-0.0","55698530","wem/bandit_either","A2DWQF4ZHHBLOW","either","5","","","","","","","0","0","1","0.329842252","","0.8","0.2","0.6","0.4","","","","","0.329842252","0.2550279667","0.3180754701","0.2138032898","","","","","","","72","H","0","img/none_selected.jpg","","115","main_expt"
"1769","","bandit","194","516226","0.0-155.0-0.0","55698530","wem/bandit_either","A2DWQF4ZHHBLOW","either","5","","","","","","","0","1","0","","0.3223706096","0.8","0.2","0.6","0.4","0.3223706096","0.2471764387","0.2919742107","0.2331260325","","","","","","","","","","","72","H","0","img/none_selected.jpg","","116","main_expt"
"1736","","bandit","195","519473","0.0-156.0-0.0","55698530","wem/bandit_either","A2DWQF4ZHHBLOW","either","5","","","","","","","0","0","1","","0.3098408215","0.8","0.2","0.6","0.4","0.3098408215","0.2730878341","0.2799774295","0.1826309729","","","","","","","","","","","72","H","0","img/none_selected.jpg","","117","main_expt"
"200","","bandit","196","521184","0.0-157.0-0.0","55698530","wem/bandit_either","A2DWQF4ZHHBLOW","either","5","","","","","","","1","0","0","0.2974554567","","0.8","0.2","0.6","0.4","","","","","0.2974554567","0.2071462199","0.2646714695","0.1511269107","","","","","","","72","H","0","img/none_selected.jpg","","118","main_expt"
"275","","bandit","197","522970","0.0-158.0-0.0","55698530","wem/bandit_either","A2DWQF4ZHHBLOW","either","5","","","","","","","0","0","1","0.3598468986","","0.8","0.2","0.6","0.4","","","","","0.3598468986","0.2275232499","0.3179839519","0.1559979654","","","","","","","72","H","0","img/none_selected.jpg","","119","main_expt"
"222","","bandit","198","524706","0.0-159.0-0.0","55698530","wem/bandit_either","A2DWQF4ZHHBLOW","either","5","","","","","","","1","0","0","0.2984373086","","0.8","0.2","0.6","0.4","","","","","0.2984373086","0.2767559596","0.3302262658","0.1463004055","","","","","","","72","H","0","img/none_selected.jpg","","120","main_expt"
"608","","bandit","199","526825","0.0-160.0-0.0","55698530","wem/bandit_either","A2DWQF4ZHHBLOW","either","5","","","","","","","0","0","1","","0.2973090059","0.8","0.2","0.6","0.4","0.2973090059","0.3448590315","0.3500549905","0.1418195479","","","","","","","","","","","72","H","0","img/none_selected.jpg","","121","main_expt"
"68","","bandit","200","528409","0.0-161.0-0.0","55698530","wem/bandit_either","A2DWQF4ZHHBLOW","either","5","","","","","","","0","0","1","","0.3382791822","0.8","0.2","0.6","0.4","0.3382791822","0.3593301016","0.2686616284","0.1270782113","","","","","","","","","","","72","H","0","img/none_selected.jpg","","122","main_expt"
"67","","bandit","201","529987","0.0-162.0-0.0","55698530","wem/bandit_either","A2DWQF4ZHHBLOW","either","5","","","","","","","0","1","0","","0.3154347028","0.8","0.2","0.6","0.4","0.3154347028","0.3680529171","0.2277230314","0.1207154071","","","","","","","","","","","72","H","0","img/none_selected.jpg","","123","main_expt"
"1785","","bandit","202","533284","0.0-163.0-0.0","55698530","wem/bandit_either","A2DWQF4ZHHBLOW","either","5","","","","","","","0","0","1","0.2966737815","","0.8","0.2","0.6","0.4","","","","","0.2966737815","0.3476523483","0.3287090939","0.1229329119","","","","","","","72","H","0","img/none_selected.jpg","","124","main_expt"
"848","","bandit","203","535644","0.0-164.0-0.0","55698530","wem/bandit_either","A2DWQF4ZHHBLOW","either","5","","","","","","","0","0","1","0.3094831126","","0.8","0.2","0.6","0.4","","","","","0.3094831126","0.3564603465","0.3687339586","0.09241122996","","","","","","","72","H","0","img/none_selected.jpg","","125","main_expt"
"973","","bandit","204","538129","0.0-165.0-0.0","55698530","wem/bandit_either","A2DWQF4ZHHBLOW","either","5","","","","","","","0","0","1","","0.2488993205","0.8","0.2","0.6","0.4","0.2488993205","0.3550684458","0.3836195774","0.08418962236","","","","","","","","","","","72","H","0","img/none_selected.jpg","","126","main_expt"
"1231","","bandit","205","540871","0.0-166.0-0.0","55698530","wem/bandit_either","A2DWQF4ZHHBLOW","either","5","","","","","","","0","0","1","0.1953487027","","0.8","0.2","0.6","0.4","","","","","0.1953487027","0.3235559827","0.3617365958","0.154715772","","","","","","","72","H","0","img/none_selected.jpg","","127","main_expt"
"145","","bandit","206","542529","0.0-167.0-0.0","55698530","wem/bandit_either","A2DWQF4ZHHBLOW","either","5","","","","","","","0","0","1","0.2171889907","","0.8","0.2","0.6","0.4","","","","","0.2171889907","0.312087491","0.3235283493","0.1556709078","","","","","","","72","H","0","img/none_selected.jpg","","128","main_expt"
"61","","bandit","207","544103","0.0-168.0-0.0","55698530","wem/bandit_either","A2DWQF4ZHHBLOW","either","5","","","","","","","1","0","0","0.2467699801","","0.8","0.2","0.6","0.4","","","","","0.2467699801","0.2843272188","0.3453830546","0.1214200615","","","","","","","72","H","0","img/none_selected.jpg","","129","main_expt"
"9","","bandit","208","545625","0.0-169.0-0.0","55698530","wem/bandit_either","A2DWQF4ZHHBLOW","either","5","","","","","","","0","0","1","0.2814443482","","0.8","0.2","0.6","0.4","","","","","0.2814443482","0.2128416856","0.3242747857","0.1377283829","","","","","","","72","H","0","img/none_selected.jpg","","130","main_expt"
"284","","bandit","209","547423","0.0-170.0-0.0","55698530","wem/bandit_either","A2DWQF4ZHHBLOW","either","5","","","","","","","0","0","1","","0.2834176508","0.8","0.2","0.6","0.4","0.2834176508","0.2403879813","0.3417201858","0.1397421628","","","","","","","","","","","72","H","0","img/none_selected.jpg","","131","main_expt"
"178","","bandit","210","549113","0.0-171.0-0.0","55698530","wem/bandit_either","A2DWQF4ZHHBLOW","either","5","","","","","","","0","0","1","0.2429908031","","0.8","0.2","0.6","0.4","","","","","0.2429908031","0.2811421594","0.3498614837","0.1061875113","","","","","","","72","H","0","img/none_selected.jpg","","132","main_expt"
"544","","bandit","211","551169","0.0-172.0-0.0","55698530","wem/bandit_either","A2DWQF4ZHHBLOW","either","5","","","","","","","0","0","1","","0.3053559495","0.8","0.2","0.6","0.4","0.3053559495","0.3002858371","0.3134828643","0.07774811701","","","","","","","","","","","72","H","0","img/none_selected.jpg","","133","main_expt"
"521","","bandit","212","553203","0.0-173.0-0.0","55698530","wem/bandit_either","A2DWQF4ZHHBLOW","either","5","","","","","","","0","0","1","0.2693478067","","0.8","0.2","0.6","0.4","","","","","0.2693478067","0.277406375","0.3554593188","0.08211281178","","","","","","","72","H","0","img/none_selected.jpg","","134","main_expt"
"121","","bandit","213","554837","0.0-174.0-0.0","55698530","wem/bandit_either","A2DWQF4ZHHBLOW","either","5","","","","","","","0","0","1","0.3369166079","","0.8","0.2","0.6","0.4","","","","","0.3369166079","0.2897147582","0.3150900126","0.1123817552","","","","","","","72","H","0","img/none_selected.jpg","","135","main_expt"
"1768","","bandit","214","558117","0.0-175.0-0.0","55698530","wem/bandit_either","A2DWQF4ZHHBLOW","either","5","","","","","","","0","0","1","","0.3590576628","0.8","0.2","0.6","0.4","0.268603144","0.3590576628","0.3199395785","0.1478339482","","","","","","","","","","","74","J","1","","","136","main_expt"
"1128","","bandit","215","560760","0.0-176.0-0.0","55698530","wem/bandit_either","A2DWQF4ZHHBLOW","either","5","","","","","","","0","0","1","0.3822427384","","0.8","0.2","0.6","0.4","","","","","0.2373427956","0.3822427384","0.33362357","0.1374936615","","","","","","","74","J","1","","","137","main_expt"
"84","","bandit","216","562358","0.0-177.0-0.0","55698530","wem/bandit_either","A2DWQF4ZHHBLOW","either","5","","","","","","","1","0","0","0.3410071165","","0.8","0.2","0.6","0.4","","","","","0.2206869265","0.3410071165","0.3611324022","0.159761955","","","","","","","74","J","1","","","138","main_expt"
"276","","bandit","217","564146","0.0-178.0-0.0","55698530","wem/bandit_either","A2DWQF4ZHHBLOW","either","5","","","","","","","0","1","0","","0.3738014659","0.8","0.2","0.6","0.4","0.2177966349","0.3738014659","0.3504145086","0.1363721132","","","","","","","","","","","74","J","1","","","139","main_expt"
"1523","","bandit","218","567181","0.0-179.0-0.0","55698530","wem/bandit_either","A2DWQF4ZHHBLOW","either","5","","","","","","","0","0","1","","0.422575493","0.8","0.2","0.6","0.4","0.2387685432","0.422575493","0.309774603","0.1031445192","","","","","","","","","","","74","J","1","","","140","main_expt"
"7","","bandit","219","568700","0.0-180.0-0.0","55698530","wem/bandit_either","A2DWQF4ZHHBLOW","either","5","","","","","","","0","1","0","","0.4439129864","0.8","0.2","0.6","0.4","0.2575087366","0.4439129864","0.3506531288","0.09805286369","","","","","","","","","","","74","J","1","","","141","main_expt"
"943","","bandit","220","571157","0.0-181.0-0.0","55698530","wem/bandit_either","A2DWQF4ZHHBLOW","either","5","","","","","","","0","0","1","","0.4323802182","0.8","0.2","0.6","0.4","0.2392038972","0.4323802182","0.2965027242","0.1149002948","","","","","","","","","","","74","J","1","","","142","main_expt"
"871","","bandit","221","573541","0.0-182.0-0.0","55698530","wem/bandit_either","A2DWQF4ZHHBLOW","either","5","","","","","","","0","1","0","","0.4358412593","0.8","0.2","0.6","0.4","0.2216470548","0.4358412593","0.2087517366","0.1209542099","","","","","","","","","","","74","J","1","","","143","main_expt"
"1267","","bandit","222","576321","0.0-183.0-0.0","55698530","wem/bandit_either","A2DWQF4ZHHBLOW","either","5","","","","","","","0","0","1","","0.4407373256","0.8","0.2","0.6","0.4","0.2224896139","0.4407373256","0.2313605626","0.1202521083","","","","","","","","","","","74","J","1","","","144","main_expt"
"996","","bandit","223","578830","0.0-184.0-0.0","55698530","wem/bandit_either","A2DWQF4ZHHBLOW","either","5","","","","","","","1","0","0","0.4661091035","","0.8","0.2","0.6","0.4","","","","","0.1925605464","0.4661091035","0.1785565547","0.1619743669","","","","","","","74","J","1","","","145","main_expt"
"3714","","bandit","224","584056","0.0-185.0-0.0","55698530","wem/bandit_either","A2DWQF4ZHHBLOW","either","5","","","","","","","0","0","1","0.4637097668","","0.8","0.2","0.6","0.4","","","","","0.2069800611","0.4637097668","0.1770660648","0.1664631043","","","","","","","74","J","1","","","146","main_expt"
"843","","bandit","225","586412","0.0-186.0-0.0","55698530","wem/bandit_either","A2DWQF4ZHHBLOW","either","5","","","","","","","0","0","1","0.2489662189","","0.8","0.2","0.6","0.4","","","","","0.2489662189","0.4700491642","0.1063371611","0.1669241763","","","","","","","72","H","0","img/none_selected.jpg","","147","main_expt"
"1184","","bandit","226","589108","0.0-187.0-0.0","55698530","wem/bandit_either","A2DWQF4ZHHBLOW","either","5","","","","","","","0","1","0","","0.4648109734","0.8","0.2","0.6","0.4","0.1946464158","0.4648109734","0.1216370817","0.1581456949","","","","","","","","","","","74","J","1","","","148","main_expt"
"427","","bandit","227","591046","0.0-188.0-0.0","55698530","wem/bandit_either","A2DWQF4ZHHBLOW","either","5","","","","","","","1","0","0","0.4635511513","","0.8","0.2","0.6","0.4","","","","","0.1826562491","0.4635511513","0.1024256959","0.1698392466","","","","","","","74","J","1","","","149","main_expt"
"154","","bandit","228","592712","0.0-189.0-0.0","55698530","wem/bandit_either","A2DWQF4ZHHBLOW","either","5","","","","","","","1","0","0","0.4445017148","","0.8","0.2","0.6","0.4","","","","","0.1750473563","0.4445017148","0.1371094633","0.2140114634","","","","","","","74","J","1","","","150","main_expt"
"249","","bandit","229","594474","0.0-190.0-0.0","55698530","wem/bandit_either","A2DWQF4ZHHBLOW","either","5","","","","","","","1","0","0","0.4434799742","","0.8","0.2","0.6","0.4","","","","","0.1109536645","0.4434799742","0.1702433702","0.2392960001","","","","","","","74","J","1","","","151","main_expt"
"90","","bandit","230","596078","0.0-191.0-0.0","55698530","wem/bandit_either","A2DWQF4ZHHBLOW","either","5","","","","","","","0","1","0","","0.4451665291","0.8","0.2","0.6","0.4","0.1143086707","0.4451665291","0.1860489046","0.2095863317","","","","","","","","","","","74","J","1","","","152","main_expt"
"345","","bandit","231","597937","0.0-192.0-0.0","55698530","wem/bandit_either","A2DWQF4ZHHBLOW","either","5","","","","","","","0","1","0","","0.4401532833","0.8","0.2","0.6","0.4","0.1236290712","0.4401532833","0.2117094388","0.2543258611","","","","","","","","","","","74","J","1","","","153","main_expt"
"330","","bandit","232","599779","0.0-193.0-0.0","55698530","wem/bandit_either","A2DWQF4ZHHBLOW","either","5","","","","","","","1","0","0","0.4516855879","","0.8","0.2","0.6","0.4","","","","","0.1600695342","0.4516855879","0.2072389033","0.2602259906","","","","","","","74","J","1","","","154","main_expt"
"151","","bandit","233","601443","0.0-194.0-0.0","55698530","wem/bandit_either","A2DWQF4ZHHBLOW","either","5","","","","","","","0","0","1","","0.4480264808","0.8","0.2","0.6","0.4","0.1770288166","0.4480264808","0.1986333914","0.2750581274","","","","","","","","","","","74","J","1","","","155","main_expt"
"345","","bandit","234","603299","0.0-195.0-0.0","55698530","wem/bandit_either","A2DWQF4ZHHBLOW","either","5","","","","","","","0","0","1","","0.4260414265","0.8","0.2","0.6","0.4","0.1761817894","0.4260414265","0.2054640346","0.2438045727","","","","","","","","","","","74","J","1","","","156","main_expt"
"2044","","bandit","235","606857","0.0-196.0-0.0","55698530","wem/bandit_either","A2DWQF4ZHHBLOW","either","5","","","","","","","0","0","1","0.4365201507","","0.8","0.2","0.6","0.4","","","","","0.1998830888","0.4365201507","0.1810715383","0.2857025143","","","","","","","74","J","1","","","157","main_expt"
"1382","","bandit","236","609753","0.0-197.0-0.0","55698530","wem/bandit_either","A2DWQF4ZHHBLOW","either","5","","","","","","","0","0","1","","0.4076244479","0.8","0.2","0.6","0.4","0.2150354531","0.4076244479","0.2118906364","0.2887719476","","","","","","","","","","","74","J","1","","","158","main_expt"
"1320","","bandit","237","612584","0.0-198.0-0.0","55698530","wem/bandit_either","A2DWQF4ZHHBLOW","either","5","","","","","","","0","0","1","","0.403953851","0.8","0.2","0.6","0.4","0.2221069796","0.403953851","0.2293976715","0.2859462397","","","","","","","","","","","74","J","1","","","159","main_expt"
"1565","","bandit","238","615661","0.0-199.0-0.0","55698530","wem/bandit_either","A2DWQF4ZHHBLOW","either","5","","","","","","","0","0","1","","0.4282135537","0.8","0.2","0.6","0.4","0.2627335039","0.4282135537","0.2186051381","0.207432816","","","","","","","","","","","74","J","1","","","160","main_expt"
"2061","","bandit","239","619234","0.0-200.0-0.0","55698530","wem/bandit_either","A2DWQF4ZHHBLOW","either","5","","","","","","","0","0","1","","0.4479073124","0.8","0.2","0.6","0.4","0.2922457848","0.4479073124","0.2175927206","0.1611694724","","","","","","","","","","","74","J","1","","","161","main_expt"
"661","","bandit","240","621408","0.0-201.0-0.0","55698530","wem/bandit_either","A2DWQF4ZHHBLOW","either","5","","","","","","","0","0","1","0.2370404117","","0.8","0.2","0.6","0.4","","","","","0.3040212123","0.4456201243","0.2370404117","0.14378348","","","","","","","75","K","2","","","162","main_expt"
"1366","","bandit","241","624285","0.0-202.0-0.0","55698530","wem/bandit_either","A2DWQF4ZHHBLOW","either","5","","","","","","","0","0","1","0.2778780432","","0.8","0.2","0.6","0.4","","","","","0.2933359027","0.4384930657","0.2778780432","0.1707099899","","","","","","","75","K","2","","","163","main_expt"
"389","","bandit","242","626187","0.0-203.0-0.0","55698530","wem/bandit_either","A2DWQF4ZHHBLOW","either","5","","","","","","","0","0","1","0.2643388611","","0.8","0.2","0.6","0.4","","","","","0.2388203062","0.4231568034","0.2643388611","0.1933693166","","","","","","","75","K","2","","","164","main_expt"
"111","","bandit","243","627809","0.0-204.0-0.0","55698530","wem/bandit_either","A2DWQF4ZHHBLOW","either","5","","","","","","","0","0","1","0.1967204453","","0.8","0.2","0.6","0.4","","","","","0.2646204916","0.4412535734","0.1967204453","0.2406324952","","","","","","","75","K","2","","","165","main_expt"
"32","","bandit","244","629354","0.0-205.0-0.0","55698530","wem/bandit_either","A2DWQF4ZHHBLOW","either","5","","","","","","","0","0","1","0.1567937345","","0.8","0.2","0.6","0.4","","","","","0.2591758032","0.438364003","0.1567937345","0.2650462377","","","","","","","75","K","2","","","166","main_expt"
"6","","bandit","245","630870","0.0-206.0-0.0","55698530","wem/bandit_either","A2DWQF4ZHHBLOW","either","5","","","","","","","0","0","1","0.1201482918","","0.8","0.2","0.6","0.4","","","","","0.1955934818","0.4290991351","0.1201482918","0.245875583","","","","","","","75","K","2","","","167","main_expt"
"339","","bandit","246","632722","0.0-207.0-0.0","55698530","wem/bandit_either","A2DWQF4ZHHBLOW","either","5","","","","","","","0","0","1","0.0936051119","","0.8","0.2","0.6","0.4","","","","","0.2090603634","0.4510860662","0.0936051119","0.257303599","","","","","","","75","K","2","","","168","main_expt"
"222","","bandit","247","634456","0.0-208.0-0.0","55698530","wem/bandit_either","A2DWQF4ZHHBLOW","either","5","","","","","","","0","0","1","0.08775096918","","0.8","0.2","0.6","0.4","","","","","0.2678479696","0.4491424364","0.08775096918","0.2993732043","","","","","","","75","K","2","","","169","main_expt"
"1905","","bandit","248","637872","0.0-209.0-0.0","55698530","wem/bandit_either","A2DWQF4ZHHBLOW","either","5","","","","","","","0","0","1","","0.06743429675","0.8","0.2","0.6","0.4","0.2532125956","0.4332244901","0.06743429675","0.3388977639","","","","","","","","","","","75","K","2","","","170","main_expt"
"1830","","bandit","249","641215","0.0-210.0-0.0","55698530","wem/bandit_either","A2DWQF4ZHHBLOW","either","5","","","","","","","0","0","1","0.05979118822","","0.8","0.2","0.6","0.4","","","","","0.2568627054","0.4405036994","0.05979118822","0.2947926635","","","","","","","75","K","2","","","171","main_expt"
"535","","bandit","250","643261","0.0-211.0-0.0","55698530","wem/bandit_either","A2DWQF4ZHHBLOW","either","5","","","","","","","0","0","1","0.2451563353","","0.8","0.2","0.6","0.4","","","","","0.2451563353","0.4358521759","0.03200499914","0.2892529657","","","","","","","72","H","0","img/none_selected.jpg","","172","main_expt"
"2053","","bandit","251","646826","0.0-212.0-0.0","55698530","wem/bandit_either","A2DWQF4ZHHBLOW","either","5","","","","","","","0","0","1","","0.4471617722","0.8","0.2","0.6","0.4","0.3003395367","0.4471617722","0.04613358223","0.2571917514","","","","","","","","","","","74","J","1","","","173","main_expt"
"3366","","bandit","252","651704","0.0-213.0-0.0","55698530","wem/bandit_either","A2DWQF4ZHHBLOW","either","5","","","","","","","0","0","1","0.4560251174","","0.8","0.2","0.6","0.4","","","","","0.2545998681","0.4560251174","0.05969677181","0.244173221","","","","","","","74","J","1","","","174","main_expt"
"844","","bandit","253","654061","0.0-214.0-0.0","55698530","wem/bandit_either","A2DWQF4ZHHBLOW","either","5","","","","","","","0","1","0","","0.4379349024","0.8","0.2","0.6","0.4","0.3383135611","0.4379349024","0.05930066603","0.2038098688","","","","","","","","","","","74","J","1","","","175","main_expt"
"617","","bandit","254","656190","0.0-215.0-0.0","55698530","wem/bandit_either","A2DWQF4ZHHBLOW","either","5","","","","","","","0","0","1","","0.4328841116","0.8","0.2","0.6","0.4","0.3880627729","0.4328841116","0.08110879181","0.2053823003","","","","","","","","","","","74","J","1","","","176","main_expt"
"518","","bandit","255","658221","0.0-216.0-0.0","55698530","wem/bandit_either","A2DWQF4ZHHBLOW","either","5","","","","","","","0","1","0","","0.3965365967","0.8","0.2","0.6","0.4","0.3920994557","0.3965365967","0.07611568943","0.2193083282","","","","","","","","","","","74","J","1","","","177","main_expt"
"43","","bandit","256","659777","0.0-217.0-0.0","55698530","wem/bandit_either","A2DWQF4ZHHBLOW","either","5","","","","","","","0","1","0","","0.3899234309","0.8","0.2","0.6","0.4","0.3882277994","0.3899234309","0.1220467165","0.1904263594","","","","","","","","","","","74","J","1","","","178","main_expt"
"291","","bandit","257","661580","0.0-218.0-0.0","55698530","wem/bandit_either","A2DWQF4ZHHBLOW","either","5","","","","","","","0","0","1","","0.4238443777","0.8","0.2","0.6","0.4","0.3939691408","0.4238443777","0.1698853315","0.2212788648","","","","","","","","","","","74","J","1","","","179","main_expt"
"4021","","bandit","258","667115","0.0-219.0-0.0","55698530","wem/bandit_either","A2DWQF4ZHHBLOW","either","5","","","","","","","0","1","0","","0.4487400994","0.8","0.2","0.6","0.4","0.4074656662","0.4487400994","0.1374762061","0.2640717145","","","","","","","","","","","74","J","1","","","180","main_expt"
"1035","","bandit","259","669661","0.0-220.0-0.0","55698530","wem/bandit_either","A2DWQF4ZHHBLOW","either","5","","","","","","","0","0","1","0.4314573438","","0.8","0.2","0.6","0.4","","","","","0.3724421945","0.4314573438","0.09961924189","0.2426483564","","","","","","","74","J","1","","","181","main_expt"
"63","","bandit","260","671238","0.0-221.0-0.0","55698530","wem/bandit_either","A2DWQF4ZHHBLOW","either","5","","","","","","","0","0","1","","0.4458059303","0.8","0.2","0.6","0.4","0.2998177931","0.4458059303","0.1391043194","0.2001563476","","","","","","","","","","","74","J","1","","","182","main_expt"
"936","","bandit","261","673688","0.0-222.0-0.0","55698530","wem/bandit_either","A2DWQF4ZHHBLOW","either","5","","","","","","","0","0","1","0.1336424596","","0.8","0.2","0.6","0.4","","","","","0.3629728763","0.4485460149","0.1336424596","0.2167094124","","","","","","","75","K","2","","","183","main_expt"
"244","","bandit","262","675443","0.0-223.0-0.0","55698530","wem/bandit_either","A2DWQF4ZHHBLOW","either","5","","","","","","","0","1","0","","0.4078350507","0.8","0.2","0.6","0.4","0.3763603645","0.4078350507","0.115911235","0.2402813617","","","","","","","","","","","74","J","1","","","184","main_expt"
"175","","bandit","263","677130","0.0-224.0-0.0","55698530","wem/bandit_either","A2DWQF4ZHHBLOW","either","5","","","","","","","0","0","1","0.3472982705","","0.8","0.2","0.6","0.4","","","","","0.3472982705","0.3805788675","0.1394203739","0.2745112141","","","","","","","72","H","0","img/none_selected.jpg","","185","main_expt"
"437","","bandit","264","679079","0.0-225.0-0.0","55698530","wem/bandit_either","A2DWQF4ZHHBLOW","either","5","","","","","","","0","0","1","0.3095995051","","0.8","0.2","0.6","0.4","","","","","0.3095995051","0.4236809331","0.1557479742","0.2774566956","","","","","","","72","H","0","img/none_selected.jpg","","186","main_expt"
"611","","bandit","265","681199","0.0-226.0-0.0","55698530","wem/bandit_either","A2DWQF4ZHHBLOW","either","5","","","","","","","0","0","1","0.2567332284","","0.8","0.2","0.6","0.4","","","","","0.2567332284","0.4058627081","0.1823611596","0.2876011691","","","","","","","72","H","0","img/none_selected.jpg","","187","main_expt"
"473","","bandit","266","683186","0.0-227.0-0.0","55698530","wem/bandit_either","A2DWQF4ZHHBLOW","either","5","","","","","","","0","0","1","0.2555256861","","0.8","0.2","0.6","0.4","","","","","0.2555256861","0.3913346521","0.1854179297","0.2947112378","","","","","","","72","H","0","img/none_selected.jpg","","188","main_expt"
"756","","bandit","267","685455","0.0-228.0-0.0","55698530","wem/bandit_either","A2DWQF4ZHHBLOW","either","5","","","","","","","0","0","1","0.2009875262","","0.8","0.2","0.6","0.4","","","","","0.2009875262","0.3760164219","0.1875645599","0.2581494","","","","","","","72","H","0","img/none_selected.jpg","","189","main_expt"
"1289","","bandit","268","688257","0.0-229.0-0.0","55698530","wem/bandit_either","A2DWQF4ZHHBLOW","either","5","","","","","","","1","0","0","0.3327352817","","0.8","0.2","0.6","0.4","","","","","0.2055488595","0.3327352817","0.2018323604","0.1756323468","","","","","","","74","J","1","","","190","main_expt"
"2126","","bandit","269","691895","0.0-230.0-0.0","55698530","wem/bandit_either","A2DWQF4ZHHBLOW","either","5","","","","","","","0","1","0","","0.3015177445","0.8","0.2","0.6","0.4","0.1506387864","0.3015177445","0.221094727","0.2521570866","","","","","","","","","","","74","J","1","","","191","main_expt"
"866","","bandit","270","694276","0.0-231.0-0.0","55698530","wem/bandit_either","A2DWQF4ZHHBLOW","either","5","","","","","","","0","0","1","0.2320570195","","0.8","0.2","0.6","0.4","","","","","0.2027442266","0.2773298268","0.2320570195","0.2964739449","","","","","","","75","K","2","","","192","main_expt"
"3055","","bandit","271","698843","0.0-232.0-0.0","55698530","wem/bandit_either","A2DWQF4ZHHBLOW","either","5","","","","","","","0","1","0","","0.2836613797","0.8","0.2","0.6","0.4","0.1969137872","0.2836613797","0.2948950962","0.2612966838","","","","","","","","","","","74","J","1","","","193","main_expt"
"1264","","bandit","272","701619","0.0-233.0-0.0","55698530","wem/bandit_either","A2DWQF4ZHHBLOW","either","5","","","","","","","0","0","1","0.2114994946","","0.8","0.2","0.6","0.4","","","","","0.2114994946","0.2799350415","0.2602906927","0.3292914436","","","","","","","72","H","0","img/none_selected.jpg","","194","main_expt"
"158","","bandit","273","703288","0.0-234.0-0.0","55698530","wem/bandit_either","A2DWQF4ZHHBLOW","either","5","","","","","","","1","0","0","0.2467939011","","0.8","0.2","0.6","0.4","","","","","0.2467939011","0.2068597772","0.1771499101","0.4070308407","","","","","","","72","H","0","img/none_selected.jpg","","195","main_expt"
"469","","bandit","274","705272","0.0-235.0-0.0","55698530","wem/bandit_either","A2DWQF4ZHHBLOW","either","5","","","","","","","0","0","1","0.2731811988","","0.8","0.2","0.6","0.4","","","","","0.2731811988","0.2679469531","0.1746274925","0.3494820729","","","","","","","72","H","0","img/none_selected.jpg","","196","main_expt"
"24","","bandit","275","706807","0.0-236.0-0.0","55698530","wem/bandit_either","A2DWQF4ZHHBLOW","either","5","","","","","","","0","0","1","","0.2448078588","0.8","0.2","0.6","0.4","0.2512114903","0.2448078588","0.193224684","0.3571939809","","","","","","","","","","","74","J","1","","","197","main_expt"
"3088","","bandit","276","711410","0.0-237.0-0.0","55698530","wem/bandit_either","A2DWQF4ZHHBLOW","either","5","","","","","","","1","0","0","0.2433987968","","0.8","0.2","0.6","0.4","","","","","0.190651112","0.2433987968","0.1771509929","0.382430028","","","","","","","74","J","1","","","198","main_expt"
"88","","bandit","277","713012","0.0-238.0-0.0","55698530","wem/bandit_either","A2DWQF4ZHHBLOW","either","5","","","","","","","0","1","0","","0.2653624242","0.8","0.2","0.6","0.4","0.1701189695","0.2653624242","0.2466668772","0.3353474301","","","","","","","","","","","74","J","1","","","199","main_expt"
"1","","bandit","278","714526","0.0-239.0-0.0","55698530","wem/bandit_either","A2DWQF4ZHHBLOW","either","5","","","","","","","0","0","1","","0.2551376492","0.8","0.2","0.6","0.4","0.1656975488","0.2551376492","0.2477816141","0.3321976498","","","","","","","","","","","74","J","1","","","200","main_expt"
"369","","bandit","279","716407","0.0-240.0-0.0","55698530","wem/bandit_either","A2DWQF4ZHHBLOW","either","5","","","","","","","0","0","1","","0.2660639347","0.8","0.2","0.6","0.4","0.1647298582","0.2660639347","0.2744817861","0.3218117355","","","","","","","","","","","74","J","1","","","201","main_expt"
"121","","bandit","280","718041","0.0-241.0-0.0","55698530","wem/bandit_either","A2DWQF4ZHHBLOW","either","5","","","","","","","0","1","0","","0.2220900594","0.8","0.2","0.6","0.4","0.1242041815","0.2220900594","0.3043062986","0.2949214693","","","","","","","","","","","74","J","1","","","202","main_expt"
"197","","bandit","281","719751","0.0-242.0-0.0","55698530","wem/bandit_either","A2DWQF4ZHHBLOW","either","5","","","","","","","0","0","1","","0.1543353204","0.8","0.2","0.6","0.4","0.1684487429","0.1543353204","0.272185569","0.300077299","","","","","","","","","","","74","J","1","","","203","main_expt"
"1888","","bandit","282","723152","0.0-243.0-0.0","55698530","wem/bandit_either","A2DWQF4ZHHBLOW","either","5","","","","","","","0","1","0","","0.1605482003","0.8","0.2","0.6","0.4","0.1666409686","0.1605482003","0.2610767704","0.2866085977","","","","","","","","","","","74","J","1","","","204","main_expt"
"90","","bandit","283","724755","0.0-244.0-0.0","55698530","wem/bandit_either","A2DWQF4ZHHBLOW","either","5","","","","","","","0","1","0","","0.1406914754","0.8","0.2","0.6","0.4","0.2197286508","0.1406914754","0.2832615928","0.2695546272","","","","","","","","","","","74","J","1","","","205","main_expt"
"7559","","bandit","284","733827","0.0-245.0-0.0","55698530","wem/bandit_either","A2DWQF4ZHHBLOW","either","5","","","","","","","0","0","1","","0.1138947463","0.8","0.2","0.6","0.4","0.2754509052","0.1138947463","0.300913322","0.2622178416","","","","","","","","","","","74","J","1","","","206","main_expt"
"1323","","bandit","285","736663","0.0-246.0-0.0","55698530","wem/bandit_either","A2DWQF4ZHHBLOW","either","5","","","","","","","0","1","0","","0.2664869377","0.8","0.2","0.6","0.4","0.2664869377","0.1096702189","0.3260258847","0.2498186578","","","","","","","","","","","72","H","0","img/none_selected.jpg","","207","main_expt"
"563","","bandit","286","738740","0.0-247.0-0.0","55698530","wem/bandit_either","A2DWQF4ZHHBLOW","either","5","","","","","","","1","0","0","0.2686565688","","0.8","0.2","0.6","0.4","","","","","0.2686565688","0.09922356593","0.3173829003","0.2335358635","","","","","","","72","H","0","img/none_selected.jpg","","208","main_expt"
"433","","bandit","287","740686","0.0-248.0-0.0","55698530","wem/bandit_either","A2DWQF4ZHHBLOW","either","5","","","","","","","0","0","1","0.2380255957","","0.8","0.2","0.6","0.4","","","","","0.2380255957","0.101567507","0.3153846937","0.2638942681","","","","","","","72","H","0","img/none_selected.jpg","","209","main_expt"
"591","","bandit","288","742794","0.0-249.0-0.0","55698530","wem/bandit_either","A2DWQF4ZHHBLOW","either","5","","","","","","","0","0","1","0.2507768727","","0.8","0.2","0.6","0.4","","","","","0.2507768727","0.08675379402","0.3010876552","0.2526926237","","","","","","","72","H","0","img/none_selected.jpg","","210","main_expt"
"356","","bandit","289","744663","0.0-250.0-0.0","55698530","wem/bandit_either","A2DWQF4ZHHBLOW","either","5","","","","","","","0","0","1","","0.2685142319","0.8","0.2","0.6","0.4","0.2685142319","0.07512021269","0.2864900033","0.2740367769","","","","","","","","","","","72","H","0","img/none_selected.jpg","","211","main_expt"
"1612","","bandit","290","747790","0.0-251.0-0.0","55698530","wem/bandit_either","A2DWQF4ZHHBLOW","either","5","","","","","","","0","0","1","","0.260511483","0.8","0.2","0.6","0.4","0.260511483","0.08144254236","0.3163372434","0.2440836191","","","","","","","","","","","72","H","0","img/none_selected.jpg","","212","main_expt"
"799","","bandit","291","750100","0.0-252.0-0.0","55698530","wem/bandit_either","A2DWQF4ZHHBLOW","either","5","","","","","","","0","0","1","0.2579605047","","0.8","0.2","0.6","0.4","","","","","0.2579605047","0.06585574052","0.2701305136","0.2341903104","","","","","","","72","H","0","img/none_selected.jpg","","213","main_expt"
"706","","bandit","292","752319","0.0-253.0-0.0","55698530","wem/bandit_either","A2DWQF4ZHHBLOW","either","5","","","","","","","0","0","1","","0.08686614453","0.8","0.2","0.6","0.4","0.2470456849","0.08686614453","0.302599165","0.2097526345","","","","","","","","","","","74","J","1","","","214","main_expt"
"1202","","bandit","293","755035","0.0-254.0-0.0","55698530","wem/bandit_either","A2DWQF4ZHHBLOW","either","5","","","","","","","0","0","1","","0.1068548489","0.8","0.2","0.6","0.4","0.3285383036","0.1068548489","0.2968005471","0.1796882487","","","","","","","","","","","74","J","1","","","215","main_expt"
"1546","","bandit","294","758096","0.0-255.0-0.0","55698530","wem/bandit_either","A2DWQF4ZHHBLOW","either","5","","","","","","","0","0","1","0.1211736082","","0.8","0.2","0.6","0.4","","","","","0.3780044773","0.1211736082","0.2835536598","0.2237900511","","","","","","","74","J","1","","","216","main_expt"
"1226","","bandit","295","760837","0.0-256.0-0.0","55698530","wem/bandit_either","A2DWQF4ZHHBLOW","either","5","","","","","","","0","0","1","","0.09343701815","0.8","0.2","0.6","0.4","0.3939228946","0.09343701815","0.2520762718","0.2265358539","","","","","","","","","","","74","J","1","","","217","main_expt"
"1405","","bandit","296","763757","0.0-257.0-0.0","55698530","wem/bandit_either","A2DWQF4ZHHBLOW","either","5","","","","","","","0","0","1","","0.1001055386","0.8","0.2","0.6","0.4","0.3198270803","0.1001055386","0.2562699476","0.2364013437","","","","","","","","","","","74","J","1","","","218","main_expt"
"2509","","bandit","297","767780","0.0-258.0-0.0","55698530","wem/bandit_either","A2DWQF4ZHHBLOW","either","5","","","","","","","0","0","1","","0.09524874014","0.8","0.2","0.6","0.4","0.3502502288","0.09524874014","0.3002431464","0.2810560361","","","","","","","","","","","74","J","1","","","219","main_expt"
"198","","bandit","298","769491","0.0-259.0-0.0","55698530","wem/bandit_either","A2DWQF4ZHHBLOW","either","5","","","","","","","0","0","1","","0.1304899995","0.8","0.2","0.6","0.4","0.3402456168","0.1304899995","0.3365413303","0.3027429446","","","","","","","","","","","74","J","1","","","220","main_expt"
"143","","bandit","299","771147","0.0-260.0-0.0","55698530","wem/bandit_either","A2DWQF4ZHHBLOW","either","5","","","","","","","0","0","1","","0.1272814923","0.8","0.2","0.6","0.4","0.3770059732","0.1272814923","0.2946103072","0.3132134988","","","","","","","","","","","74","J","1","","","221","main_expt"
"84","","bandit","300","772745","0.0-261.0-0.0","55698530","wem/bandit_either","A2DWQF4ZHHBLOW","either","5","","","","","","","1","0","0","0.3864421123","","0.8","0.2","0.6","0.4","","","","","0.3864421123","0.1654407056","0.3267284332","0.2424821827","","","","","","","72","H","0","img/none_selected.jpg","","222","main_expt"
"282","","bandit","301","774539","0.0-262.0-0.0","55698530","wem/bandit_either","A2DWQF4ZHHBLOW","either","5","","","","","","","0","0","1","0.4205211408","","0.8","0.2","0.6","0.4","","","","","0.4205211408","0.1788325852","0.3175152631","0.2595367495","","","","","","","72","H","0","img/none_selected.jpg","","223","main_expt"
"97","","bandit","302","776150","0.0-263.0-0.0","55698530","wem/bandit_either","A2DWQF4ZHHBLOW","either","5","","","","","","","0","1","0","","0.4131889957","0.8","0.2","0.6","0.4","0.4131889957","0.1736623033","0.3192400935","0.328819141","","","","","","","","","","","72","H","0","img/none_selected.jpg","","224","main_expt"
"117","","bandit","303","777779","0.0-264.0-0.0","55698530","wem/bandit_either","A2DWQF4ZHHBLOW","either","5","","","","","","","0","1","0","","0.4001513574","0.8","0.2","0.6","0.4","0.4001513574","0.1721911447","0.3096750449","0.356121412","","","","","","","","","","","72","H","0","img/none_selected.jpg","","225","main_expt"
"1932","","bandit","304","781224","0.0-265.0-0.0","55698530","wem/bandit_either","A2DWQF4ZHHBLOW","either","5","","","","","","","0","0","1","0.2133818582","","0.8","0.2","0.6","0.4","","","","","0.3963688582","0.2133818582","0.3142833063","0.3394019192","","","","","","","74","J","1","","","226","main_expt"
"263","","bandit","305","783002","0.0-266.0-0.0","55698530","wem/bandit_either","A2DWQF4ZHHBLOW","either","5","","","","","","","0","1","0","","0.3979714495","0.8","0.2","0.6","0.4","0.3979714495","0.2620007467","0.3096885674","0.2860553004","","","","","","","","","","","72","H","0","img/none_selected.jpg","","227","main_expt"
"1560","","bandit","306","786076","0.0-267.0-0.0","55698530","wem/bandit_either","A2DWQF4ZHHBLOW","either","5","","","","","","","0","0","1","0.3811043637","","0.8","0.2","0.6","0.4","","","","","0.3811043637","0.2961930455","0.3048295172","0.2967856672","","","","","","","72","H","0","img/none_selected.jpg","","228","main_expt"
"625","","bandit","307","788214","0.0-268.0-0.0","55698530","wem/bandit_either","A2DWQF4ZHHBLOW","either","5","","","","","","","0","0","1","0.3488149186","","0.8","0.2","0.6","0.4","","","","","0.3488149186","0.3081123415","0.2553920021","0.2857745529","","","","","","","72","H","0","img/none_selected.jpg","","229","main_expt"
"182","","bandit","308","789910","0.0-269.0-0.0","55698530","wem/bandit_either","A2DWQF4ZHHBLOW","either","5","","","","","","","0","0","1","0.2883621188","","0.8","0.2","0.6","0.4","","","","","0.2883621188","0.3027177586","0.2783794412","0.2589404948","","","","","","","72","H","0","img/none_selected.jpg","","230","main_expt"
"729","","bandit","309","792152","0.0-270.0-0.0","55698530","wem/bandit_either","A2DWQF4ZHHBLOW","either","5","","","","","","","0","0","1","0.2444465504","","0.8","0.2","0.6","0.4","","","","","0.2444465504","0.2495346478","0.2735536708","0.2628441024","","","","","","","72","H","0","img/none_selected.jpg","","231","main_expt"
"2192","","bandit","310","795857","0.0-271.0-0.0","55698530","wem/bandit_either","A2DWQF4ZHHBLOW","either","5","","","","","","","0","0","1","0.2996930955","","0.8","0.2","0.6","0.4","","","","","0.2996930955","0.2185872191","0.2262440502","0.276537748","","","","","","","72","H","0","img/none_selected.jpg","","232","main_expt"
"851","","bandit","311","798222","0.0-272.0-0.0","55698530","wem/bandit_either","A2DWQF4ZHHBLOW","either","5","","","","","","","0","0","1","0.3103031796","","0.8","0.2","0.6","0.4","","","","","0.3103031796","0.1874863907","0.2171974885","0.2485723575","","","","","","","72","H","0","img/none_selected.jpg","","233","main_expt"
"285","","bandit","312","800023","0.0-273.0-0.0","55698530","wem/bandit_either","A2DWQF4ZHHBLOW","either","5","","","","","","","0","0","1","0.2971988612","","0.8","0.2","0.6","0.4","","","","","0.2971988612","0.2165838284","0.2951485073","0.2172766866","","","","","","","72","H","0","img/none_selected.jpg","","234","main_expt"
"487","","bandit","313","802025","0.0-274.0-0.0","55698530","wem/bandit_either","A2DWQF4ZHHBLOW","either","5","","","","","","","0","0","1","","0.1791302586","0.8","0.2","0.6","0.4","0.3266576642","0.1791302586","0.3135740045","0.221542824","","","","","","","","","","","74","J","1","","","235","main_expt"
"549","","bandit","314","804087","0.0-275.0-0.0","55698530","wem/bandit_either","A2DWQF4ZHHBLOW","either","5","","","","","","","0","0","1","","0.2463713802","0.8","0.2","0.6","0.4","0.3596878827","0.2463713802","0.2945285262","0.2200573756","","","","","","","","","","","74","J","1","","","236","main_expt"
"1372","","bandit","315","806975","0.0-276.0-0.0","55698530","wem/bandit_either","A2DWQF4ZHHBLOW","either","5","","","","","","","0","0","1","","0.2204623923","0.8","0.2","0.6","0.4","0.3951370387","0.2204623923","0.2797454337","0.2146478317","","","","","","","","","","","74","J","1","","","237","main_expt"
"163","","bandit","316","808653","0.0-277.0-0.0","55698530","wem/bandit_either","A2DWQF4ZHHBLOW","either","5","","","","","","","0","0","1","","0.2316256556","0.8","0.2","0.6","0.4","0.3863552979","0.2316256556","0.266453507","0.2237656472","","","","","","","","","","","74","J","1","","","238","main_expt"
"1280","","bandit","317","811447","0.0-278.0-0.0","55698530","wem/bandit_either","A2DWQF4ZHHBLOW","either","5","","","","","","","0","1","0","","0.3962704677","0.8","0.2","0.6","0.4","0.3962704677","0.2406304147","0.310831157","0.2302611888","","","","","","","","","","","72","H","0","img/none_selected.jpg","","239","main_expt"
"1062","","bandit","318","814027","0.0-279.0-0.0","55698530","wem/bandit_either","A2DWQF4ZHHBLOW","either","5","","","","","","","1","0","0","0.3926977495","","0.8","0.2","0.6","0.4","","","","","0.3926977495","0.2624476398","0.331950591","0.2253069634","","","","","","","72","H","0","img/none_selected.jpg","","240","main_expt"
"103","","bandit","319","815644","0.0-280.0-0.0","55698530","wem/bandit_either","A2DWQF4ZHHBLOW","either","5","","","","","","","0","0","1","0.3381110468","","0.8","0.2","0.6","0.4","","","","","0.3381110468","0.2627099727","0.3223776605","0.2523404353","","","","","","","72","H","0","img/none_selected.jpg","","241","main_expt"
"1101","","bandit","320","818262","0.0-281.0-0.0","55698530","wem/bandit_either","A2DWQF4ZHHBLOW","either","5","","","","","","","1","0","0","0.3213381148","","0.8","0.2","0.6","0.4","","","","","0.3213381148","0.2262339403","0.3389272588","0.238450381","","","","","","","72","H","0","img/none_selected.jpg","","242","main_expt"
"750","","bandit","321","820528","0.0-282.0-0.0","55698530","wem/bandit_either","A2DWQF4ZHHBLOW","either","5","","","","","","","0","0","1","0.3395415742","","0.8","0.2","0.6","0.4","","","","","0.3395415742","0.2511573395","0.4023830898","0.2476478509","","","","","","","72","H","0","img/none_selected.jpg","","243","main_expt"
"1659","","bandit","322","823700","0.0-283.0-0.0","55698530","wem/bandit_either","A2DWQF4ZHHBLOW","either","5","","","","","","","0","1","0","","0.3077285799","0.8","0.2","0.6","0.4","0.3077285799","0.3112309098","0.4072225753","0.2603762171","","","","","","","","","","","72","H","0","img/none_selected.jpg","","244","main_expt"
"135","","bandit","323","825350","0.0-284.0-0.0","55698530","wem/bandit_either","A2DWQF4ZHHBLOW","either","5","","","","","","","0","0","1","0.269997398","","0.8","0.2","0.6","0.4","","","","","0.269997398","0.3169667097","0.4047901721","0.2778117757","","","","","","","72","H","0","img/none_selected.jpg","","245","main_expt"
"382","","bandit","324","827249","0.0-285.0-0.0","55698530","wem/bandit_either","A2DWQF4ZHHBLOW","either","5","","","","","","","0","0","1","0.2896792764","","0.8","0.2","0.6","0.4","","","","","0.2896792764","0.3774934029","0.4245844383","0.2571702875","","","","","","","72","H","0","img/none_selected.jpg","","246","main_expt"
"1","","bandit","325","828766","0.0-286.0-0.0","55698530","wem/bandit_either","A2DWQF4ZHHBLOW","either","5","","","","","","","0","0","1","0.3079745892","","0.8","0.2","0.6","0.4","","","","","0.3079745892","0.3592590195","0.4425022826","0.2790325972","","","","","","","72","H","0","img/none_selected.jpg","","247","main_expt"
"734","","bandit","326","831014","0.0-287.0-0.0","55698530","wem/bandit_either","A2DWQF4ZHHBLOW","either","5","","","","","","","0","0","1","0.3659800935","","0.8","0.2","0.6","0.4","","","","","0.2306801962","0.3659800935","0.4454461089","0.2665328125","","","","","","","74","J","1","","","248","main_expt"
"1018","","bandit","327","833547","0.0-288.0-0.0","55698530","wem/bandit_either","A2DWQF4ZHHBLOW","either","5","","","","","","","0","0","1","0.2363838343","","0.8","0.2","0.6","0.4","","","","","0.2363838343","0.3940863056","0.4565985803","0.2666328085","","","","","","","72","H","0","img/none_selected.jpg","","249","main_expt"
"483","","bandit","328","835545","0.0-289.0-0.0","55698530","wem/bandit_either","A2DWQF4ZHHBLOW","either","5","","","","","","","0","0","1","","0.3652193683","0.8","0.2","0.6","0.4","0.2865845142","0.3652193683","0.4666950096","0.2637425143","","","","","","","","","","","74","J","1","","","250","main_expt"
