"rt","responses","trial_type","trial_index","time_elapsed","internal_node_id","subjID","study","MID","cond","drift","key_press","expt_phase","target","like","value","connected","gems","bombs","no_reward","GemPrChosen","BombPrChosen","GainOverPainPr_0","GainOverPainPr_1","GainOverPainPr_2","GainOverPainPr_3","LosePr_0","LosePr_1","LosePr_2","LosePr_3","WinPr_0","WinPr_1","WinPr_2","WinPr_3","Q0","Q1","Q2","gender","age","ethnicity","respCharCode","respKey","respChoiceNum","respChoice","practice","trial_counter","trial_label"
"3781","{""Q0"":""A2AMQX0BQZXG9N""}","survey-text","0","3794","0.0-0.0","56722591","wem/bandit_either","A2AMQX0BQZXG9N","either","4","","","","","","","","","","","","","","","","","","","","","","","","","","","","","","","","","","","",""
"8888","","text","1","13690","0.0-1.0","56722591","wem/bandit_either","A2AMQX0BQZXG9N","either","4","32","","","","","","","","","","","","","","","","","","","","","","","","","","","","","","","","","","",""
"2634","","text","2","16328","0.0-2.0","56722591","wem/bandit_either","A2AMQX0BQZXG9N","either","4","32","","","","","","","","","","","","","","","","","","","","","","","","","","","","","","","","","","",""
"15814","","text","3","32145","0.0-3.0","56722591","wem/bandit_either","A2AMQX0BQZXG9N","either","4","32","","","","","","","","","","","","","","","","","","","","","","","","","","","","","","","","","","",""
"8376","","text","4","40525","0.0-4.0","56722591","wem/bandit_either","A2AMQX0BQZXG9N","either","4","32","","","","","","","","","","","","","","","","","","","","","","","","","","","","","","","","","","",""
"14446","","text","5","54974","0.0-5.0","56722591","wem/bandit_either","A2AMQX0BQZXG9N","either","4","32","","","","","","","","","","","","","","","","","","","","","","","","","","","","","","","","","","",""
"7629","","text","6","62605","0.0-6.0","56722591","wem/bandit_either","A2AMQX0BQZXG9N","either","4","32","","","","","","","","","","","","","","","","","","","","","","","","","","","","","","","","","","",""
"3608","","text","7","66215","0.0-7.0","56722591","wem/bandit_either","A2AMQX0BQZXG9N","either","4","32","","","","","","","","","","","","","","","","","","","","","","","","","","","","","","","","","","",""
"10851","","identification","8","77101","0.0-8.0-0.0","56722591","wem/bandit_either","A2AMQX0BQZXG9N","either","4","","identification_pre","the village of Zur","","","","","","","","","","","","","","","","","","","","","","","","","","","","","","","","",""
"4471","","identification","9","82606","0.0-8.0-1.0","56722591","wem/bandit_either","A2AMQX0BQZXG9N","either","4","","identification_pre","the village of Nyx","","","","","","","","","","","","","","","","","","","","","","","","","","","","","","","","",""
"4912","","text","10","88521","0.0-9.0","56722591","wem/bandit_either","A2AMQX0BQZXG9N","either","4","32","","","","","","","","","","","","","","","","","","","","","","","","","","","","","","","","","","",""
"2441","","text","11","90966","0.0-10.0","56722591","wem/bandit_either","A2AMQX0BQZXG9N","either","4","32","","","","","","","","","","","","","","","","","","","","","","","","","","","","","","","","","","",""
"2333","","text","12","93302","0.0-11.0","56722591","wem/bandit_either","A2AMQX0BQZXG9N","either","4","32","","","","","","","","","","","","","","","","","","","","","","","","","","","","","","","","","","",""
"3052","","text","13","96357","0.0-12.0","56722591","wem/bandit_either","A2AMQX0BQZXG9N","either","4","32","","","","","","","","","","","","","","","","","","","","","","","","","","","","","","","","","","",""
"2857","","bandit","14","100734","0.0-13.0-0.0","56722591","wem/bandit_either","A2AMQX0BQZXG9N","either","4","","","","","","","0","0","1","0","0","","","","","0","","","","0","","","","","","","","","","74","J","0","img/none_selected_demo.jpg","true","0",""
"1705","","bandit","15","103949","0.0-14.0-0.0","56722591","wem/bandit_either","A2AMQX0BQZXG9N","either","4","","","","","","","0","0","1","0","0","","","","","0","","","","0","","","","","","","","","","75","K","0","img/none_selected_demo.jpg","true","0",""
"12557","","text","16","116509","0.0-15.0","56722591","wem/bandit_either","A2AMQX0BQZXG9N","either","4","32","","","","","","","","","","","","","","","","","","","","","","","","","","","","","","","","","","",""
"10339","","text","17","126853","0.0-16.0","56722591","wem/bandit_either","A2AMQX0BQZXG9N","either","4","32","","","","","","","","","","","","","","","","","","","","","","","","","","","","","","","","","","",""
"4629","","text","18","131485","0.0-17.0","56722591","wem/bandit_either","A2AMQX0BQZXG9N","either","4","32","","","","","","","","","","","","","","","","","","","","","","","","","","","","","","","","","","",""
"3397","","text","19","134885","0.0-18.0","56722591","wem/bandit_either","A2AMQX0BQZXG9N","either","4","32","","","","","","","","","","","","","","","","","","","","","","","","","","","","","","","","","","",""
"1572","","bandit","20","137997","0.0-19.0-0.0","56722591","wem/bandit_either","A2AMQX0BQZXG9N","either","4","","","","","","","1","0","0","0.2","","0.5","0.5","","","","","","","0.8","0.2","","","","","","","","","75","K","1","","true","0","80_20_practice"
"1012","","bandit","21","140528","0.0-19.0-1.0","56722591","wem/bandit_either","A2AMQX0BQZXG9N","either","4","","","","","","","0","0","1","","0.2","0.5","0.5","","","0.8","0.2","","","","","","","","","","","","","75","K","1","","true","0","80_20_practice"
"686","","bandit","22","142724","0.0-19.0-2.0","56722591","wem/bandit_either","A2AMQX0BQZXG9N","either","4","","","","","","","0","0","1","0.2","","0.5","0.5","","","","","","","0.8","0.2","","","","","","","","","75","K","1","","true","0","80_20_practice"
"482","","bandit","23","144719","0.0-19.0-3.0","56722591","wem/bandit_either","A2AMQX0BQZXG9N","either","4","","","","","","","1","0","0","0.2","","0.5","0.5","","","","","","","0.8","0.2","","","","","","","","","75","K","1","","true","0","80_20_practice"
"694","","bandit","24","146922","0.0-19.0-4.0","56722591","wem/bandit_either","A2AMQX0BQZXG9N","either","4","","","","","","","0","0","1","","0.2","0.5","0.5","","","0.8","0.2","","","","","","","","","","","","","75","K","1","","true","0","80_20_practice"
"476","","bandit","25","148911","0.0-19.0-5.0","56722591","wem/bandit_either","A2AMQX0BQZXG9N","either","4","","","","","","","0","0","1","0.2","","0.5","0.5","","","","","","","0.8","0.2","","","","","","","","","75","K","1","","true","0","80_20_practice"
"433","","bandit","26","150852","0.0-19.0-6.0","56722591","wem/bandit_either","A2AMQX0BQZXG9N","either","4","","","","","","","0","0","1","","0.2","0.5","0.5","","","0.8","0.2","","","","","","","","","","","","","75","K","1","","true","0","80_20_practice"
"376","","bandit","27","152742","0.0-19.0-7.0","56722591","wem/bandit_either","A2AMQX0BQZXG9N","either","4","","","","","","","0","0","1","","0.2","0.5","0.5","","","0.8","0.2","","","","","","","","","","","","","75","K","1","","true","0","80_20_practice"
"382","","bandit","28","154647","0.0-19.0-8.0","56722591","wem/bandit_either","A2AMQX0BQZXG9N","either","4","","","","","","","0","0","1","0.2","","0.5","0.5","","","","","","","0.8","0.2","","","","","","","","","75","K","1","","true","0","80_20_practice"
"351","","bandit","29","156508","0.0-19.0-9.0","56722591","wem/bandit_either","A2AMQX0BQZXG9N","either","4","","","","","","","0","0","1","","0.2","0.5","0.5","","","0.8","0.2","","","","","","","","","","","","","75","K","1","","true","0","80_20_practice"
"323","","bandit","30","158343","0.0-19.0-10.0","56722591","wem/bandit_either","A2AMQX0BQZXG9N","either","4","","","","","","","0","0","1","","0.2","0.5","0.5","","","0.8","0.2","","","","","","","","","","","","","75","K","1","","true","0","80_20_practice"
"361","","bandit","31","160214","0.0-19.0-11.0","56722591","wem/bandit_either","A2AMQX0BQZXG9N","either","4","","","","","","","0","0","1","0.2","","0.5","0.5","","","","","","","0.8","0.2","","","","","","","","","75","K","1","","true","0","80_20_practice"
"409","","bandit","32","162134","0.0-19.0-12.0","56722591","wem/bandit_either","A2AMQX0BQZXG9N","either","4","","","","","","","0","0","1","0.2","","0.5","0.5","","","","","","","0.8","0.2","","","","","","","","","75","K","1","","true","0","80_20_practice"
"342","","bandit","33","163992","0.0-19.0-13.0","56722591","wem/bandit_either","A2AMQX0BQZXG9N","either","4","","","","","","","1","0","0","0.2","","0.5","0.5","","","","","","","0.8","0.2","","","","","","","","","75","K","1","","true","0","80_20_practice"
"363","","bandit","34","165874","0.0-19.0-14.0","56722591","wem/bandit_either","A2AMQX0BQZXG9N","either","4","","","","","","","0","0","1","0.2","","0.5","0.5","","","","","","","0.8","0.2","","","","","","","","","75","K","1","","true","0","80_20_practice"
"324","","bandit","35","167708","0.0-19.0-15.0","56722591","wem/bandit_either","A2AMQX0BQZXG9N","either","4","","","","","","","0","1","0","","0.2","0.5","0.5","","","0.8","0.2","","","","","","","","","","","","","75","K","1","","true","0","80_20_practice"
"634","","bandit","36","169851","0.0-19.0-16.0","56722591","wem/bandit_either","A2AMQX0BQZXG9N","either","4","","","","","","","1","0","0","0.8","","0.5","0.5","","","","","","","0.8","0.2","","","","","","","","","74","J","0","img/none_selected_demo.jpg","true","0","80_20_practice"
"370","","bandit","37","171733","0.0-19.0-17.0","56722591","wem/bandit_either","A2AMQX0BQZXG9N","either","4","","","","","","","0","0","1","0.8","","0.5","0.5","","","","","","","0.8","0.2","","","","","","","","","74","J","0","img/none_selected_demo.jpg","true","0","80_20_practice"
"438","","bandit","38","173691","0.0-19.0-18.0","56722591","wem/bandit_either","A2AMQX0BQZXG9N","either","4","","","","","","","1","0","0","0.8","","0.5","0.5","","","","","","","0.8","0.2","","","","","","","","","74","J","0","img/none_selected_demo.jpg","true","0","80_20_practice"
"370","","bandit","39","175574","0.0-19.0-19.0","56722591","wem/bandit_either","A2AMQX0BQZXG9N","either","4","","","","","","","0","0","1","","0.8","0.5","0.5","","","0.8","0.2","","","","","","","","","","","","","74","J","0","img/none_selected_demo.jpg","true","0","80_20_practice"
"4656","","text","40","180234","0.0-20.0","56722591","wem/bandit_either","A2AMQX0BQZXG9N","either","4","32","","","","","","","","","","","","","","","","","","","","","","","","","","","","","","","","","","",""
"1865","","bandit","41","183610","0.0-21.0-0.0","56722591","wem/bandit_either","A2AMQX0BQZXG9N","either","4","","","","","","","1","0","0","1","0","","","","","0","1","","","1","0","","","","","","","","","74","J","0","img/none_selected_demo.jpg","true","0",""
"5353","","text","42","188968","0.0-22.0","56722591","wem/bandit_either","A2AMQX0BQZXG9N","either","4","32","","","","","","","","","","","","","","","","","","","","","","","","","","","","","","","","","","",""
"3056","","text","43","192027","0.0-23.0","56722591","wem/bandit_either","A2AMQX0BQZXG9N","either","4","32","","","","","","","","","","","","","","","","","","","","","","","","","","","","","","","","","","",""
"2019","","text","44","194052","0.0-24.0","56722591","wem/bandit_either","A2AMQX0BQZXG9N","either","4","32","","","","","","","","","","","","","","","","","","","","","","","","","","","","","","","","","","",""
"2834","","text","45","196890","0.0-25.0","56722591","wem/bandit_either","A2AMQX0BQZXG9N","either","4","32","","","","","","","","","","","","","","","","","","","","","","","","","","","","","","","","","","",""
"5304","","text","46","202199","0.0-26.0","56722591","wem/bandit_either","A2AMQX0BQZXG9N","either","4","32","","","","","","","","","","","","","","","","","","","","","","","","","","","","","","","","","","",""
"1784","","text","47","203986","0.0-27.0","56722591","wem/bandit_either","A2AMQX0BQZXG9N","either","4","32","","","","","","","","","","","","","","","","","","","","","","","","","","","","","","","","","","",""
"2819","","text","48","206811","0.0-28.0","56722591","wem/bandit_either","A2AMQX0BQZXG9N","either","4","32","","","","","","","","","","","","","","","","","","","","","","","","","","","","","","","","","","",""
"2380","","text","49","209196","0.0-29.0","56722591","wem/bandit_either","A2AMQX0BQZXG9N","either","4","32","","","","","","","","","","","","","","","","","","","","","","","","","","","","","","","","","","",""
"3177","","text","50","212377","0.0-30.0","56722591","wem/bandit_either","A2AMQX0BQZXG9N","either","4","32","","","","","","","","","","","","","","","","","","","","","","","","","","","","","","","","","","",""
"1093","","text","51","213475","0.0-31.0","56722591","wem/bandit_either","A2AMQX0BQZXG9N","either","4","32","","","","","","","","","","","","","","","","","","","","","","","","","","","","","","","","","","",""
"2211","","text","52","215690","0.0-32.0","56722591","wem/bandit_either","A2AMQX0BQZXG9N","either","4","32","","","","","","","","","","","","","","","","","","","","","","","","","","","","","","","","","","",""
"671","","bandit","53","217876","0.0-33.0-0.0","56722591","wem/bandit_either","A2AMQX0BQZXG9N","either","4","","","","","","","0","0","1","0.2","","0.5","0.5","0.5","0.5","","","","","0.8","0.2","0.6","0.2","","","","","","","76","L","3","","true","0","full_practice"
"1368","","bandit","54","220761","0.0-33.0-1.0","56722591","wem/bandit_either","A2AMQX0BQZXG9N","either","4","","","","","","","1","0","0","0.8","","0.5","0.5","0.5","0.5","","","","","0.8","0.2","0.6","0.2","","","","","","","72","H","0","img/none_selected.jpg","true","0","full_practice"
"1210","","bandit","55","223481","0.0-33.0-2.0","56722591","wem/bandit_either","A2AMQX0BQZXG9N","either","4","","","","","","","0","0","1","","0.6","0.5","0.5","0.5","0.5","0.8","0.2","0.6","0.2","","","","","","","","","","","75","K","2","","true","0","full_practice"
"635","","bandit","56","225630","0.0-33.0-3.0","56722591","wem/bandit_either","A2AMQX0BQZXG9N","either","4","","","","","","","0","0","1","0.2","","0.5","0.5","0.5","0.5","","","","","0.8","0.2","0.6","0.2","","","","","","","74","J","1","","true","0","full_practice"
"533","","bandit","57","227675","0.0-33.0-4.0","56722591","wem/bandit_either","A2AMQX0BQZXG9N","either","4","","","","","","","0","0","1","0.6","","0.5","0.5","0.5","0.5","","","","","0.8","0.2","0.6","0.2","","","","","","","75","K","2","","true","0","full_practice"
"340","","bandit","58","229554","0.0-33.0-5.0","56722591","wem/bandit_either","A2AMQX0BQZXG9N","either","4","","","","","","","0","0","1","0.2","","0.5","0.5","0.5","0.5","","","","","0.8","0.2","0.6","0.2","","","","","","","76","L","3","","true","0","full_practice"
"457","","bandit","59","231522","0.0-33.0-6.0","56722591","wem/bandit_either","A2AMQX0BQZXG9N","either","4","","","","","","","0","1","0","","0.8","0.5","0.5","0.5","0.5","0.8","0.2","0.6","0.2","","","","","","","","","","","72","H","0","img/none_selected.jpg","true","0","full_practice"
"449","","bandit","60","233487","0.0-33.0-7.0","56722591","wem/bandit_either","A2AMQX0BQZXG9N","either","4","","","","","","","0","0","1","0.2","","0.5","0.5","0.5","0.5","","","","","0.8","0.2","0.6","0.2","","","","","","","74","J","1","","true","0","full_practice"
"549","","bandit","61","235545","0.0-33.0-8.0","56722591","wem/bandit_either","A2AMQX0BQZXG9N","either","4","","","","","","","0","0","1","","0.2","0.5","0.5","0.5","0.5","0.8","0.2","0.6","0.2","","","","","","","","","","","74","J","1","","true","0","full_practice"
"461","","bandit","62","237525","0.0-33.0-9.0","56722591","wem/bandit_either","A2AMQX0BQZXG9N","either","4","","","","","","","1","0","0","0.6","","0.5","0.5","0.5","0.5","","","","","0.8","0.2","0.6","0.2","","","","","","","75","K","2","","true","0","full_practice"
"712","","bandit","63","239753","0.0-33.0-10.0","56722591","wem/bandit_either","A2AMQX0BQZXG9N","either","4","","","","","","","0","1","0","","0.6","0.5","0.5","0.5","0.5","0.8","0.2","0.6","0.2","","","","","","","","","","","75","K","2","","true","0","full_practice"
"329","","bandit","64","241594","0.0-33.0-11.0","56722591","wem/bandit_either","A2AMQX0BQZXG9N","either","4","","","","","","","0","0","1","","0.2","0.5","0.5","0.5","0.5","0.8","0.2","0.6","0.2","","","","","","","","","","","76","L","3","","true","0","full_practice"
"396","","bandit","65","243505","0.0-33.0-12.0","56722591","wem/bandit_either","A2AMQX0BQZXG9N","either","4","","","","","","","0","0","1","0.2","","0.5","0.5","0.5","0.5","","","","","0.8","0.2","0.6","0.2","","","","","","","76","L","3","","true","0","full_practice"
"515","","bandit","66","245529","0.0-33.0-13.0","56722591","wem/bandit_either","A2AMQX0BQZXG9N","either","4","","","","","","","0","0","1","","0.2","0.5","0.5","0.5","0.5","0.8","0.2","0.6","0.2","","","","","","","","","","","76","L","3","","true","0","full_practice"
"457","","bandit","67","247502","0.0-33.0-14.0","56722591","wem/bandit_either","A2AMQX0BQZXG9N","either","4","","","","","","","0","0","1","0.2","","0.5","0.5","0.5","0.5","","","","","0.8","0.2","0.6","0.2","","","","","","","76","L","3","","true","0","full_practice"
"440","","bandit","68","249457","0.0-33.0-15.0","56722591","wem/bandit_either","A2AMQX0BQZXG9N","either","4","","","","","","","0","0","1","0.2","","0.5","0.5","0.5","0.5","","","","","0.8","0.2","0.6","0.2","","","","","","","76","L","3","","true","0","full_practice"
"410","","bandit","69","251380","0.0-33.0-16.0","56722591","wem/bandit_either","A2AMQX0BQZXG9N","either","4","","","","","","","0","0","1","0.2","","0.5","0.5","0.5","0.5","","","","","0.8","0.2","0.6","0.2","","","","","","","76","L","3","","true","0","full_practice"
"402","","bandit","70","253297","0.0-33.0-17.0","56722591","wem/bandit_either","A2AMQX0BQZXG9N","either","4","","","","","","","0","0","1","0.2","","0.5","0.5","0.5","0.5","","","","","0.8","0.2","0.6","0.2","","","","","","","76","L","3","","true","0","full_practice"
"394","","bandit","71","255203","0.0-33.0-18.0","56722591","wem/bandit_either","A2AMQX0BQZXG9N","either","4","","","","","","","0","0","1","0.2","","0.5","0.5","0.5","0.5","","","","","0.8","0.2","0.6","0.2","","","","","","","76","L","3","","true","0","full_practice"
"348","","bandit","72","257066","0.0-33.0-19.0","56722591","wem/bandit_either","A2AMQX0BQZXG9N","either","4","","","","","","","0","0","1","","0.2","0.5","0.5","0.5","0.5","0.8","0.2","0.6","0.2","","","","","","","","","","","76","L","3","","true","0","full_practice"
"4799","","text","73","261880","0.0-34.0","56722591","wem/bandit_either","A2AMQX0BQZXG9N","either","4","32","","","","","","","","","","","","","","","","","","","","","","","","","","","","","","","","","","",""
"11757","","text","74","274645","0.0-35.0","56722591","wem/bandit_either","A2AMQX0BQZXG9N","either","4","32","","","","","","","","","","","","","","","","","","","","","","","","","","","","","","","","","","",""
"5576","","text","75","280226","0.0-36.0","56722591","wem/bandit_either","A2AMQX0BQZXG9N","either","4","32","","","","","","","","","","","","","","","","","","","","","","","","","","","","","","","","","","",""
"3602","","text","76","283833","0.0-37.0","56722591","wem/bandit_either","A2AMQX0BQZXG9N","either","4","32","","","","","","","","","","","","","","","","","","","","","","","","","","","","","","","","","","",""
"3720","","text","77","287558","0.0-38.0","56722591","wem/bandit_either","A2AMQX0BQZXG9N","either","4","32","","","","","","","","","","","","","","","","","","","","","","","","","","","","","","","","","","",""
"3015","","text","78","290577","0.0-39.0","56722591","wem/bandit_either","A2AMQX0BQZXG9N","either","4","32","","","","","","","","","","","","","","","","","","","","","","","","","","","","","","","","","","",""
"1032","","bandit","79","293124","0.0-40.0-0.0","56722591","wem/bandit_either","A2AMQX0BQZXG9N","either","4","","","","","","","0","0","1","","0.3894728165","0.2","0.6","0.8","0.4","0.3525715257","0.2771551185","0.3242650943","0.3894728165","","","","","","","","","","","76","L","3","","","1","main_expt"
"487","","bandit","80","295162","0.0-41.0-0.0","56722591","wem/bandit_either","A2AMQX0BQZXG9N","either","4","","","","","","","1","0","0","0.3296228245","","0.2","0.6","0.8","0.4","","","","","0.390153736","0.3030893157","0.3296228245","0.363660736","","","","","","","75","K","2","","","2","main_expt"
"374","","bandit","81","297070","0.0-42.0-0.0","56722591","wem/bandit_either","A2AMQX0BQZXG9N","either","4","","","","","","","0","0","1","0.3102780753","","0.2","0.6","0.8","0.4","","","","","0.3725447061","0.3211059343","0.3102780753","0.3842171554","","","","","","","75","K","2","","","3","main_expt"
"456","","bandit","82","299041","0.0-43.0-0.0","56722591","wem/bandit_either","A2AMQX0BQZXG9N","either","4","","","","","","","0","0","1","","0.3431524481","0.2","0.6","0.8","0.4","0.3431524481","0.2804386453","0.2749892112","0.3831963053","","","","","","","","","","","72","H","0","img/none_selected.jpg","","4","main_expt"
"465","","bandit","83","301020","0.0-44.0-0.0","56722591","wem/bandit_either","A2AMQX0BQZXG9N","either","4","","","","","","","0","1","0","","0.3448007793","0.2","0.6","0.8","0.4","0.3448007793","0.2609559086","0.3037824898","0.4056596471","","","","","","","","","","","72","H","0","img/none_selected.jpg","","5","main_expt"
"363","","bandit","84","302904","0.0-45.0-0.0","56722591","wem/bandit_either","A2AMQX0BQZXG9N","either","4","","","","","","","1","0","0","0.2259287768","","0.2","0.6","0.8","0.4","","","","","0.3980888019","0.2259287768","0.3217417103","0.4409946319","","","","","","","74","J","1","","","6","main_expt"
"425","","bandit","85","304841","0.0-46.0-0.0","56722591","wem/bandit_either","A2AMQX0BQZXG9N","either","4","","","","","","","0","0","1","0.2433618728","","0.2","0.6","0.8","0.4","","","","","0.3693121862","0.2433618728","0.3018715163","0.3821747998","","","","","","","74","J","1","","","7","main_expt"
"423","","bandit","86","306775","0.0-47.0-0.0","56722591","wem/bandit_either","A2AMQX0BQZXG9N","either","4","","","","","","","0","0","1","","0.2025356769","0.2","0.6","0.8","0.4","0.2933697555","0.2025356769","0.3643645816","0.3841844813","","","","","","","","","","","74","J","1","","","8","main_expt"
"398","","bandit","87","308708","0.0-48.0-0.0","56722591","wem/bandit_either","A2AMQX0BQZXG9N","either","4","","","","","","","0","0","1","","0.1441028094","0.2","0.6","0.8","0.4","0.3036212831","0.1441028094","0.3418610374","0.3412237964","","","","","","","","","","","74","J","1","","","9","main_expt"
"327","","bandit","88","310552","0.0-49.0-0.0","56722591","wem/bandit_either","A2AMQX0BQZXG9N","either","4","","","","","","","0","0","1","0.1736005971","","0.2","0.6","0.8","0.4","","","","","0.308020301","0.1736005971","0.3190157878","0.3256420777","","","","","","","74","J","1","","","10","main_expt"
"543","","bandit","89","312607","0.0-50.0-0.0","56722591","wem/bandit_either","A2AMQX0BQZXG9N","either","4","","","","","","","0","0","1","0.1836365694","","0.2","0.6","0.8","0.4","","","","","0.3065973113","0.1836365694","0.2998731478","0.3514007431","","","","","","","74","J","1","","","11","main_expt"
"230","","bandit","90","314367","0.0-51.0-0.0","56722591","wem/bandit_either","A2AMQX0BQZXG9N","either","4","","","","","","","0","0","1","0.2143869662","","0.2","0.6","0.8","0.4","","","","","0.3271859636","0.2143869662","0.2942822571","0.3722032088","","","","","","","74","J","1","","","12","main_expt"
"312","","bandit","91","316195","0.0-52.0-0.0","56722591","wem/bandit_either","A2AMQX0BQZXG9N","either","4","","","","","","","0","0","1","0.1637139448","","0.2","0.6","0.8","0.4","","","","","0.2761076709","0.1637139448","0.3009212619","0.3681707299","","","","","","","74","J","1","","","13","main_expt"
"309","","bandit","92","318036","0.0-53.0-0.0","56722591","wem/bandit_either","A2AMQX0BQZXG9N","either","4","","","","","","","0","0","1","0.1488535162","","0.2","0.6","0.8","0.4","","","","","0.2311164494","0.1488535162","0.3227424667","0.3528222564","","","","","","","74","J","1","","","14","main_expt"
"331","","bandit","93","319880","0.0-54.0-0.0","56722591","wem/bandit_either","A2AMQX0BQZXG9N","either","4","","","","","","","0","0","1","0.1332411271","","0.2","0.6","0.8","0.4","","","","","0.2905977425","0.1332411271","0.3547546862","0.3738838661","","","","","","","74","J","1","","","15","main_expt"
"258","","bandit","94","321648","0.0-55.0-0.0","56722591","wem/bandit_either","A2AMQX0BQZXG9N","either","4","","","","","","","0","0","1","","0.09882415698","0.2","0.6","0.8","0.4","0.2924554969","0.09882415698","0.3241157583","0.3385239332","","","","","","","","","","","74","J","1","","","16","main_expt"
"509","","bandit","95","323667","0.0-56.0-0.0","56722591","wem/bandit_either","A2AMQX0BQZXG9N","either","4","","","","","","","0","0","1","","0.1069157009","0.2","0.6","0.8","0.4","0.3114836302","0.1069157009","0.3363410386","0.3111355138","","","","","","","","","","","74","J","1","","","17","main_expt"
"409","","bandit","96","325593","0.0-57.0-0.0","56722591","wem/bandit_either","A2AMQX0BQZXG9N","either","4","","","","","","","0","0","1","0.134958137","","0.2","0.6","0.8","0.4","","","","","0.3215333475","0.134958137","0.3880947854","0.3487767647","","","","","","","74","J","1","","","18","main_expt"
"358","","bandit","97","327464","0.0-58.0-0.0","56722591","wem/bandit_either","A2AMQX0BQZXG9N","either","4","","","","","","","0","0","1","","0.1230418706","0.2","0.6","0.8","0.4","0.2733398822","0.1230418706","0.4116912081","0.3010303499","","","","","","","","","","","74","J","1","","","19","main_expt"
"343","","bandit","98","329319","0.0-59.0-0.0","56722591","wem/bandit_either","A2AMQX0BQZXG9N","either","4","","","","","","","0","0","1","0.3973894305","","0.2","0.6","0.8","0.4","","","","","0.2351410235","0.09866604889","0.3973894305","0.2907203997","","","","","","","75","K","2","","","20","main_expt"
"417","","bandit","99","331258","0.0-60.0-0.0","56722591","wem/bandit_either","A2AMQX0BQZXG9N","either","4","","","","","","","0","0","1","0.1021222834","","0.2","0.6","0.8","0.4","","","","","0.2257810982","0.1021222834","0.369037109","0.3088108907","","","","","","","74","J","1","","","21","main_expt"
"428","","bandit","100","333200","0.0-61.0-0.0","56722591","wem/bandit_either","A2AMQX0BQZXG9N","either","4","","","","","","","0","0","1","","0.1234138809","0.2","0.6","0.8","0.4","0.2221856846","0.1234138809","0.4179468344","0.349202701","","","","","","","","","","","74","J","1","","","22","main_expt"
"488","","bandit","101","335201","0.0-62.0-0.0","56722591","wem/bandit_either","A2AMQX0BQZXG9N","either","4","","","","","","","0","1","0","","0.3785068464","0.2","0.6","0.8","0.4","0.2127124712","0.1030640584","0.4276062926","0.3785068464","","","","","","","","","","","76","L","3","","","23","main_expt"
"1428","","bandit","102","338149","0.0-63.0-0.0","56722591","wem/bandit_either","A2AMQX0BQZXG9N","either","4","","","","","","","0","0","1","0.1261035851","","0.2","0.6","0.8","0.4","","","","","0.1882566648","0.1261035851","0.4078122208","0.4012919653","","","","","","","74","J","1","","","24","main_expt"
"458","","bandit","103","340127","0.0-64.0-0.0","56722591","wem/bandit_either","A2AMQX0BQZXG9N","either","4","","","","","","","1","0","0","0.1796705612","","0.2","0.6","0.8","0.4","","","","","0.1273223766","0.1796705612","0.3950411191","0.400899794","","","","","","","74","J","1","","","25","main_expt"
"450","","bandit","104","342091","0.0-65.0-0.0","56722591","wem/bandit_either","A2AMQX0BQZXG9N","either","4","","","","","","","0","0","1","0.2414651519","","0.2","0.6","0.8","0.4","","","","","0.15747458","0.2414651519","0.4322303329","0.4126274585","","","","","","","74","J","1","","","26","main_expt"
"372","","bandit","105","343984","0.0-66.0-0.0","56722591","wem/bandit_either","A2AMQX0BQZXG9N","either","4","","","","","","","1","0","0","0.4353643722","","0.2","0.6","0.8","0.4","","","","","0.1442684908","0.2005374927","0.4353643722","0.3992263875","","","","","","","75","K","2","","","27","main_expt"
"448","","bandit","106","345959","0.0-67.0-0.0","56722591","wem/bandit_either","A2AMQX0BQZXG9N","either","4","","","","","","","0","0","1","0.4464017809","","0.2","0.6","0.8","0.4","","","","","0.2255404594","0.3197257227","0.4464017809","0.3846584236","","","","","","","75","K","2","","","28","main_expt"
"351","","bandit","107","347840","0.0-68.0-0.0","56722591","wem/bandit_either","A2AMQX0BQZXG9N","either","4","","","","","","","0","0","1","0.3141869899","","0.2","0.6","0.8","0.4","","","","","0.2730951691","0.3141869899","0.4417109462","0.3561298134","","","","","","","74","J","1","","","29","main_expt"
"453","","bandit","108","349810","0.0-69.0-0.0","56722591","wem/bandit_either","A2AMQX0BQZXG9N","either","4","","","","","","","0","0","1","","0.3445991012","0.2","0.6","0.8","0.4","0.2890412698","0.3445991012","0.4065908859","0.3101363315","","","","","","","","","","","74","J","1","","","30","main_expt"
"338","","bandit","109","351664","0.0-70.0-0.0","56722591","wem/bandit_either","A2AMQX0BQZXG9N","either","4","","","","","","","0","0","1","","0.3309226042","0.2","0.6","0.8","0.4","0.3309226042","0.3456655029","0.3954582793","0.3322219809","","","","","","","","","","","72","H","0","img/none_selected.jpg","","31","main_expt"
"317","","bandit","110","353496","0.0-71.0-0.0","56722591","wem/bandit_either","A2AMQX0BQZXG9N","either","4","","","","","","","0","0","1","","0.3716723047","0.2","0.6","0.8","0.4","0.3519301717","0.3826172224","0.3716723047","0.3516269472","","","","","","","","","","","75","K","2","","","32","main_expt"
"431","","bandit","111","355452","0.0-72.0-0.0","56722591","wem/bandit_either","A2AMQX0BQZXG9N","either","4","","","","","","","1","0","0","0.3799724366","","0.2","0.6","0.8","0.4","","","","","0.3414953842","0.3804083149","0.3799724366","0.3852085553","","","","","","","75","K","2","","","33","main_expt"
"344","","bandit","112","357310","0.0-73.0-0.0","56722591","wem/bandit_either","A2AMQX0BQZXG9N","either","4","","","","","","","0","0","1","0.409480615","","0.2","0.6","0.8","0.4","","","","","0.2938412915","0.3808178469","0.409480615","0.4196644934","","","","","","","75","K","2","","","34","main_expt"
"395","","bandit","113","359215","0.0-74.0-0.0","56722591","wem/bandit_either","A2AMQX0BQZXG9N","either","4","","","","","","","0","0","1","","0.376129724","0.2","0.6","0.8","0.4","0.2256616696","0.376129724","0.3869649509","0.420891004","","","","","","","","","","","74","J","1","","","35","main_expt"
"347","","bandit","114","361078","0.0-75.0-0.0","56722591","wem/bandit_either","A2AMQX0BQZXG9N","either","4","","","","","","","0","0","1","0.3045389962","","0.2","0.6","0.8","0.4","","","","","0.2525957923","0.4027809904","0.3045389962","0.3808881167","","","","","","","75","K","2","","","36","main_expt"
"313","","bandit","115","362903","0.0-76.0-0.0","56722591","wem/bandit_either","A2AMQX0BQZXG9N","either","4","","","","","","","0","0","1","0.3715556026","","0.2","0.6","0.8","0.4","","","","","0.2333373749","0.3715556026","0.2954217214","0.3634360393","","","","","","","74","J","1","","","37","main_expt"
"401","","bandit","116","364816","0.0-77.0-0.0","56722591","wem/bandit_either","A2AMQX0BQZXG9N","either","4","","","","","","","0","0","1","0.354842885","","0.2","0.6","0.8","0.4","","","","","0.2126884676","0.354842885","0.2749906923","0.3432691328","","","","","","","74","J","1","","","38","main_expt"
"265","","bandit","117","366618","0.0-78.0-0.0","56722591","wem/bandit_either","A2AMQX0BQZXG9N","either","4","","","","","","","0","0","1","0.2911873598","","0.2","0.6","0.8","0.4","","","","","0.212498526","0.3066825603","0.2911873598","0.3113322025","","","","","","","75","K","2","","","39","main_expt"
"405","","bandit","118","368537","0.0-79.0-0.0","56722591","wem/bandit_either","A2AMQX0BQZXG9N","either","4","","","","","","","0","0","1","0.3066149412","","0.2","0.6","0.8","0.4","","","","","0.2031275136","0.3208648015","0.3066149412","0.3298138996","","","","","","","75","K","2","","","40","main_expt"
"397","","bandit","119","370451","0.0-80.0-0.0","56722591","wem/bandit_either","A2AMQX0BQZXG9N","either","4","","","","","","","0","1","0","","0.2774570704","0.2","0.6","0.8","0.4","0.2409224204","0.2774570704","0.2612722093","0.3590557929","","","","","","","","","","","74","J","1","","","41","main_expt"
"618","","bandit","120","372582","0.0-81.0-0.0","56722591","wem/bandit_either","A2AMQX0BQZXG9N","either","4","","","","","","","0","0","1","0.2579482203","","0.2","0.6","0.8","0.4","","","","","0.2166695961","0.3092882543","0.2579482203","0.3455434044","","","","","","","75","K","2","","","42","main_expt"
"422","","bandit","121","374519","0.0-82.0-0.0","56722591","wem/bandit_either","A2AMQX0BQZXG9N","either","4","","","","","","","0","0","1","0.2232302517","","0.2","0.6","0.8","0.4","","","","","0.2314197793","0.3161251671","0.2232302517","0.4020043176","","","","","","","75","K","2","","","43","main_expt"
"405","","bandit","122","376438","0.0-83.0-0.0","56722591","wem/bandit_either","A2AMQX0BQZXG9N","either","4","","","","","","","0","0","1","","0.2435669349","0.2","0.6","0.8","0.4","0.1889371852","0.3032549762","0.2435669349","0.4088695108","","","","","","","","","","","75","K","2","","","44","main_expt"
"343","","bandit","123","378293","0.0-84.0-0.0","56722591","wem/bandit_either","A2AMQX0BQZXG9N","either","4","","","","","","","0","0","1","0.1885724617","","0.2","0.6","0.8","0.4","","","","","0.2152104473","0.3012359134","0.1885724617","0.3914045207","","","","","","","75","K","2","","","45","main_expt"
"582","","bandit","124","380390","0.0-85.0-0.0","56722591","wem/bandit_either","A2AMQX0BQZXG9N","either","4","","","","","","","0","0","1","","0.2260726972","0.2","0.6","0.8","0.4","0.2260726972","0.2994346937","0.104230756","0.3682142312","","","","","","","","","","","72","H","0","img/none_selected.jpg","","46","main_expt"
"462","","bandit","125","382367","0.0-86.0-0.0","56722591","wem/bandit_either","A2AMQX0BQZXG9N","either","4","","","","","","","0","0","1","0.3462276735","","0.2","0.6","0.8","0.4","","","","","0.2330399618","0.3169549043","0.09013225529","0.3462276735","","","","","","","76","L","3","","","47","main_expt"
"575","","bandit","126","384459","0.0-87.0-0.0","56722591","wem/bandit_either","A2AMQX0BQZXG9N","either","4","","","","","","","0","0","1","0.2769685944","","0.2","0.6","0.8","0.4","","","","","0.2769685944","0.3137179834","0.1066227192","0.3501405617","","","","","","","72","H","0","img/none_selected.jpg","","48","main_expt"
"436","","bandit","127","386408","0.0-88.0-0.0","56722591","wem/bandit_either","A2AMQX0BQZXG9N","either","4","","","","","","","0","0","1","0.1273062614","","0.2","0.6","0.8","0.4","","","","","0.2954986192","0.3026837323","0.1273062614","0.3607669766","","","","","","","75","K","2","","","49","main_expt"
"465","","bandit","128","388399","0.0-89.0-0.0","56722591","wem/bandit_either","A2AMQX0BQZXG9N","either","4","","","","","","","0","0","1","0.08158159543","","0.2","0.6","0.8","0.4","","","","","0.2730110453","0.2690248343","0.08158159543","0.3776327681","","","","","","","75","K","2","","","50","main_expt"
"395","","bandit","129","390311","0.0-90.0-0.0","56722591","wem/bandit_either","A2AMQX0BQZXG9N","either","4","","","","","","","0","0","1","0.08035098666","","0.2","0.6","0.8","0.4","","","","","0.2672659715","0.2407215714","0.08035098666","0.3922012959","","","","","","","75","K","2","","","51","main_expt"
"515","","bandit","130","392400","0.0-91.0-0.0","56722591","wem/bandit_either","A2AMQX0BQZXG9N","either","4","","","","","","","0","0","1","","0.1007468434","0.2","0.6","0.8","0.4","0.2552972095","0.2758158767","0.1007468434","0.3532085343","","","","","","","","","","","75","K","2","","","52","main_expt"
"457","","bandit","131","394390","0.0-92.0-0.0","56722591","wem/bandit_either","A2AMQX0BQZXG9N","either","4","","","","","","","0","0","1","0.1479770317","","0.2","0.6","0.8","0.4","","","","","0.1954439593","0.2661511239","0.1479770317","0.3597378762","","","","","","","75","K","2","","","53","main_expt"
"580","","bandit","132","396507","0.0-93.0-0.0","56722591","wem/bandit_either","A2AMQX0BQZXG9N","either","4","","","","","","","0","0","1","","0.1450389045","0.2","0.6","0.8","0.4","0.1250298759","0.250303373","0.1450389045","0.3553644404","","","","","","","","","","","75","K","2","","","54","main_expt"
"569","","bandit","133","398592","0.0-94.0-0.0","56722591","wem/bandit_either","A2AMQX0BQZXG9N","either","4","","","","","","","0","0","1","","0.1224949652","0.2","0.6","0.8","0.4","0.1224949652","0.1850572083","0.1678096349","0.3427354451","","","","","","","","","","","72","H","0","img/none_selected.jpg","","55","main_expt"
"494","","bandit","134","400602","0.0-95.0-0.0","56722591","wem/bandit_either","A2AMQX0BQZXG9N","either","4","","","","","","","0","0","1","","0.3158877586","0.2","0.6","0.8","0.4","0.1312048923","0.2410157884","0.1748395718","0.3158877586","","","","","","","","","","","76","L","3","","","56","main_expt"
"549","","bandit","135","402664","0.0-96.0-0.0","56722591","wem/bandit_either","A2AMQX0BQZXG9N","either","4","","","","","","","0","1","0","","0.3224611445","0.2","0.6","0.8","0.4","0.14452077","0.2657224069","0.146986137","0.3224611445","","","","","","","","","","","76","L","3","","","57","main_expt"
"412","","bandit","136","404592","0.0-97.0-0.0","56722591","wem/bandit_either","A2AMQX0BQZXG9N","either","4","","","","","","","0","0","1","","0.1198415177","0.2","0.6","0.8","0.4","0.1198415177","0.2361308133","0.1316135006","0.3378672788","","","","","","","","","","","72","H","0","img/none_selected.jpg","","58","main_expt"
"463","","bandit","137","406569","0.0-98.0-0.0","56722591","wem/bandit_either","A2AMQX0BQZXG9N","either","4","","","","","","","0","0","1","0.1674914914","","0.2","0.6","0.8","0.4","","","","","0.1674914914","0.2078360154","0.1776120447","0.3438075972","","","","","","","72","H","0","img/none_selected.jpg","","59","main_expt"
"379","","bandit","138","408488","0.0-99.0-0.0","56722591","wem/bandit_either","A2AMQX0BQZXG9N","either","4","","","","","","","0","0","1","0.147959707","","0.2","0.6","0.8","0.4","","","","","0.147959707","0.2256957235","0.2034864675","0.2950987239","","","","","","","72","H","0","img/none_selected.jpg","","60","main_expt"
"422","","bandit","139","410423","0.0-100.0-0.0","56722591","wem/bandit_either","A2AMQX0BQZXG9N","either","4","","","","","","","0","0","1","","0.1217284172","0.2","0.6","0.8","0.4","0.1217284172","0.2713547376","0.1325668513","0.2939622289","","","","","","","","","","","72","H","0","img/none_selected.jpg","","61","main_expt"
"432","","bandit","140","412366","0.0-101.0-0.0","56722591","wem/bandit_either","A2AMQX0BQZXG9N","either","4","","","","","","","0","0","1","","0.1392905859","0.2","0.6","0.8","0.4","0.1392905859","0.2800078023","0.125492747","0.2907096119","","","","","","","","","","","72","H","0","img/none_selected.jpg","","62","main_expt"
"425","","bandit","141","414307","0.0-102.0-0.0","56722591","wem/bandit_either","A2AMQX0BQZXG9N","either","4","","","","","","","0","0","1","0.1081989139","","0.2","0.6","0.8","0.4","","","","","0.1953314019","0.362183352","0.1081989139","0.2696382907","","","","","","","75","K","2","","","63","main_expt"
"472","","bandit","142","416294","0.0-103.0-0.0","56722591","wem/bandit_either","A2AMQX0BQZXG9N","either","4","","","","","","","0","0","1","","0.09104284411","0.2","0.6","0.8","0.4","0.2618523415","0.3354395381","0.09104284411","0.2496415039","","","","","","","","","","","75","K","2","","","64","main_expt"
"381","","bandit","143","418246","0.0-104.0-0.0","56722591","wem/bandit_either","A2AMQX0BQZXG9N","either","4","","","","","","","1","0","0","0.1264903162","","0.2","0.6","0.8","0.4","","","","","0.2686672798","0.2893845237","0.1264903162","0.2364994079","","","","","","","75","K","2","","","65","main_expt"
"371","","bandit","144","420134","0.0-105.0-0.0","56722591","wem/bandit_either","A2AMQX0BQZXG9N","either","4","","","","","","","0","0","1","0.1665937301","","0.2","0.6","0.8","0.4","","","","","0.2451656397","0.2355717356","0.1665937301","0.2541683514","","","","","","","75","K","2","","","66","main_expt"
"380","","bandit","145","422031","0.0-106.0-0.0","56722591","wem/bandit_either","A2AMQX0BQZXG9N","either","4","","","","","","","0","0","1","0.1740025863","","0.2","0.6","0.8","0.4","","","","","0.2445320338","0.2848755716","0.1740025863","0.2985471382","","","","","","","75","K","2","","","67","main_expt"
"506","","bandit","146","424054","0.0-107.0-0.0","56722591","wem/bandit_either","A2AMQX0BQZXG9N","either","4","","","","","","","0","0","1","0.2300011382","","0.2","0.6","0.8","0.4","","","","","0.2261158315","0.3341158043","0.2300011382","0.3391290389","","","","","","","75","K","2","","","68","main_expt"
"633","","bandit","147","426203","0.0-108.0-0.0","56722591","wem/bandit_either","A2AMQX0BQZXG9N","either","4","","","","","","","0","0","1","0.1768594062","","0.2","0.6","0.8","0.4","","","","","0.1627286519","0.3253412689","0.1768594062","0.3114764975","","","","","","","75","K","2","","","69","main_expt"
"402","","bandit","148","428126","0.0-109.0-0.0","56722591","wem/bandit_either","A2AMQX0BQZXG9N","either","4","","","","","","","0","0","1","0.1906145184","","0.2","0.6","0.8","0.4","","","","","0.1301009224","0.3280915152","0.1906145184","0.3056328376","","","","","","","75","K","2","","","70","main_expt"
"541","","bandit","149","430180","0.0-110.0-0.0","56722591","wem/bandit_either","A2AMQX0BQZXG9N","either","4","","","","","","","0","0","1","0.1451664327","","0.2","0.6","0.8","0.4","","","","","0.1356707761","0.3772643828","0.1451664327","0.3445325487","","","","","","","75","K","2","","","71","main_expt"
"430","","bandit","150","432126","0.0-111.0-0.0","56722591","wem/bandit_either","A2AMQX0BQZXG9N","either","4","","","","","","","0","0","1","0.1091447996","","0.2","0.6","0.8","0.4","","","","","0.1045412551","0.4074174212","0.1091447996","0.364612409","","","","","","","75","K","2","","","72","main_expt"
"519","","bandit","151","434173","0.0-112.0-0.0","56722591","wem/bandit_either","A2AMQX0BQZXG9N","either","4","","","","","","","0","0","1","0.1248737042","","0.2","0.6","0.8","0.4","","","","","0.0867882282","0.3736299767","0.1248737042","0.4454774056","","","","","","","75","K","2","","","73","main_expt"
"446","","bandit","152","436139","0.0-113.0-0.0","56722591","wem/bandit_either","A2AMQX0BQZXG9N","either","4","","","","","","","0","0","1","0.1073746888","","0.2","0.6","0.8","0.4","","","","","0.1018359722","0.383211712","0.1073746888","0.4492830973","","","","","","","75","K","2","","","74","main_expt"
"522","","bandit","153","438179","0.0-114.0-0.0","56722591","wem/bandit_either","A2AMQX0BQZXG9N","either","4","","","","","","","0","0","1","0.1051395745","","0.2","0.6","0.8","0.4","","","","","0.09443707336","0.3681962321","0.1051395745","0.449321966","","","","","","","75","K","2","","","75","main_expt"
"379","","bandit","154","440078","0.0-115.0-0.0","56722591","wem/bandit_either","A2AMQX0BQZXG9N","either","4","","","","","","","0","0","1","","0.08768691443","0.2","0.6","0.8","0.4","0.08768691443","0.3574328021","0.09171451076","0.4299726132","","","","","","","","","","","72","H","0","img/none_selected.jpg","","76","main_expt"
"420","","bandit","155","442013","0.0-116.0-0.0","56722591","wem/bandit_either","A2AMQX0BQZXG9N","either","4","","","","","","","0","0","1","","0.07744448812","0.2","0.6","0.8","0.4","0.07744448812","0.4041720962","0.1256070833","0.4349340462","","","","","","","","","","","72","H","0","img/none_selected.jpg","","77","main_expt"
"423","","bandit","156","443950","0.0-117.0-0.0","56722591","wem/bandit_either","A2AMQX0BQZXG9N","either","4","","","","","","","1","0","0","0.05712631425","","0.2","0.6","0.8","0.4","","","","","0.05712631425","0.4000946746","0.1398604905","0.4112950215","","","","","","","72","H","0","img/none_selected.jpg","","78","main_expt"
"505","","bandit","157","446009","0.0-118.0-0.0","56722591","wem/bandit_either","A2AMQX0BQZXG9N","either","4","","","","","","","0","0","1","0.03981704588","","0.2","0.6","0.8","0.4","","","","","0.03981704588","0.425248604","0.1303191282","0.4123046053","","","","","","","72","H","0","img/none_selected.jpg","","79","main_expt"
"412","","bandit","158","447941","0.0-119.0-0.0","56722591","wem/bandit_either","A2AMQX0BQZXG9N","either","4","","","","","","","0","0","1","","0.02961196177","0.2","0.6","0.8","0.4","0.02961196177","0.4263383456","0.1491340647","0.4345430878","","","","","","","","","","","72","H","0","img/none_selected.jpg","","80","main_expt"
"537","","bandit","159","449995","0.0-120.0-0.0","56722591","wem/bandit_either","A2AMQX0BQZXG9N","either","4","","","","","","","0","0","1","0.0408206899","","0.2","0.6","0.8","0.4","","","","","0.0408206899","0.4377411966","0.1484119081","0.4255274095","","","","","","","72","H","0","img/none_selected.jpg","","81","main_expt"
"376","","bandit","160","451885","0.0-121.0-0.0","56722591","wem/bandit_either","A2AMQX0BQZXG9N","either","4","","","","","","","0","0","1","0.135460029","","0.2","0.6","0.8","0.4","","","","","0.03491361241","0.4263216968","0.135460029","0.4266934287","","","","","","","75","K","2","","","82","main_expt"
"413","","bandit","161","453816","0.0-122.0-0.0","56722591","wem/bandit_either","A2AMQX0BQZXG9N","either","4","","","","","","","0","0","1","0.09497461961","","0.2","0.6","0.8","0.4","","","","","0.01881925386","0.4536492548","0.09497461961","0.4321646522","","","","","","","75","K","2","","","83","main_expt"
"636","","bandit","162","455965","0.0-123.0-0.0","56722591","wem/bandit_either","A2AMQX0BQZXG9N","either","4","","","","","","","0","0","1","0.0956585677","","0.2","0.6","0.8","0.4","","","","","0.03441768066","0.4344769981","0.0956585677","0.43129245","","","","","","","75","K","2","","","84","main_expt"
"374","","bandit","163","457864","0.0-124.0-0.0","56722591","wem/bandit_either","A2AMQX0BQZXG9N","either","4","","","","","","","0","0","1","","0.08427930603","0.2","0.6","0.8","0.4","0.04015732792","0.4167097255","0.08427930603","0.4307495417","","","","","","","","","","","75","K","2","","","85","main_expt"
"379","","bandit","164","459759","0.0-125.0-0.0","56722591","wem/bandit_either","A2AMQX0BQZXG9N","either","4","","","","","","","0","0","1","0.09540141202","","0.2","0.6","0.8","0.4","","","","","0.0462821445","0.4215971904","0.09540141202","0.4327415212","","","","","","","75","K","2","","","86","main_expt"
"688","","bandit","165","461969","0.0-126.0-0.0","56722591","wem/bandit_either","A2AMQX0BQZXG9N","either","4","","","","","","","0","0","1","","0.06504543429","0.2","0.6","0.8","0.4","0.07236867375","0.3962725568","0.06504543429","0.4507305815","","","","","","","","","","","75","K","2","","","87","main_expt"
"430","","bandit","166","463926","0.0-127.0-0.0","56722591","wem/bandit_either","A2AMQX0BQZXG9N","either","4","","","","","","","0","0","1","0.05894337134","","0.2","0.6","0.8","0.4","","","","","0.1132918069","0.4038430626","0.05894337134","0.4571393315","","","","","","","75","K","2","","","88","main_expt"
"392","","bandit","167","465842","0.0-128.0-0.0","56722591","wem/bandit_either","A2AMQX0BQZXG9N","either","4","","","","","","","0","0","1","","0.1466354559","0.2","0.6","0.8","0.4","0.1466354559","0.4247877058","0.06803635399","0.4639779763","","","","","","","","","","","72","H","0","img/none_selected.jpg","","89","main_expt"
"402","","bandit","168","467768","0.0-129.0-0.0","56722591","wem/bandit_either","A2AMQX0BQZXG9N","either","4","","","","","","","0","0","1","","0.1746819083","0.2","0.6","0.8","0.4","0.1746819083","0.4196700557","0.09657856289","0.4620017245","","","","","","","","","","","72","H","0","img/none_selected.jpg","","90","main_expt"
"2082","","bandit","169","471374","0.0-130.0-0.0","56722591","wem/bandit_either","A2AMQX0BQZXG9N","either","4","","","","","","","0","0","1","","0.4492963398","0.2","0.6","0.8","0.4","0.1864657318","0.401758082","0.08522031428","0.4492963398","","","","","","","","","","","76","L","3","","","91","main_expt"
"479","","bandit","170","473385","0.0-131.0-0.0","56722591","wem/bandit_either","A2AMQX0BQZXG9N","either","4","","","","","","","0","1","0","","0.462009279","0.2","0.6","0.8","0.4","0.2124622091","0.3422099147","0.07078380504","0.462009279","","","","","","","","","","","76","L","3","","","92","main_expt"
"1040","","bandit","171","475941","0.0-132.0-0.0","56722591","wem/bandit_either","A2AMQX0BQZXG9N","either","4","","","","","","","1","0","0","0.3279059742","","0.2","0.6","0.8","0.4","","","","","0.245786276","0.3279059742","0.0564278809","0.4363090379","","","","","","","74","J","1","","","93","main_expt"
"373","","bandit","172","477835","0.0-133.0-0.0","56722591","wem/bandit_either","A2AMQX0BQZXG9N","either","4","","","","","","","1","0","0","0.3155724737","","0.2","0.6","0.8","0.4","","","","","0.2316759231","0.3155724737","0.06067733924","0.4457519602","","","","","","","74","J","1","","","94","main_expt"
"346","","bandit","173","479694","0.0-134.0-0.0","56722591","wem/bandit_either","A2AMQX0BQZXG9N","either","4","","","","","","","0","0","1","","0.3519625041","0.2","0.6","0.8","0.4","0.2231756969","0.3519625041","0.08632751489","0.4231248902","","","","","","","","","","","74","J","1","","","95","main_expt"
"369","","bandit","174","481580","0.0-135.0-0.0","56722591","wem/bandit_either","A2AMQX0BQZXG9N","either","4","","","","","","","0","0","1","0.3661455107","","0.2","0.6","0.8","0.4","","","","","0.1957128212","0.3661455107","0.08481729553","0.4210676831","","","","","","","74","J","1","","","96","main_expt"
"355","","bandit","175","483453","0.0-136.0-0.0","56722591","wem/bandit_either","A2AMQX0BQZXG9N","either","4","","","","","","","0","0","1","","0.3558031673","0.2","0.6","0.8","0.4","0.1638116915","0.3558031673","0.08386440452","0.4022895305","","","","","","","","","","","74","J","1","","","97","main_expt"
"179","","bandit","176","485148","0.0-137.0-0.0","56722591","wem/bandit_either","A2AMQX0BQZXG9N","either","4","","","","","","","0","0","1","","0.3558230887","0.2","0.6","0.8","0.4","0.1405816365","0.3558230887","0.0940701929","0.4187351015","","","","","","","","","","","74","J","1","","","98","main_expt"
"126","","bandit","177","486792","0.0-138.0-0.0","56722591","wem/bandit_either","A2AMQX0BQZXG9N","either","4","","","","","","","0","1","0","","0.3064708089","0.2","0.6","0.8","0.4","0.1435678602","0.3064708089","0.1285058524","0.3981340028","","","","","","","","","","","74","J","1","","","99","main_expt"
"44","","bandit","178","488365","0.0-139.0-0.0","56722591","wem/bandit_either","A2AMQX0BQZXG9N","either","4","","","","","","","0","0","1","","0.3520446815","0.2","0.6","0.8","0.4","0.1478754355","0.352498313","0.065882019","0.3520446815","","","","","","","","","","","76","L","3","","","100","main_expt"
"238","","bandit","179","490117","0.0-140.0-0.0","56722591","wem/bandit_either","A2AMQX0BQZXG9N","either","4","","","","","","","0","0","1","0.05692140794","","0.2","0.6","0.8","0.4","","","","","0.1532559328","0.3511810171","0.05692140794","0.3715523215","","","","","","","75","K","2","","","101","main_expt"
"190","","bandit","180","491821","0.0-141.0-0.0","56722591","wem/bandit_either","A2AMQX0BQZXG9N","either","4","","","","","","","0","0","1","0.04322280369","","0.2","0.6","0.8","0.4","","","","","0.15857411","0.3246867477","0.04322280369","0.3966955113","","","","","","","75","K","2","","","102","main_expt"
"174","","bandit","181","493522","0.0-142.0-0.0","56722591","wem/bandit_either","A2AMQX0BQZXG9N","either","4","","","","","","","0","0","1","0.05121437093","","0.2","0.6","0.8","0.4","","","","","0.1552377357","0.2827689756","0.05121437093","0.3865714765","","","","","","","75","K","2","","","103","main_expt"
"271","","bandit","182","495310","0.0-143.0-0.0","56722591","wem/bandit_either","A2AMQX0BQZXG9N","either","4","","","","","","","0","0","1","0.06548077564","","0.2","0.6","0.8","0.4","","","","","0.1584193753","0.3307995119","0.06548077564","0.3440646931","","","","","","","75","K","2","","","104","main_expt"
"108","","bandit","183","496975","0.0-144.0-0.0","56722591","wem/bandit_either","A2AMQX0BQZXG9N","either","4","","","","","","","0","0","1","0.07577357845","","0.2","0.6","0.8","0.4","","","","","0.192058402","0.3078297571","0.07577357845","0.330981063","","","","","","","75","K","2","","","105","main_expt"
"33","","bandit","184","498524","0.0-145.0-0.0","56722591","wem/bandit_either","A2AMQX0BQZXG9N","either","4","","","","","","","0","0","1","0.09041352565","","0.2","0.6","0.8","0.4","","","","","0.1562344916","0.3202685942","0.09041352565","0.3317280627","","","","","","","75","K","2","","","106","main_expt"
"271","","bandit","185","500309","0.0-146.0-0.0","56722591","wem/bandit_either","A2AMQX0BQZXG9N","either","4","","","","","","","0","0","1","","0.1184921167","0.2","0.6","0.8","0.4","0.1493116313","0.3163418234","0.1184921167","0.2760665195","","","","","","","","","","","75","K","2","","","107","main_expt"
"282","","bandit","186","502108","0.0-147.0-0.0","56722591","wem/bandit_either","A2AMQX0BQZXG9N","either","4","","","","","","","0","0","1","0.1057615429","","0.2","0.6","0.8","0.4","","","","","0.1357435498","0.3425943818","0.1057615429","0.2826301941","","","","","","","75","K","2","","","108","main_expt"
"351","","bandit","187","503979","0.0-148.0-0.0","56722591","wem/bandit_either","A2AMQX0BQZXG9N","either","4","","","","","","","0","0","1","0.1464484126","","0.2","0.6","0.8","0.4","","","","","0.1164074326","0.2852030557","0.1464484126","0.318117281","","","","","","","75","K","2","","","109","main_expt"
"326","","bandit","188","505823","0.0-149.0-0.0","56722591","wem/bandit_either","A2AMQX0BQZXG9N","either","4","","","","","","","0","0","1","0.1641354829","","0.2","0.6","0.8","0.4","","","","","0.1444451916","0.3392406975","0.1641354829","0.3358587519","","","","","","","75","K","2","","","110","main_expt"
"304","","bandit","189","507648","0.0-150.0-0.0","56722591","wem/bandit_either","A2AMQX0BQZXG9N","either","4","","","","","","","0","0","1","0.1386891192","","0.2","0.6","0.8","0.4","","","","","0.09905323685","0.3023411017","0.1386891192","0.3031660534","","","","","","","75","K","2","","","111","main_expt"
"259","","bandit","190","509431","0.0-151.0-0.0","56722591","wem/bandit_either","A2AMQX0BQZXG9N","either","4","","","","","","","0","0","1","0.1847512065","","0.2","0.6","0.8","0.4","","","","","0.09652445584","0.296849772","0.1847512065","0.2773548355","","","","","","","75","K","2","","","112","main_expt"
"275","","bandit","191","511226","0.0-152.0-0.0","56722591","wem/bandit_either","A2AMQX0BQZXG9N","either","4","","","","","","","0","0","1","","0.1304555333","0.2","0.6","0.8","0.4","0.09961189632","0.2673419259","0.1304555333","0.2370758425","","","","","","","","","","","75","K","2","","","113","main_expt"
"248","","bandit","192","513024","0.0-153.0-0.0","56722591","wem/bandit_either","A2AMQX0BQZXG9N","either","4","","","","","","","0","0","1","","0.1770102637","0.2","0.6","0.8","0.4","0.1036139638","0.2670531803","0.1770102637","0.1821928837","","","","","","","","","","","75","K","2","","","114","main_expt"
"359","","bandit","193","514908","0.0-154.0-0.0","56722591","wem/bandit_either","A2AMQX0BQZXG9N","either","4","","","","","","","1","0","0","0.1564651975","","0.2","0.6","0.8","0.4","","","","","0.0968506792","0.2825009356","0.1564651975","0.1315453283","","","","","","","75","K","2","","","115","main_expt"
"289","","bandit","194","516717","0.0-155.0-0.0","56722591","wem/bandit_either","A2AMQX0BQZXG9N","either","4","","","","","","","1","0","0","0.1665702367","","0.2","0.6","0.8","0.4","","","","","0.08782875681","0.3237719372","0.1665702367","0.1102777544","","","","","","","75","K","2","","","116","main_expt"
"330","","bandit","195","518596","0.0-156.0-0.0","56722591","wem/bandit_either","A2AMQX0BQZXG9N","either","4","","","","","","","1","0","0","0.1530687496","","0.2","0.6","0.8","0.4","","","","","0.06031800864","0.3154846423","0.1530687496","0.1101610351","","","","","","","75","K","2","","","117","main_expt"
"369","","bandit","196","520499","0.0-157.0-0.0","56722591","wem/bandit_either","A2AMQX0BQZXG9N","either","4","","","","","","","0","0","1","0.1674206906","","0.2","0.6","0.8","0.4","","","","","0.05633053331","0.2584508078","0.1674206906","0.122460482","","","","","","","75","K","2","","","118","main_expt"
"383","","bandit","197","522402","0.0-158.0-0.0","56722591","wem/bandit_either","A2AMQX0BQZXG9N","either","4","","","","","","","0","0","1","0.1990215448","","0.2","0.6","0.8","0.4","","","","","0.07530514027","0.2141905193","0.1990215448","0.1451868924","","","","","","","75","K","2","","","119","main_expt"
"327","","bandit","198","524247","0.0-159.0-0.0","56722591","wem/bandit_either","A2AMQX0BQZXG9N","either","4","","","","","","","0","0","1","0.2208640619","","0.2","0.6","0.8","0.4","","","","","0.09639595661","0.2341954374","0.2208640619","0.09092593383","","","","","","","75","K","2","","","120","main_expt"
"453","","bandit","199","526219","0.0-160.0-0.0","56722591","wem/bandit_either","A2AMQX0BQZXG9N","either","4","","","","","","","0","0","1","0.2602917539","","0.2","0.6","0.8","0.4","","","","","0.1421799471","0.1886372651","0.2602917539","0.1080456108","","","","","","","75","K","2","","","121","main_expt"
"372","","bandit","200","528143","0.0-161.0-0.0","56722591","wem/bandit_either","A2AMQX0BQZXG9N","either","4","","","","","","","0","0","1","0.2512498235","","0.2","0.6","0.8","0.4","","","","","0.1624760489","0.1597592322","0.2512498235","0.1169053248","","","","","","","75","K","2","","","122","main_expt"
"442","","bandit","201","530112","0.0-162.0-0.0","56722591","wem/bandit_either","A2AMQX0BQZXG9N","either","4","","","","","","","0","0","1","0.2266242761","","0.2","0.6","0.8","0.4","","","","","0.1640214383","0.1895266442","0.2266242761","0.1571594809","","","","","","","75","K","2","","","123","main_expt"
"401","","bandit","202","532029","0.0-163.0-0.0","56722591","wem/bandit_either","A2AMQX0BQZXG9N","either","4","","","","","","","0","0","1","0.2373824638","","0.2","0.6","0.8","0.4","","","","","0.2014340991","0.2042850732","0.2373824638","0.2231804049","","","","","","","75","K","2","","","124","main_expt"
"512","","bandit","203","534063","0.0-164.0-0.0","56722591","wem/bandit_either","A2AMQX0BQZXG9N","either","4","","","","","","","0","0","1","0.2538727107","","0.2","0.6","0.8","0.4","","","","","0.2229229076","0.1812515389","0.2538727107","0.2232794356","","","","","","","75","K","2","","","125","main_expt"
"545","","bandit","204","536125","0.0-165.0-0.0","56722591","wem/bandit_either","A2AMQX0BQZXG9N","either","4","","","","","","","1","0","0","0.290219491","","0.2","0.6","0.8","0.4","","","","","0.2324712723","0.1694736183","0.290219491","0.2316903634","","","","","","","75","K","2","","","126","main_expt"
"463","","bandit","205","538131","0.0-166.0-0.0","56722591","wem/bandit_either","A2AMQX0BQZXG9N","either","4","","","","","","","0","1","0","","0.2542505169","0.2","0.6","0.8","0.4","0.2628391623","0.1624528765","0.2542505169","0.2337524142","","","","","","","","","","","75","K","2","","","127","main_expt"
"644","","bandit","206","540315","0.0-167.0-0.0","56722591","wem/bandit_either","A2AMQX0BQZXG9N","either","4","","","","","","","0","0","1","0.2582316027","","0.2","0.6","0.8","0.4","","","","","0.2654356302","0.1632982916","0.2582316027","0.2198210178","","","","","","","75","K","2","","","128","main_expt"
"396","","bandit","207","542268","0.0-168.0-0.0","56722591","wem/bandit_either","A2AMQX0BQZXG9N","either","4","","","","","","","0","1","0","","0.3267566011","0.2","0.6","0.8","0.4","0.2070569149","0.2264598068","0.3267566011","0.2280168395","","","","","","","","","","","75","K","2","","","129","main_expt"
"374","","bandit","208","544156","0.0-169.0-0.0","56722591","wem/bandit_either","A2AMQX0BQZXG9N","either","4","","","","","","","0","1","0","","0.2579182239","0.2","0.6","0.8","0.4","0.2579182239","0.202760285","0.3323271388","0.243895296","","","","","","","","","","","72","H","0","img/none_selected.jpg","","130","main_expt"
"127","","bandit","209","545803","0.0-170.0-0.0","56722591","wem/bandit_either","A2AMQX0BQZXG9N","either","4","","","","","","","0","0","1","0.1585094705","","0.2","0.6","0.8","0.4","","","","","0.2329110821","0.1585094705","0.2666668646","0.2164454501","","","","","","","74","J","1","","","131","main_expt"
"398","","bandit","210","547733","0.0-171.0-0.0","56722591","wem/bandit_either","A2AMQX0BQZXG9N","either","4","","","","","","","0","0","1","0.1304261544","","0.2","0.6","0.8","0.4","","","","","0.2400232435","0.1304261544","0.2359119393","0.200468731","","","","","","","74","J","1","","","132","main_expt"
"325","","bandit","211","549594","0.0-172.0-0.0","56722591","wem/bandit_either","A2AMQX0BQZXG9N","either","4","","","","","","","0","1","0","","0.09339990826","0.2","0.6","0.8","0.4","0.2084798617","0.09339990826","0.2540740643","0.2038597077","","","","","","","","","","","74","J","1","","","133","main_expt"
"369","","bandit","212","551484","0.0-173.0-0.0","56722591","wem/bandit_either","A2AMQX0BQZXG9N","either","4","","","","","","","0","0","1","0.2263269307","","0.2","0.6","0.8","0.4","","","","","0.2034544","0.08524612959","0.2414927735","0.2263269307","","","","","","","76","L","3","","","134","main_expt"
"360","","bandit","213","553363","0.0-174.0-0.0","56722591","wem/bandit_either","A2AMQX0BQZXG9N","either","4","","","","","","","0","1","0","","0.2686469146","0.2","0.6","0.8","0.4","0.2088958693","0.0622033461","0.2632369982","0.2686469146","","","","","","","","","","","76","L","3","","","135","main_expt"
"240","","bandit","214","555123","0.0-175.0-0.0","56722591","wem/bandit_either","A2AMQX0BQZXG9N","either","4","","","","","","","0","1","0","","0.2573758916","0.2","0.6","0.8","0.4","0.2573758916","0.05632890875","0.3032623762","0.3170393738","","","","","","","","","","","72","H","0","img/none_selected.jpg","","136","main_expt"
"332","","bandit","215","556970","0.0-176.0-0.0","56722591","wem/bandit_either","A2AMQX0BQZXG9N","either","4","","","","","","","0","0","1","0.06052980877","","0.2","0.6","0.8","0.4","","","","","0.2467438462","0.06052980877","0.2984046037","0.338962466","","","","","","","74","J","1","","","137","main_expt"
"377","","bandit","216","558877","0.0-177.0-0.0","56722591","wem/bandit_either","A2AMQX0BQZXG9N","either","4","","","","","","","0","0","1","","0.1038497792","0.2","0.6","0.8","0.4","0.2221944767","0.1038497792","0.3110629865","0.3586643031","","","","","","","","","","","74","J","1","","","138","main_expt"
"233","","bandit","217","560639","0.0-178.0-0.0","56722591","wem/bandit_either","A2AMQX0BQZXG9N","either","4","","","","","","","0","0","1","","0.08561062373","0.2","0.6","0.8","0.4","0.2750517365","0.08561062373","0.3048373826","0.3430902759","","","","","","","","","","","74","J","1","","","139","main_expt"
"99","","bandit","218","562258","0.0-179.0-0.0","56722591","wem/bandit_either","A2AMQX0BQZXG9N","either","4","","","","","","","0","0","1","0.08025295029","","0.2","0.6","0.8","0.4","","","","","0.277474309","0.08025295029","0.3163642845","0.3777112835","","","","","","","74","J","1","","","140","main_expt"
"1728","","bandit","219","565507","0.0-180.0-0.0","56722591","wem/bandit_either","A2AMQX0BQZXG9N","either","4","","","","","","","0","0","1","","0.09309891757","0.2","0.6","0.8","0.4","0.2932007391","0.09309891757","0.2213861514","0.4276051364","","","","","","","","","","","74","J","1","","","141","main_expt"
"471","","bandit","220","567501","0.0-181.0-0.0","56722591","wem/bandit_either","A2AMQX0BQZXG9N","either","4","","","","","","","1","0","0","0.1107976638","","0.2","0.6","0.8","0.4","","","","","0.3001807938","0.1107976638","0.2492613222","0.4312347149","","","","","","","74","J","1","","","142","main_expt"
"440","","bandit","221","569459","0.0-182.0-0.0","56722591","wem/bandit_either","A2AMQX0BQZXG9N","either","4","","","","","","","0","0","1","0.09575525052","","0.2","0.6","0.8","0.4","","","","","0.3640878437","0.09575525052","0.2645663874","0.386657586","","","","","","","74","J","1","","","143","main_expt"
"457","","bandit","222","571436","0.0-183.0-0.0","56722591","wem/bandit_either","A2AMQX0BQZXG9N","either","4","","","","","","","0","0","1","0.07222794989","","0.2","0.6","0.8","0.4","","","","","0.2706796495","0.07222794989","0.2928215939","0.3409851627","","","","","","","74","J","1","","","144","main_expt"
"433","","bandit","223","573386","0.0-184.0-0.0","56722591","wem/bandit_either","A2AMQX0BQZXG9N","either","4","","","","","","","0","0","1","0.03203798906","","0.2","0.6","0.8","0.4","","","","","0.2359726437","0.03203798906","0.3178979655","0.3538709708","","","","","","","74","J","1","","","145","main_expt"
"473","","bandit","224","575380","0.0-185.0-0.0","56722591","wem/bandit_either","A2AMQX0BQZXG9N","either","4","","","","","","","0","0","1","","0.03073079809","0.2","0.6","0.8","0.4","0.2200332621","0.03073079809","0.2850957273","0.2745956728","","","","","","","","","","","74","J","1","","","146","main_expt"
"446","","bandit","225","577347","0.0-186.0-0.0","56722591","wem/bandit_either","A2AMQX0BQZXG9N","either","4","","","","","","","0","0","1","0.05105424151","","0.2","0.6","0.8","0.4","","","","","0.1957794229","0.05105424151","0.2483519338","0.2375793476","","","","","","","74","J","1","","","147","main_expt"
"405","","bandit","226","579269","0.0-187.0-0.0","56722591","wem/bandit_either","A2AMQX0BQZXG9N","either","4","","","","","","","0","0","1","","0.04045355104","0.2","0.6","0.8","0.4","0.1790722045","0.04045355104","0.2309770791","0.2954602587","","","","","","","","","","","74","J","1","","","148","main_expt"
"494","","bandit","227","581303","0.0-188.0-0.0","56722591","wem/bandit_either","A2AMQX0BQZXG9N","either","4","","","","","","","0","0","1","","0.06416506337","0.2","0.6","0.8","0.4","0.2189150546","0.06416506337","0.1759049641","0.3435099865","","","","","","","","","","","74","J","1","","","149","main_expt"
"564","","bandit","228","583387","0.0-189.0-0.0","56722591","wem/bandit_either","A2AMQX0BQZXG9N","either","4","","","","","","","0","0","1","","0.07819388902","0.2","0.6","0.8","0.4","0.2119229637","0.07819388902","0.1910702346","0.268900415","","","","","","","","","","","74","J","1","","","150","main_expt"
"516","","bandit","229","585418","0.0-190.0-0.0","56722591","wem/bandit_either","A2AMQX0BQZXG9N","either","4","","","","","","","0","0","1","","0.1186979887","0.2","0.6","0.8","0.4","0.2472398003","0.1186979887","0.1799178466","0.2326488896","","","","","","","","","","","74","J","1","","","151","main_expt"
"626","","bandit","230","587576","0.0-191.0-0.0","56722591","wem/bandit_either","A2AMQX0BQZXG9N","either","4","","","","","","","0","0","1","0.1084773402","","0.2","0.6","0.8","0.4","","","","","0.2148428051","0.1084773402","0.1826140084","0.2768057641","","","","","","","74","J","1","","","152","main_expt"
"594","","bandit","231","589695","0.0-192.0-0.0","56722591","wem/bandit_either","A2AMQX0BQZXG9N","either","4","","","","","","","0","0","1","","0.1314289417","0.2","0.6","0.8","0.4","0.1598057249","0.1314289417","0.147924298","0.2997660112","","","","","","","","","","","74","J","1","","","153","main_expt"
"685","","bandit","232","591919","0.0-193.0-0.0","56722591","wem/bandit_either","A2AMQX0BQZXG9N","either","4","","","","","","","0","0","1","","0.1354051011","0.2","0.6","0.8","0.4","0.1489099923","0.1354051011","0.1388357139","0.3196464983","","","","","","","","","","","74","J","1","","","154","main_expt"
"1017","","bandit","233","594453","0.0-194.0-0.0","56722591","wem/bandit_either","A2AMQX0BQZXG9N","either","4","","","","","","","1","0","0","0.1085215933","","0.2","0.6","0.8","0.4","","","","","0.1502541116","0.1085215933","0.1658398244","0.3141654429","","","","","","","74","J","1","","","155","main_expt"
"679","","bandit","234","596656","0.0-195.0-0.0","56722591","wem/bandit_either","A2AMQX0BQZXG9N","either","4","","","","","","","0","0","1","0.1383379057","","0.2","0.6","0.8","0.4","","","","","0.1605084188","0.1383379057","0.1104921729","0.2667217688","","","","","","","74","J","1","","","156","main_expt"
"769","","bandit","235","598962","0.0-196.0-0.0","56722591","wem/bandit_either","A2AMQX0BQZXG9N","either","4","","","","","","","0","0","1","","0.1428990181","0.2","0.6","0.8","0.4","0.1684101418","0.1428990181","0.09530810267","0.2867075714","","","","","","","","","","","74","J","1","","","157","main_expt"
"610","","bandit","236","601101","0.0-197.0-0.0","56722591","wem/bandit_either","A2AMQX0BQZXG9N","either","4","","","","","","","0","0","1","0.07455979893","","0.2","0.6","0.8","0.4","","","","","0.1807688322","0.07455979893","0.1211627972","0.2788639118","","","","","","","74","J","1","","","158","main_expt"
"685","","bandit","237","603330","0.0-198.0-0.0","56722591","wem/bandit_either","A2AMQX0BQZXG9N","either","4","","","","","","","0","0","1","","0.1009372764","0.2","0.6","0.8","0.4","0.1516426412","0.1009372764","0.1012897464","0.3020710819","","","","","","","","","","","74","J","1","","","159","main_expt"
"685","","bandit","238","605539","0.0-199.0-0.0","56722591","wem/bandit_either","A2AMQX0BQZXG9N","either","4","","","","","","","0","0","1","0.05118862797","","0.2","0.6","0.8","0.4","","","","","0.1638698877","0.05118862797","0.1188035868","0.3404227007","","","","","","","74","J","1","","","160","main_expt"
"705","","bandit","239","607782","0.0-200.0-0.0","56722591","wem/bandit_either","A2AMQX0BQZXG9N","either","4","","","","","","","0","0","1","0.05265847637","","0.2","0.6","0.8","0.4","","","","","0.1645359983","0.05265847637","0.1606836622","0.2876249865","","","","","","","74","J","1","","","161","main_expt"
"662","","bandit","240","609968","0.0-201.0-0.0","56722591","wem/bandit_either","A2AMQX0BQZXG9N","either","4","","","","","","","0","0","1","","0.07938684611","0.2","0.6","0.8","0.4","0.2509918509","0.07938684611","0.1859884171","0.2401308511","","","","","","","","","","","74","J","1","","","162","main_expt"
"546","","bandit","241","612043","0.0-202.0-0.0","56722591","wem/bandit_either","A2AMQX0BQZXG9N","either","4","","","","","","","0","0","1","0.0970900163","","0.2","0.6","0.8","0.4","","","","","0.1883685458","0.0970900163","0.2528258464","0.2486605046","","","","","","","74","J","1","","","163","main_expt"
"678","","bandit","242","614273","0.0-203.0-0.0","56722591","wem/bandit_either","A2AMQX0BQZXG9N","either","4","","","","","","","0","0","1","0.07401968201","","0.2","0.6","0.8","0.4","","","","","0.2179532334","0.07401968201","0.2515292425","0.22675384","","","","","","","74","J","1","","","164","main_expt"
"651","","bandit","243","616446","0.0-204.0-0.0","56722591","wem/bandit_either","A2AMQX0BQZXG9N","either","4","","","","","","","0","0","1","0.06633104104","","0.2","0.6","0.8","0.4","","","","","0.2143704678","0.06633104104","0.2068970429","0.2841151948","","","","","","","74","J","1","","","165","main_expt"
"640","","bandit","244","618618","0.0-205.0-0.0","56722591","wem/bandit_either","A2AMQX0BQZXG9N","either","4","","","","","","","0","0","1","","0.05309652092","0.2","0.6","0.8","0.4","0.2175899085","0.05309652092","0.1413778631","0.2842980464","","","","","","","","","","","74","J","1","","","166","main_expt"
"1111","","bandit","245","621251","0.0-206.0-0.0","56722591","wem/bandit_either","A2AMQX0BQZXG9N","either","4","","","","","","","0","0","1","0.07357446968","","0.2","0.6","0.8","0.4","","","","","0.2137120923","0.07357446968","0.1999497975","0.3007590714","","","","","","","74","J","1","","","167","main_expt"
"585","","bandit","246","623374","0.0-207.0-0.0","56722591","wem/bandit_either","A2AMQX0BQZXG9N","either","4","","","","","","","0","0","1","","0.1054325378","0.2","0.6","0.8","0.4","0.2331560811","0.1054325378","0.1696145944","0.2884936601","","","","","","","","","","","74","J","1","","","168","main_expt"
"2158","","bandit","247","627087","0.0-208.0-0.0","56722591","wem/bandit_either","A2AMQX0BQZXG9N","either","4","","","","","","","0","0","1","0.08536867429","","0.2","0.6","0.8","0.4","","","","","0.2367963754","0.08536867429","0.1338518967","0.2803439438","","","","","","","74","J","1","","","169","main_expt"
"1092","","bandit","248","629730","0.0-209.0-0.0","56722591","wem/bandit_either","A2AMQX0BQZXG9N","either","4","","","","","","","0","0","1","","0.1083432756","0.2","0.6","0.8","0.4","0.2378050175","0.1083432756","0.1307598277","0.3010437192","","","","","","","","","","","74","J","1","","","170","main_expt"
"569","","bandit","249","631820","0.0-210.0-0.0","56722591","wem/bandit_either","A2AMQX0BQZXG9N","either","4","","","","","","","0","0","1","0.09185370626","","0.2","0.6","0.8","0.4","","","","","0.2253696972","0.09185370626","0.1200375331","0.3243802095","","","","","","","74","J","1","","","171","main_expt"
"503","","bandit","250","633886","0.0-211.0-0.0","56722591","wem/bandit_either","A2AMQX0BQZXG9N","either","4","","","","","","","1","0","0","0.09458096772","","0.2","0.6","0.8","0.4","","","","","0.2903394368","0.09458096772","0.07514546963","0.3140094691","","","","","","","74","J","1","","","172","main_expt"
"533","","bandit","251","635938","0.0-212.0-0.0","56722591","wem/bandit_either","A2AMQX0BQZXG9N","either","4","","","","","","","0","0","1","","0.1016296913","0.2","0.6","0.8","0.4","0.2384828248","0.1016296913","0.07704486673","0.2433770114","","","","","","","","","","","74","J","1","","","173","main_expt"
"467","","bandit","252","637974","0.0-213.0-0.0","56722591","wem/bandit_either","A2AMQX0BQZXG9N","either","4","","","","","","","0","0","1","","0.117107939","0.2","0.6","0.8","0.4","0.2823111034","0.117107939","0.04061738922","0.2080779891","","","","","","","","","","","74","J","1","","","174","main_expt"
"319","","bandit","253","639818","0.0-214.0-0.0","56722591","wem/bandit_either","A2AMQX0BQZXG9N","either","4","","","","","","","0","0","1","0.1254773658","","0.2","0.6","0.8","0.4","","","","","0.292147578","0.1254773658","0.02968316822","0.2211365803","","","","","","","74","J","1","","","175","main_expt"
"198","","bandit","254","641537","0.0-215.0-0.0","56722591","wem/bandit_either","A2AMQX0BQZXG9N","either","4","","","","","","","0","0","1","","0.1518856622","0.2","0.6","0.8","0.4","0.2928295457","0.1518856622","0.04419366322","0.231280906","","","","","","","","","","","74","J","1","","","176","main_expt"
"326","","bandit","255","643385","0.0-216.0-0.0","56722591","wem/bandit_either","A2AMQX0BQZXG9N","either","4","","","","","","","0","0","1","0.1502483312","","0.2","0.6","0.8","0.4","","","","","0.297241693","0.1502483312","0.04140429262","0.1689881391","","","","","","","74","J","1","","","177","main_expt"
"177","","bandit","256","645081","0.0-217.0-0.0","56722591","wem/bandit_either","A2AMQX0BQZXG9N","either","4","","","","","","","0","0","1","0.2073149786","","0.2","0.6","0.8","0.4","","","","","0.276241128","0.2073149786","0.06103489621","0.1699404395","","","","","","","74","J","1","","","178","main_expt"
"251","","bandit","257","646849","0.0-218.0-0.0","56722591","wem/bandit_either","A2AMQX0BQZXG9N","either","4","","","","","","","0","0","1","","0.1928578162","0.2","0.6","0.8","0.4","0.2405339857","0.1928578162","0.053608248","0.1571972967","","","","","","","","","","","74","J","1","","","179","main_expt"
"292","","bandit","258","648666","0.0-219.0-0.0","56722591","wem/bandit_either","A2AMQX0BQZXG9N","either","4","","","","","","","1","0","0","0.1412953234","","0.2","0.6","0.8","0.4","","","","","0.233428307","0.1412953234","0.06289379635","0.1567782565","","","","","","","74","J","1","","","180","main_expt"
"67","","bandit","259","650250","0.0-220.0-0.0","56722591","wem/bandit_either","A2AMQX0BQZXG9N","either","4","","","","","","","0","0","1","0.1258774719","","0.2","0.6","0.8","0.4","","","","","0.1459310114","0.1258774719","0.07748386732","0.1492691696","","","","","","","74","J","1","","","181","main_expt"
"281","","bandit","260","652049","0.0-221.0-0.0","56722591","wem/bandit_either","A2AMQX0BQZXG9N","either","4","","","","","","","0","0","1","0.1121960069","","0.2","0.6","0.8","0.4","","","","","0.1796360657","0.1121960069","0.096714051","0.1609613705","","","","","","","74","J","1","","","182","main_expt"
"81","","bandit","261","653649","0.0-222.0-0.0","56722591","wem/bandit_either","A2AMQX0BQZXG9N","either","4","","","","","","","0","0","1","","0.08335286121","0.2","0.6","0.8","0.4","0.1907874973","0.08335286121","0.05351369794","0.1982891881","","","","","","","","","","","74","J","1","","","183","main_expt"
"163","","bandit","262","655330","0.0-223.0-0.0","56722591","wem/bandit_either","A2AMQX0BQZXG9N","either","4","","","","","","","0","0","1","0.1085923678","","0.2","0.6","0.8","0.4","","","","","0.1451627339","0.1085923678","0.08854511538","0.1703318442","","","","","","","74","J","1","","","184","main_expt"
"221","","bandit","263","657075","0.0-224.0-0.0","56722591","wem/bandit_either","A2AMQX0BQZXG9N","either","4","","","","","","","0","0","1","","0.1113654269","0.2","0.6","0.8","0.4","0.1692531577","0.1113654269","0.136385666","0.09566746086","","","","","","","","","","","74","J","1","","","185","main_expt"
"361","","bandit","264","658961","0.0-225.0-0.0","56722591","wem/bandit_either","A2AMQX0BQZXG9N","either","4","","","","","","","0","0","1","0.1383531569","","0.2","0.6","0.8","0.4","","","","","0.1885113298","0.1383531569","0.1848043888","0.1254261761","","","","","","","74","J","1","","","186","main_expt"
"186","","bandit","265","660699","0.0-226.0-0.0","56722591","wem/bandit_either","A2AMQX0BQZXG9N","either","4","","","","","","","0","0","1","0.1739713275","","0.2","0.6","0.8","0.4","","","","","0.2088125345","0.1739713275","0.1640989128","0.1081798115","","","","","","","74","J","1","","","187","main_expt"
"248","","bandit","266","662465","0.0-227.0-0.0","56722591","wem/bandit_either","A2AMQX0BQZXG9N","either","4","","","","","","","0","0","1","","0.1926366302","0.2","0.6","0.8","0.4","0.2228369986","0.1926366302","0.1301402021","0.08529062399","","","","","","","","","","","74","J","1","","","188","main_expt"
"245","","bandit","267","664251","0.0-228.0-0.0","56722591","wem/bandit_either","A2AMQX0BQZXG9N","either","4","","","","","","","0","0","1","","0.2499935398","0.2","0.6","0.8","0.4","0.2567428292","0.2499935398","0.1980942663","0.07250281893","","","","","","","","","","","74","J","1","","","189","main_expt"
"343","","bandit","268","666125","0.0-229.0-0.0","56722591","wem/bandit_either","A2AMQX0BQZXG9N","either","4","","","","","","","1","0","0","0.2367317824","","0.2","0.6","0.8","0.4","","","","","0.3177850294","0.2367317824","0.1842725295","0.07895395147","","","","","","","74","J","1","","","190","main_expt"
"263","","bandit","269","667905","0.0-230.0-0.0","56722591","wem/bandit_either","A2AMQX0BQZXG9N","either","4","","","","","","","0","1","0","","0.2515026666","0.2","0.6","0.8","0.4","0.2876912335","0.2515026666","0.2087081259","0.06204701637","","","","","","","","","","","74","J","1","","","191","main_expt"
"274","","bandit","270","669701","0.0-231.0-0.0","56722591","wem/bandit_either","A2AMQX0BQZXG9N","either","4","","","","","","","0","0","1","0.1800110976","","0.2","0.6","0.8","0.4","","","","","0.2383873749","0.2451916405","0.1800110976","0.064067899","","","","","","","75","K","2","","","192","main_expt"
"203","","bandit","271","671425","0.0-232.0-0.0","56722591","wem/bandit_either","A2AMQX0BQZXG9N","either","4","","","","","","","0","0","1","0.1519186298","","0.2","0.6","0.8","0.4","","","","","0.24690957","0.2353451433","0.1519186298","0.1286650472","","","","","","","75","K","2","","","193","main_expt"
"272","","bandit","272","673216","0.0-233.0-0.0","56722591","wem/bandit_either","A2AMQX0BQZXG9N","either","4","","","","","","","0","0","1","0.1431656489","","0.2","0.6","0.8","0.4","","","","","0.2728455101","0.307075739","0.1431656489","0.1746490116","","","","","","","75","K","2","","","194","main_expt"
"325","","bandit","273","675064","0.0-234.0-0.0","56722591","wem/bandit_either","A2AMQX0BQZXG9N","either","4","","","","","","","0","0","1","","0.1868251083","0.2","0.6","0.8","0.4","0.2421292151","0.3011001907","0.1868251083","0.129035247","","","","","","","","","","","75","K","2","","","195","main_expt"
"354","","bandit","274","676936","0.0-235.0-0.0","56722591","wem/bandit_either","A2AMQX0BQZXG9N","either","4","","","","","","","1","0","0","0.176624335","","0.2","0.6","0.8","0.4","","","","","0.2598052724","0.2861216794","0.176624335","0.09052040682","","","","","","","75","K","2","","","196","main_expt"
"328","","bandit","275","678788","0.0-236.0-0.0","56722591","wem/bandit_either","A2AMQX0BQZXG9N","either","4","","","","","","","0","0","1","0.2383323772","","0.2","0.6","0.8","0.4","","","","","0.2540930088","0.2121549007","0.2383323772","0.08675464884","","","","","","","75","K","2","","","197","main_expt"
"319","","bandit","276","680639","0.0-237.0-0.0","56722591","wem/bandit_either","A2AMQX0BQZXG9N","either","4","","","","","","","0","0","1","","0.260618614","0.2","0.6","0.8","0.4","0.2460150375","0.260340052","0.260618614","0.09429549835","","","","","","","","","","","75","K","2","","","198","main_expt"
"294","","bandit","277","682456","0.0-238.0-0.0","56722591","wem/bandit_either","A2AMQX0BQZXG9N","either","4","","","","","","","1","0","0","0.2935067364","","0.2","0.6","0.8","0.4","","","","","0.2217343644","0.3009562829","0.2935067364","0.09303778716","","","","","","","75","K","2","","","199","main_expt"
"512","","bandit","278","684489","0.0-239.0-0.0","56722591","wem/bandit_either","A2AMQX0BQZXG9N","either","4","","","","","","","0","0","1","0.362920627","","0.2","0.6","0.8","0.4","","","","","0.2830302048","0.3430896668","0.362920627","0.07354084322","","","","","","","75","K","2","","","200","main_expt"
"478","","bandit","279","686491","0.0-240.0-0.0","56722591","wem/bandit_either","A2AMQX0BQZXG9N","either","4","","","","","","","0","1","0","","0.3119044903","0.2","0.6","0.8","0.4","0.3175621279","0.2973668079","0.3119044903","0.08115367452","","","","","","","","","","","75","K","2","","","201","main_expt"
"392","","bandit","280","688408","0.0-241.0-0.0","56722591","wem/bandit_either","A2AMQX0BQZXG9N","either","4","","","","","","","0","0","1","0.0774842685","","0.2","0.6","0.8","0.4","","","","","0.3049471546","0.3219337599","0.3095695708","0.0774842685","","","","","","","76","L","3","","","202","main_expt"
"454","","bandit","281","690385","0.0-242.0-0.0","56722591","wem/bandit_either","A2AMQX0BQZXG9N","either","4","","","","","","","0","0","1","","0.09704724367","0.2","0.6","0.8","0.4","0.2975042969","0.3229991028","0.3005459379","0.09704724367","","","","","","","","","","","76","L","3","","","203","main_expt"
"415","","bandit","282","692327","0.0-243.0-0.0","56722591","wem/bandit_either","A2AMQX0BQZXG9N","either","4","","","","","","","0","0","1","0.1224111047","","0.2","0.6","0.8","0.4","","","","","0.2268457719","0.3077995671","0.3116824409","0.1224111047","","","","","","","76","L","3","","","204","main_expt"
"331","","bandit","283","694176","0.0-244.0-0.0","56722591","wem/bandit_either","A2AMQX0BQZXG9N","either","4","","","","","","","0","0","1","0.1627664319","","0.2","0.6","0.8","0.4","","","","","0.2582085449","0.3070199156","0.3291635812","0.1627664319","","","","","","","76","L","3","","","205","main_expt"
"939","","bandit","284","696641","0.0-245.0-0.0","56722591","wem/bandit_either","A2AMQX0BQZXG9N","either","4","","","","","","","0","1","0","","0.1604236747","0.2","0.6","0.8","0.4","0.2841247045","0.3109683939","0.4008790519","0.1604236747","","","","","","","","","","","76","L","3","","","206","main_expt"
"375","","bandit","285","698536","0.0-246.0-0.0","56722591","wem/bandit_either","A2AMQX0BQZXG9N","either","4","","","","","","","0","0","1","","0.3333225396","0.2","0.6","0.8","0.4","0.3333225396","0.2845075958","0.4202180382","0.126388554","","","","","","","","","","","72","H","0","img/none_selected.jpg","","207","main_expt"
"630","","bandit","286","700691","0.0-247.0-0.0","56722591","wem/bandit_either","A2AMQX0BQZXG9N","either","4","","","","","","","0","0","1","","0.290219871","0.2","0.6","0.8","0.4","0.290219871","0.2419557814","0.4168586074","0.1602309633","","","","","","","","","","","72","H","0","img/none_selected.jpg","","208","main_expt"
"964","","bandit","287","703186","0.0-248.0-0.0","56722591","wem/bandit_either","A2AMQX0BQZXG9N","either","4","","","","","","","0","0","1","","0.3426384504","0.2","0.6","0.8","0.4","0.3426384504","0.2449545816","0.3949328033","0.2009997365","","","","","","","","","","","72","H","0","img/none_selected.jpg","","209","main_expt"
"679","","bandit","288","705385","0.0-249.0-0.0","56722591","wem/bandit_either","A2AMQX0BQZXG9N","either","4","","","","","","","0","0","1","","0.2932754766","0.2","0.6","0.8","0.4","0.2932754766","0.2176860071","0.41782505","0.1997114924","","","","","","","","","","","72","H","0","img/none_selected.jpg","","210","main_expt"
"600","","bandit","289","707514","0.0-250.0-0.0","56722591","wem/bandit_either","A2AMQX0BQZXG9N","either","4","","","","","","","0","1","0","","0.2522206247","0.2","0.6","0.8","0.4","0.2522206247","0.2460847292","0.4377941382","0.2631807131","","","","","","","","","","","72","H","0","img/none_selected.jpg","","211","main_expt"
"391","","bandit","290","709424","0.0-251.0-0.0","56722591","wem/bandit_either","A2AMQX0BQZXG9N","either","4","","","","","","","0","0","1","0.2017704833","","0.2","0.6","0.8","0.4","","","","","0.2323705111","0.2017704833","0.4619006446","0.2008991105","","","","","","","74","J","1","","","212","main_expt"
"483","","bandit","291","711441","0.0-252.0-0.0","56722591","wem/bandit_either","A2AMQX0BQZXG9N","either","4","","","","","","","0","0","1","","0.1891715169","0.2","0.6","0.8","0.4","0.2815580385","0.1891715169","0.4508737721","0.1656487101","","","","","","","","","","","74","J","1","","","213","main_expt"
"891","","bandit","292","713863","0.0-253.0-0.0","56722591","wem/bandit_either","A2AMQX0BQZXG9N","either","4","","","","","","","0","0","1","0.1819308411","","0.2","0.6","0.8","0.4","","","","","0.2955812139","0.1819308411","0.4639731149","0.213788386","","","","","","","74","J","1","","","214","main_expt"
"467","","bandit","293","715857","0.0-254.0-0.0","56722591","wem/bandit_either","A2AMQX0BQZXG9N","either","4","","","","","","","1","0","0","0.1406935411","","0.2","0.6","0.8","0.4","","","","","0.2988647484","0.1406935411","0.4690757113","0.2206736926","","","","","","","74","J","1","","","215","main_expt"
"405","","bandit","294","717821","0.0-255.0-0.0","56722591","wem/bandit_either","A2AMQX0BQZXG9N","either","4","","","","","","","0","0","1","0.206739756","","0.2","0.6","0.8","0.4","","","","","0.3361974059","0.206739756","0.4685680314","0.2270120675","","","","","","","74","J","1","","","216","main_expt"
"384","","bandit","295","719745","0.0-256.0-0.0","56722591","wem/bandit_either","A2AMQX0BQZXG9N","either","4","","","","","","","0","0","1","0.178624692","","0.2","0.6","0.8","0.4","","","","","0.2764506131","0.178624692","0.4873952874","0.2561581829","","","","","","","74","J","1","","","217","main_expt"
"406","","bandit","296","721680","0.0-257.0-0.0","56722591","wem/bandit_either","A2AMQX0BQZXG9N","either","4","","","","","","","1","0","0","0.2021641755","","0.2","0.6","0.8","0.4","","","","","0.299893698","0.2021641755","0.4790671899","0.2785758431","","","","","","","74","J","1","","","218","main_expt"
"332","","bandit","297","723548","0.0-258.0-0.0","56722591","wem/bandit_either","A2AMQX0BQZXG9N","either","4","","","","","","","0","0","1","","0.2076996705","0.2","0.6","0.8","0.4","0.3213687962","0.2076996705","0.4769795117","0.2707863597","","","","","","","","","","","74","J","1","","","219","main_expt"
"555","","bandit","298","725655","0.0-259.0-0.0","56722591","wem/bandit_either","A2AMQX0BQZXG9N","either","4","","","","","","","0","0","1","","0.2479045362","0.2","0.6","0.8","0.4","0.3782095139","0.2479045362","0.4746148145","0.2262269101","","","","","","","","","","","74","J","1","","","220","main_expt"
"419","","bandit","299","727591","0.0-260.0-0.0","56722591","wem/bandit_either","A2AMQX0BQZXG9N","either","4","","","","","","","0","0","1","0.251163546","","0.2","0.6","0.8","0.4","","","","","0.3572699546","0.251163546","0.4789253058","0.2522421151","","","","","","","74","J","1","","","221","main_expt"
"455","","bandit","300","729595","0.0-261.0-0.0","56722591","wem/bandit_either","A2AMQX0BQZXG9N","either","4","","","","","","","0","0","1","","0.2653622565","0.2","0.6","0.8","0.4","0.332217079","0.2653622565","0.4765400837","0.2323100388","","","","","","","","","","","74","J","1","","","222","main_expt"
"666","","bandit","301","731783","0.0-262.0-0.0","56722591","wem/bandit_either","A2AMQX0BQZXG9N","either","4","","","","","","","0","1","0","","0.2034578964","0.2","0.6","0.8","0.4","0.3327789551","0.2034578964","0.4872993944","0.2013525365","","","","","","","","","","","74","J","1","","","223","main_expt"
"465","","bandit","302","733777","0.0-263.0-0.0","56722591","wem/bandit_either","A2AMQX0BQZXG9N","either","4","","","","","","","0","0","1","0.4864577786","","0.2","0.6","0.8","0.4","","","","","0.3720138676","0.1176985371","0.4864577786","0.2017363432","","","","","","","75","K","2","","","224","main_expt"
"546","","bandit","303","735854","0.0-264.0-0.0","56722591","wem/bandit_either","A2AMQX0BQZXG9N","either","4","","","","","","","1","0","0","0.4815865163","","0.2","0.6","0.8","0.4","","","","","0.4035982493","0.08531446518","0.4815865163","0.1608447522","","","","","","","75","K","2","","","225","main_expt"
"618","","bandit","304","737993","0.0-265.0-0.0","56722591","wem/bandit_either","A2AMQX0BQZXG9N","either","4","","","","","","","1","0","0","0.4781941344","","0.2","0.6","0.8","0.4","","","","","0.3538577565","0.0901010045","0.4781941344","0.2023183299","","","","","","","75","K","2","","","226","main_expt"
"995","","bandit","305","740517","0.0-266.0-0.0","56722591","wem/bandit_either","A2AMQX0BQZXG9N","either","4","","","","","","","1","0","0","0.4742279627","","0.2","0.6","0.8","0.4","","","","","0.4205879778","0.06499555022","0.4742279627","0.1555458008","","","","","","","75","K","2","","","227","main_expt"
"542","","bandit","306","742583","0.0-267.0-0.0","56722591","wem/bandit_either","A2AMQX0BQZXG9N","either","4","","","","","","","1","0","0","0.4597327255","","0.2","0.6","0.8","0.4","","","","","0.4082381823","0.06967502077","0.4597327255","0.1210896773","","","","","","","75","K","2","","","228","main_expt"
"431","","bandit","307","744538","0.0-268.0-0.0","56722591","wem/bandit_either","A2AMQX0BQZXG9N","either","4","","","","","","","0","1","0","","0.4733003713","0.2","0.6","0.8","0.4","0.4274963613","0.07642173418","0.4733003713","0.1206830913","","","","","","","","","","","75","K","2","","","229","main_expt"
"483","","bandit","308","746583","0.0-269.0-0.0","56722591","wem/bandit_either","A2AMQX0BQZXG9N","either","4","","","","","","","0","0","1","0.1334008039","","0.2","0.6","0.8","0.4","","","","","0.4362488765","0.04973788902","0.4832022084","0.1334008039","","","","","","","76","L","3","","","230","main_expt"
"395","","bandit","309","748516","0.0-270.0-0.0","56722591","wem/bandit_either","A2AMQX0BQZXG9N","either","4","","","","","","","1","0","0","0.4802630573","","0.2","0.6","0.8","0.4","","","","","0.4420629534","0.07419495466","0.4802630573","0.1048467088","","","","","","","75","K","2","","","231","main_expt"
"420","","bandit","310","750463","0.0-271.0-0.0","56722591","wem/bandit_either","A2AMQX0BQZXG9N","either","4","","","","","","","1","0","0","0.4739318499","","0.2","0.6","0.8","0.4","","","","","0.4287414635","0.08125260149","0.4739318499","0.1184002818","","","","","","","75","K","2","","","232","main_expt"
"386","","bandit","311","752391","0.0-272.0-0.0","56722591","wem/bandit_either","A2AMQX0BQZXG9N","either","4","","","","","","","1","0","0","0.4709765286","","0.2","0.6","0.8","0.4","","","","","0.4395511981","0.06057073796","0.4709765286","0.08533064469","","","","","","","75","K","2","","","233","main_expt"
"370","","bandit","312","754290","0.0-273.0-0.0","56722591","wem/bandit_either","A2AMQX0BQZXG9N","either","4","","","","","","","1","0","0","0.4658145356","","0.2","0.6","0.8","0.4","","","","","0.4479240545","0.1037411708","0.4658145356","0.1190123434","","","","","","","75","K","2","","","234","main_expt"
"393","","bandit","313","756235","0.0-274.0-0.0","56722591","wem/bandit_either","A2AMQX0BQZXG9N","either","4","","","","","","","0","0","1","0.4312508187","","0.2","0.6","0.8","0.4","","","","","0.4476644646","0.1267441937","0.4312508187","0.1392024459","","","","","","","75","K","2","","","235","main_expt"
"448","","bandit","314","758206","0.0-275.0-0.0","56722591","wem/bandit_either","A2AMQX0BQZXG9N","either","4","","","","","","","0","0","1","","0.4323277229","0.2","0.6","0.8","0.4","0.457106966","0.1002206095","0.4323277229","0.1076242464","","","","","","","","","","","75","K","2","","","236","main_expt"
"359","","bandit","315","760095","0.0-276.0-0.0","56722591","wem/bandit_either","A2AMQX0BQZXG9N","either","4","","","","","","","0","0","1","0.4517679415","","0.2","0.6","0.8","0.4","","","","","0.4097288684","0.08353940566","0.4517679415","0.1539911713","","","","","","","75","K","2","","","237","main_expt"
"387","","bandit","316","762024","0.0-277.0-0.0","56722591","wem/bandit_either","A2AMQX0BQZXG9N","either","4","","","","","","","1","0","0","0.4476427196","","0.2","0.6","0.8","0.4","","","","","0.4530646831","0.07847158511","0.4476427196","0.1833253983","","","","","","","75","K","2","","","238","main_expt"
"416","","bandit","317","763977","0.0-278.0-0.0","56722591","wem/bandit_either","A2AMQX0BQZXG9N","either","4","","","","","","","0","0","1","0.4421551546","","0.2","0.6","0.8","0.4","","","","","0.4532148127","0.1132310855","0.4421551546","0.185515968","","","","","","","75","K","2","","","239","main_expt"
"443","","bandit","318","765990","0.0-279.0-0.0","56722591","wem/bandit_either","A2AMQX0BQZXG9N","either","4","","","","","","","0","0","1","0.4205303603","","0.2","0.6","0.8","0.4","","","","","0.4456906816","0.130249024","0.4205303603","0.2545144829","","","","","","","75","K","2","","","240","main_expt"
"334","","bandit","319","767872","0.0-280.0-0.0","56722591","wem/bandit_either","A2AMQX0BQZXG9N","either","4","","","","","","","0","0","1","0.4304808994","","0.2","0.6","0.8","0.4","","","","","0.4515134246","0.1356270161","0.4304808994","0.1902236802","","","","","","","75","K","2","","","241","main_expt"
"486","","bandit","320","769887","0.0-281.0-0.0","56722591","wem/bandit_either","A2AMQX0BQZXG9N","either","4","","","","","","","0","0","1","0.4318168925","","0.2","0.6","0.8","0.4","","","","","0.4640222466","0.1402569013","0.4318168925","0.2196571485","","","","","","","75","K","2","","","242","main_expt"
"519","","bandit","321","771953","0.0-282.0-0.0","56722591","wem/bandit_either","A2AMQX0BQZXG9N","either","4","","","","","","","1","0","0","0.4437639365","","0.2","0.6","0.8","0.4","","","","","0.4305348251","0.1851652895","0.4437639365","0.2691755858","","","","","","","75","K","2","","","243","main_expt"
"618","","bandit","322","774096","0.0-283.0-0.0","56722591","wem/bandit_either","A2AMQX0BQZXG9N","either","4","","","","","","","0","0","1","0.4444545885","","0.2","0.6","0.8","0.4","","","","","0.4444417595","0.1871667761","0.4444545885","0.2689580194","","","","","","","75","K","2","","","244","main_expt"
"316","","bandit","323","775944","0.0-284.0-0.0","56722591","wem/bandit_either","A2AMQX0BQZXG9N","either","4","","","","","","","1","0","0","0.445216333","","0.2","0.6","0.8","0.4","","","","","0.4468105605","0.1881322931","0.445216333","0.1935089033","","","","","","","75","K","2","","","245","main_expt"
"397","","bandit","324","777863","0.0-285.0-0.0","56722591","wem/bandit_either","A2AMQX0BQZXG9N","either","4","","","","","","","0","0","1","0.4767449203","","0.2","0.6","0.8","0.4","","","","","0.4453418505","0.187853128","0.4767449203","0.1466547275","","","","","","","75","K","2","","","246","main_expt"
"482","","bandit","325","779875","0.0-286.0-0.0","56722591","wem/bandit_either","A2AMQX0BQZXG9N","either","4","","","","","","","0","0","1","0.4530054638","","0.2","0.6","0.8","0.4","","","","","0.4426138654","0.1952756904","0.4530054638","0.1275107348","","","","","","","75","K","2","","","247","main_expt"
"599","","bandit","326","782031","0.0-287.0-0.0","56722591","wem/bandit_either","A2AMQX0BQZXG9N","either","4","","","","","","","0","0","1","0.4326938674","","0.2","0.6","0.8","0.4","","","","","0.464375056","0.1722543521","0.4326938674","0.107785627","","","","","","","75","K","2","","","248","main_expt"
"666","","bandit","327","784215","0.0-288.0-0.0","56722591","wem/bandit_either","A2AMQX0BQZXG9N","either","4","","","","","","","0","0","1","0.4276367863","","0.2","0.6","0.8","0.4","","","","","0.4416705694","0.1935833679","0.4276367863","0.1169449123","","","","","","","75","K","2","","","249","main_expt"
"826","","bandit","328","786590","0.0-289.0-0.0","56722591","wem/bandit_either","A2AMQX0BQZXG9N","either","4","","","","","","","1","0","0","0.4602627553","","0.2","0.6","0.8","0.4","","","","","0.4352039605","0.1783221165","0.4602627553","0.1474950258","","","","","","","75","K","2","","","250","main_expt"
"574","","bandit","329","788693","0.0-290.0-0.0","56722591","wem/bandit_either","A2AMQX0BQZXG9N","either","4","","","","","","","0","0","1","","0.4429671406","0.2","0.6","0.8","0.4","0.4625669079","0.2191654692","0.4429671406","0.1272017844","","","","","","","","","","","75","K","2","","","251","main_expt"
"506","","bandit","330","790728","0.0-291.0-0.0","56722591","wem/bandit_either","A2AMQX0BQZXG9N","either","4","","","","","","","0","0","1","0.4423062834","","0.2","0.6","0.8","0.4","","","","","0.4714010403","0.2357097141","0.4423062834","0.1383509771","","","","","","","75","K","2","","","252","main_expt"
"554","","bandit","331","792805","0.0-292.0-0.0","56722591","wem/bandit_either","A2AMQX0BQZXG9N","either","4","","","","","","","1","0","0","0.4509963191","","0.2","0.6","0.8","0.4","","","","","0.4487775435","0.214143541","0.4509963191","0.1251389104","","","","","","","75","K","2","","","253","main_expt"
"569","","bandit","332","794909","0.0-293.0-0.0","56722591","wem/bandit_either","A2AMQX0BQZXG9N","either","4","","","","","","","1","0","0","0.4552381636","","0.2","0.6","0.8","0.4","","","","","0.4801031999","0.2603333519","0.4552381636","0.1660910957","","","","","","","75","K","2","","","254","main_expt"
"629","","bandit","333","797062","0.0-294.0-0.0","56722591","wem/bandit_either","A2AMQX0BQZXG9N","either","4","","","","","","","0","0","1","0.4535988902","","0.2","0.6","0.8","0.4","","","","","0.4710832431","0.2904938923","0.4535988902","0.1691625935","","","","","","","75","K","2","","","255","main_expt"
"509","","bandit","334","799107","0.0-295.0-0.0","56722591","wem/bandit_either","A2AMQX0BQZXG9N","either","4","","","","","","","0","0","1","0.4245319916","","0.2","0.6","0.8","0.4","","","","","0.4557922487","0.3362296119","0.4245319916","0.1404895313","","","","","","","75","K","2","","","256","main_expt"
"578","","bandit","335","801220","0.0-296.0-0.0","56722591","wem/bandit_either","A2AMQX0BQZXG9N","either","4","","","","","","","0","1","0","","0.4484137972","0.2","0.6","0.8","0.4","0.4328558282","0.3124671947","0.4484137972","0.1218352508","","","","","","","","","","","75","K","2","","","257","main_expt"
