"rt","responses","trial_type","trial_index","time_elapsed","internal_node_id","subjID","study","MID","cond","drift","key_press","expt_phase","target","like","value","connected","gems","bombs","no_reward","GemPrChosen","BombPrChosen","GainOverPainPr_0","GainOverPainPr_1","GainOverPainPr_2","GainOverPainPr_3","LosePr_0","LosePr_1","LosePr_2","LosePr_3","WinPr_0","WinPr_1","WinPr_2","WinPr_3","Q0","Q1","Q2","gender","age","ethnicity","respCharCode","respKey","respChoiceNum","respChoice","practice","trial_counter","trial_label"
"4709","{""Q0"":""A1DIGREVLNOXT3""}","survey-text","0","4714","0.0-0.0","56749897","wem/bandit_either","A1DIGREVLNOXT3","either","1","","","","","","","","","","","","","","","","","","","","","","","","","","","","","","","","","","","",""
"13388","","text","1","19106","0.0-1.0","56749897","wem/bandit_either","A1DIGREVLNOXT3","either","1","32","","","","","","","","","","","","","","","","","","","","","","","","","","","","","","","","","","",""
"4227","","text","2","23333","0.0-2.0","56749897","wem/bandit_either","A1DIGREVLNOXT3","either","1","32","","","","","","","","","","","","","","","","","","","","","","","","","","","","","","","","","","",""
"5692","","text","3","29027","0.0-3.0","56749897","wem/bandit_either","A1DIGREVLNOXT3","either","1","32","","","","","","","","","","","","","","","","","","","","","","","","","","","","","","","","","","",""
"4334","","text","4","33361","0.0-4.0","56749897","wem/bandit_either","A1DIGREVLNOXT3","either","1","32","","","","","","","","","","","","","","","","","","","","","","","","","","","","","","","","","","",""
"14597","","text","5","47959","0.0-5.0","56749897","wem/bandit_either","A1DIGREVLNOXT3","either","1","32","","","","","","","","","","","","","","","","","","","","","","","","","","","","","","","","","","",""
"7235","","text","6","55194","0.0-6.0","56749897","wem/bandit_either","A1DIGREVLNOXT3","either","1","32","","","","","","","","","","","","","","","","","","","","","","","","","","","","","","","","","","",""
"3581","","text","7","58776","0.0-7.0","56749897","wem/bandit_either","A1DIGREVLNOXT3","either","1","32","","","","","","","","","","","","","","","","","","","","","","","","","","","","","","","","","","",""
"7886","","identification","8","66677","0.0-8.0-0.0","56749897","wem/bandit_either","A1DIGREVLNOXT3","either","1","","identification_pre","the village of Zur","","","","","","","","","","","","","","","","","","","","","","","","","","","","","","","","",""
"8687","","identification","9","76372","0.0-8.0-1.0","56749897","wem/bandit_either","A1DIGREVLNOXT3","either","1","","identification_pre","the village of Nyx","","","","","","","","","","","","","","","","","","","","","","","","","","","","","","","","",""
"5681","","text","10","83056","0.0-9.0","56749897","wem/bandit_either","A1DIGREVLNOXT3","either","1","32","","","","","","","","","","","","","","","","","","","","","","","","","","","","","","","","","","",""
"2805","","text","11","85862","0.0-10.0","56749897","wem/bandit_either","A1DIGREVLNOXT3","either","1","32","","","","","","","","","","","","","","","","","","","","","","","","","","","","","","","","","","",""
"1539","","text","12","87403","0.0-11.0","56749897","wem/bandit_either","A1DIGREVLNOXT3","either","1","32","","","","","","","","","","","","","","","","","","","","","","","","","","","","","","","","","","",""
"3965","","text","13","91368","0.0-12.0","56749897","wem/bandit_either","A1DIGREVLNOXT3","either","1","32","","","","","","","","","","","","","","","","","","","","","","","","","","","","","","","","","","",""
"1193","","bandit","14","94093","0.0-13.0-0.0","56749897","wem/bandit_either","A1DIGREVLNOXT3","either","1","","","","","","","0","0","1","0","0","","","","","0","","","","0","","","","","","","","","","74","J","0","img/none_selected_demo.jpg","true","0",""
"532","","bandit","15","96128","0.0-14.0-0.0","56749897","wem/bandit_either","A1DIGREVLNOXT3","either","1","","","","","","","0","0","1","0","0","","","","","0","","","","0","","","","","","","","","","75","K","0","img/none_selected_demo.jpg","true","0",""
"8767","","text","16","104896","0.0-15.0","56749897","wem/bandit_either","A1DIGREVLNOXT3","either","1","32","","","","","","","","","","","","","","","","","","","","","","","","","","","","","","","","","","",""
"6731","","text","17","111628","0.0-16.0","56749897","wem/bandit_either","A1DIGREVLNOXT3","either","1","32","","","","","","","","","","","","","","","","","","","","","","","","","","","","","","","","","","",""
"6148","","text","18","117778","0.0-17.0","56749897","wem/bandit_either","A1DIGREVLNOXT3","either","1","32","","","","","","","","","","","","","","","","","","","","","","","","","","","","","","","","","","",""
"4203","","text","19","121983","0.0-18.0","56749897","wem/bandit_either","A1DIGREVLNOXT3","either","1","32","","","","","","","","","","","","","","","","","","","","","","","","","","","","","","","","","","",""
"1315","","bandit","20","124802","0.0-19.0-0.0","56749897","wem/bandit_either","A1DIGREVLNOXT3","either","1","","","","","","","0","1","0","","0.8","0.5","0.5","","","0.8","0.2","","","","","","","","","","","","","74","J","0","img/none_selected_demo.jpg","true","0","80_20_practice"
"445","","bandit","21","126751","0.0-19.0-1.0","56749897","wem/bandit_either","A1DIGREVLNOXT3","either","1","","","","","","","0","1","0","","0.8","0.5","0.5","","","0.8","0.2","","","","","","","","","","","","","74","J","0","img/none_selected_demo.jpg","true","0","80_20_practice"
"342","","bandit","22","128597","0.0-19.0-2.0","56749897","wem/bandit_either","A1DIGREVLNOXT3","either","1","","","","","","","1","0","0","0.8","","0.5","0.5","","","","","","","0.8","0.2","","","","","","","","","74","J","0","img/none_selected_demo.jpg","true","0","80_20_practice"
"564","","bandit","23","130669","0.0-19.0-3.0","56749897","wem/bandit_either","A1DIGREVLNOXT3","either","1","","","","","","","0","1","0","","0.8","0.5","0.5","","","0.8","0.2","","","","","","","","","","","","","74","J","0","img/none_selected_demo.jpg","true","0","80_20_practice"
"363","","bandit","24","132538","0.0-19.0-4.0","56749897","wem/bandit_either","A1DIGREVLNOXT3","either","1","","","","","","","0","0","1","0.2","","0.5","0.5","","","","","","","0.8","0.2","","","","","","","","","75","K","1","","true","0","80_20_practice"
"411","","bandit","25","134455","0.0-19.0-5.0","56749897","wem/bandit_either","A1DIGREVLNOXT3","either","1","","","","","","","0","0","1","","0.2","0.5","0.5","","","0.8","0.2","","","","","","","","","","","","","75","K","1","","true","0","80_20_practice"
"316","","bandit","26","136276","0.0-19.0-6.0","56749897","wem/bandit_either","A1DIGREVLNOXT3","either","1","","","","","","","0","0","1","0.8","","0.5","0.5","","","","","","","0.8","0.2","","","","","","","","","74","J","0","img/none_selected_demo.jpg","true","0","80_20_practice"
"315","","bandit","27","138098","0.0-19.0-7.0","56749897","wem/bandit_either","A1DIGREVLNOXT3","either","1","","","","","","","0","0","1","0.8","","0.5","0.5","","","","","","","0.8","0.2","","","","","","","","","74","J","0","img/none_selected_demo.jpg","true","0","80_20_practice"
"302","","bandit","28","139903","0.0-19.0-8.0","56749897","wem/bandit_either","A1DIGREVLNOXT3","either","1","","","","","","","1","0","0","0.2","","0.5","0.5","","","","","","","0.8","0.2","","","","","","","","","75","K","1","","true","0","80_20_practice"
"270","","bandit","29","141677","0.0-19.0-9.0","56749897","wem/bandit_either","A1DIGREVLNOXT3","either","1","","","","","","","0","0","1","0.2","","0.5","0.5","","","","","","","0.8","0.2","","","","","","","","","75","K","1","","true","0","80_20_practice"
"308","","bandit","30","143490","0.0-19.0-10.0","56749897","wem/bandit_either","A1DIGREVLNOXT3","either","1","","","","","","","1","0","0","0.8","","0.5","0.5","","","","","","","0.8","0.2","","","","","","","","","74","J","0","img/none_selected_demo.jpg","true","0","80_20_practice"
"277","","bandit","31","145271","0.0-19.0-11.0","56749897","wem/bandit_either","A1DIGREVLNOXT3","either","1","","","","","","","0","1","0","","0.8","0.5","0.5","","","0.8","0.2","","","","","","","","","","","","","74","J","0","img/none_selected_demo.jpg","true","0","80_20_practice"
"429","","bandit","32","147205","0.0-19.0-12.0","56749897","wem/bandit_either","A1DIGREVLNOXT3","either","1","","","","","","","0","1","0","","0.8","0.5","0.5","","","0.8","0.2","","","","","","","","","","","","","74","J","0","img/none_selected_demo.jpg","true","0","80_20_practice"
"260","","bandit","33","148972","0.0-19.0-13.0","56749897","wem/bandit_either","A1DIGREVLNOXT3","either","1","","","","","","","1","0","0","0.8","","0.5","0.5","","","","","","","0.8","0.2","","","","","","","","","74","J","0","img/none_selected_demo.jpg","true","0","80_20_practice"
"268","","bandit","34","150748","0.0-19.0-14.0","56749897","wem/bandit_either","A1DIGREVLNOXT3","either","1","","","","","","","1","0","0","0.8","","0.5","0.5","","","","","","","0.8","0.2","","","","","","","","","74","J","0","img/none_selected_demo.jpg","true","0","80_20_practice"
"514","","bandit","35","152767","0.0-19.0-15.0","56749897","wem/bandit_either","A1DIGREVLNOXT3","either","1","","","","","","","1","0","0","0.8","","0.5","0.5","","","","","","","0.8","0.2","","","","","","","","","74","J","0","img/none_selected_demo.jpg","true","0","80_20_practice"
"165","","bandit","36","154436","0.0-19.0-16.0","56749897","wem/bandit_either","A1DIGREVLNOXT3","either","1","","","","","","","0","1","0","","0.8","0.5","0.5","","","0.8","0.2","","","","","","","","","","","","","74","J","0","img/none_selected_demo.jpg","true","0","80_20_practice"
"252","","bandit","37","156194","0.0-19.0-17.0","56749897","wem/bandit_either","A1DIGREVLNOXT3","either","1","","","","","","","1","0","0","0.8","","0.5","0.5","","","","","","","0.8","0.2","","","","","","","","","74","J","0","img/none_selected_demo.jpg","true","0","80_20_practice"
"142","","bandit","38","157981","0.0-19.0-18.0","56749897","wem/bandit_either","A1DIGREVLNOXT3","either","1","","","","","","","0","1","0","","0.8","0.5","0.5","","","0.8","0.2","","","","","","","","","","","","","74","J","0","img/none_selected_demo.jpg","true","0","80_20_practice"
"109","","bandit","39","159598","0.0-19.0-19.0","56749897","wem/bandit_either","A1DIGREVLNOXT3","either","1","","","","","","","0","0","1","","0.8","0.5","0.5","","","0.8","0.2","","","","","","","","","","","","","74","J","0","img/none_selected_demo.jpg","true","0","80_20_practice"
"4093","","text","40","163693","0.0-20.0","56749897","wem/bandit_either","A1DIGREVLNOXT3","either","1","32","","","","","","","","","","","","","","","","","","","","","","","","","","","","","","","","","","",""
"1522","","bandit","41","166719","0.0-21.0-0.0","56749897","wem/bandit_either","A1DIGREVLNOXT3","either","1","","","","","","","1","0","0","1","0","","","","","0","1","","","1","0","","","","","","","","","74","J","0","img/none_selected_demo.jpg","true","0",""
"2478","","text","42","169199","0.0-22.0","56749897","wem/bandit_either","A1DIGREVLNOXT3","either","1","32","","","","","","","","","","","","","","","","","","","","","","","","","","","","","","","","","","",""
"2493","","text","43","171694","0.0-23.0","56749897","wem/bandit_either","A1DIGREVLNOXT3","either","1","32","","","","","","","","","","","","","","","","","","","","","","","","","","","","","","","","","","",""
"2235","","text","44","173931","0.0-24.0","56749897","wem/bandit_either","A1DIGREVLNOXT3","either","1","32","","","","","","","","","","","","","","","","","","","","","","","","","","","","","","","","","","",""
"2820","","text","45","176753","0.0-25.0","56749897","wem/bandit_either","A1DIGREVLNOXT3","either","1","32","","","","","","","","","","","","","","","","","","","","","","","","","","","","","","","","","","",""
"6403","","text","46","183158","0.0-26.0","56749897","wem/bandit_either","A1DIGREVLNOXT3","either","1","32","","","","","","","","","","","","","","","","","","","","","","","","","","","","","","","","","","",""
"916","","text","47","184075","0.0-27.0","56749897","wem/bandit_either","A1DIGREVLNOXT3","either","1","32","","","","","","","","","","","","","","","","","","","","","","","","","","","","","","","","","","",""
"2187","","text","48","186265","0.0-28.0","56749897","wem/bandit_either","A1DIGREVLNOXT3","either","1","32","","","","","","","","","","","","","","","","","","","","","","","","","","","","","","","","","","",""
"3605","","text","49","189870","0.0-29.0","56749897","wem/bandit_either","A1DIGREVLNOXT3","either","1","32","","","","","","","","","","","","","","","","","","","","","","","","","","","","","","","","","","",""
"3732","","text","50","193603","0.0-30.0","56749897","wem/bandit_either","A1DIGREVLNOXT3","either","1","32","","","","","","","","","","","","","","","","","","","","","","","","","","","","","","","","","","",""
"1156","","text","51","194761","0.0-31.0","56749897","wem/bandit_either","A1DIGREVLNOXT3","either","1","32","","","","","","","","","","","","","","","","","","","","","","","","","","","","","","","","","","",""
"2210","","text","52","196972","0.0-32.0","56749897","wem/bandit_either","A1DIGREVLNOXT3","either","1","32","","","","","","","","","","","","","","","","","","","","","","","","","","","","","","","","","","",""
"570","","bandit","53","199049","0.0-33.0-0.0","56749897","wem/bandit_either","A1DIGREVLNOXT3","either","1","","","","","","","0","1","0","","0.8","0.5","0.5","0.5","0.5","0.8","0.2","0.6","0.2","","","","","","","","","","","72","H","0","img/none_selected.jpg","true","0","full_practice"
"265","","bandit","54","200840","0.0-33.0-1.0","56749897","wem/bandit_either","A1DIGREVLNOXT3","either","1","","","","","","","1","0","0","0.8","","0.5","0.5","0.5","0.5","","","","","0.8","0.2","0.6","0.2","","","","","","","72","H","0","img/none_selected.jpg","true","0","full_practice"
"283","","bandit","55","202635","0.0-33.0-2.0","56749897","wem/bandit_either","A1DIGREVLNOXT3","either","1","","","","","","","1","0","0","0.8","","0.5","0.5","0.5","0.5","","","","","0.8","0.2","0.6","0.2","","","","","","","72","H","0","img/none_selected.jpg","true","0","full_practice"
"282","","bandit","56","204425","0.0-33.0-3.0","56749897","wem/bandit_either","A1DIGREVLNOXT3","either","1","","","","","","","0","1","0","","0.8","0.5","0.5","0.5","0.5","0.8","0.2","0.6","0.2","","","","","","","","","","","72","H","0","img/none_selected.jpg","true","0","full_practice"
"306","","bandit","57","206238","0.0-33.0-4.0","56749897","wem/bandit_either","A1DIGREVLNOXT3","either","1","","","","","","","1","0","0","0.8","","0.5","0.5","0.5","0.5","","","","","0.8","0.2","0.6","0.2","","","","","","","72","H","0","img/none_selected.jpg","true","0","full_practice"
"228","","bandit","58","207971","0.0-33.0-5.0","56749897","wem/bandit_either","A1DIGREVLNOXT3","either","1","","","","","","","0","1","0","","0.8","0.5","0.5","0.5","0.5","0.8","0.2","0.6","0.2","","","","","","","","","","","72","H","0","img/none_selected.jpg","true","0","full_practice"
"341","","bandit","59","209818","0.0-33.0-6.0","56749897","wem/bandit_either","A1DIGREVLNOXT3","either","1","","","","","","","0","1","0","","0.8","0.5","0.5","0.5","0.5","0.8","0.2","0.6","0.2","","","","","","","","","","","72","H","0","img/none_selected.jpg","true","0","full_practice"
"323","","bandit","60","211647","0.0-33.0-7.0","56749897","wem/bandit_either","A1DIGREVLNOXT3","either","1","","","","","","","0","1","0","","0.8","0.5","0.5","0.5","0.5","0.8","0.2","0.6","0.2","","","","","","","","","","","72","H","0","img/none_selected.jpg","true","0","full_practice"
"283","","bandit","61","213436","0.0-33.0-8.0","56749897","wem/bandit_either","A1DIGREVLNOXT3","either","1","","","","","","","0","1","0","","0.8","0.5","0.5","0.5","0.5","0.8","0.2","0.6","0.2","","","","","","","","","","","72","H","0","img/none_selected.jpg","true","0","full_practice"
"250","","bandit","62","215193","0.0-33.0-9.0","56749897","wem/bandit_either","A1DIGREVLNOXT3","either","1","","","","","","","1","0","0","0.8","","0.5","0.5","0.5","0.5","","","","","0.8","0.2","0.6","0.2","","","","","","","72","H","0","img/none_selected.jpg","true","0","full_practice"
"285","","bandit","63","216984","0.0-33.0-10.0","56749897","wem/bandit_either","A1DIGREVLNOXT3","either","1","","","","","","","1","0","0","0.8","","0.5","0.5","0.5","0.5","","","","","0.8","0.2","0.6","0.2","","","","","","","72","H","0","img/none_selected.jpg","true","0","full_practice"
"259","","bandit","64","218749","0.0-33.0-11.0","56749897","wem/bandit_either","A1DIGREVLNOXT3","either","1","","","","","","","0","0","1","","0.8","0.5","0.5","0.5","0.5","0.8","0.2","0.6","0.2","","","","","","","","","","","72","H","0","img/none_selected.jpg","true","0","full_practice"
"134","","bandit","65","220388","0.0-33.0-12.0","56749897","wem/bandit_either","A1DIGREVLNOXT3","either","1","","","","","","","0","1","0","","0.8","0.5","0.5","0.5","0.5","0.8","0.2","0.6","0.2","","","","","","","","","","","72","H","0","img/none_selected.jpg","true","0","full_practice"
"309","","bandit","66","222202","0.0-33.0-13.0","56749897","wem/bandit_either","A1DIGREVLNOXT3","either","1","","","","","","","0","0","1","","0.8","0.5","0.5","0.5","0.5","0.8","0.2","0.6","0.2","","","","","","","","","","","72","H","0","img/none_selected.jpg","true","0","full_practice"
"348","","bandit","67","224057","0.0-33.0-14.0","56749897","wem/bandit_either","A1DIGREVLNOXT3","either","1","","","","","","","0","0","1","","0.8","0.5","0.5","0.5","0.5","0.8","0.2","0.6","0.2","","","","","","","","","","","72","H","0","img/none_selected.jpg","true","0","full_practice"
"321","","bandit","68","225882","0.0-33.0-15.0","56749897","wem/bandit_either","A1DIGREVLNOXT3","either","1","","","","","","","0","1","0","","0.8","0.5","0.5","0.5","0.5","0.8","0.2","0.6","0.2","","","","","","","","","","","72","H","0","img/none_selected.jpg","true","0","full_practice"
"320","","bandit","69","227707","0.0-33.0-16.0","56749897","wem/bandit_either","A1DIGREVLNOXT3","either","1","","","","","","","0","1","0","","0.8","0.5","0.5","0.5","0.5","0.8","0.2","0.6","0.2","","","","","","","","","","","72","H","0","img/none_selected.jpg","true","0","full_practice"
"276","","bandit","70","229489","0.0-33.0-17.0","56749897","wem/bandit_either","A1DIGREVLNOXT3","either","1","","","","","","","0","0","1","","0.8","0.5","0.5","0.5","0.5","0.8","0.2","0.6","0.2","","","","","","","","","","","72","H","0","img/none_selected.jpg","true","0","full_practice"
"483","","bandit","71","231480","0.0-33.0-18.0","56749897","wem/bandit_either","A1DIGREVLNOXT3","either","1","","","","","","","0","1","0","","0.8","0.5","0.5","0.5","0.5","0.8","0.2","0.6","0.2","","","","","","","","","","","72","H","0","img/none_selected.jpg","true","0","full_practice"
"275","","bandit","72","233261","0.0-33.0-19.0","56749897","wem/bandit_either","A1DIGREVLNOXT3","either","1","","","","","","","1","0","0","0.8","","0.5","0.5","0.5","0.5","","","","","0.8","0.2","0.6","0.2","","","","","","","72","H","0","img/none_selected.jpg","true","0","full_practice"
"3722","","text","73","236987","0.0-34.0","56749897","wem/bandit_either","A1DIGREVLNOXT3","either","1","32","","","","","","","","","","","","","","","","","","","","","","","","","","","","","","","","","","",""
"11523","","text","74","249513","0.0-35.0","56749897","wem/bandit_either","A1DIGREVLNOXT3","either","1","32","","","","","","","","","","","","","","","","","","","","","","","","","","","","","","","","","","",""
"10481","","text","75","259997","0.0-36.0","56749897","wem/bandit_either","A1DIGREVLNOXT3","either","1","32","","","","","","","","","","","","","","","","","","","","","","","","","","","","","","","","","","",""
"5731","","text","76","265729","0.0-37.0","56749897","wem/bandit_either","A1DIGREVLNOXT3","either","1","32","","","","","","","","","","","","","","","","","","","","","","","","","","","","","","","","","","",""
"4090","","text","77","269822","0.0-38.0","56749897","wem/bandit_either","A1DIGREVLNOXT3","either","1","32","","","","","","","","","","","","","","","","","","","","","","","","","","","","","","","","","","",""
"4467","","text","78","274292","0.0-39.0","56749897","wem/bandit_either","A1DIGREVLNOXT3","either","1","32","","","","","","","","","","","","","","","","","","","","","","","","","","","","","","","","","","",""
"1082","","bandit","79","276879","0.0-40.0-0.0","56749897","wem/bandit_either","A1DIGREVLNOXT3","either","1","","","","","","","0","0","1","","0.0798457429","0.6","0.4","0.2","0.8","0.0798457429","0.02943109976","0.4269289603","0.3592836462","","","","","","","","","","","72","H","0","img/none_selected.jpg","","1","main_expt"
"43","","bandit","80","278426","0.0-41.0-0.0","56749897","wem/bandit_either","A1DIGREVLNOXT3","either","1","","","","","","","0","0","1","","0.07621336767","0.6","0.4","0.2","0.8","0.07621336767","0.06336112212","0.4660243271","0.3454903542","","","","","","","","","","","72","H","0","img/none_selected.jpg","","2","main_expt"
"77","","bandit","81","280010","0.0-42.0-0.0","56749897","wem/bandit_either","A1DIGREVLNOXT3","either","1","","","","","","","0","0","1","0.07335687118","","0.6","0.4","0.2","0.8","","","","","0.07476295528","0.07335687118","0.4738503749","0.2941512374","","","","","","","74","J","1","","","3","main_expt"
"194","","bandit","82","281713","0.0-43.0-0.0","56749897","wem/bandit_either","A1DIGREVLNOXT3","either","1","","","","","","","0","0","1","","0.4618500418","0.6","0.4","0.2","0.8","0.06526985361","0.06156305515","0.4618500418","0.2851241965","","","","","","","","","","","75","K","2","","","4","main_expt"
"307","","bandit","83","283525","0.0-44.0-0.0","56749897","wem/bandit_either","A1DIGREVLNOXT3","either","1","","","","","","","0","0","1","0.3172925843","","0.6","0.4","0.2","0.8","","","","","0.05487735528","0.08141194251","0.4488935273","0.3172925843","","","","","","","76","L","3","","","5","main_expt"
"261","","bandit","84","285292","0.0-45.0-0.0","56749897","wem/bandit_either","A1DIGREVLNOXT3","either","1","","","","","","","0","0","1","0.3319153021","","0.6","0.4","0.2","0.8","","","","","0.04340015571","0.1104821702","0.4437832297","0.3319153021","","","","","","","76","L","3","","","6","main_expt"
"315","","bandit","85","287114","0.0-46.0-0.0","56749897","wem/bandit_either","A1DIGREVLNOXT3","either","1","","","","","","","0","1","0","","0.4310077805","0.6","0.4","0.2","0.8","0.04575060371","0.1191408541","0.4310077805","0.3553039772","","","","","","","","","","","75","K","2","","","7","main_expt"
"281","","bandit","86","288902","0.0-47.0-0.0","56749897","wem/bandit_either","A1DIGREVLNOXT3","either","1","","","","","","","0","1","0","","0.4480386191","0.6","0.4","0.2","0.8","0.06112087539","0.1517570037","0.4480386191","0.3868093767","","","","","","","","","","","75","K","2","","","8","main_expt"
"221","","bandit","87","290629","0.0-48.0-0.0","56749897","wem/bandit_either","A1DIGREVLNOXT3","either","1","","","","","","","0","1","0","","0.4460224538","0.6","0.4","0.2","0.8","0.07854191076","0.1738087075","0.4460224538","0.3754406694","","","","","","","","","","","75","K","2","","","9","main_expt"
"147","","bandit","88","292283","0.0-49.0-0.0","56749897","wem/bandit_either","A1DIGREVLNOXT3","either","1","","","","","","","0","0","1","0.3954493452","","0.6","0.4","0.2","0.8","","","","","0.06865483858","0.2033535465","0.3954493452","0.3537433427","","","","","","","75","K","2","","","10","main_expt"
"249","","bandit","89","294040","0.0-50.0-0.0","56749897","wem/bandit_either","A1DIGREVLNOXT3","either","1","","","","","","","1","0","0","0.4064238371","","0.6","0.4","0.2","0.8","","","","","0.05083805298","0.1751631116","0.4064238371","0.3793358735","","","","","","","75","K","2","","","11","main_expt"
"261","","bandit","90","295805","0.0-51.0-0.0","56749897","wem/bandit_either","A1DIGREVLNOXT3","either","1","","","","","","","0","0","1","","0.3800839449","0.6","0.4","0.2","0.8","0.1038792476","0.1787487179","0.3800839449","0.3800428212","","","","","","","","","","","75","K","2","","","12","main_expt"
"197","","bandit","91","297507","0.0-52.0-0.0","56749897","wem/bandit_either","A1DIGREVLNOXT3","either","1","","","","","","","0","0","1","0.3866628193","","0.6","0.4","0.2","0.8","","","","","0.1197284353","0.1794712961","0.3866628193","0.3647981021","","","","","","","75","K","2","","","13","main_expt"
"125","","bandit","92","299138","0.0-53.0-0.0","56749897","wem/bandit_either","A1DIGREVLNOXT3","either","1","","","","","","","1","0","0","0.326509825","","0.6","0.4","0.2","0.8","","","","","0.135681701","0.2482140722","0.326509825","0.3646471907","","","","","","","75","K","2","","","14","main_expt"
"140","","bandit","93","300784","0.0-54.0-0.0","56749897","wem/bandit_either","A1DIGREVLNOXT3","either","1","","","","","","","0","0","1","","0.2428529647","0.6","0.4","0.2","0.8","0.125153919","0.2859415589","0.2428529647","0.3549291363","","","","","","","","","","","75","K","2","","","15","main_expt"
"122","","bandit","94","302412","0.0-55.0-0.0","56749897","wem/bandit_either","A1DIGREVLNOXT3","either","1","","","","","","","0","1","0","","0.26587149","0.6","0.4","0.2","0.8","0.1096891688","0.26587149","0.2332962783","0.3727350689","","","","","","","","","","","74","J","1","","","16","main_expt"
"213","","bandit","95","304167","0.0-56.0-0.0","56749897","wem/bandit_either","A1DIGREVLNOXT3","either","1","","","","","","","0","0","1","","0.2776265896","0.6","0.4","0.2","0.8","0.1051581447","0.2776265896","0.2271032234","0.3112083829","","","","","","","","","","","74","J","1","","","17","main_expt"
"119","","bandit","96","305790","0.0-57.0-0.0","56749897","wem/bandit_either","A1DIGREVLNOXT3","either","1","","","","","","","0","1","0","","0.3223387563","0.6","0.4","0.2","0.8","0.1437943492","0.3223387563","0.1701710303","0.2403081055","","","","","","","","","","","74","J","1","","","18","main_expt"
"255","","bandit","97","307550","0.0-58.0-0.0","56749897","wem/bandit_either","A1DIGREVLNOXT3","either","1","","","","","","","0","1","0","","0.3192918255","0.6","0.4","0.2","0.8","0.1405615485","0.3192918255","0.2070198111","0.2377482675","","","","","","","","","","","74","J","1","","","19","main_expt"
"164","","bandit","98","309222","0.0-59.0-0.0","56749897","wem/bandit_either","A1DIGREVLNOXT3","either","1","","","","","","","0","0","1","","0.2739159796","0.6","0.4","0.2","0.8","0.1063334751","0.2739159796","0.2412547966","0.2607530295","","","","","","","","","","","74","J","1","","","20","main_expt"
"123","","bandit","99","310853","0.0-60.0-0.0","56749897","wem/bandit_either","A1DIGREVLNOXT3","either","1","","","","","","","0","0","1","","0.2454385858","0.6","0.4","0.2","0.8","0.07848250716","0.2454385858","0.2184758186","0.2919400674","","","","","","","","","","","74","J","1","","","21","main_expt"
"225","","bandit","100","312583","0.0-61.0-0.0","56749897","wem/bandit_either","A1DIGREVLNOXT3","either","1","","","","","","","0","0","1","0.2340842041","","0.6","0.4","0.2","0.8","","","","","0.1005082742","0.2340842041","0.1849325376","0.2995681058","","","","","","","74","J","1","","","22","main_expt"
"133","","bandit","101","314226","0.0-62.0-0.0","56749897","wem/bandit_either","A1DIGREVLNOXT3","either","1","","","","","","","0","0","1","","0.1840173947","0.6","0.4","0.2","0.8","0.0792694407","0.1840173947","0.1521197653","0.292554742","","","","","","","","","","","74","J","1","","","23","main_expt"
"326","","bandit","102","316057","0.0-63.0-0.0","56749897","wem/bandit_either","A1DIGREVLNOXT3","either","1","","","","","","","0","0","1","0.07358699385","","0.6","0.4","0.2","0.8","","","","","0.07358699385","0.1745529383","0.1759403195","0.3616894364","","","","","","","72","H","0","img/none_selected.jpg","","24","main_expt"
"333","","bandit","103","317899","0.0-64.0-0.0","56749897","wem/bandit_either","A1DIGREVLNOXT3","either","1","","","","","","","0","0","1","0.142208116","","0.6","0.4","0.2","0.8","","","","","0.142208116","0.1756582033","0.09479311865","0.3575757263","","","","","","","72","H","0","img/none_selected.jpg","","25","main_expt"
"249","","bandit","104","319654","0.0-65.0-0.0","56749897","wem/bandit_either","A1DIGREVLNOXT3","either","1","","","","","","","0","0","1","","0.08156123497","0.6","0.4","0.2","0.8","0.1245113583","0.2086365416","0.08156123497","0.3635346368","","","","","","","","","","","75","K","2","","","26","main_expt"
"283","","bandit","105","321444","0.0-66.0-0.0","56749897","wem/bandit_either","A1DIGREVLNOXT3","either","1","","","","","","","0","0","1","0.4109801844","","0.6","0.4","0.2","0.8","","","","","0.118364605","0.2139763749","0.1102307873","0.4109801844","","","","","","","76","L","3","","","27","main_expt"
"245","","bandit","106","323193","0.0-67.0-0.0","56749897","wem/bandit_either","A1DIGREVLNOXT3","either","1","","","","","","","0","0","1","0.3772962545","","0.6","0.4","0.2","0.8","","","","","0.1105930361","0.1613483267","0.08274430796","0.3772962545","","","","","","","76","L","3","","","28","main_expt"
"308","","bandit","107","325007","0.0-68.0-0.0","56749897","wem/bandit_either","A1DIGREVLNOXT3","either","1","","","","","","","0","0","1","","0.1086911099","0.6","0.4","0.2","0.8","0.1118713044","0.1712488152","0.1086911099","0.3875745016","","","","","","","","","","","75","K","2","","","29","main_expt"
"174","","bandit","108","326686","0.0-69.0-0.0","56749897","wem/bandit_either","A1DIGREVLNOXT3","either","1","","","","","","","0","0","1","","0.1116575632","0.6","0.4","0.2","0.8","0.1914750456","0.1675524316","0.1116575632","0.3780019893","","","","","","","","","","","75","K","2","","","30","main_expt"
"147","","bandit","109","328339","0.0-70.0-0.0","56749897","wem/bandit_either","A1DIGREVLNOXT3","either","1","","","","","","","0","0","1","","0.140325158","0.6","0.4","0.2","0.8","0.2367730164","0.140325158","0.07828091442","0.416860241","","","","","","","","","","","74","J","1","","","31","main_expt"
"108","","bandit","110","329952","0.0-71.0-0.0","56749897","wem/bandit_either","A1DIGREVLNOXT3","either","1","","","","","","","0","0","1","","0.1553940025","0.6","0.4","0.2","0.8","0.2109574779","0.1553940025","0.07550395781","0.4242573056","","","","","","","","","","","74","J","1","","","32","main_expt"
"227","","bandit","111","331685","0.0-72.0-0.0","56749897","wem/bandit_either","A1DIGREVLNOXT3","either","1","","","","","","","1","0","0","0.2005542758","","0.6","0.4","0.2","0.8","","","","","0.2005542758","0.1925614924","0.1445529326","0.4185546122","","","","","","","72","H","0","img/none_selected.jpg","","33","main_expt"
"236","","bandit","112","333427","0.0-73.0-0.0","56749897","wem/bandit_either","A1DIGREVLNOXT3","either","1","","","","","","","0","0","1","","0.180377021","0.6","0.4","0.2","0.8","0.180377021","0.2150530123","0.1091775744","0.4268308419","","","","","","","","","","","72","H","0","img/none_selected.jpg","","34","main_expt"
"155","","bandit","113","335095","0.0-74.0-0.0","56749897","wem/bandit_either","A1DIGREVLNOXT3","either","1","","","","","","","0","0","1","0.2111187229","","0.6","0.4","0.2","0.8","","","","","0.2111187229","0.2688968874","0.1297995116","0.4265642185","","","","","","","72","H","0","img/none_selected.jpg","","35","main_expt"
"198","","bandit","114","336799","0.0-75.0-0.0","56749897","wem/bandit_either","A1DIGREVLNOXT3","either","1","","","","","","","0","0","1","","0.2119332756","0.6","0.4","0.2","0.8","0.2119332756","0.2977459964","0.09468550628","0.4066287969","","","","","","","","","","","72","H","0","img/none_selected.jpg","","36","main_expt"
"274","","bandit","115","338614","0.0-76.0-0.0","56749897","wem/bandit_either","A1DIGREVLNOXT3","either","1","","","","","","","0","0","1","","0.2684429955","0.6","0.4","0.2","0.8","0.2256131965","0.2684429955","0.09396978408","0.4611471687","","","","","","","","","","","74","J","1","","","37","main_expt"
"92","","bandit","116","340213","0.0-77.0-0.0","56749897","wem/bandit_either","A1DIGREVLNOXT3","either","1","","","","","","","0","0","1","","0.1062257399","0.6","0.4","0.2","0.8","0.1975147253","0.2490186117","0.1062257399","0.4482708269","","","","","","","","","","","75","K","2","","","38","main_expt"
"259","","bandit","117","341976","0.0-78.0-0.0","56749897","wem/bandit_either","A1DIGREVLNOXT3","either","1","","","","","","","0","0","1","0.4402774387","","0.6","0.4","0.2","0.8","","","","","0.1595648847","0.2548033483","0.09676453159","0.4402774387","","","","","","","76","L","3","","","39","main_expt"
"405","","bandit","118","343888","0.0-79.0-0.0","56749897","wem/bandit_either","A1DIGREVLNOXT3","either","1","","","","","","","0","0","1","0.4385128538","","0.6","0.4","0.2","0.8","","","","","0.1626610004","0.2688720753","0.08197179495","0.4385128538","","","","","","","76","L","3","","","40","main_expt"
"130","","bandit","119","345606","0.0-80.0-0.0","56749897","wem/bandit_either","A1DIGREVLNOXT3","either","1","","","","","","","0","0","1","","0.14416382","0.6","0.4","0.2","0.8","0.1982402655","0.297778532","0.14416382","0.4380640779","","","","","","","","","","","75","K","2","","","41","main_expt"
"265","","bandit","120","347376","0.0-81.0-0.0","56749897","wem/bandit_either","A1DIGREVLNOXT3","either","1","","","","","","","0","0","1","0.2449207522","","0.6","0.4","0.2","0.8","","","","","0.1863610343","0.2449207522","0.1070927036","0.4265224768","","","","","","","74","J","1","","","42","main_expt"
"309","","bandit","121","349192","0.0-82.0-0.0","56749897","wem/bandit_either","A1DIGREVLNOXT3","either","1","","","","","","","1","0","0","0.2418389683","","0.6","0.4","0.2","0.8","","","","","0.2418389683","0.2457567503","0.1214526226","0.435880106","","","","","","","72","H","0","img/none_selected.jpg","","43","main_expt"
"192","","bandit","122","350894","0.0-83.0-0.0","56749897","wem/bandit_either","A1DIGREVLNOXT3","either","1","","","","","","","1","0","0","0.1943491227","","0.6","0.4","0.2","0.8","","","","","0.1943491227","0.2432732657","0.1450738833","0.4450576882","","","","","","","72","H","0","img/none_selected.jpg","","44","main_expt"
"272","","bandit","123","352673","0.0-84.0-0.0","56749897","wem/bandit_either","A1DIGREVLNOXT3","either","1","","","","","","","0","0","1","","0.1543250971","0.6","0.4","0.2","0.8","0.1543250971","0.2656772236","0.09632230927","0.4382030275","","","","","","","","","","","72","H","0","img/none_selected.jpg","","45","main_expt"
"171","","bandit","124","354351","0.0-85.0-0.0","56749897","wem/bandit_either","A1DIGREVLNOXT3","either","1","","","","","","","0","0","1","","0.09719433791","0.6","0.4","0.2","0.8","0.09719433791","0.2432112423","0.103211431","0.4412369426","","","","","","","","","","","72","H","0","img/none_selected.jpg","","46","main_expt"
"194","","bandit","125","356052","0.0-86.0-0.0","56749897","wem/bandit_either","A1DIGREVLNOXT3","either","1","","","","","","","0","0","1","","0.1228880329","0.6","0.4","0.2","0.8","0.1228880329","0.2992745976","0.09916324924","0.4588863431","","","","","","","","","","","72","H","0","img/none_selected.jpg","","47","main_expt"
"237","","bandit","126","357797","0.0-87.0-0.0","56749897","wem/bandit_either","A1DIGREVLNOXT3","either","1","","","","","","","0","0","1","0.1068532567","","0.6","0.4","0.2","0.8","","","","","0.1068532567","0.2594611615","0.1090242341","0.4408788818","","","","","","","72","H","0","img/none_selected.jpg","","48","main_expt"
"250","","bandit","127","359586","0.0-88.0-0.0","56749897","wem/bandit_either","A1DIGREVLNOXT3","either","1","","","","","","","0","0","1","0.1044048509","","0.6","0.4","0.2","0.8","","","","","0.1044048509","0.2767916858","0.1265186769","0.4232064109","","","","","","","72","H","0","img/none_selected.jpg","","49","main_expt"
"179","","bandit","128","361272","0.0-89.0-0.0","56749897","wem/bandit_either","A1DIGREVLNOXT3","either","1","","","","","","","0","0","1","","0.1072026782","0.6","0.4","0.2","0.8","0.1072026782","0.2762534014","0.1397440907","0.4210883962","","","","","","","","","","","72","H","0","img/none_selected.jpg","","50","main_expt"
"97","","bandit","129","362877","0.0-90.0-0.0","56749897","wem/bandit_either","A1DIGREVLNOXT3","either","1","","","","","","","0","0","1","","0.3379376541","0.6","0.4","0.2","0.8","0.1287882573","0.3379376541","0.153600331","0.4225635581","","","","","","","","","","","74","J","1","","","51","main_expt"
"163","","bandit","130","364545","0.0-91.0-0.0","56749897","wem/bandit_either","A1DIGREVLNOXT3","either","1","","","","","","","0","0","1","","0.3395267946","0.6","0.4","0.2","0.8","0.1298059469","0.3395267946","0.1718407591","0.4146237098","","","","","","","","","","","74","J","1","","","52","main_expt"
"332","","bandit","131","366385","0.0-92.0-0.0","56749897","wem/bandit_either","A1DIGREVLNOXT3","either","1","","","","","","","0","0","1","","0.29674647","0.6","0.4","0.2","0.8","0.07423060895","0.29674647","0.1945727614","0.3763623321","","","","","","","","","","","74","J","1","","","53","main_expt"
"161","","bandit","132","368055","0.0-93.0-0.0","56749897","wem/bandit_either","A1DIGREVLNOXT3","either","1","","","","","","","1","0","0","0.2450542523","","0.6","0.4","0.2","0.8","","","","","0.08562383645","0.3372955831","0.2450542523","0.3289081181","","","","","","","75","K","2","","","54","main_expt"
"146","","bandit","133","369709","0.0-94.0-0.0","56749897","wem/bandit_either","A1DIGREVLNOXT3","either","1","","","","","","","0","0","1","","0.2547241938","0.6","0.4","0.2","0.8","0.0757818623","0.3506099842","0.2547241938","0.3025984711","","","","","","","","","","","75","K","2","","","55","main_expt"
"243","","bandit","134","371458","0.0-95.0-0.0","56749897","wem/bandit_either","A1DIGREVLNOXT3","either","1","","","","","","","0","0","1","","0.2595112895","0.6","0.4","0.2","0.8","0.09897923035","0.3418029788","0.2595112895","0.2921333137","","","","","","","","","","","75","K","2","","","56","main_expt"
"203","","bandit","135","373169","0.0-96.0-0.0","56749897","wem/bandit_either","A1DIGREVLNOXT3","either","1","","","","","","","0","0","1","","0.2610276213","0.6","0.4","0.2","0.8","0.1160875525","0.3162475816","0.2610276213","0.3317177772","","","","","","","","","","","75","K","2","","","57","main_expt"
"108","","bandit","136","374782","0.0-97.0-0.0","56749897","wem/bandit_either","A1DIGREVLNOXT3","either","1","","","","","","","1","0","0","0.3240244649","","0.6","0.4","0.2","0.8","","","","","0.1134641846","0.3269881105","0.2354201416","0.3240244649","","","","","","","76","L","3","","","58","main_expt"
"269","","bandit","137","376558","0.0-98.0-0.0","56749897","wem/bandit_either","A1DIGREVLNOXT3","either","1","","","","","","","0","0","1","","0.2988076671","0.6","0.4","0.2","0.8","0.1177083384","0.2901324944","0.2346370837","0.2988076671","","","","","","","","","","","76","L","3","","","59","main_expt"
"258","","bandit","138","378323","0.0-99.0-0.0","56749897","wem/bandit_either","A1DIGREVLNOXT3","either","1","","","","","","","0","0","1","0.3096792726","","0.6","0.4","0.2","0.8","","","","","0.1125723432","0.289588464","0.2315637733","0.3096792726","","","","","","","76","L","3","","","60","main_expt"
"301","","bandit","139","380131","0.0-100.0-0.0","56749897","wem/bandit_either","A1DIGREVLNOXT3","either","1","","","","","","","0","0","1","0.2821336973","","0.6","0.4","0.2","0.8","","","","","0.09911093426","0.2782845563","0.2599537756","0.2821336973","","","","","","","76","L","3","","","61","main_expt"
"376","","bandit","140","382014","0.0-101.0-0.0","56749897","wem/bandit_either","A1DIGREVLNOXT3","either","1","","","","","","","0","0","1","","0.09440438105","0.6","0.4","0.2","0.8","0.09440438105","0.3165490401","0.2594941563","0.2414244345","","","","","","","","","","","72","H","0","img/none_selected.jpg","","62","main_expt"
"51","","bandit","141","383571","0.0-102.0-0.0","56749897","wem/bandit_either","A1DIGREVLNOXT3","either","1","","","","","","","0","0","1","0.1015409351","","0.6","0.4","0.2","0.8","","","","","0.1015409351","0.3034564924","0.2660839385","0.213639373","","","","","","","72","H","0","img/none_selected.jpg","","63","main_expt"
"194","","bandit","142","385274","0.0-103.0-0.0","56749897","wem/bandit_either","A1DIGREVLNOXT3","either","1","","","","","","","0","0","1","","0.2506654962","0.6","0.4","0.2","0.8","0.07049798599","0.2506654962","0.2426585031","0.1876308072","","","","","","","","","","","74","J","1","","","64","main_expt"
"194","","bandit","143","386974","0.0-104.0-0.0","56749897","wem/bandit_either","A1DIGREVLNOXT3","either","1","","","","","","","0","1","0","","0.253414466","0.6","0.4","0.2","0.8","0.05735603507","0.253414466","0.2581047566","0.1841803182","","","","","","","","","","","74","J","1","","","65","main_expt"
"213","","bandit","144","388693","0.0-105.0-0.0","56749897","wem/bandit_either","A1DIGREVLNOXT3","either","1","","","","","","","0","1","0","","0.2836500186","0.6","0.4","0.2","0.8","0.0621258055","0.2836500186","0.2872127433","0.187417598","","","","","","","","","","","74","J","1","","","66","main_expt"
"228","","bandit","145","390428","0.0-106.0-0.0","56749897","wem/bandit_either","A1DIGREVLNOXT3","either","1","","","","","","","0","0","1","","0.3217852231","0.6","0.4","0.2","0.8","0.06966106928","0.3217852231","0.3232337643","0.1395950637","","","","","","","","","","","74","J","1","","","67","main_expt"
"129","","bandit","146","392065","0.0-107.0-0.0","56749897","wem/bandit_either","A1DIGREVLNOXT3","either","1","","","","","","","1","0","0","0.3574581916","","0.6","0.4","0.2","0.8","","","","","0.09965709916","0.3574581916","0.3376006622","0.1363519197","","","","","","","74","J","1","","","68","main_expt"
"172","","bandit","147","393743","0.0-108.0-0.0","56749897","wem/bandit_either","A1DIGREVLNOXT3","either","1","","","","","","","0","1","0","","0.3884563005","0.6","0.4","0.2","0.8","0.1428217854","0.3884563005","0.2917609244","0.1117144852","","","","","","","","","","","74","J","1","","","69","main_expt"
"271","","bandit","148","395524","0.0-109.0-0.0","56749897","wem/bandit_either","A1DIGREVLNOXT3","either","1","","","","","","","0","1","0","","0.3920047773","0.6","0.4","0.2","0.8","0.1866845388","0.3920047773","0.2218665627","0.09667493602","","","","","","","","","","","74","J","1","","","70","main_expt"
"178","","bandit","149","397211","0.0-110.0-0.0","56749897","wem/bandit_either","A1DIGREVLNOXT3","either","1","","","","","","","0","1","0","","0.4066376731","0.6","0.4","0.2","0.8","0.1702545286","0.4066376731","0.2409383839","0.09186933139","","","","","","","","","","","74","J","1","","","71","main_expt"
"296","","bandit","150","399015","0.0-111.0-0.0","56749897","wem/bandit_either","A1DIGREVLNOXT3","either","1","","","","","","","0","1","0","","0.3443789926","0.6","0.4","0.2","0.8","0.1836279043","0.3443789926","0.1920783453","0.09472009463","","","","","","","","","","","74","J","1","","","72","main_expt"
"302","","bandit","151","400824","0.0-112.0-0.0","56749897","wem/bandit_either","A1DIGREVLNOXT3","either","1","","","","","","","0","1","0","","0.3227553012","0.6","0.4","0.2","0.8","0.1644348242","0.3227553012","0.1905254877","0.1167805336","","","","","","","","","","","74","J","1","","","73","main_expt"
"234","","bandit","152","402564","0.0-113.0-0.0","56749897","wem/bandit_either","A1DIGREVLNOXT3","either","1","","","","","","","0","0","1","","0.3336652139","0.6","0.4","0.2","0.8","0.1833421201","0.3336652139","0.184198213","0.1465151254","","","","","","","","","","","74","J","1","","","74","main_expt"
"251","","bandit","153","404322","0.0-114.0-0.0","56749897","wem/bandit_either","A1DIGREVLNOXT3","either","1","","","","","","","1","0","0","0.2890150868","","0.6","0.4","0.2","0.8","","","","","0.1519653276","0.2890150868","0.1881920243","0.123285719","","","","","","","74","J","1","","","75","main_expt"
"276","","bandit","154","406105","0.0-115.0-0.0","56749897","wem/bandit_either","A1DIGREVLNOXT3","either","1","","","","","","","0","1","0","","0.2673490463","0.6","0.4","0.2","0.8","0.1506622639","0.2673490463","0.1988930589","0.1392606081","","","","","","","","","","","74","J","1","","","76","main_expt"
"211","","bandit","155","407821","0.0-116.0-0.0","56749897","wem/bandit_either","A1DIGREVLNOXT3","either","1","","","","","","","0","0","1","","0.2858541315","0.6","0.4","0.2","0.8","0.1860897766","0.2858541315","0.2255968657","0.099337717","","","","","","","","","","","74","J","1","","","77","main_expt"
"357","","bandit","156","409685","0.0-117.0-0.0","56749897","wem/bandit_either","A1DIGREVLNOXT3","either","1","","","","","","","0","0","1","","0.2639968829","0.6","0.4","0.2","0.8","0.1618556875","0.2639968829","0.1917014014","0.09666605973","","","","","","","","","","","74","J","1","","","78","main_expt"
"225","","bandit","157","411511","0.0-118.0-0.0","56749897","wem/bandit_either","A1DIGREVLNOXT3","either","1","","","","","","","0","0","1","","0.2304888896","0.6","0.4","0.2","0.8","0.1976853889","0.2304888896","0.2092129429","0.09639353985","","","","","","","","","","","74","J","1","","","79","main_expt"
"354","","bandit","158","413375","0.0-119.0-0.0","56749897","wem/bandit_either","A1DIGREVLNOXT3","either","1","","","","","","","0","0","1","","0.09566996791","0.6","0.4","0.2","0.8","0.2198838985","0.1991809665","0.1974306726","0.09566996791","","","","","","","","","","","76","L","3","","","80","main_expt"
"260","","bandit","159","415141","0.0-120.0-0.0","56749897","wem/bandit_either","A1DIGREVLNOXT3","either","1","","","","","","","0","0","1","0.07958501382","","0.6","0.4","0.2","0.8","","","","","0.2167005254","0.1627434897","0.1414754506","0.07958501382","","","","","","","76","L","3","","","81","main_expt"
"339","","bandit","160","416986","0.0-121.0-0.0","56749897","wem/bandit_either","A1DIGREVLNOXT3","either","1","","","","","","","0","0","1","0.2527486409","","0.6","0.4","0.2","0.8","","","","","0.2527486409","0.1624637972","0.1422587364","0.08833774835","","","","","","","72","H","0","img/none_selected.jpg","","82","main_expt"
"315","","bandit","161","418809","0.0-122.0-0.0","56749897","wem/bandit_either","A1DIGREVLNOXT3","either","1","","","","","","","0","0","1","","0.2569721607","0.6","0.4","0.2","0.8","0.2569721607","0.1900332","0.1079415531","0.09109006352","","","","","","","","","","","72","H","0","img/none_selected.jpg","","83","main_expt"
"276","","bandit","162","420591","0.0-123.0-0.0","56749897","wem/bandit_either","A1DIGREVLNOXT3","either","1","","","","","","","0","0","1","","0.07696487024","0.6","0.4","0.2","0.8","0.2535394321","0.1705646391","0.07696487024","0.05321730921","","","","","","","","","","","75","K","2","","","84","main_expt"
"256","","bandit","163","422356","0.0-124.0-0.0","56749897","wem/bandit_either","A1DIGREVLNOXT3","either","1","","","","","","","0","0","1","","0.08313016423","0.6","0.4","0.2","0.8","0.2255799186","0.2053302659","0.08313016423","0.03321009489","","","","","","","","","","","75","K","2","","","85","main_expt"
"233","","bandit","164","424097","0.0-125.0-0.0","56749897","wem/bandit_either","A1DIGREVLNOXT3","either","1","","","","","","","0","0","1","0.2128685413","","0.6","0.4","0.2","0.8","","","","","0.2197080914","0.2128685413","0.102083396","0.04864990798","","","","","","","74","J","1","","","86","main_expt"
"84","","bandit","165","425686","0.0-126.0-0.0","56749897","wem/bandit_either","A1DIGREVLNOXT3","either","1","","","","","","","0","0","1","0.213778815","","0.6","0.4","0.2","0.8","","","","","0.2230338057","0.213778815","0.09067070718","0.07919268752","","","","","","","74","J","1","","","87","main_expt"
"269","","bandit","166","427461","0.0-127.0-0.0","56749897","wem/bandit_either","A1DIGREVLNOXT3","either","1","","","","","","","0","0","1","","0.2484269739","0.6","0.4","0.2","0.8","0.2484269739","0.2102340809","0.1421970704","0.05835116993","","","","","","","","","","","72","H","0","img/none_selected.jpg","","88","main_expt"
"282","","bandit","167","429257","0.0-128.0-0.0","56749897","wem/bandit_either","A1DIGREVLNOXT3","either","1","","","","","","","0","0","1","0.05115519592","","0.6","0.4","0.2","0.8","","","","","0.2733562597","0.1809358483","0.219142046","0.05115519592","","","","","","","76","L","3","","","89","main_expt"
"291","","bandit","168","431056","0.0-129.0-0.0","56749897","wem/bandit_either","A1DIGREVLNOXT3","either","1","","","","","","","1","0","0","0.1293356972","","0.6","0.4","0.2","0.8","","","","","0.2973868449","0.1293356972","0.2806923657","0.07819273649","","","","","","","74","J","1","","","90","main_expt"
"252","","bandit","169","432815","0.0-130.0-0.0","56749897","wem/bandit_either","A1DIGREVLNOXT3","either","1","","","","","","","0","0","1","0.1136224352","","0.6","0.4","0.2","0.8","","","","","0.3067689268","0.1136224352","0.2819660137","0.05564661524","","","","","","","74","J","1","","","91","main_expt"
"369","","bandit","170","434693","0.0-131.0-0.0","56749897","wem/bandit_either","A1DIGREVLNOXT3","either","1","","","","","","","0","0","1","","0.07539152519","0.6","0.4","0.2","0.8","0.2719776188","0.07539152519","0.3370305887","0.05914103421","","","","","","","","","","","74","J","1","","","92","main_expt"
"295","","bandit","171","436498","0.0-132.0-0.0","56749897","wem/bandit_either","A1DIGREVLNOXT3","either","1","","","","","","","0","0","1","","0.08243558305","0.6","0.4","0.2","0.8","0.3081791896","0.08243558305","0.3722719914","0.03944324463","","","","","","","","","","","74","J","1","","","93","main_expt"
"227","","bandit","172","438234","0.0-133.0-0.0","56749897","wem/bandit_either","A1DIGREVLNOXT3","either","1","","","","","","","0","0","1","","0.3840030774","0.6","0.4","0.2","0.8","0.356667856","0.09807673793","0.3840030774","0.05023017475","","","","","","","","","","","75","K","2","","","94","main_expt"
"217","","bandit","173","439959","0.0-134.0-0.0","56749897","wem/bandit_either","A1DIGREVLNOXT3","either","1","","","","","","","0","0","1","","0.4050844552","0.6","0.4","0.2","0.8","0.3300765204","0.09746204728","0.4050844552","0.07311956304","","","","","","","","","","","75","K","2","","","95","main_expt"
"313","","bandit","174","441779","0.0-135.0-0.0","56749897","wem/bandit_either","A1DIGREVLNOXT3","either","1","","","","","","","1","0","0","0.3642735905","","0.6","0.4","0.2","0.8","","","","","0.3642735905","0.08559835745","0.4081076376","0.09573717159","","","","","","","72","H","0","img/none_selected.jpg","","96","main_expt"
"259","","bandit","175","443546","0.0-136.0-0.0","56749897","wem/bandit_either","A1DIGREVLNOXT3","either","1","","","","","","","0","0","1","0.3885664579","","0.6","0.4","0.2","0.8","","","","","0.3885664579","0.0732645996","0.4142780263","0.1235519285","","","","","","","72","H","0","img/none_selected.jpg","","97","main_expt"
"282","","bandit","176","445337","0.0-137.0-0.0","56749897","wem/bandit_either","A1DIGREVLNOXT3","either","1","","","","","","","0","0","1","0.4162912028","","0.6","0.4","0.2","0.8","","","","","0.4162912028","0.05343209845","0.4131193208","0.1274282425","","","","","","","72","H","0","img/none_selected.jpg","","98","main_expt"
"290","","bandit","177","447134","0.0-138.0-0.0","56749897","wem/bandit_either","A1DIGREVLNOXT3","either","1","","","","","","","0","0","1","","0.1457321849","0.6","0.4","0.2","0.8","0.4074153657","0.05144299931","0.428944851","0.1457321849","","","","","","","","","","","76","L","3","","","99","main_expt"
"338","","bandit","178","449043","0.0-139.0-0.0","56749897","wem/bandit_either","A1DIGREVLNOXT3","either","1","","","","","","","0","0","1","","0.4279797645","0.6","0.4","0.2","0.8","0.3349137267","0.03934302155","0.4279797645","0.1492128348","","","","","","","","","","","75","K","2","","","100","main_expt"
"279","","bandit","179","450835","0.0-140.0-0.0","56749897","wem/bandit_either","A1DIGREVLNOXT3","either","1","","","","","","","0","0","1","","0.05783306622","0.6","0.4","0.2","0.8","0.2732947861","0.05783306622","0.4189249443","0.125019219","","","","","","","","","","","74","J","1","","","101","main_expt"
"273","","bandit","180","452615","0.0-141.0-0.0","56749897","wem/bandit_either","A1DIGREVLNOXT3","either","1","","","","","","","1","0","0","0.2584454073","","0.6","0.4","0.2","0.8","","","","","0.2584454073","0.06484492547","0.4279241466","0.1008510245","","","","","","","72","H","0","img/none_selected.jpg","","102","main_expt"
"210","","bandit","181","454333","0.0-142.0-0.0","56749897","wem/bandit_either","A1DIGREVLNOXT3","either","1","","","","","","","0","0","1","","0.2143891894","0.6","0.4","0.2","0.8","0.2143891894","0.0701259157","0.419390052","0.1087281004","","","","","","","","","","","72","H","0","img/none_selected.jpg","","103","main_expt"
"178","","bandit","182","456019","0.0-143.0-0.0","56749897","wem/bandit_either","A1DIGREVLNOXT3","either","1","","","","","","","0","1","0","","0.1354346047","0.6","0.4","0.2","0.8","0.1354346047","0.06922647753","0.3761202226","0.143855427","","","","","","","","","","","72","H","0","img/none_selected.jpg","","104","main_expt"
"259","","bandit","183","457786","0.0-144.0-0.0","56749897","wem/bandit_either","A1DIGREVLNOXT3","either","1","","","","","","","0","0","1","","0.1615963473","0.6","0.4","0.2","0.8","0.1615963473","0.07802312096","0.4229881466","0.1606853024","","","","","","","","","","","72","H","0","img/none_selected.jpg","","105","main_expt"
"296","","bandit","184","459590","0.0-145.0-0.0","56749897","wem/bandit_either","A1DIGREVLNOXT3","either","1","","","","","","","0","1","0","","0.1738621023","0.6","0.4","0.2","0.8","0.1738621023","0.08930313369","0.4110558218","0.1612939645","","","","","","","","","","","72","H","0","img/none_selected.jpg","","106","main_expt"
"257","","bandit","185","461432","0.0-146.0-0.0","56749897","wem/bandit_either","A1DIGREVLNOXT3","either","1","","","","","","","0","0","1","","0.1799671425","0.6","0.4","0.2","0.8","0.1799671425","0.1397733654","0.4176599015","0.1778053335","","","","","","","","","","","72","H","0","img/none_selected.jpg","","107","main_expt"
"341","","bandit","186","463285","0.0-147.0-0.0","56749897","wem/bandit_either","A1DIGREVLNOXT3","either","1","","","","","","","0","0","1","0.1844274074","","0.6","0.4","0.2","0.8","","","","","0.1844274074","0.1505899732","0.4210396584","0.1826465361","","","","","","","72","H","0","img/none_selected.jpg","","108","main_expt"
"313","","bandit","187","465103","0.0-148.0-0.0","56749897","wem/bandit_either","A1DIGREVLNOXT3","either","1","","","","","","","0","0","1","0.1702708828","","0.6","0.4","0.2","0.8","","","","","0.1702708828","0.1162436109","0.4328015469","0.1737022726","","","","","","","72","H","0","img/none_selected.jpg","","109","main_expt"
"373","","bandit","188","466983","0.0-149.0-0.0","56749897","wem/bandit_either","A1DIGREVLNOXT3","either","1","","","","","","","0","0","1","0.1658344406","","0.6","0.4","0.2","0.8","","","","","0.1964407335","0.08267976014","0.4495585744","0.1658344406","","","","","","","76","L","3","","","110","main_expt"
"98","","bandit","189","468587","0.0-150.0-0.0","56749897","wem/bandit_either","A1DIGREVLNOXT3","either","1","","","","","","","0","1","0","","0.4237631325","0.6","0.4","0.2","0.8","0.1777579569","0.09389793805","0.4237631325","0.240619448","","","","","","","","","","","75","K","2","","","111","main_expt"
"332","","bandit","190","470426","0.0-151.0-0.0","56749897","wem/bandit_either","A1DIGREVLNOXT3","either","1","","","","","","","0","0","1","0.4521571561","","0.6","0.4","0.2","0.8","","","","","0.1395994444","0.07903418564","0.4521571561","0.1927397719","","","","","","","75","K","2","","","112","main_expt"
"235","","bandit","191","472169","0.0-152.0-0.0","56749897","wem/bandit_either","A1DIGREVLNOXT3","either","1","","","","","","","1","0","0","0.4350762846","","0.6","0.4","0.2","0.8","","","","","0.1205999431","0.05501139052","0.4350762846","0.234725565","","","","","","","75","K","2","","","113","main_expt"
"250","","bandit","192","473927","0.0-153.0-0.0","56749897","wem/bandit_either","A1DIGREVLNOXT3","either","1","","","","","","","1","0","0","0.4315824664","","0.6","0.4","0.2","0.8","","","","","0.09123355482","0.07627702456","0.4315824664","0.1950215869","","","","","","","75","K","2","","","114","main_expt"
"154","","bandit","193","475587","0.0-154.0-0.0","56749897","wem/bandit_either","A1DIGREVLNOXT3","either","1","","","","","","","0","0","1","","0.4127349624","0.6","0.4","0.2","0.8","0.09554471192","0.03985247356","0.4127349624","0.2575833325","","","","","","","","","","","75","K","2","","","115","main_expt"
"162","","bandit","194","477256","0.0-155.0-0.0","56749897","wem/bandit_either","A1DIGREVLNOXT3","either","1","","","","","","","0","0","1","","0.4468356006","0.6","0.4","0.2","0.8","0.1942182492","0.0683792979","0.4468356006","0.2296468005","","","","","","","","","","","75","K","2","","","116","main_expt"
"139","","bandit","195","478903","0.0-156.0-0.0","56749897","wem/bandit_either","A1DIGREVLNOXT3","either","1","","","","","","","0","0","1","","0.4458703805","0.6","0.4","0.2","0.8","0.2208250117","0.03956212276","0.4458703805","0.2816483341","","","","","","","","","","","75","K","2","","","117","main_expt"
"208","","bandit","196","480621","0.0-157.0-0.0","56749897","wem/bandit_either","A1DIGREVLNOXT3","either","1","","","","","","","0","0","1","0.04459229253","","0.6","0.4","0.2","0.8","","","","","0.1687975443","0.04459229253","0.4500370674","0.2626769985","","","","","","","74","J","1","","","118","main_expt"
"273","","bandit","197","482402","0.0-158.0-0.0","56749897","wem/bandit_either","A1DIGREVLNOXT3","either","1","","","","","","","0","0","1","0.2418090277","","0.6","0.4","0.2","0.8","","","","","0.1546105485","0.03386957434","0.4704359259","0.2418090277","","","","","","","76","L","3","","","119","main_expt"
"2","","bandit","198","483911","0.0-159.0-0.0","56749897","wem/bandit_either","A1DIGREVLNOXT3","either","1","","","","","","","0","0","1","0.143668411","","0.6","0.4","0.2","0.8","","","","","0.143668411","0.03305427522","0.4578798539","0.2603236095","","","","","","","72","H","0","img/none_selected.jpg","","120","main_expt"
"260","","bandit","199","485677","0.0-160.0-0.0","56749897","wem/bandit_either","A1DIGREVLNOXT3","either","1","","","","","","","0","0","1","0.2381785671","","0.6","0.4","0.2","0.8","","","","","0.1098317425","0.03146098963","0.4591190262","0.2381785671","","","","","","","76","L","3","","","121","main_expt"
"225","","bandit","200","487410","0.0-161.0-0.0","56749897","wem/bandit_either","A1DIGREVLNOXT3","either","1","","","","","","","0","0","1","0.1097832873","","0.6","0.4","0.2","0.8","","","","","0.1097832873","0.02311797033","0.4643737298","0.2388462554","","","","","","","72","H","0","img/none_selected.jpg","","122","main_expt"
"281","","bandit","201","489199","0.0-162.0-0.0","56749897","wem/bandit_either","A1DIGREVLNOXT3","either","1","","","","","","","0","0","1","","0.0171261738","0.6","0.4","0.2","0.8","0.1145900252","0.0171261738","0.451586091","0.2079929623","","","","","","","","","","","74","J","1","","","123","main_expt"
"138","","bandit","202","490846","0.0-163.0-0.0","56749897","wem/bandit_either","A1DIGREVLNOXT3","either","1","","","","","","","1","0","0","0.4456906556","","0.6","0.4","0.2","0.8","","","","","0.1137783892","0.03468299263","0.4456906556","0.2148400852","","","","","","","75","K","2","","","124","main_expt"
"249","","bandit","203","492604","0.0-164.0-0.0","56749897","wem/bandit_either","A1DIGREVLNOXT3","either","1","","","","","","","0","0","1","0.4240876494","","0.6","0.4","0.2","0.8","","","","","0.145605256","0.02544516396","0.4240876494","0.2185056602","","","","","","","75","K","2","","","125","main_expt"
"203","","bandit","204","494313","0.0-165.0-0.0","56749897","wem/bandit_either","A1DIGREVLNOXT3","either","1","","","","","","","0","0","1","","0.4008501573","0.6","0.4","0.2","0.8","0.1443839055","0.03059506073","0.4008501573","0.2152323899","","","","","","","","","","","75","K","2","","","126","main_expt"
"210","","bandit","205","496032","0.0-166.0-0.0","56749897","wem/bandit_either","A1DIGREVLNOXT3","either","1","","","","","","","0","0","1","","0.4066073101","0.6","0.4","0.2","0.8","0.1434222382","0.0339638967","0.4066073101","0.1699446714","","","","","","","","","","","75","K","2","","","127","main_expt"
"168","","bandit","206","497709","0.0-167.0-0.0","56749897","wem/bandit_either","A1DIGREVLNOXT3","either","1","","","","","","","0","1","0","","0.4270302575","0.6","0.4","0.2","0.8","0.1412168693","0.02632978063","0.4270302575","0.1299446217","","","","","","","","","","","75","K","2","","","128","main_expt"
"275","","bandit","207","499491","0.0-168.0-0.0","56749897","wem/bandit_either","A1DIGREVLNOXT3","either","1","","","","","","","0","0","1","","0.4401824822","0.6","0.4","0.2","0.8","0.1086871361","0.02640977482","0.4401824822","0.1299487573","","","","","","","","","","","75","K","2","","","129","main_expt"
"315","","bandit","208","501313","0.0-169.0-0.0","56749897","wem/bandit_either","A1DIGREVLNOXT3","either","1","","","","","","","0","0","1","","0.4160959849","0.6","0.4","0.2","0.8","0.1672766288","0.03646961518","0.4160959849","0.1172580566","","","","","","","","","","","75","K","2","","","130","main_expt"
"249","","bandit","209","503070","0.0-170.0-0.0","56749897","wem/bandit_either","A1DIGREVLNOXT3","either","1","","","","","","","0","1","0","","0.4374535298","0.6","0.4","0.2","0.8","0.157110596","0.02171712127","0.4374535298","0.1289979545","","","","","","","","","","","75","K","2","","","131","main_expt"
"307","","bandit","210","504885","0.0-171.0-0.0","56749897","wem/bandit_either","A1DIGREVLNOXT3","either","1","","","","","","","0","1","0","","0.4382483821","0.6","0.4","0.2","0.8","0.1338697581","0.01004766493","0.4382483821","0.1243754988","","","","","","","","","","","75","K","2","","","132","main_expt"
"150","","bandit","211","506546","0.0-172.0-0.0","56749897","wem/bandit_either","A1DIGREVLNOXT3","either","1","","","","","","","0","1","0","","0.3913946914","0.6","0.4","0.2","0.8","0.1101669797","0.005153708139","0.3913946914","0.1189203389","","","","","","","","","","","75","K","2","","","133","main_expt"
"306","","bandit","212","508359","0.0-173.0-0.0","56749897","wem/bandit_either","A1DIGREVLNOXT3","either","1","","","","","","","0","0","1","","0.4280120537","0.6","0.4","0.2","0.8","0.060775537","0.01308543257","0.4280120537","0.07075860378","","","","","","","","","","","75","K","2","","","134","main_expt"
"220","","bandit","213","510086","0.0-174.0-0.0","56749897","wem/bandit_either","A1DIGREVLNOXT3","either","1","","","","","","","0","1","0","","0.4385213509","0.6","0.4","0.2","0.8","0.0714416082","0.02634180281","0.4385213509","0.1073185777","","","","","","","","","","","75","K","2","","","135","main_expt"
"180","","bandit","214","511772","0.0-175.0-0.0","56749897","wem/bandit_either","A1DIGREVLNOXT3","either","1","","","","","","","0","1","0","","0.4605212521","0.6","0.4","0.2","0.8","0.1115096907","0.04122629063","0.4605212521","0.1001442491","","","","","","","","","","","75","K","2","","","136","main_expt"
"192","","bandit","215","513475","0.0-176.0-0.0","56749897","wem/bandit_either","A1DIGREVLNOXT3","either","1","","","","","","","0","1","0","","0.4729500637","0.6","0.4","0.2","0.8","0.1307091067","0.05517648788","0.4729500637","0.1736681681","","","","","","","","","","","75","K","2","","","137","main_expt"
"113","","bandit","216","515095","0.0-177.0-0.0","56749897","wem/bandit_either","A1DIGREVLNOXT3","either","1","","","","","","","0","0","1","","0.4705425907","0.6","0.4","0.2","0.8","0.1289533412","0.05929415862","0.4705425907","0.1839908368","","","","","","","","","","","75","K","2","","","138","main_expt"
"139","","bandit","217","516741","0.0-178.0-0.0","56749897","wem/bandit_either","A1DIGREVLNOXT3","either","1","","","","","","","0","1","0","","0.465423541","0.6","0.4","0.2","0.8","0.1215972271","0.05470710098","0.465423541","0.1500833973","","","","","","","","","","","75","K","2","","","139","main_expt"
"248","","bandit","218","518499","0.0-179.0-0.0","56749897","wem/bandit_either","A1DIGREVLNOXT3","either","1","","","","","","","0","0","1","","0.4486857012","0.6","0.4","0.2","0.8","0.1158179575","0.06062538604","0.4486857012","0.1718879457","","","","","","","","","","","75","K","2","","","140","main_expt"
"228","","bandit","219","520234","0.0-180.0-0.0","56749897","wem/bandit_either","A1DIGREVLNOXT3","either","1","","","","","","","0","0","1","","0.4053061298","0.6","0.4","0.2","0.8","0.08691297649","0.05819772386","0.4053061298","0.2025036279","","","","","","","","","","","75","K","2","","","141","main_expt"
"131","","bandit","220","521879","0.0-181.0-0.0","56749897","wem/bandit_either","A1DIGREVLNOXT3","either","1","","","","","","","0","0","1","","0.3989731656","0.6","0.4","0.2","0.8","0.1425267255","0.05329701838","0.3989731656","0.1872564568","","","","","","","","","","","75","K","2","","","142","main_expt"
"41","","bandit","221","523429","0.0-182.0-0.0","56749897","wem/bandit_either","A1DIGREVLNOXT3","either","1","","","","","","","0","0","1","","0.3783570596","0.6","0.4","0.2","0.8","0.1425141192","0.06209903385","0.3783570596","0.1676641842","","","","","","","","","","","75","K","2","","","143","main_expt"
"282","","bandit","222","525217","0.0-183.0-0.0","56749897","wem/bandit_either","A1DIGREVLNOXT3","either","1","","","","","","","0","0","1","","0.1502987652","0.6","0.4","0.2","0.8","0.1362652721","0.06954729647","0.3485663762","0.1502987652","","","","","","","","","","","76","L","3","","","144","main_expt"
"279","","bandit","223","527008","0.0-184.0-0.0","56749897","wem/bandit_either","A1DIGREVLNOXT3","either","1","","","","","","","0","0","1","0.1335650053","","0.6","0.4","0.2","0.8","","","","","0.1335650053","0.062760129","0.3534190037","0.1050568962","","","","","","","72","H","0","img/none_selected.jpg","","145","main_expt"
"273","","bandit","224","528790","0.0-185.0-0.0","56749897","wem/bandit_either","A1DIGREVLNOXT3","either","1","","","","","","","0","0","1","0.05014677947","","0.6","0.4","0.2","0.8","","","","","0.1392461982","0.05014677947","0.342282706","0.1266784727","","","","","","","74","J","1","","","146","main_expt"
"311","","bandit","225","530610","0.0-186.0-0.0","56749897","wem/bandit_either","A1DIGREVLNOXT3","either","1","","","","","","","0","0","1","","0.3497384939","0.6","0.4","0.2","0.8","0.1060810453","0.04801868921","0.3497384939","0.1121887101","","","","","","","","","","","75","K","2","","","147","main_expt"
"267","","bandit","226","532384","0.0-187.0-0.0","56749897","wem/bandit_either","A1DIGREVLNOXT3","either","1","","","","","","","0","0","1","0.05298179562","","0.6","0.4","0.2","0.8","","","","","0.1076054289","0.05298179562","0.3507348305","0.1050077765","","","","","","","74","J","1","","","148","main_expt"
"267","","bandit","227","534158","0.0-188.0-0.0","56749897","wem/bandit_either","A1DIGREVLNOXT3","either","1","","","","","","","0","0","1","0.09143227578","","0.6","0.4","0.2","0.8","","","","","0.09143227578","0.05271587927","0.306786392","0.08725679698","","","","","","","72","H","0","img/none_selected.jpg","","149","main_expt"
"297","","bandit","228","535965","0.0-189.0-0.0","56749897","wem/bandit_either","A1DIGREVLNOXT3","either","1","","","","","","","0","0","1","0.04813781364","","0.6","0.4","0.2","0.8","","","","","0.08361181256","0.06153260368","0.3289077467","0.04813781364","","","","","","","76","L","3","","","150","main_expt"
"257","","bandit","229","537730","0.0-190.0-0.0","56749897","wem/bandit_either","A1DIGREVLNOXT3","either","1","","","","","","","0","0","1","","0.2844912386","0.6","0.4","0.2","0.8","0.1038450747","0.07716317934","0.2844912386","0.04690393958","","","","","","","","","","","75","K","2","","","151","main_expt"
"263","","bandit","230","539505","0.0-191.0-0.0","56749897","wem/bandit_either","A1DIGREVLNOXT3","either","1","","","","","","","0","0","1","0.08370894892","","0.6","0.4","0.2","0.8","","","","","0.1311897928","0.08370894892","0.3221551402","0.05051779207","","","","","","","74","J","1","","","152","main_expt"
"292","","bandit","231","541311","0.0-192.0-0.0","56749897","wem/bandit_either","A1DIGREVLNOXT3","either","1","","","","","","","0","0","1","","0.1106636196","0.6","0.4","0.2","0.8","0.1106636196","0.06235129306","0.288581716","0.0417019452","","","","","","","","","","","72","H","0","img/none_selected.jpg","","153","main_expt"
"217","","bandit","232","543037","0.0-193.0-0.0","56749897","wem/bandit_either","A1DIGREVLNOXT3","either","1","","","","","","","0","0","1","","0.04565059468","0.6","0.4","0.2","0.8","0.08044616817","0.08808261531","0.3674714493","0.04565059468","","","","","","","","","","","76","L","3","","","154","main_expt"
"261","","bandit","233","544813","0.0-194.0-0.0","56749897","wem/bandit_either","A1DIGREVLNOXT3","either","1","","","","","","","0","0","1","","0.3836765626","0.6","0.4","0.2","0.8","0.09849608375","0.08415746701","0.3836765626","0.0249337719","","","","","","","","","","","75","K","2","","","155","main_expt"
"156","","bandit","234","546480","0.0-195.0-0.0","56749897","wem/bandit_either","A1DIGREVLNOXT3","either","1","","","","","","","0","0","1","0.0207568711","","0.6","0.4","0.2","0.8","","","","","0.0679626842","0.1363215429","0.3499766022","0.0207568711","","","","","","","76","L","3","","","156","main_expt"
"14","","bandit","235","548006","0.0-196.0-0.0","56749897","wem/bandit_either","A1DIGREVLNOXT3","either","1","","","","","","","1","0","0","0.3083455354","","0.6","0.4","0.2","0.8","","","","","0.06316877849","0.176329139","0.3083455354","0.01044871803","","","","","","","75","K","2","","","157","main_expt"
"282","","bandit","236","549796","0.0-197.0-0.0","56749897","wem/bandit_either","A1DIGREVLNOXT3","either","1","","","","","","","0","0","1","","0.2780985587","0.6","0.4","0.2","0.8","0.06381796224","0.2239815039","0.2780985587","0.008486032171","","","","","","","","","","","75","K","2","","","158","main_expt"
"247","","bandit","237","551551","0.0-198.0-0.0","56749897","wem/bandit_either","A1DIGREVLNOXT3","either","1","","","","","","","0","1","0","","0.2721424699","0.6","0.4","0.2","0.8","0.09986374221","0.1754735631","0.2721424699","0.006770001311","","","","","","","","","","","75","K","2","","","159","main_expt"
"315","","bandit","238","553376","0.0-199.0-0.0","56749897","wem/bandit_either","A1DIGREVLNOXT3","either","1","","","","","","","0","1","0","","0.3005636977","0.6","0.4","0.2","0.8","0.08334790929","0.1820859676","0.3005636977","0.005009972043","","","","","","","","","","","75","K","2","","","160","main_expt"
"246","","bandit","239","555131","0.0-200.0-0.0","56749897","wem/bandit_either","A1DIGREVLNOXT3","either","1","","","","","","","1","0","0","0.2481613967","","0.6","0.4","0.2","0.8","","","","","0.1094566723","0.1771527669","0.2481613967","0.003825417776","","","","","","","75","K","2","","","161","main_expt"
"218","","bandit","240","556871","0.0-201.0-0.0","56749897","wem/bandit_either","A1DIGREVLNOXT3","either","1","","","","","","","0","0","1","","0.2040880477","0.6","0.4","0.2","0.8","0.1287108975","0.209245514","0.2040880477","0.006458278423","","","","","","","","","","","75","K","2","","","162","main_expt"
"238","","bandit","241","558624","0.0-202.0-0.0","56749897","wem/bandit_either","A1DIGREVLNOXT3","either","1","","","","","","","0","0","1","","0.256608811","0.6","0.4","0.2","0.8","0.1811808859","0.1864252411","0.256608811","0.01344146107","","","","","","","","","","","75","K","2","","","163","main_expt"
"167","","bandit","242","560373","0.0-203.0-0.0","56749897","wem/bandit_either","A1DIGREVLNOXT3","either","1","","","","","","","0","0","1","","0.2798468236","0.6","0.4","0.2","0.8","0.1374611454","0.1662237337","0.2798468236","0.004940614731","","","","","","","","","","","75","K","2","","","164","main_expt"
"62","","bandit","243","561947","0.0-204.0-0.0","56749897","wem/bandit_either","A1DIGREVLNOXT3","either","1","","","","","","","1","0","0","0.2689568899","","0.6","0.4","0.2","0.8","","","","","0.1640313333","0.1375661656","0.2689568899","0.007349038951","","","","","","","75","K","2","","","165","main_expt"
"288","","bandit","244","563779","0.0-205.0-0.0","56749897","wem/bandit_either","A1DIGREVLNOXT3","either","1","","","","","","","0","0","1","0.2786045926","","0.6","0.4","0.2","0.8","","","","","0.20052236","0.1416727521","0.2786045926","0.005679103294","","","","","","","75","K","2","","","166","main_expt"
"266","","bandit","245","565558","0.0-206.0-0.0","56749897","wem/bandit_either","A1DIGREVLNOXT3","either","1","","","","","","","0","0","1","","0.2507583434","0.6","0.4","0.2","0.8","0.1945206589","0.1497541138","0.2507583434","0.004037182679","","","","","","","","","","","75","K","2","","","167","main_expt"
"226","","bandit","246","567292","0.0-207.0-0.0","56749897","wem/bandit_either","A1DIGREVLNOXT3","either","1","","","","","","","0","0","1","","0.1827624484","0.6","0.4","0.2","0.8","0.1902154162","0.1761460581","0.1827624484","0.007111326723","","","","","","","","","","","75","K","2","","","168","main_expt"
"251","","bandit","247","569051","0.0-208.0-0.0","56749897","wem/bandit_either","A1DIGREVLNOXT3","either","1","","","","","","","0","0","1","","0.1558723634","0.6","0.4","0.2","0.8","0.1931964682","0.2248215173","0.1558723634","0.01708305062","","","","","","","","","","","75","K","2","","","169","main_expt"
"176","","bandit","248","570764","0.0-209.0-0.0","56749897","wem/bandit_either","A1DIGREVLNOXT3","either","1","","","","","","","0","0","1","","0.2503105048","0.6","0.4","0.2","0.8","0.236179436","0.2503105048","0.1757164868","0.02105388628","","","","","","","","","","","74","J","1","","","170","main_expt"
"197","","bandit","249","572471","0.0-210.0-0.0","56749897","wem/bandit_either","A1DIGREVLNOXT3","either","1","","","","","","","0","0","1","0.2229285478","","0.6","0.4","0.2","0.8","","","","","0.2229285478","0.2515708499","0.1985597056","0.01477187034","","","","","","","72","H","0","img/none_selected.jpg","","171","main_expt"
"250","","bandit","250","574228","0.0-211.0-0.0","56749897","wem/bandit_either","A1DIGREVLNOXT3","either","1","","","","","","","0","0","1","0.00639283578","","0.6","0.4","0.2","0.8","","","","","0.1805811295","0.2601117771","0.1725269859","0.00639283578","","","","","","","76","L","3","","","172","main_expt"
"293","","bandit","251","576033","0.0-212.0-0.0","56749897","wem/bandit_either","A1DIGREVLNOXT3","either","1","","","","","","","0","0","1","","0.1955807132","0.6","0.4","0.2","0.8","0.2203049146","0.2277859889","0.1955807132","0.008503536177","","","","","","","","","","","75","K","2","","","173","main_expt"
"207","","bandit","252","577825","0.0-213.0-0.0","56749897","wem/bandit_either","A1DIGREVLNOXT3","either","1","","","","","","","0","0","1","","0.204090619","0.6","0.4","0.2","0.8","0.2079245196","0.204090619","0.1712969398","0.01512836446","","","","","","","","","","","74","J","1","","","174","main_expt"
"143","","bandit","253","579477","0.0-214.0-0.0","56749897","wem/bandit_either","A1DIGREVLNOXT3","either","1","","","","","","","0","0","1","0.1904909119","","0.6","0.4","0.2","0.8","","","","","0.1904909119","0.2264282848","0.2145566876","0.034550241","","","","","","","72","H","0","img/none_selected.jpg","","175","main_expt"
"98","","bandit","254","581083","0.0-215.0-0.0","56749897","wem/bandit_either","A1DIGREVLNOXT3","either","1","","","","","","","0","0","1","0.2263436383","","0.6","0.4","0.2","0.8","","","","","0.1611975006","0.2263436383","0.1987050603","0.01969997198","","","","","","","74","J","1","","","176","main_expt"
"264","","bandit","255","582857","0.0-216.0-0.0","56749897","wem/bandit_either","A1DIGREVLNOXT3","either","1","","","","","","","0","0","1","","0.2161967517","0.6","0.4","0.2","0.8","0.1747210449","0.2449632337","0.2161967517","0.02558747067","","","","","","","","","","","75","K","2","","","177","main_expt"
"292","","bandit","256","584657","0.0-217.0-0.0","56749897","wem/bandit_either","A1DIGREVLNOXT3","either","1","","","","","","","0","0","1","0.02865462312","","0.6","0.4","0.2","0.8","","","","","0.1667690144","0.1923885174","0.1790488899","0.02865462312","","","","","","","76","L","3","","","178","main_expt"
"254","","bandit","257","586420","0.0-218.0-0.0","56749897","wem/bandit_either","A1DIGREVLNOXT3","either","1","","","","","","","0","0","1","0.248539666","","0.6","0.4","0.2","0.8","","","","","0.248539666","0.1791230597","0.1254539317","0.05873937836","","","","","","","72","H","0","img/none_selected.jpg","","179","main_expt"
"231","","bandit","258","588164","0.0-219.0-0.0","56749897","wem/bandit_either","A1DIGREVLNOXT3","either","1","","","","","","","0","0","1","0.04996702027","","0.6","0.4","0.2","0.8","","","","","0.2393284063","0.1641305094","0.1761702366","0.04996702027","","","","","","","76","L","3","","","180","main_expt"
"303","","bandit","259","589978","0.0-220.0-0.0","56749897","wem/bandit_either","A1DIGREVLNOXT3","either","1","","","","","","","0","0","1","0.2450765022","","0.6","0.4","0.2","0.8","","","","","0.2450765022","0.1567194189","0.2307221343","0.06192223509","","","","","","","72","H","0","img/none_selected.jpg","","181","main_expt"
"288","","bandit","260","591811","0.0-221.0-0.0","56749897","wem/bandit_either","A1DIGREVLNOXT3","either","1","","","","","","","0","0","1","","0.1656926355","0.6","0.4","0.2","0.8","0.2898963007","0.1805899487","0.1656926355","0.07865608963","","","","","","","","","","","75","K","2","","","182","main_expt"
"202","","bandit","261","593523","0.0-222.0-0.0","56749897","wem/bandit_either","A1DIGREVLNOXT3","either","1","","","","","","","0","0","1","","0.1381226487","0.6","0.4","0.2","0.8","0.337419987","0.1381226487","0.1997223474","0.0695036973","","","","","","","","","","","74","J","1","","","183","main_expt"
"288","","bandit","262","595322","0.0-223.0-0.0","56749897","wem/bandit_either","A1DIGREVLNOXT3","either","1","","","","","","","0","0","1","0.1157029232","","0.6","0.4","0.2","0.8","","","","","0.3334404967","0.1157029232","0.1936006223","0.09883674892","","","","","","","74","J","1","","","184","main_expt"
"304","","bandit","263","597211","0.0-224.0-0.0","56749897","wem/bandit_either","A1DIGREVLNOXT3","either","1","","","","","","","0","0","1","0.1344132801","","0.6","0.4","0.2","0.8","","","","","0.3049781316","0.09007466759","0.1794548994","0.1344132801","","","","","","","76","L","3","","","185","main_expt"
"310","","bandit","264","599029","0.0-225.0-0.0","56749897","wem/bandit_either","A1DIGREVLNOXT3","either","1","","","","","","","0","1","0","","0.322039184","0.6","0.4","0.2","0.8","0.322039184","0.07784091677","0.1679588243","0.1194183803","","","","","","","","","","","72","H","0","img/none_selected.jpg","","186","main_expt"
"304","","bandit","265","600843","0.0-226.0-0.0","56749897","wem/bandit_either","A1DIGREVLNOXT3","either","1","","","","","","","0","0","1","0.2898485093","","0.6","0.4","0.2","0.8","","","","","0.2898485093","0.1332261693","0.1692259204","0.1456002269","","","","","","","72","H","0","img/none_selected.jpg","","187","main_expt"
"276","","bandit","266","602713","0.0-227.0-0.0","56749897","wem/bandit_either","A1DIGREVLNOXT3","either","1","","","","","","","0","0","1","0.3046836684","","0.6","0.4","0.2","0.8","","","","","0.3046836684","0.1302169342","0.1796926114","0.1008589119","","","","","","","72","H","0","img/none_selected.jpg","","188","main_expt"
"222","","bandit","267","604447","0.0-228.0-0.0","56749897","wem/bandit_either","A1DIGREVLNOXT3","either","1","","","","","","","0","0","1","0.3437642557","","0.6","0.4","0.2","0.8","","","","","0.3437642557","0.1459867673","0.1463090895","0.09109327247","","","","","","","72","H","0","img/none_selected.jpg","","189","main_expt"
"219","","bandit","268","606173","0.0-229.0-0.0","56749897","wem/bandit_either","A1DIGREVLNOXT3","either","1","","","","","","","1","0","0","0.3685715368","","0.6","0.4","0.2","0.8","","","","","0.3685715368","0.1930387326","0.1670442817","0.133333279","","","","","","","72","H","0","img/none_selected.jpg","","190","main_expt"
"192","","bandit","269","607877","0.0-230.0-0.0","56749897","wem/bandit_either","A1DIGREVLNOXT3","either","1","","","","","","","0","0","1","","0.4063368095","0.6","0.4","0.2","0.8","0.4063368095","0.1447045196","0.2148667481","0.1253338948","","","","","","","","","","","72","H","0","img/none_selected.jpg","","191","main_expt"
"332","","bandit","270","609789","0.0-231.0-0.0","56749897","wem/bandit_either","A1DIGREVLNOXT3","either","1","","","","","","","0","0","1","0.4194789623","","0.6","0.4","0.2","0.8","","","","","0.4194789623","0.1521301445","0.1891029698","0.1371372983","","","","","","","72","H","0","img/none_selected.jpg","","192","main_expt"
"246","","bandit","271","611546","0.0-232.0-0.0","56749897","wem/bandit_either","A1DIGREVLNOXT3","either","1","","","","","","","0","0","1","0.3914453041","","0.6","0.4","0.2","0.8","","","","","0.3914453041","0.1216552598","0.1818436489","0.1269519223","","","","","","","72","H","0","img/none_selected.jpg","","193","main_expt"
"271","","bandit","272","613326","0.0-233.0-0.0","56749897","wem/bandit_either","A1DIGREVLNOXT3","either","1","","","","","","","1","0","0","0.3988429791","","0.6","0.4","0.2","0.8","","","","","0.3988429791","0.07681554104","0.2036833838","0.1253972088","","","","","","","72","H","0","img/none_selected.jpg","","194","main_expt"
"282","","bandit","273","615191","0.0-234.0-0.0","56749897","wem/bandit_either","A1DIGREVLNOXT3","either","1","","","","","","","0","0","1","0.4212514022","","0.6","0.4","0.2","0.8","","","","","0.4212514022","0.07468822185","0.2189502041","0.1231557279","","","","","","","72","H","0","img/none_selected.jpg","","195","main_expt"
"157","","bandit","274","616856","0.0-235.0-0.0","56749897","wem/bandit_either","A1DIGREVLNOXT3","either","1","","","","","","","0","0","1","0.4128950903","","0.6","0.4","0.2","0.8","","","","","0.4128950903","0.07634526252","0.2011136523","0.2304226507","","","","","","","72","H","0","img/none_selected.jpg","","196","main_expt"
"241","","bandit","275","618608","0.0-236.0-0.0","56749897","wem/bandit_either","A1DIGREVLNOXT3","either","1","","","","","","","1","0","0","0.3979973083","","0.6","0.4","0.2","0.8","","","","","0.3979973083","0.06680697181","0.2295646827","0.3102822931","","","","","","","72","H","0","img/none_selected.jpg","","197","main_expt"
"263","","bandit","276","620380","0.0-237.0-0.0","56749897","wem/bandit_either","A1DIGREVLNOXT3","either","1","","","","","","","0","0","1","0.3153467244","","0.6","0.4","0.2","0.8","","","","","0.3153467244","0.05107679344","0.2570874699","0.3222054514","","","","","","","72","H","0","img/none_selected.jpg","","198","main_expt"
"267","","bandit","277","622158","0.0-238.0-0.0","56749897","wem/bandit_either","A1DIGREVLNOXT3","either","1","","","","","","","1","0","0","0.3121882746","","0.6","0.4","0.2","0.8","","","","","0.3121882746","0.06140804873","0.2215013189","0.3416159467","","","","","","","72","H","0","img/none_selected.jpg","","199","main_expt"
"273","","bandit","278","623944","0.0-239.0-0.0","56749897","wem/bandit_either","A1DIGREVLNOXT3","either","1","","","","","","","0","0","1","","0.3789620948","0.6","0.4","0.2","0.8","0.3789620948","0.05697288244","0.1681318695","0.3826655938","","","","","","","","","","","72","H","0","img/none_selected.jpg","","200","main_expt"
"295","","bandit","279","625748","0.0-240.0-0.0","56749897","wem/bandit_either","A1DIGREVLNOXT3","either","1","","","","","","","0","0","1","","0.3575696279","0.6","0.4","0.2","0.8","0.3575696279","0.04802221103","0.1787039029","0.4117435103","","","","","","","","","","","72","H","0","img/none_selected.jpg","","201","main_expt"
"211","","bandit","280","627467","0.0-241.0-0.0","56749897","wem/bandit_either","A1DIGREVLNOXT3","either","1","","","","","","","0","0","1","0.3937046418","","0.6","0.4","0.2","0.8","","","","","0.3937046418","0.04583536071","0.2180442152","0.4023622846","","","","","","","72","H","0","img/none_selected.jpg","","202","main_expt"
"272","","bandit","281","629247","0.0-242.0-0.0","56749897","wem/bandit_either","A1DIGREVLNOXT3","either","1","","","","","","","0","0","1","0.4225273878","","0.6","0.4","0.2","0.8","","","","","0.3901943722","0.03655969434","0.262784421","0.4225273878","","","","","","","76","L","3","","","203","main_expt"
"402","","bandit","282","631161","0.0-243.0-0.0","56749897","wem/bandit_either","A1DIGREVLNOXT3","either","1","","","","","","","0","1","0","","0.2843732649","0.6","0.4","0.2","0.8","0.4099131859","0.05773518339","0.2843732649","0.4151046429","","","","","","","","","","","75","K","2","","","204","main_expt"
"255","","bandit","283","632924","0.0-244.0-0.0","56749897","wem/bandit_either","A1DIGREVLNOXT3","either","1","","","","","","","0","0","1","","0.2549063301","0.6","0.4","0.2","0.8","0.4238238901","0.06616346658","0.2549063301","0.4288165897","","","","","","","","","","","75","K","2","","","205","main_expt"
"233","","bandit","284","634668","0.0-245.0-0.0","56749897","wem/bandit_either","A1DIGREVLNOXT3","either","1","","","","","","","0","0","1","","0.2982701688","0.6","0.4","0.2","0.8","0.4139837541","0.09055598832","0.2982701688","0.436745712","","","","","","","","","","","75","K","2","","","206","main_expt"
"125","","bandit","285","636305","0.0-246.0-0.0","56749897","wem/bandit_either","A1DIGREVLNOXT3","either","1","","","","","","","0","1","0","","0.3423773839","0.6","0.4","0.2","0.8","0.3544894801","0.07583085731","0.3423773839","0.4484652972","","","","","","","","","","","75","K","2","","","207","main_expt"
"255","","bandit","286","638070","0.0-247.0-0.0","56749897","wem/bandit_either","A1DIGREVLNOXT3","either","1","","","","","","","0","0","1","0.09768014643","","0.6","0.4","0.2","0.8","","","","","0.3703609936","0.09768014643","0.3321535101","0.4516947584","","","","","","","74","J","1","","","208","main_expt"
"106","","bandit","287","639741","0.0-248.0-0.0","56749897","wem/bandit_either","A1DIGREVLNOXT3","either","1","","","","","","","0","0","1","","0.3467721984","0.6","0.4","0.2","0.8","0.3590511704","0.08389795445","0.3467721984","0.4590139285","","","","","","","","","","","75","K","2","","","209","main_expt"
"312","","bandit","288","641562","0.0-249.0-0.0","56749897","wem/bandit_either","A1DIGREVLNOXT3","either","1","","","","","","","0","0","1","","0.3513447539","0.6","0.4","0.2","0.8","0.3781523972","0.07846525543","0.3513447539","0.4378910613","","","","","","","","","","","75","K","2","","","210","main_expt"
"250","","bandit","289","643320","0.0-250.0-0.0","56749897","wem/bandit_either","A1DIGREVLNOXT3","either","1","","","","","","","0","0","1","","0.4003692624","0.6","0.4","0.2","0.8","0.3895188655","0.05906932722","0.4003692624","0.4139384991","","","","","","","","","","","75","K","2","","","211","main_expt"
"272","","bandit","290","645101","0.0-251.0-0.0","56749897","wem/bandit_either","A1DIGREVLNOXT3","either","1","","","","","","","0","0","1","","0.04754192311","0.6","0.4","0.2","0.8","0.4075098947","0.04754192311","0.3949660502","0.3659234609","","","","","","","","","","","74","J","1","","","212","main_expt"
"135","","bandit","291","646746","0.0-252.0-0.0","56749897","wem/bandit_either","A1DIGREVLNOXT3","either","1","","","","","","","0","0","1","0.4191075236","","0.6","0.4","0.2","0.8","","","","","0.4191075236","0.05481920189","0.4233479157","0.3180572988","","","","","","","72","H","0","img/none_selected.jpg","","213","main_expt"
"266","","bandit","292","648522","0.0-253.0-0.0","56749897","wem/bandit_either","A1DIGREVLNOXT3","either","1","","","","","","","0","0","1","0.2611162072","","0.6","0.4","0.2","0.8","","","","","0.3799529118","0.07954578011","0.4182751871","0.2611162072","","","","","","","76","L","3","","","214","main_expt"
"271","","bandit","293","650302","0.0-254.0-0.0","56749897","wem/bandit_either","A1DIGREVLNOXT3","either","1","","","","","","","0","1","0","","0.3924699069","0.6","0.4","0.2","0.8","0.3924699069","0.1078137614","0.3745823719","0.2331309726","","","","","","","","","","","72","H","0","img/none_selected.jpg","","215","main_expt"
"297","","bandit","294","652137","0.0-255.0-0.0","56749897","wem/bandit_either","A1DIGREVLNOXT3","either","1","","","","","","","0","0","1","0.3556657658","","0.6","0.4","0.2","0.8","","","","","0.3556657658","0.1269525553","0.3809837923","0.2428402293","","","","","","","72","H","0","img/none_selected.jpg","","216","main_expt"
"284","","bandit","295","653932","0.0-256.0-0.0","56749897","wem/bandit_either","A1DIGREVLNOXT3","either","1","","","","","","","0","0","1","0.3870416945","","0.6","0.4","0.2","0.8","","","","","0.3870416945","0.1849794572","0.4144294186","0.2317762644","","","","","","","72","H","0","img/none_selected.jpg","","217","main_expt"
"228","","bandit","296","655672","0.0-257.0-0.0","56749897","wem/bandit_either","A1DIGREVLNOXT3","either","1","","","","","","","0","1","0","","0.4090742927","0.6","0.4","0.2","0.8","0.3944581396","0.1903787706","0.4090742927","0.204309912","","","","","","","","","","","75","K","2","","","218","main_expt"
"296","","bandit","297","657478","0.0-258.0-0.0","56749897","wem/bandit_either","A1DIGREVLNOXT3","either","1","","","","","","","1","0","0","0.3869695378","","0.6","0.4","0.2","0.8","","","","","0.4256173987","0.1768508397","0.3869695378","0.1685596251","","","","","","","75","K","2","","","219","main_expt"
"217","","bandit","298","659206","0.0-259.0-0.0","56749897","wem/bandit_either","A1DIGREVLNOXT3","either","1","","","","","","","0","0","1","","0.3814250035","0.6","0.4","0.2","0.8","0.4240862242","0.2176561852","0.3814250035","0.2488487331","","","","","","","","","","","75","K","2","","","220","main_expt"
"190","","bandit","299","660904","0.0-260.0-0.0","56749897","wem/bandit_either","A1DIGREVLNOXT3","either","1","","","","","","","0","0","1","","0.3560431311","0.6","0.4","0.2","0.8","0.4364702466","0.2075488201","0.3560431311","0.2789816034","","","","","","","","","","","75","K","2","","","221","main_expt"
"283","","bandit","300","662695","0.0-261.0-0.0","56749897","wem/bandit_either","A1DIGREVLNOXT3","either","1","","","","","","","0","0","1","0.3424215647","","0.6","0.4","0.2","0.8","","","","","0.4512924842","0.2260831429","0.3424215647","0.242729834","","","","","","","75","K","2","","","222","main_expt"
"137","","bandit","301","664340","0.0-262.0-0.0","56749897","wem/bandit_either","A1DIGREVLNOXT3","either","1","","","","","","","0","0","1","0.2512075751","","0.6","0.4","0.2","0.8","","","","","0.4649948574","0.2512075751","0.3118962833","0.196538567","","","","","","","74","J","1","","","223","main_expt"
"242","","bandit","302","666090","0.0-263.0-0.0","56749897","wem/bandit_either","A1DIGREVLNOXT3","either","1","","","","","","","0","0","1","0.2189223785","","0.6","0.4","0.2","0.8","","","","","0.4692106987","0.3072691987","0.261290028","0.2189223785","","","","","","","76","L","3","","","224","main_expt"
"145","","bandit","303","667743","0.0-264.0-0.0","56749897","wem/bandit_either","A1DIGREVLNOXT3","either","1","","","","","","","0","1","0","","0.4772226815","0.6","0.4","0.2","0.8","0.4772226815","0.3358063032","0.2748104332","0.2131207899","","","","","","","","","","","72","H","0","img/none_selected.jpg","","225","main_expt"
"289","","bandit","304","669541","0.0-265.0-0.0","56749897","wem/bandit_either","A1DIGREVLNOXT3","either","1","","","","","","","0","0","1","0.4828013869","","0.6","0.4","0.2","0.8","","","","","0.4828013869","0.2994610032","0.2112523614","0.187439681","","","","","","","72","H","0","img/none_selected.jpg","","226","main_expt"
"280","","bandit","305","671332","0.0-266.0-0.0","56749897","wem/bandit_either","A1DIGREVLNOXT3","either","1","","","","","","","0","0","1","0.4805292857","","0.6","0.4","0.2","0.8","","","","","0.4805292857","0.2719992041","0.1879164098","0.1522087394","","","","","","","72","H","0","img/none_selected.jpg","","227","main_expt"
"200","","bandit","306","673042","0.0-267.0-0.0","56749897","wem/bandit_either","A1DIGREVLNOXT3","either","1","","","","","","","0","0","1","0.1857646906","","0.6","0.4","0.2","0.8","","","","","0.4770879938","0.2601066631","0.1857646906","0.1975586059","","","","","","","75","K","2","","","228","main_expt"
"246","","bandit","307","674800","0.0-268.0-0.0","56749897","wem/bandit_either","A1DIGREVLNOXT3","either","1","","","","","","","0","0","1","","0.4830225504","0.6","0.4","0.2","0.8","0.4830225504","0.2333982712","0.1608888173","0.2280604414","","","","","","","","","","","72","H","0","img/none_selected.jpg","","229","main_expt"
"296","","bandit","308","676609","0.0-269.0-0.0","56749897","wem/bandit_either","A1DIGREVLNOXT3","either","1","","","","","","","1","0","0","0.2120359748","","0.6","0.4","0.2","0.8","","","","","0.4827210916","0.2179366985","0.1139945837","0.2120359748","","","","","","","76","L","3","","","230","main_expt"
"300","","bandit","309","678420","0.0-270.0-0.0","56749897","wem/bandit_either","A1DIGREVLNOXT3","either","1","","","","","","","0","1","0","","0.4764813513","0.6","0.4","0.2","0.8","0.4764813513","0.210335649","0.1071229599","0.2260377558","","","","","","","","","","","72","H","0","img/none_selected.jpg","","231","main_expt"
"250","","bandit","310","680178","0.0-271.0-0.0","56749897","wem/bandit_either","A1DIGREVLNOXT3","either","1","","","","","","","0","1","0","","0.2810037348","0.6","0.4","0.2","0.8","0.4794978353","0.2154905401","0.1250262501","0.2810037348","","","","","","","","","","","76","L","3","","","232","main_expt"
"311","","bandit","311","681998","0.0-272.0-0.0","56749897","wem/bandit_either","A1DIGREVLNOXT3","either","1","","","","","","","0","0","1","","0.4717583679","0.6","0.4","0.2","0.8","0.4717583679","0.2199054097","0.1262657767","0.3371590923","","","","","","","","","","","72","H","0","img/none_selected.jpg","","233","main_expt"
"259","","bandit","312","683766","0.0-273.0-0.0","56749897","wem/bandit_either","A1DIGREVLNOXT3","either","1","","","","","","","0","0","1","0.2614597929","","0.6","0.4","0.2","0.8","","","","","0.4801470087","0.2116885818","0.1436583916","0.2614597929","","","","","","","76","L","3","","","234","main_expt"
"378","","bandit","313","685678","0.0-274.0-0.0","56749897","wem/bandit_either","A1DIGREVLNOXT3","either","1","","","","","","","0","0","1","0.2037112673","","0.6","0.4","0.2","0.8","","","","","0.4698449305","0.2037112673","0.1776605917","0.2855471023","","","","","","","74","J","1","","","235","main_expt"
"279","","bandit","314","687467","0.0-275.0-0.0","56749897","wem/bandit_either","A1DIGREVLNOXT3","either","1","","","","","","","0","0","1","0.2806831757","","0.6","0.4","0.2","0.8","","","","","0.4750890902","0.2295670059","0.2039581082","0.2806831757","","","","","","","76","L","3","","","236","main_expt"
"316","","bandit","315","689293","0.0-276.0-0.0","56749897","wem/bandit_either","A1DIGREVLNOXT3","either","1","","","","","","","0","0","1","0.1898025468","","0.6","0.4","0.2","0.8","","","","","0.490873849","0.2602584061","0.1898025468","0.3314479917","","","","","","","75","K","2","","","237","main_expt"
"359","","bandit","316","691160","0.0-277.0-0.0","56749897","wem/bandit_either","A1DIGREVLNOXT3","either","1","","","","","","","0","0","1","0.3495093658","","0.6","0.4","0.2","0.8","","","","","0.4658125052","0.2505035884","0.20274426","0.3495093658","","","","","","","76","L","3","","","238","main_expt"
"289","","bandit","317","692958","0.0-278.0-0.0","56749897","wem/bandit_either","A1DIGREVLNOXT3","either","1","","","","","","","1","0","0","0.4717810478","","0.6","0.4","0.2","0.8","","","","","0.4717810478","0.209031891","0.2051086292","0.3413466471","","","","","","","72","H","0","img/none_selected.jpg","","239","main_expt"
"284","","bandit","318","694757","0.0-279.0-0.0","56749897","wem/bandit_either","A1DIGREVLNOXT3","either","1","","","","","","","0","0","1","","0.4751676635","0.6","0.4","0.2","0.8","0.4751676635","0.2203826704","0.1823871945","0.3848911707","","","","","","","","","","","72","H","0","img/none_selected.jpg","","240","main_expt"
"237","","bandit","319","696570","0.0-280.0-0.0","56749897","wem/bandit_either","A1DIGREVLNOXT3","either","1","","","","","","","0","0","1","","0.4782176083","0.6","0.4","0.2","0.8","0.4782176083","0.2502218434","0.2206124516","0.3352713547","","","","","","","","","","","72","H","0","img/none_selected.jpg","","241","main_expt"
"200","","bandit","320","698279","0.0-281.0-0.0","56749897","wem/bandit_either","A1DIGREVLNOXT3","either","1","","","","","","","0","0","1","","0.4842593171","0.6","0.4","0.2","0.8","0.4842593171","0.2465850657","0.1822231347","0.3898112853","","","","","","","","","","","72","H","0","img/none_selected.jpg","","242","main_expt"
"280","","bandit","321","700071","0.0-282.0-0.0","56749897","wem/bandit_either","A1DIGREVLNOXT3","either","1","","","","","","","1","0","0","0.3746092993","","0.6","0.4","0.2","0.8","","","","","0.4877308522","0.2768687636","0.1782216913","0.3746092993","","","","","","","76","L","3","","","243","main_expt"
"272","","bandit","322","701852","0.0-283.0-0.0","56749897","wem/bandit_either","A1DIGREVLNOXT3","either","1","","","","","","","0","0","1","0.4867000748","","0.6","0.4","0.2","0.8","","","","","0.4867000748","0.3318130554","0.1683297066","0.3551642001","","","","","","","72","H","0","img/none_selected.jpg","","244","main_expt"
"192","","bandit","323","703555","0.0-284.0-0.0","56749897","wem/bandit_either","A1DIGREVLNOXT3","either","1","","","","","","","1","0","0","0.3556023966","","0.6","0.4","0.2","0.8","","","","","0.4779689664","0.3549389872","0.2394915997","0.3556023966","","","","","","","76","L","3","","","245","main_expt"
"302","","bandit","324","705367","0.0-285.0-0.0","56749897","wem/bandit_either","A1DIGREVLNOXT3","either","1","","","","","","","0","0","1","0.333301522","","0.6","0.4","0.2","0.8","","","","","0.4691428495","0.333301522","0.2279590519","0.3265039954","","","","","","","74","J","1","","","246","main_expt"
"171","","bandit","325","707047","0.0-286.0-0.0","56749897","wem/bandit_either","A1DIGREVLNOXT3","either","1","","","","","","","0","0","1","0.2868106963","","0.6","0.4","0.2","0.8","","","","","0.4726686318","0.3514606933","0.2464238951","0.2868106963","","","","","","","76","L","3","","","247","main_expt"
"390","","bandit","326","709046","0.0-287.0-0.0","56749897","wem/bandit_either","A1DIGREVLNOXT3","either","1","","","","","","","0","1","0","","0.3714826816","0.6","0.4","0.2","0.8","0.4803067915","0.3714826816","0.2743013104","0.3185934195","","","","","","","","","","","74","J","1","","","248","main_expt"
"267","","bandit","327","710827","0.0-288.0-0.0","56749897","wem/bandit_either","A1DIGREVLNOXT3","either","1","","","","","","","1","0","0","0.386783615","","0.6","0.4","0.2","0.8","","","","","0.4711679289","0.386783615","0.265015958","0.358181829","","","","","","","74","J","1","","","249","main_expt"
"350","","bandit","328","712688","0.0-289.0-0.0","56749897","wem/bandit_either","A1DIGREVLNOXT3","either","1","","","","","","","0","0","1","","0.401921917","0.6","0.4","0.2","0.8","0.4353456883","0.401921917","0.2414596854","0.3548152509","","","","","","","","","","","74","J","1","","","250","main_expt"
"331","","bandit","329","714527","0.0-290.0-0.0","56749897","wem/bandit_either","A1DIGREVLNOXT3","either","1","","","","","","","0","0","1","","0.2747351927","0.6","0.4","0.2","0.8","0.4224206017","0.4214807698","0.2747351927","0.3481631732","","","","","","","","","","","75","K","2","","","251","main_expt"
