"rt","responses","trial_type","trial_index","time_elapsed","internal_node_id","subjID","study","MID","cond","drift","key_press","expt_phase","target","like","value","connected","respCharCode","respKey","respChoiceNum","respChoice","gems","bombs","no_reward","GemPrChosen","BombPrChosen","practice","trial_counter","WinPr_0","LosePr_0","trial_label","GainOverPainPr_0","LosePr_1","GainOverPainPr_1","WinPr_1","WinPr_2","GainOverPainPr_2","WinPr_3","GainOverPainPr_3","LosePr_2","LosePr_3","Q0","Q1","Q2","gender","age","ethnicity"
"10020","{""Q0"":""A1OQ3KL56KMQSU""}","survey-text","0","10032","0.0-0.0","58235166","wem/bandit_either","A1OQ3KL56KMQSU","either","6","","","","","","","","","","","","","","","","","","","","","","","","","","","","","","","","","","","",""
"28320","","text","1","39369","0.0-1.0","58235166","wem/bandit_either","A1OQ3KL56KMQSU","either","6","32","","","","","","","","","","","","","","","","","","","","","","","","","","","","","","","","","","",""
"5193","","text","2","44563","0.0-2.0","58235166","wem/bandit_either","A1OQ3KL56KMQSU","either","6","32","","","","","","","","","","","","","","","","","","","","","","","","","","","","","","","","","","",""
"30553","","text","3","75117","0.0-3.0","58235166","wem/bandit_either","A1OQ3KL56KMQSU","either","6","32","","","","","","","","","","","","","","","","","","","","","","","","","","","","","","","","","","",""
"9028","","text","4","84146","0.0-4.0","58235166","wem/bandit_either","A1OQ3KL56KMQSU","either","6","32","","","","","","","","","","","","","","","","","","","","","","","","","","","","","","","","","","",""
"31621","","text","5","115768","0.0-5.0","58235166","wem/bandit_either","A1OQ3KL56KMQSU","either","6","32","","","","","","","","","","","","","","","","","","","","","","","","","","","","","","","","","","",""
"4439","","text","6","120209","0.0-6.0","58235166","wem/bandit_either","A1OQ3KL56KMQSU","either","6","32","","","","","","","","","","","","","","","","","","","","","","","","","","","","","","","","","","",""
"2899","","text","7","123109","0.0-7.0","58235166","wem/bandit_either","A1OQ3KL56KMQSU","either","6","32","","","","","","","","","","","","","","","","","","","","","","","","","","","","","","","","","","",""
"7365","","identification","8","130486","0.0-8.0-0.0","58235166","wem/bandit_either","A1OQ3KL56KMQSU","either","6","","identification_pre","the village of Zur","2","3","3","","","","","","","","","","","","","","","","","","","","","","","","","","","","","",""
"4077","","identification","9","135575","0.0-8.0-1.0","58235166","wem/bandit_either","A1OQ3KL56KMQSU","either","6","","identification_pre","the village of Nyx","3","3","3","","","","","","","","","","","","","","","","","","","","","","","","","","","","","",""
"10082","","text","10","146660","0.0-9.0","58235166","wem/bandit_either","A1OQ3KL56KMQSU","either","6","32","","","","","","","","","","","","","","","","","","","","","","","","","","","","","","","","","","",""
"2801","","text","11","149462","0.0-10.0","58235166","wem/bandit_either","A1OQ3KL56KMQSU","either","6","32","","","","","","","","","","","","","","","","","","","","","","","","","","","","","","","","","","",""
"1294","","text","12","150758","0.0-11.0","58235166","wem/bandit_either","A1OQ3KL56KMQSU","either","6","32","","","","","","","","","","","","","","","","","","","","","","","","","","","","","","","","","","",""
"2853","","text","13","153611","0.0-12.0","58235166","wem/bandit_either","A1OQ3KL56KMQSU","either","6","32","","","","","","","","","","","","","","","","","","","","","","","","","","","","","","","","","","",""
"2407","","bandit","14","157525","0.0-13.0-0.0","58235166","wem/bandit_either","A1OQ3KL56KMQSU","either","6","","","","","","","74","J","0","img/none_selected_demo.jpg","0","0","1","0","0","true","0","0","0","","","","","","","","","","","","","","","","",""
"1349","","bandit","15","160378","0.0-14.0-0.0","58235166","wem/bandit_either","A1OQ3KL56KMQSU","either","6","","","","","","","75","K","0","img/none_selected_demo.jpg","0","0","1","0","0","true","0","0","0","","","","","","","","","","","","","","","","",""
"4944","","text","16","165323","0.0-15.0","58235166","wem/bandit_either","A1OQ3KL56KMQSU","either","6","32","","","","","","","","","","","","","","","","","","","","","","","","","","","","","","","","","","",""
"6819","","text","17","172144","0.0-16.0","58235166","wem/bandit_either","A1OQ3KL56KMQSU","either","6","32","","","","","","","","","","","","","","","","","","","","","","","","","","","","","","","","","","",""
"4816","","text","18","176961","0.0-17.0","58235166","wem/bandit_either","A1OQ3KL56KMQSU","either","6","32","","","","","","","","","","","","","","","","","","","","","","","","","","","","","","","","","","",""
"2090","","text","19","179053","0.0-18.0","58235166","wem/bandit_either","A1OQ3KL56KMQSU","either","6","32","","","","","","","","","","","","","","","","","","","","","","","","","","","","","","","","","","",""
"555","","bandit","20","181113","0.0-19.0-0.0","58235166","wem/bandit_either","A1OQ3KL56KMQSU","either","6","","","","","","","74","J","0","img/none_selected_demo.jpg","0","1","0","","0.8","true","0","","0.8","80_20_practice","0.5","0.2","0.5","","","","","","","","","","","","",""
"286","","bandit","21","182922","0.0-19.0-1.0","58235166","wem/bandit_either","A1OQ3KL56KMQSU","either","6","","","","","","","74","J","0","img/none_selected_demo.jpg","0","1","0","","0.8","true","0","","0.8","80_20_practice","0.5","0.2","0.5","","","","","","","","","","","","",""
"238","","bandit","22","184671","0.0-19.0-2.0","58235166","wem/bandit_either","A1OQ3KL56KMQSU","either","6","","","","","","","74","J","0","img/none_selected_demo.jpg","1","0","0","0.8","","true","0","0.8","","80_20_practice","0.5","","0.5","0.2","","","","","","","","","","","",""
"207","","bandit","23","186382","0.0-19.0-3.0","58235166","wem/bandit_either","A1OQ3KL56KMQSU","either","6","","","","","","","74","J","0","img/none_selected_demo.jpg","0","0","1","0.8","","true","0","0.8","","80_20_practice","0.5","","0.5","0.2","","","","","","","","","","","",""
"105","","bandit","24","187991","0.0-19.0-4.0","58235166","wem/bandit_either","A1OQ3KL56KMQSU","either","6","","","","","","","74","J","0","img/none_selected_demo.jpg","0","1","0","","0.8","true","0","","0.8","80_20_practice","0.5","0.2","0.5","","","","","","","","","","","","",""
"223","","bandit","25","189719","0.0-19.0-5.0","58235166","wem/bandit_either","A1OQ3KL56KMQSU","either","6","","","","","","","74","J","0","img/none_selected_demo.jpg","1","0","0","0.8","","true","0","0.8","","80_20_practice","0.5","","0.5","0.2","","","","","","","","","","","",""
"156","","bandit","26","191379","0.0-19.0-6.0","58235166","wem/bandit_either","A1OQ3KL56KMQSU","either","6","","","","","","","74","J","0","img/none_selected_demo.jpg","0","0","1","","0.8","true","0","","0.8","80_20_practice","0.5","0.2","0.5","","","","","","","","","","","","",""
"77","","bandit","27","192961","0.0-19.0-7.0","58235166","wem/bandit_either","A1OQ3KL56KMQSU","either","6","","","","","","","74","J","0","img/none_selected_demo.jpg","0","1","0","","0.8","true","0","","0.8","80_20_practice","0.5","0.2","0.5","","","","","","","","","","","","",""
"161","","bandit","28","194626","0.0-19.0-8.0","58235166","wem/bandit_either","A1OQ3KL56KMQSU","either","6","","","","","","","74","J","0","img/none_selected_demo.jpg","0","1","0","","0.8","true","0","","0.8","80_20_practice","0.5","0.2","0.5","","","","","","","","","","","","",""
"168","","bandit","29","196297","0.0-19.0-9.0","58235166","wem/bandit_either","A1OQ3KL56KMQSU","either","6","","","","","","","74","J","0","img/none_selected_demo.jpg","0","1","0","","0.8","true","0","","0.8","80_20_practice","0.5","0.2","0.5","","","","","","","","","","","","",""
"271","","bandit","30","198075","0.0-19.0-10.0","58235166","wem/bandit_either","A1OQ3KL56KMQSU","either","6","","","","","","","74","J","0","img/none_selected_demo.jpg","0","1","0","","0.8","true","0","","0.8","80_20_practice","0.5","0.2","0.5","","","","","","","","","","","","",""
"108","","bandit","31","199689","0.0-19.0-11.0","58235166","wem/bandit_either","A1OQ3KL56KMQSU","either","6","","","","","","","74","J","0","img/none_selected_demo.jpg","0","1","0","","0.8","true","0","","0.8","80_20_practice","0.5","0.2","0.5","","","","","","","","","","","","",""
"213","","bandit","32","201408","0.0-19.0-12.0","58235166","wem/bandit_either","A1OQ3KL56KMQSU","either","6","","","","","","","75","K","1","","0","1","0","","0.2","true","0","","0.8","80_20_practice","0.5","0.2","0.5","","","","","","","","","","","","",""
"247","","bandit","33","203160","0.0-19.0-13.0","58235166","wem/bandit_either","A1OQ3KL56KMQSU","either","6","","","","","","","75","K","1","","0","0","1","0.2","","true","0","0.8","","80_20_practice","0.5","","0.5","0.2","","","","","","","","","","","",""
"125","","bandit","34","204792","0.0-19.0-14.0","58235166","wem/bandit_either","A1OQ3KL56KMQSU","either","6","","","","","","","75","K","1","","0","0","1","","0.2","true","0","","0.8","80_20_practice","0.5","0.2","0.5","","","","","","","","","","","","",""
"215","","bandit","35","206512","0.0-19.0-15.0","58235166","wem/bandit_either","A1OQ3KL56KMQSU","either","6","","","","","","","74","J","0","img/none_selected_demo.jpg","1","0","0","0.8","","true","0","0.8","","80_20_practice","0.5","","0.5","0.2","","","","","","","","","","","",""
"150","","bandit","36","208168","0.0-19.0-16.0","58235166","wem/bandit_either","A1OQ3KL56KMQSU","either","6","","","","","","","74","J","0","img/none_selected_demo.jpg","0","1","0","","0.8","true","0","","0.8","80_20_practice","0.5","0.2","0.5","","","","","","","","","","","","",""
"176","","bandit","37","209848","0.0-19.0-17.0","58235166","wem/bandit_either","A1OQ3KL56KMQSU","either","6","","","","","","","74","J","0","img/none_selected_demo.jpg","0","0","1","","0.8","true","0","","0.8","80_20_practice","0.5","0.2","0.5","","","","","","","","","","","","",""
"280","","bandit","38","211637","0.0-19.0-18.0","58235166","wem/bandit_either","A1OQ3KL56KMQSU","either","6","","","","","","","74","J","0","img/none_selected_demo.jpg","1","0","0","0.8","","true","0","0.8","","80_20_practice","0.5","","0.5","0.2","","","","","","","","","","","",""
"33","","bandit","39","213176","0.0-19.0-19.0","58235166","wem/bandit_either","A1OQ3KL56KMQSU","either","6","","","","","","","74","J","0","img/none_selected_demo.jpg","0","1","0","","0.8","true","0","","0.8","80_20_practice","0.5","0.2","0.5","","","","","","","","","","","","",""
"2102","","text","40","215279","0.0-20.0","58235166","wem/bandit_either","A1OQ3KL56KMQSU","either","6","32","","","","","","","","","","","","","","","","","","","","","","","","","","","","","","","","","","",""
"346","","bandit","41","217131","0.0-21.0-0.0","58235166","wem/bandit_either","A1OQ3KL56KMQSU","either","6","","","","","","","74","J","0","img/none_selected_demo.jpg","1","0","0","1","0","true","0","1","0","","","1","","0","","","","","","","","","","","",""
"2421","","text","42","219554","0.0-22.0","58235166","wem/bandit_either","A1OQ3KL56KMQSU","either","6","32","","","","","","","","","","","","","","","","","","","","","","","","","","","","","","","","","","",""
"2551","","text","43","222106","0.0-23.0","58235166","wem/bandit_either","A1OQ3KL56KMQSU","either","6","32","","","","","","","","","","","","","","","","","","","","","","","","","","","","","","","","","","",""
"1802","","text","44","223908","0.0-24.0","58235166","wem/bandit_either","A1OQ3KL56KMQSU","either","6","32","","","","","","","","","","","","","","","","","","","","","","","","","","","","","","","","","","",""
"2255","","text","45","226164","0.0-25.0","58235166","wem/bandit_either","A1OQ3KL56KMQSU","either","6","32","","","","","","","","","","","","","","","","","","","","","","","","","","","","","","","","","","",""
"5286","","text","46","231451","0.0-26.0","58235166","wem/bandit_either","A1OQ3KL56KMQSU","either","6","32","","","","","","","","","","","","","","","","","","","","","","","","","","","","","","","","","","",""
"2114","","text","47","233567","0.0-27.0","58235166","wem/bandit_either","A1OQ3KL56KMQSU","either","6","32","","","","","","","","","","","","","","","","","","","","","","","","","","","","","","","","","","",""
"2560","","text","48","236129","0.0-28.0","58235166","wem/bandit_either","A1OQ3KL56KMQSU","either","6","32","","","","","","","","","","","","","","","","","","","","","","","","","","","","","","","","","","",""
"2464","","text","49","238594","0.0-29.0","58235166","wem/bandit_either","A1OQ3KL56KMQSU","either","6","32","","","","","","","","","","","","","","","","","","","","","","","","","","","","","","","","","","",""
"4418","","text","50","243019","0.0-30.0","58235166","wem/bandit_either","A1OQ3KL56KMQSU","either","6","32","","","","","","","","","","","","","","","","","","","","","","","","","","","","","","","","","","",""
"1068","","text","51","244087","0.0-31.0","58235166","wem/bandit_either","A1OQ3KL56KMQSU","either","6","32","","","","","","","","","","","","","","","","","","","","","","","","","","","","","","","","","","",""
"1869","","text","52","245958","0.0-32.0","58235166","wem/bandit_either","A1OQ3KL56KMQSU","either","6","32","","","","","","","","","","","","","","","","","","","","","","","","","","","","","","","","","","",""
"436","","bandit","53","247898","0.0-33.0-0.0","58235166","wem/bandit_either","A1OQ3KL56KMQSU","either","6","","","","","","","72","H","0","img/none_selected.jpg","1","0","0","0.8","","true","0","0.8","","full_practice","0.5","","0.5","0.2","0.6","0.5","0.2","0.5","","","","","","","",""
"198","","bandit","54","249602","0.0-33.0-1.0","58235166","wem/bandit_either","A1OQ3KL56KMQSU","either","6","","","","","","","72","H","0","img/none_selected.jpg","0","0","1","0.8","","true","0","0.8","","full_practice","0.5","","0.5","0.2","0.6","0.5","0.2","0.5","","","","","","","",""
"209","","bandit","55","251317","0.0-33.0-2.0","58235166","wem/bandit_either","A1OQ3KL56KMQSU","either","6","","","","","","","72","H","0","img/none_selected.jpg","1","0","0","0.8","","true","0","0.8","","full_practice","0.5","","0.5","0.2","0.6","0.5","0.2","0.5","","","","","","","",""
"200","","bandit","56","253022","0.0-33.0-3.0","58235166","wem/bandit_either","A1OQ3KL56KMQSU","either","6","","","","","","","72","H","0","img/none_selected.jpg","1","0","0","0.8","","true","0","0.8","","full_practice","0.5","","0.5","0.2","0.6","0.5","0.2","0.5","","","","","","","",""
"139","","bandit","57","254666","0.0-33.0-4.0","58235166","wem/bandit_either","A1OQ3KL56KMQSU","either","6","","","","","","","74","J","1","","0","0","1","0.2","","true","0","0.8","","full_practice","0.5","","0.5","0.2","0.6","0.5","0.2","0.5","","","","","","","",""
"109","","bandit","58","256279","0.0-33.0-5.0","58235166","wem/bandit_either","A1OQ3KL56KMQSU","either","6","","","","","","","74","J","1","","0","0","1","0.2","","true","0","0.8","","full_practice","0.5","","0.5","0.2","0.6","0.5","0.2","0.5","","","","","","","",""
"55","","bandit","59","257838","0.0-33.0-6.0","58235166","wem/bandit_either","A1OQ3KL56KMQSU","either","6","","","","","","","75","K","2","","1","0","0","0.6","","true","0","0.8","","full_practice","0.5","","0.5","0.2","0.6","0.5","0.2","0.5","","","","","","","",""
"160","","bandit","60","259503","0.0-33.0-7.0","58235166","wem/bandit_either","A1OQ3KL56KMQSU","either","6","","","","","","","75","K","2","","0","0","1","","0.6","true","0","","0.8","full_practice","0.5","0.2","0.5","","","0.5","","0.5","0.6","0.2","","","","","",""
"97","","bandit","61","261105","0.0-33.0-8.0","58235166","wem/bandit_either","A1OQ3KL56KMQSU","either","6","","","","","","","75","K","2","","0","0","1","0.6","","true","0","0.8","","full_practice","0.5","","0.5","0.2","0.6","0.5","0.2","0.5","","","","","","","",""
"14","","bandit","62","262625","0.0-33.0-9.0","58235166","wem/bandit_either","A1OQ3KL56KMQSU","either","6","","","","","","","75","K","2","","1","0","0","0.6","","true","0","0.8","","full_practice","0.5","","0.5","0.2","0.6","0.5","0.2","0.5","","","","","","","",""
"127","","bandit","63","264256","0.0-33.0-10.0","58235166","wem/bandit_either","A1OQ3KL56KMQSU","either","6","","","","","","","75","K","2","","0","1","0","","0.6","true","0","","0.8","full_practice","0.5","0.2","0.5","","","0.5","","0.5","0.6","0.2","","","","","",""
"143","","bandit","64","265904","0.0-33.0-11.0","58235166","wem/bandit_either","A1OQ3KL56KMQSU","either","6","","","","","","","75","K","2","","0","0","1","","0.6","true","0","","0.8","full_practice","0.5","0.2","0.5","","","0.5","","0.5","0.6","0.2","","","","","",""
"128","","bandit","65","267537","0.0-33.0-12.0","58235166","wem/bandit_either","A1OQ3KL56KMQSU","either","6","","","","","","","75","K","2","","0","0","1","","0.6","true","0","","0.8","full_practice","0.5","0.2","0.5","","","0.5","","0.5","0.6","0.2","","","","","",""
"94","","bandit","66","269135","0.0-33.0-13.0","58235166","wem/bandit_either","A1OQ3KL56KMQSU","either","6","","","","","","","72","H","0","img/none_selected.jpg","0","1","0","","0.8","true","0","","0.8","full_practice","0.5","0.2","0.5","","","0.5","","0.5","0.6","0.2","","","","","",""
"388","","bandit","67","271028","0.0-33.0-14.0","58235166","wem/bandit_either","A1OQ3KL56KMQSU","either","6","","","","","","","76","L","3","","0","0","1","0.2","","true","0","0.8","","full_practice","0.5","","0.5","0.2","0.6","0.5","0.2","0.5","","","","","","","",""
"51","","bandit","68","272591","0.0-33.0-15.0","58235166","wem/bandit_either","A1OQ3KL56KMQSU","either","6","","","","","","","76","L","3","","0","0","1","","0.2","true","0","","0.8","full_practice","0.5","0.2","0.5","","","0.5","","0.5","0.6","0.2","","","","","",""
"249","","bandit","69","274349","0.0-33.0-16.0","58235166","wem/bandit_either","A1OQ3KL56KMQSU","either","6","","","","","","","72","H","0","img/none_selected.jpg","0","1","0","","0.8","true","0","","0.8","full_practice","0.5","0.2","0.5","","","0.5","","0.5","0.6","0.2","","","","","",""
"178","","bandit","70","276032","0.0-33.0-17.0","58235166","wem/bandit_either","A1OQ3KL56KMQSU","either","6","","","","","","","72","H","0","img/none_selected.jpg","1","0","0","0.8","","true","0","0.8","","full_practice","0.5","","0.5","0.2","0.6","0.5","0.2","0.5","","","","","","","",""
"199","","bandit","71","277737","0.0-33.0-18.0","58235166","wem/bandit_either","A1OQ3KL56KMQSU","either","6","","","","","","","72","H","0","img/none_selected.jpg","1","0","0","0.8","","true","0","0.8","","full_practice","0.5","","0.5","0.2","0.6","0.5","0.2","0.5","","","","","","","",""
"696","","bandit","72","279939","0.0-33.0-19.0","58235166","wem/bandit_either","A1OQ3KL56KMQSU","either","6","","","","","","","72","H","0","img/none_selected.jpg","1","0","0","0.8","","true","0","0.8","","full_practice","0.5","","0.5","0.2","0.6","0.5","0.2","0.5","","","","","","","",""
"2251","","text","73","282194","0.0-34.0","58235166","wem/bandit_either","A1OQ3KL56KMQSU","either","6","32","","","","","","","","","","","","","","","","","","","","","","","","","","","","","","","","","","",""
"10186","","text","74","293384","0.0-35.0","58235166","wem/bandit_either","A1OQ3KL56KMQSU","either","6","32","","","","","","","","","","","","","","","","","","","","","","","","","","","","","","","","","","",""
"9786","","text","75","303173","0.0-36.0","58235166","wem/bandit_either","A1OQ3KL56KMQSU","either","6","32","","","","","","","","","","","","","","","","","","","","","","","","","","","","","","","","","","",""
"2908","","text","76","306082","0.0-37.0","58235166","wem/bandit_either","A1OQ3KL56KMQSU","either","6","32","","","","","","","","","","","","","","","","","","","","","","","","","","","","","","","","","","",""
"4095","","text","77","310179","0.0-38.0","58235166","wem/bandit_either","A1OQ3KL56KMQSU","either","6","32","","","","","","","","","","","","","","","","","","","","","","","","","","","","","","","","","","",""
"2497","","text","78","312682","0.0-39.0","58235166","wem/bandit_either","A1OQ3KL56KMQSU","either","6","32","","","","","","","","","","","","","","","","","","","","","","","","","","","","","","","","","","",""
"1076","","bandit","79","315264","0.0-40.0-0.0","58235166","wem/bandit_either","A1OQ3KL56KMQSU","either","6","","","","","","","72","H","0","img/none_selected.jpg","0","0","1","0.1720655487","","","1","0.1720655487","","main_expt","0.8","","0.2","0.4656478179","0.06094066238","0.6","0.1734470434","0.4","","","","","","","",""
"359","","bandit","80","317131","0.0-41.0-0.0","58235166","wem/bandit_either","A1OQ3KL56KMQSU","either","6","","","","","","","72","H","0","img/none_selected.jpg","0","0","1","0.1607886358","","","2","0.1607886358","","main_expt","0.8","","0.2","0.4661883906","0.04941180107","0.6","0.1582158198","0.4","","","","","","","",""
"196","","bandit","81","318833","0.0-42.0-0.0","58235166","wem/bandit_either","A1OQ3KL56KMQSU","either","6","","","","","","","74","J","1","","0","0","1","","0.4608397999","","3","","0.1825924006","main_expt","0.8","0.4608397999","0.2","","","0.6","","0.4","0.09066711981","0.1264016625","","","","","",""
"95","","bandit","82","320438","0.0-43.0-0.0","58235166","wem/bandit_either","A1OQ3KL56KMQSU","either","6","","","","","","","74","J","1","","0","0","1","0.4568511376","","","4","0.1572982515","","main_expt","0.8","","0.2","0.4568511376","0.07815644495","0.6","0.1212924903","0.4","","","","","","","",""
"76","","bandit","83","322017","0.0-44.0-0.0","58235166","wem/bandit_either","A1OQ3KL56KMQSU","either","6","","","","","","","75","K","2","","0","0","1","0.06547040057","","","5","0.1873501432","","main_expt","0.8","","0.2","0.4576747282","0.06547040057","0.6","0.1603104869","0.4","","","","","","","",""
"88","","bandit","84","323610","0.0-45.0-0.0","58235166","wem/bandit_either","A1OQ3KL56KMQSU","either","6","","","","","","","75","K","2","","0","0","1","0.09500806419","","","6","0.1484719509","","main_expt","0.8","","0.2","0.4673201091","0.09500806419","0.6","0.1916070739","0.4","","","","","","","",""
"75","","bandit","85","325197","0.0-46.0-0.0","58235166","wem/bandit_either","A1OQ3KL56KMQSU","either","6","","","","","","","76","L","3","","0","0","1","","0.1624213819","","7","","0.1368680622","main_expt","0.8","0.4671816856","0.2","","","0.6","","0.4","0.1156714339","0.1624213819","","","","","",""
"132","","bandit","86","326835","0.0-47.0-0.0","58235166","wem/bandit_either","A1OQ3KL56KMQSU","either","6","","","","","","","76","L","3","","0","0","1","0.1529627983","","","8","0.1412197478","","main_expt","0.8","","0.2","0.4577650209","0.08939878806","0.6","0.1529627983","0.4","","","","","","","",""
"178","","bandit","87","328519","0.0-48.0-0.0","58235166","wem/bandit_either","A1OQ3KL56KMQSU","either","6","","","","","","","76","L","3","","0","1","0","","0.1638779","","9","","0.1285241668","main_expt","0.8","0.4538037209","0.2","","","0.6","","0.4","0.1379609943","0.1638779","","","","","",""
"146","","bandit","88","330171","0.0-49.0-0.0","58235166","wem/bandit_either","A1OQ3KL56KMQSU","either","6","","","","","","","76","L","3","","0","0","1","0.1682184418","","","10","0.1137500729","","main_expt","0.8","","0.2","0.4567906288","0.08892925829","0.6","0.1682184418","0.4","","","","","","","",""
"100","","bandit","89","331777","0.0-50.0-0.0","58235166","wem/bandit_either","A1OQ3KL56KMQSU","either","6","","","","","","","75","K","2","","0","0","1","0.1053961985","","","11","0.1134058804","","main_expt","0.8","","0.2","0.4707556997","0.1053961985","0.6","0.1511948373","0.4","","","","","","","",""
"28","","bandit","90","333311","0.0-51.0-0.0","58235166","wem/bandit_either","A1OQ3KL56KMQSU","either","6","","","","","","","75","K","2","","0","0","1","","0.1267534428","","12","","0.1358134986","main_expt","0.8","0.4534589675","0.2","","","0.6","","0.4","0.1267534428","0.2144966391","","","","","",""
"85","","bandit","91","334902","0.0-52.0-0.0","58235166","wem/bandit_either","A1OQ3KL56KMQSU","either","6","","","","","","","74","J","1","","0","0","1","","0.4474824422","","13","","0.1105925571","main_expt","0.8","0.4474824422","0.2","","","0.6","","0.4","0.1179877152","0.1443049275","","","","","",""
"32","","bandit","92","336440","0.0-53.0-0.0","58235166","wem/bandit_either","A1OQ3KL56KMQSU","either","6","","","","","","","74","J","1","","0","0","1","","0.4125602811","","14","","0.09057326494","main_expt","0.8","0.4125602811","0.2","","","0.6","","0.4","0.1300626215","0.149160688","","","","","",""
"456","","bandit","93","338401","0.0-54.0-0.0","58235166","wem/bandit_either","A1OQ3KL56KMQSU","either","6","","","","","","","72","H","0","img/none_selected.jpg","0","0","1","0.05963436345","","","15","0.05963436345","","main_expt","0.8","","0.2","0.3715785473","0.1129073675","0.6","0.1525333278","0.4","","","","","","","",""
"86","","bandit","94","339993","0.0-55.0-0.0","58235166","wem/bandit_either","A1OQ3KL56KMQSU","either","6","","","","","","","72","H","0","img/none_selected.jpg","0","0","1","0.03970917029","","","16","0.03970917029","","main_expt","0.8","","0.2","0.3670357029","0.1132840383","0.6","0.1437253933","0.4","","","","","","","",""
"106","","bandit","95","341605","0.0-56.0-0.0","58235166","wem/bandit_either","A1OQ3KL56KMQSU","either","6","","","","","","","76","L","3","","0","0","1","","0.1191274054","","17","","0.03301664506","main_expt","0.8","0.333794799","0.2","","","0.6","","0.4","0.1530786807","0.1191274054","","","","","",""
"147","","bandit","96","343258","0.0-57.0-0.0","58235166","wem/bandit_either","A1OQ3KL56KMQSU","either","6","","","","","","","76","L","3","","0","0","1","","0.1231388663","","18","","0.0325619","main_expt","0.8","0.3720862831","0.2","","","0.6","","0.4","0.1367655081","0.1231388663","","","","","",""
"122","","bandit","97","344885","0.0-58.0-0.0","58235166","wem/bandit_either","A1OQ3KL56KMQSU","either","6","","","","","","","76","L","3","","0","0","1","0.1014962652","","","19","0.05136562407","","main_expt","0.8","","0.2","0.3940248177","0.1519969922","0.6","0.1014962652","0.4","","","","","","","",""
"101","","bandit","98","346493","0.0-59.0-0.0","58235166","wem/bandit_either","A1OQ3KL56KMQSU","either","6","","","","","","","76","L","3","","0","1","0","","0.1184271466","","20","","0.05620034239","main_expt","0.8","0.3980303587","0.2","","","0.6","","0.4","0.2344823222","0.1184271466","","","","","",""
"208","","bandit","99","348206","0.0-60.0-0.0","58235166","wem/bandit_either","A1OQ3KL56KMQSU","either","6","","","","","","","76","L","3","","0","0","1","","0.1434190777","","21","","0.04865895453","main_expt","0.8","0.405953395","0.2","","","0.6","","0.4","0.2227593861","0.1434190777","","","","","",""
"61","","bandit","100","349775","0.0-61.0-0.0","58235166","wem/bandit_either","A1OQ3KL56KMQSU","either","6","","","","","","","75","K","2","","0","0","1","","0.1831098024","","22","","0.05276066643","main_expt","0.8","0.37898799","0.2","","","0.6","","0.4","0.1831098024","0.1323354157","","","","","",""
"241","","bandit","101","351522","0.0-62.0-0.0","58235166","wem/bandit_either","A1OQ3KL56KMQSU","either","6","","","","","","","75","K","2","","0","0","1","","0.1660310818","","23","","0.05284133488","main_expt","0.8","0.3661255489","0.2","","","0.6","","0.4","0.1660310818","0.1384191998","","","","","",""
"512","","bandit","102","353540","0.0-63.0-0.0","58235166","wem/bandit_either","A1OQ3KL56KMQSU","either","6","","","","","","","75","K","2","","0","0","1","0.1400827643","","","24","0.0333904923","","main_expt","0.8","","0.2","0.3576379461","0.1400827643","0.6","0.1395593146","0.4","","","","","","","",""
"259","","bandit","103","355307","0.0-64.0-0.0","58235166","wem/bandit_either","A1OQ3KL56KMQSU","either","6","","","","","","","74","J","1","","0","0","1","","0.3346121782","","25","","0.04666446392","main_expt","0.8","0.3346121782","0.2","","","0.6","","0.4","0.2022937807","0.1696236693","","","","","",""
"422","","bandit","104","357235","0.0-65.0-0.0","58235166","wem/bandit_either","A1OQ3KL56KMQSU","either","6","","","","","","","74","J","1","","0","1","0","","0.3790434843","","26","","0.04067930801","main_expt","0.8","0.3790434843","0.2","","","0.6","","0.4","0.1725383963","0.1754084838","","","","","",""
"228","","bandit","105","358969","0.0-66.0-0.0","58235166","wem/bandit_either","A1OQ3KL56KMQSU","either","6","","","","","","","74","J","1","","0","0","1","","0.3744762435","","27","","0.03070036018","main_expt","0.8","0.3744762435","0.2","","","0.6","","0.4","0.1735642386","0.118483546","","","","","",""
"159","","bandit","106","360635","0.0-67.0-0.0","58235166","wem/bandit_either","A1OQ3KL56KMQSU","either","6","","","","","","","74","J","1","","0","0","1","","0.3650769418","","28","","0.02292460278","main_expt","0.8","0.3650769418","0.2","","","0.6","","0.4","0.149532802","0.1259847853","","","","","",""
"216","","bandit","107","362356","0.0-68.0-0.0","58235166","wem/bandit_either","A1OQ3KL56KMQSU","either","6","","","","","","","72","H","0","img/none_selected.jpg","0","0","1","0.03476379039","","","29","0.03476379039","","main_expt","0.8","","0.2","0.3299345172","0.1597785082","0.6","0.1072727049","0.4","","","","","","","",""
"41","","bandit","108","363903","0.0-69.0-0.0","58235166","wem/bandit_either","A1OQ3KL56KMQSU","either","6","","","","","","","72","H","0","img/none_selected.jpg","0","0","1","0.04211589453","","","30","0.04211589453","","main_expt","0.8","","0.2","0.3010095271","0.1978771271","0.6","0.07952930744","0.4","","","","","","","",""
"224","","bandit","109","365634","0.0-70.0-0.0","58235166","wem/bandit_either","A1OQ3KL56KMQSU","either","6","","","","","","","72","H","0","img/none_selected.jpg","0","0","1","0.04495483672","","","31","0.04495483672","","main_expt","0.8","","0.2","0.331530841","0.1928768267","0.6","0.09691030242","0.4","","","","","","","",""
"95","","bandit","110","367234","0.0-71.0-0.0","58235166","wem/bandit_either","A1OQ3KL56KMQSU","either","6","","","","","","","76","L","3","","0","0","1","","0.1338720944","","32","","0.04126869591","main_expt","0.8","0.3469043085","0.2","","","0.6","","0.4","0.1511047494","0.1338720944","","","","","",""
"214","","bandit","111","368955","0.0-72.0-0.0","58235166","wem/bandit_either","A1OQ3KL56KMQSU","either","6","","","","","","","76","L","3","","0","0","1","","0.1428203538","","33","","0.02396570111","main_expt","0.8","0.2778139242","0.2","","","0.6","","0.4","0.09247049486","0.1428203538","","","","","",""
"237","","bandit","112","370698","0.0-73.0-0.0","58235166","wem/bandit_either","A1OQ3KL56KMQSU","either","6","","","","","","","76","L","3","","0","0","1","0.1258169527","","","34","0.03561151332","","main_expt","0.8","","0.2","0.236883459","0.1127946788","0.6","0.1258169527","0.4","","","","","","","",""
"157","","bandit","113","372362","0.0-74.0-0.0","58235166","wem/bandit_either","A1OQ3KL56KMQSU","either","6","","","","","","","76","L","3","","1","0","0","0.1652362889","","","35","0.04565222073","","main_expt","0.8","","0.2","0.2656196476","0.1279928094","0.6","0.1652362889","0.4","","","","","","","",""
"159","","bandit","114","374027","0.0-75.0-0.0","58235166","wem/bandit_either","A1OQ3KL56KMQSU","either","6","","","","","","","76","L","3","","0","0","1","","0.1472348388","","36","","0.05036449293","main_expt","0.8","0.2309028503","0.2","","","0.6","","0.4","0.09285608896","0.1472348388","","","","","",""
"42","","bandit","115","375587","0.0-76.0-0.0","58235166","wem/bandit_either","A1OQ3KL56KMQSU","either","6","","","","","","","76","L","3","","0","0","1","","0.20581188","","37","","0.04764774511","main_expt","0.8","0.1961267878","0.2","","","0.6","","0.4","0.1251507517","0.20581188","","","","","",""
"33","","bandit","116","377133","0.0-77.0-0.0","58235166","wem/bandit_either","A1OQ3KL56KMQSU","either","6","","","","","","","76","L","3","","0","0","1","","0.2096070571","","38","","0.04692466818","main_expt","0.8","0.2197692452","0.2","","","0.6","","0.4","0.1248439258","0.2096070571","","","","","",""
"71","","bandit","117","378709","0.0-78.0-0.0","58235166","wem/bandit_either","A1OQ3KL56KMQSU","either","6","","","","","","","76","L","3","","0","0","1","0.1888903691","","","39","0.06150360576","","main_expt","0.8","","0.2","0.1783178102","0.1192858938","0.6","0.1888903691","0.4","","","","","","","",""
"726","","bandit","118","380942","0.0-79.0-0.0","58235166","wem/bandit_either","A1OQ3KL56KMQSU","either","6","","","","","","","76","L","3","","0","0","1","","0.1769314034","","40","","0.1025324214","main_expt","0.8","0.1354267005","0.2","","","0.6","","0.4","0.1457630933","0.1769314034","","","","","",""
"385","","bandit","119","382837","0.0-80.0-0.0","58235166","wem/bandit_either","A1OQ3KL56KMQSU","either","6","","","","","","","75","K","2","","0","0","1","0.1788887836","","","41","0.1278282258","","main_expt","0.8","","0.2","0.1307301687","0.1788887836","0.6","0.1764673912","0.4","","","","","","","",""
"62","","bandit","120","384411","0.0-81.0-0.0","58235166","wem/bandit_either","A1OQ3KL56KMQSU","either","6","","","","","","","75","K","2","","0","0","1","","0.1550439797","","42","","0.1144783829","main_expt","0.8","0.1002459791","0.2","","","0.6","","0.4","0.1550439797","0.1164002711","","","","","",""
"208","","bandit","121","386128","0.0-82.0-0.0","58235166","wem/bandit_either","A1OQ3KL56KMQSU","either","6","","","","","","","75","K","2","","0","0","1","","0.1624336935","","43","","0.148274456","main_expt","0.8","0.06131682752","0.2","","","0.6","","0.4","0.1624336935","0.1248357276","","","","","",""
"45","","bandit","122","387681","0.0-83.0-0.0","58235166","wem/bandit_either","A1OQ3KL56KMQSU","either","6","","","","","","","75","K","2","","1","0","0","0.2610419313","","","44","0.1733993608","","main_expt","0.8","","0.2","0.05757194937","0.2610419313","0.6","0.1801883524","0.4","","","","","","","",""
"188","","bandit","123","389376","0.0-84.0-0.0","58235166","wem/bandit_either","A1OQ3KL56KMQSU","either","6","","","","","","","75","K","2","","0","0","1","0.2547096211","","","45","0.1731137141","","main_expt","0.8","","0.2","0.06317169253","0.2547096211","0.6","0.1536252234","0.4","","","","","","","",""
"444","","bandit","124","391329","0.0-85.0-0.0","58235166","wem/bandit_either","A1OQ3KL56KMQSU","either","6","","","","","","","75","K","2","","0","0","1","0.2690630982","","","46","0.2577534017","","main_expt","0.8","","0.2","0.08604650327","0.2690630982","0.6","0.1453657368","0.4","","","","","","","",""
"60","","bandit","125","392905","0.0-86.0-0.0","58235166","wem/bandit_either","A1OQ3KL56KMQSU","either","6","","","","","","","74","J","1","","0","0","1","","0.07503215105","","47","","0.2436059896","main_expt","0.8","0.07503215105","0.2","","","0.6","","0.4","0.2613787364","0.1163474927","","","","","",""
"138","","bandit","126","394550","0.0-87.0-0.0","58235166","wem/bandit_either","A1OQ3KL56KMQSU","either","6","","","","","","","74","J","1","","0","1","0","","0.09661626413","","48","","0.261356988","main_expt","0.8","0.09661626413","0.2","","","0.6","","0.4","0.2764851171","0.1187671899","","","","","",""
"100","","bandit","127","396156","0.0-88.0-0.0","58235166","wem/bandit_either","A1OQ3KL56KMQSU","either","6","","","","","","","74","J","1","","0","0","1","0.141419135","","","49","0.2707362224","","main_expt","0.8","","0.2","0.141419135","0.2628846066","0.6","0.1321787199","0.4","","","","","","","",""
"55","","bandit","128","397717","0.0-89.0-0.0","58235166","wem/bandit_either","A1OQ3KL56KMQSU","either","6","","","","","","","74","J","1","","0","0","1","","0.1341637883","","50","","0.2733601765","main_expt","0.8","0.1341637883","0.2","","","0.6","","0.4","0.3634831931","0.1310663867","","","","","",""
"260","","bandit","129","399485","0.0-90.0-0.0","58235166","wem/bandit_either","A1OQ3KL56KMQSU","either","6","","","","","","","74","J","1","","0","0","1","0.1225974466","","","51","0.2590969561","","main_expt","0.8","","0.2","0.1225974466","0.3771608335","0.6","0.1450472339","0.4","","","","","","","",""
"235","","bandit","130","401228","0.0-91.0-0.0","58235166","wem/bandit_either","A1OQ3KL56KMQSU","either","6","","","","","","","74","J","1","","0","0","1","","0.1145468474","","52","","0.2515646212","main_expt","0.8","0.1145468474","0.2","","","0.6","","0.4","0.3093307572","0.1731775471","","","","","",""
"169","","bandit","131","402903","0.0-92.0-0.0","58235166","wem/bandit_either","A1OQ3KL56KMQSU","either","6","","","","","","","74","J","1","","0","0","1","","0.1059564611","","53","","0.2257746054","main_expt","0.8","0.1059564611","0.2","","","0.6","","0.4","0.2990929044","0.2258016315","","","","","",""
"236","","bandit","132","404646","0.0-93.0-0.0","58235166","wem/bandit_either","A1OQ3KL56KMQSU","either","6","","","","","","","72","H","0","img/none_selected.jpg","0","0","1","0.2750925763","","","54","0.2750925763","","main_expt","0.8","","0.2","0.1090017536","0.2221679908","0.6","0.2172527187","0.4","","","","","","","",""
"242","","bandit","133","406394","0.0-94.0-0.0","58235166","wem/bandit_either","A1OQ3KL56KMQSU","either","6","","","","","","","72","H","0","img/none_selected.jpg","0","0","1","0.3608357377","","","55","0.3608357377","","main_expt","0.8","","0.2","0.1249444004","0.1886471815","0.6","0.1652356872","0.4","","","","","","","",""
"217","","bandit","134","408117","0.0-95.0-0.0","58235166","wem/bandit_either","A1OQ3KL56KMQSU","either","6","","","","","","","76","L","3","","0","0","1","0.1576418272","","","56","0.4022545085","","main_expt","0.8","","0.2","0.09043885587","0.1973213641","0.6","0.1576418272","0.4","","","","","","","",""
"265","","bandit","135","409892","0.0-96.0-0.0","58235166","wem/bandit_either","A1OQ3KL56KMQSU","either","6","","","","","","","76","L","3","","0","0","1","","0.180776926","","57","","0.3867568464","main_expt","0.8","0.07448640425","0.2","","","0.6","","0.4","0.2207101474","0.180776926","","","","","",""
"356","","bandit","136","411761","0.0-97.0-0.0","58235166","wem/bandit_either","A1OQ3KL56KMQSU","either","6","","","","","","","76","L","3","","0","0","1","0.1489081552","","","58","0.3840355114","","main_expt","0.8","","0.2","0.09808879237","0.2480089655","0.6","0.1489081552","0.4","","","","","","","",""
"222","","bandit","137","413490","0.0-98.0-0.0","58235166","wem/bandit_either","A1OQ3KL56KMQSU","either","6","","","","","","","72","H","0","img/none_selected.jpg","0","0","1","","0.3617876187","","59","","0.3617876187","main_expt","0.8","0.0721355853","0.2","","","0.6","","0.4","0.2667579505","0.125555473","","","","","",""
"154","","bandit","138","415153","0.0-99.0-0.0","58235166","wem/bandit_either","A1OQ3KL56KMQSU","either","6","","","","","","","75","K","2","","0","0","1","0.2637313595","","","60","0.3018070945","","main_expt","0.8","","0.2","0.08871326978","0.2637313595","0.6","0.1228814318","0.4","","","","","","","",""
"219","","bandit","139","416885","0.0-100.0-0.0","58235166","wem/bandit_either","A1OQ3KL56KMQSU","either","6","","","","","","","75","K","2","","0","0","1","0.2400462537","","","61","0.2687465691","","main_expt","0.8","","0.2","0.1472383223","0.2400462537","0.6","0.195834737","0.4","","","","","","","",""
"255","","bandit","140","418650","0.0-101.0-0.0","58235166","wem/bandit_either","A1OQ3KL56KMQSU","either","6","","","","","","","74","J","1","","0","0","1","","0.1625866577","","62","","0.287622952","main_expt","0.8","0.1625866577","0.2","","","0.6","","0.4","0.2396546157","0.1952904108","","","","","",""
"33","","bandit","141","420199","0.0-102.0-0.0","58235166","wem/bandit_either","A1OQ3KL56KMQSU","either","6","","","","","","","74","J","1","","0","0","1","","0.1196153378","","63","","0.2060093557","main_expt","0.8","0.1196153378","0.2","","","0.6","","0.4","0.2558687718","0.187392073","","","","","",""
"184","","bandit","142","421892","0.0-103.0-0.0","58235166","wem/bandit_either","A1OQ3KL56KMQSU","either","6","","","","","","","76","L","3","","0","0","1","","0.1774517964","","64","","0.1865830226","main_expt","0.8","0.1025290435","0.2","","","0.6","","0.4","0.1789331692","0.1774517964","","","","","",""
"180","","bandit","143","423578","0.0-104.0-0.0","58235166","wem/bandit_either","A1OQ3KL56KMQSU","either","6","","","","","","","76","L","3","","0","0","1","0.1956590225","","","65","0.2242960511","","main_expt","0.8","","0.2","0.06637487434","0.2041721298","0.6","0.1956590225","0.4","","","","","","","",""
"412","","bandit","144","425497","0.0-105.0-0.0","58235166","wem/bandit_either","A1OQ3KL56KMQSU","either","6","","","","","","","74","J","1","","0","0","1","","0.09888809835","","66","","0.213739571","main_expt","0.8","0.09888809835","0.2","","","0.6","","0.4","0.1083731131","0.1559932489","","","","","",""
"202","","bandit","145","427204","0.0-106.0-0.0","58235166","wem/bandit_either","A1OQ3KL56KMQSU","either","6","","","","","","","74","J","1","","0","0","1","","0.08542348091","","67","","0.2463093088","main_expt","0.8","0.08542348091","0.2","","","0.6","","0.4","0.08148965902","0.1327283285","","","","","",""
"283","","bandit","146","428994","0.0-107.0-0.0","58235166","wem/bandit_either","A1OQ3KL56KMQSU","either","6","","","","","","","74","J","1","","0","0","1","","0.05648132023","","68","","0.1863602012","main_expt","0.8","0.05648132023","0.2","","","0.6","","0.4","0.115871946","0.1646421129","","","","","",""
"87","","bandit","147","430589","0.0-108.0-0.0","58235166","wem/bandit_either","A1OQ3KL56KMQSU","either","6","","","","","","","75","K","2","","0","0","1","","0.1049465522","","69","","0.1481768435","main_expt","0.8","0.07427448495","0.2","","","0.6","","0.4","0.1049465522","0.1879918005","","","","","",""
"133","","bandit","148","432229","0.0-109.0-0.0","58235166","wem/bandit_either","A1OQ3KL56KMQSU","either","6","","","","","","","75","K","2","","0","0","1","0.1224614501","","","70","0.2062415021","","main_expt","0.8","","0.2","0.1052870039","0.1224614501","0.6","0.1708527721","0.4","","","","","","","",""
"48","","bandit","149","433783","0.0-110.0-0.0","58235166","wem/bandit_either","A1OQ3KL56KMQSU","either","6","","","","","","","75","K","2","","0","0","1","0.1687358413","","","71","0.2175562698","","main_expt","0.8","","0.2","0.1114501371","0.1687358413","0.6","0.1930923514","0.4","","","","","","","",""
"166","","bandit","150","435457","0.0-111.0-0.0","58235166","wem/bandit_either","A1OQ3KL56KMQSU","either","6","","","","","","","72","H","0","img/none_selected.jpg","0","0","1","","0.2182173038","","72","","0.2182173038","main_expt","0.8","0.1282799478","0.2","","","0.6","","0.4","0.1902964731","0.2289396243","","","","","",""
"179","","bandit","151","437143","0.0-112.0-0.0","58235166","wem/bandit_either","A1OQ3KL56KMQSU","either","6","","","","","","","72","H","0","img/none_selected.jpg","0","0","1","","0.1629952044","","73","","0.1629952044","main_expt","0.8","0.1113050996","0.2","","","0.6","","0.4","0.1764690901","0.2223781067","","","","","",""
"1204","","bandit","152","439854","0.0-113.0-0.0","58235166","wem/bandit_either","A1OQ3KL56KMQSU","either","6","","","","","","","72","H","0","img/none_selected.jpg","1","0","0","0.2291178652","","","74","0.2291178652","","main_expt","0.8","","0.2","0.1573287606","0.1720288853","0.6","0.1664819569","0.4","","","","","","","",""
"216","","bandit","153","441578","0.0-114.0-0.0","58235166","wem/bandit_either","A1OQ3KL56KMQSU","either","6","","","","","","","72","H","0","img/none_selected.jpg","0","0","1","0.2087405931","","","75","0.2087405931","","main_expt","0.8","","0.2","0.168318459","0.098780463","0.6","0.1157276324","0.4","","","","","","","",""
"270","","bandit","154","443353","0.0-115.0-0.0","58235166","wem/bandit_either","A1OQ3KL56KMQSU","either","6","","","","","","","72","H","0","img/none_selected.jpg","1","0","0","0.1981976751","","","76","0.1981976751","","main_expt","0.8","","0.2","0.131742089","0.08192786134","0.6","0.06912044911","0.4","","","","","","","",""
"235","","bandit","155","445094","0.0-116.0-0.0","58235166","wem/bandit_either","A1OQ3KL56KMQSU","either","6","","","","","","","72","H","0","img/none_selected.jpg","1","0","0","0.2302368041","","","77","0.2302368041","","main_expt","0.8","","0.2","0.1382621175","0.03620126105","0.6","0.06151132513","0.4","","","","","","","",""
"222","","bandit","156","446822","0.0-117.0-0.0","58235166","wem/bandit_either","A1OQ3KL56KMQSU","either","6","","","","","","","72","H","0","img/none_selected.jpg","0","1","0","","0.2538269909","","78","","0.2538269909","main_expt","0.8","0.1351161864","0.2","","","0.6","","0.4","0.03362754592","0.08824794056","","","","","",""
"201","","bandit","157","448530","0.0-118.0-0.0","58235166","wem/bandit_either","A1OQ3KL56KMQSU","either","6","","","","","","","72","H","0","img/none_selected.jpg","0","0","1","0.221492582","","","79","0.221492582","","main_expt","0.8","","0.2","0.1125986002","0.03917851348","0.6","0.08425003046","0.4","","","","","","","",""
"226","","bandit","158","450262","0.0-119.0-0.0","58235166","wem/bandit_either","A1OQ3KL56KMQSU","either","6","","","","","","","72","H","0","img/none_selected.jpg","0","0","1","0.2126184008","","","80","0.2126184008","","main_expt","0.8","","0.2","0.1071358869","0.06916691586","0.6","0.1059393704","0.4","","","","","","","",""
"55","","bandit","159","451823","0.0-120.0-0.0","58235166","wem/bandit_either","A1OQ3KL56KMQSU","either","6","","","","","","","72","H","0","img/none_selected.jpg","0","0","1","0.1803612399","","","81","0.1803612399","","main_expt","0.8","","0.2","0.1410751298","0.1110223174","0.6","0.114990546","0.4","","","","","","","",""
"273","","bandit","160","453602","0.0-121.0-0.0","58235166","wem/bandit_either","A1OQ3KL56KMQSU","either","6","","","","","","","72","H","0","img/none_selected.jpg","0","1","0","","0.1883980103","","82","","0.1883980103","main_expt","0.8","0.1518454263","0.2","","","0.6","","0.4","0.08899533144","0.1246300745","","","","","",""
"235","","bandit","161","455345","0.0-122.0-0.0","58235166","wem/bandit_either","A1OQ3KL56KMQSU","either","6","","","","","","","72","H","0","img/none_selected.jpg","0","0","1","","0.2099895667","","83","","0.2099895667","main_expt","0.8","0.1285150734","0.2","","","0.6","","0.4","0.1383499545","0.1523433176","","","","","",""
"214","","bandit","162","457066","0.0-123.0-0.0","58235166","wem/bandit_either","A1OQ3KL56KMQSU","either","6","","","","","","","72","H","0","img/none_selected.jpg","1","0","0","0.1760666055","","","84","0.1760666055","","main_expt","0.8","","0.2","0.1083679187","0.1815119679","0.6","0.1230513595","0.4","","","","","","","",""
"190","","bandit","163","458765","0.0-124.0-0.0","58235166","wem/bandit_either","A1OQ3KL56KMQSU","either","6","","","","","","","72","H","0","img/none_selected.jpg","1","0","0","0.2077415988","","","85","0.2077415988","","main_expt","0.8","","0.2","0.08985983991","0.2121304898","0.6","0.1460595132","0.4","","","","","","","",""
"564","","bandit","164","460835","0.0-125.0-0.0","58235166","wem/bandit_either","A1OQ3KL56KMQSU","either","6","","","","","","","72","H","0","img/none_selected.jpg","0","0","1","0.1940704576","","","86","0.1940704576","","main_expt","0.8","","0.2","0.08377758623","0.1931166697","0.6","0.1578730034","0.4","","","","","","","",""
"351","","bandit","165","462693","0.0-126.0-0.0","58235166","wem/bandit_either","A1OQ3KL56KMQSU","either","6","","","","","","","72","H","0","img/none_selected.jpg","0","0","1","0.1920524506","","","87","0.1920524506","","main_expt","0.8","","0.2","0.08340742779","0.1908876969","0.6","0.1329566931","0.4","","","","","","","",""
"277","","bandit","166","464476","0.0-127.0-0.0","58235166","wem/bandit_either","A1OQ3KL56KMQSU","either","6","","","","","","","72","H","0","img/none_selected.jpg","0","0","1","0.2525081946","","","88","0.2525081946","","main_expt","0.8","","0.2","0.06937011617","0.1727332377","0.6","0.1156353122","0.4","","","","","","","",""
"314","","bandit","167","466300","0.0-128.0-0.0","58235166","wem/bandit_either","A1OQ3KL56KMQSU","either","6","","","","","","","72","H","0","img/none_selected.jpg","0","1","0","","0.2476280913","","89","","0.2476280913","main_expt","0.8","0.08556693901","0.2","","","0.6","","0.4","0.1747664758","0.1169245856","","","","","",""
"423","","bandit","168","468231","0.0-129.0-0.0","58235166","wem/bandit_either","A1OQ3KL56KMQSU","either","6","","","","","","","72","H","0","img/none_selected.jpg","0","0","1","0.2476417222","","","90","0.2476417222","","main_expt","0.8","","0.2","0.1013294801","0.1302891894","0.6","0.1276927611","0.4","","","","","","","",""
"400","","bandit","169","470137","0.0-130.0-0.0","58235166","wem/bandit_either","A1OQ3KL56KMQSU","either","6","","","","","","","72","H","0","img/none_selected.jpg","0","0","1","","0.1875867431","","91","","0.1875867431","main_expt","0.8","0.1567130635","0.2","","","0.6","","0.4","0.1143331172","0.1633868825","","","","","",""
"302","","bandit","170","471948","0.0-131.0-0.0","58235166","wem/bandit_either","A1OQ3KL56KMQSU","either","6","","","","","","","72","H","0","img/none_selected.jpg","0","0","1","","0.1804963823","","92","","0.1804963823","main_expt","0.8","0.1214255195","0.2","","","0.6","","0.4","0.1674068059","0.2172033847","","","","","",""
"130","","bandit","171","473587","0.0-132.0-0.0","58235166","wem/bandit_either","A1OQ3KL56KMQSU","either","6","","","","","","","74","J","1","","0","0","1","","0.1317465968","","93","","0.1468121695","main_expt","0.8","0.1317465968","0.2","","","0.6","","0.4","0.1405005834","0.2178255547","","","","","",""
"293","","bandit","172","475390","0.0-133.0-0.0","58235166","wem/bandit_either","A1OQ3KL56KMQSU","either","6","","","","","","","74","J","1","","0","0","1","","0.1810196293","","94","","0.1270151289","main_expt","0.8","0.1810196293","0.2","","","0.6","","0.4","0.1338278818","0.2058786334","","","","","",""
"68","","bandit","173","476964","0.0-134.0-0.0","58235166","wem/bandit_either","A1OQ3KL56KMQSU","either","6","","","","","","","75","K","2","","0","0","1","0.16416917","","","95","0.1049494322","","main_expt","0.8","","0.2","0.1537803575","0.16416917","0.6","0.2009860572","0.4","","","","","","","",""
"105","","bandit","174","478575","0.0-135.0-0.0","58235166","wem/bandit_either","A1OQ3KL56KMQSU","either","6","","","","","","","75","K","2","","0","0","1","","0.1075549125","","96","","0.1242023773","main_expt","0.8","0.2255368078","0.2","","","0.6","","0.4","0.1075549125","0.2792576191","","","","","",""
"150","","bandit","175","480232","0.0-136.0-0.0","58235166","wem/bandit_either","A1OQ3KL56KMQSU","either","6","","","","","","","76","L","3","","0","0","1","0.291042229","","","97","0.101802889","","main_expt","0.8","","0.2","0.1881791955","0.07285617598","0.6","0.291042229","0.4","","","","","","","",""
"249","","bandit","176","481987","0.0-137.0-0.0","58235166","wem/bandit_either","A1OQ3KL56KMQSU","either","6","","","","","","","76","L","3","","0","0","1","","0.2919937097","","98","","0.08559904752","main_expt","0.8","0.1722186849","0.2","","","0.6","","0.4","0.1128802937","0.2919937097","","","","","",""
"240","","bandit","177","483732","0.0-138.0-0.0","58235166","wem/bandit_either","A1OQ3KL56KMQSU","either","6","","","","","","","72","H","0","img/none_selected.jpg","0","0","1","0.04480153982","","","99","0.04480153982","","main_expt","0.8","","0.2","0.2581810796","0.07338875894","0.6","0.338066437","0.4","","","","","","","",""
"253","","bandit","178","485495","0.0-139.0-0.0","58235166","wem/bandit_either","A1OQ3KL56KMQSU","either","6","","","","","","","72","H","0","img/none_selected.jpg","0","0","1","0.03694367041","","","100","0.03694367041","","main_expt","0.8","","0.2","0.3094702251","0.06256672301","0.6","0.3466775547","0.4","","","","","","","",""
"319","","bandit","179","487321","0.0-140.0-0.0","58235166","wem/bandit_either","A1OQ3KL56KMQSU","either","6","","","","","","","72","H","0","img/none_selected.jpg","0","0","1","0.02534596886","","","101","0.02534596886","","main_expt","0.8","","0.2","0.3217449289","0.06765033746","0.6","0.3776837944","0.4","","","","","","","",""
"344","","bandit","180","489172","0.0-141.0-0.0","58235166","wem/bandit_either","A1OQ3KL56KMQSU","either","6","","","","","","","72","H","0","img/none_selected.jpg","0","0","1","","0.03456503798","","102","","0.03456503798","main_expt","0.8","0.3656493725","0.2","","","0.6","","0.4","0.08460413752","0.3988278911","","","","","",""
"330","","bandit","181","491010","0.0-142.0-0.0","58235166","wem/bandit_either","A1OQ3KL56KMQSU","either","6","","","","","","","72","H","0","img/none_selected.jpg","0","0","1","0.03116272615","","","103","0.03116272615","","main_expt","0.8","","0.2","0.4097417878","0.1149622558","0.6","0.3642388176","0.4","","","","","","","",""
"473","","bandit","182","492992","0.0-143.0-0.0","58235166","wem/bandit_either","A1OQ3KL56KMQSU","either","6","","","","","","","74","J","1","","0","1","0","","0.4005896235","","104","","0.04034009898","main_expt","0.8","0.4005896235","0.2","","","0.6","","0.4","0.1223821921","0.3059376685","","","","","",""
"198","","bandit","183","494697","0.0-144.0-0.0","58235166","wem/bandit_either","A1OQ3KL56KMQSU","either","6","","","","","","","74","J","1","","0","1","0","","0.3967946647","","105","","0.06132200156","main_expt","0.8","0.3967946647","0.2","","","0.6","","0.4","0.1302837569","0.2658022239","","","","","",""
"197","","bandit","184","496403","0.0-145.0-0.0","58235166","wem/bandit_either","A1OQ3KL56KMQSU","either","6","","","","","","","74","J","1","","0","1","0","","0.3920329447","","106","","0.03171667797","main_expt","0.8","0.3920329447","0.2","","","0.6","","0.4","0.1405927316","0.2583534607","","","","","",""
"238","","bandit","185","498146","0.0-146.0-0.0","58235166","wem/bandit_either","A1OQ3KL56KMQSU","either","6","","","","","","","74","J","1","","0","0","1","0.3973329777","","","107","0.06603394544","","main_expt","0.8","","0.2","0.3973329777","0.1835021143","0.6","0.2402432731","0.4","","","","","","","",""
"244","","bandit","186","499899","0.0-147.0-0.0","58235166","wem/bandit_either","A1OQ3KL56KMQSU","either","6","","","","","","","74","J","1","","0","0","1","0.3839010997","","","108","0.08137973005","","main_expt","0.8","","0.2","0.3839010997","0.2124513917","0.6","0.2364509509","0.4","","","","","","","",""
"364","","bandit","187","501772","0.0-148.0-0.0","58235166","wem/bandit_either","A1OQ3KL56KMQSU","either","6","","","","","","","74","J","1","","1","0","0","0.3879107289","","","109","0.04765661509","","main_expt","0.8","","0.2","0.3879107289","0.218007314","0.6","0.2164051194","0.4","","","","","","","",""
"226","","bandit","188","503506","0.0-149.0-0.0","58235166","wem/bandit_either","A1OQ3KL56KMQSU","either","6","","","","","","","74","J","1","","0","0","1","","0.3989855113","","110","","0.06789381979","main_expt","0.8","0.3989855113","0.2","","","0.6","","0.4","0.229469423","0.1611838666","","","","","",""
"258","","bandit","189","505271","0.0-150.0-0.0","58235166","wem/bandit_either","A1OQ3KL56KMQSU","either","6","","","","","","","74","J","1","","0","1","0","","0.3959495959","","111","","0.08972795074","main_expt","0.8","0.3959495959","0.2","","","0.6","","0.4","0.2923436213","0.2042622235","","","","","",""
"475","","bandit","190","507254","0.0-151.0-0.0","58235166","wem/bandit_either","A1OQ3KL56KMQSU","either","6","","","","","","","74","J","1","","0","0","1","","0.335596647","","112","","0.1176683061","main_expt","0.8","0.335596647","0.2","","","0.6","","0.4","0.2778802509","0.2113733305","","","","","",""
"423","","bandit","191","509184","0.0-152.0-0.0","58235166","wem/bandit_either","A1OQ3KL56KMQSU","either","6","","","","","","","74","J","1","","0","0","1","","0.2876347753","","113","","0.1973953549","main_expt","0.8","0.2876347753","0.2","","","0.6","","0.4","0.2852166322","0.220236308","","","","","",""
"520","","bandit","192","511212","0.0-153.0-0.0","58235166","wem/bandit_either","A1OQ3KL56KMQSU","either","6","","","","","","","74","J","1","","0","1","0","","0.2811359795","","114","","0.200840576","main_expt","0.8","0.2811359795","0.2","","","0.6","","0.4","0.3222351196","0.2453392608","","","","","",""
"751","","bandit","193","513468","0.0-154.0-0.0","58235166","wem/bandit_either","A1OQ3KL56KMQSU","either","6","","","","","","","74","J","1","","0","0","1","","0.2056035349","","115","","0.2544006126","main_expt","0.8","0.2056035349","0.2","","","0.6","","0.4","0.2865303103","0.2311931225","","","","","",""
"624","","bandit","194","515611","0.0-155.0-0.0","58235166","wem/bandit_either","A1OQ3KL56KMQSU","either","6","","","","","","","74","J","1","","0","1","0","","0.2435386161","","116","","0.2264812366","main_expt","0.8","0.2435386161","0.2","","","0.6","","0.4","0.1901772154","0.2290532582","","","","","",""
"343","","bandit","195","517460","0.0-156.0-0.0","58235166","wem/bandit_either","A1OQ3KL56KMQSU","either","6","","","","","","","74","J","1","","1","0","0","0.2523066444","","","117","0.2535822563","","main_expt","0.8","","0.2","0.2523066444","0.1854727963","0.6","0.2610634121","0.4","","","","","","","",""
"353","","bandit","196","519323","0.0-157.0-0.0","58235166","wem/bandit_either","A1OQ3KL56KMQSU","either","6","","","","","","","74","J","1","","0","0","1","","0.258758296","","118","","0.288462609","main_expt","0.8","0.258758296","0.2","","","0.6","","0.4","0.223078523","0.2915584027","","","","","",""
"632","","bandit","197","521462","0.0-158.0-0.0","58235166","wem/bandit_either","A1OQ3KL56KMQSU","either","6","","","","","","","74","J","1","","0","1","0","","0.2513882557","","119","","0.3077733757","main_expt","0.8","0.2513882557","0.2","","","0.6","","0.4","0.2157898803","0.3240034744","","","","","",""
"358","","bandit","198","523327","0.0-159.0-0.0","58235166","wem/bandit_either","A1OQ3KL56KMQSU","either","6","","","","","","","74","J","1","","0","1","0","","0.2178230887","","120","","0.3470363664","main_expt","0.8","0.2178230887","0.2","","","0.6","","0.4","0.2055853597","0.3584552205","","","","","",""
"462","","bandit","199","525296","0.0-160.0-0.0","58235166","wem/bandit_either","A1OQ3KL56KMQSU","either","6","","","","","","","74","J","1","","0","0","1","0.2249913612","","","121","0.36369082","","main_expt","0.8","","0.2","0.2249913612","0.2308362602","0.6","0.3392259721","0.4","","","","","","","",""
"454","","bandit","200","527256","0.0-161.0-0.0","58235166","wem/bandit_either","A1OQ3KL56KMQSU","either","6","","","","","","","74","J","1","","0","0","1","0.2135386538","","","122","0.3740977319","","main_expt","0.8","","0.2","0.2135386538","0.1858821776","0.6","0.3211990091","0.4","","","","","","","",""
"844","","bandit","201","529609","0.0-162.0-0.0","58235166","wem/bandit_either","A1OQ3KL56KMQSU","either","6","","","","","","","74","J","1","","0","0","1","","0.2742148462","","123","","0.3617230251","main_expt","0.8","0.2742148462","0.2","","","0.6","","0.4","0.1948645322","0.3082515077","","","","","",""
"782","","bandit","202","531903","0.0-163.0-0.0","58235166","wem/bandit_either","A1OQ3KL56KMQSU","either","6","","","","","","","74","J","1","","0","0","1","","0.3092488957","","124","","0.3189133642","main_expt","0.8","0.3092488957","0.2","","","0.6","","0.4","0.1875433284","0.3337980485","","","","","",""
"585","","bandit","203","533995","0.0-164.0-0.0","58235166","wem/bandit_either","A1OQ3KL56KMQSU","either","6","","","","","","","74","J","1","","0","0","1","","0.2832498899","","125","","0.3134342975","main_expt","0.8","0.2832498899","0.2","","","0.6","","0.4","0.1805360773","0.2815584253","","","","","",""
"226","","bandit","204","535728","0.0-165.0-0.0","58235166","wem/bandit_either","A1OQ3KL56KMQSU","either","6","","","","","","","75","K","2","","1","0","0","0.2199741614","","","126","0.2889117865","","main_expt","0.8","","0.2","0.321902755","0.2199741614","0.6","0.2544389989","0.4","","","","","","","",""
"239","","bandit","205","537474","0.0-166.0-0.0","58235166","wem/bandit_either","A1OQ3KL56KMQSU","either","6","","","","","","","75","K","2","","1","0","0","0.212963778","","","127","0.3101500906","","main_expt","0.8","","0.2","0.3163630435","0.212963778","0.6","0.217883989","0.4","","","","","","","",""
"226","","bandit","206","539210","0.0-167.0-0.0","58235166","wem/bandit_either","A1OQ3KL56KMQSU","either","6","","","","","","","75","K","2","","1","0","0","0.1853882534","","","128","0.3257933697","","main_expt","0.8","","0.2","0.3242789072","0.1853882534","0.6","0.1941215274","0.4","","","","","","","",""
"537","","bandit","207","541253","0.0-168.0-0.0","58235166","wem/bandit_either","A1OQ3KL56KMQSU","either","6","","","","","","","75","K","2","","1","0","0","0.1486900389","","","129","0.2767822115","","main_expt","0.8","","0.2","0.3430844202","0.1486900389","0.6","0.2093197904","0.4","","","","","","","",""
"459","","bandit","208","543219","0.0-169.0-0.0","58235166","wem/bandit_either","A1OQ3KL56KMQSU","either","6","","","","","","","75","K","2","","0","0","1","0.1581202816","","","130","0.3389859305","","main_expt","0.8","","0.2","0.3487272729","0.1581202816","0.6","0.2325895014","0.4","","","","","","","",""
"218","","bandit","209","544944","0.0-170.0-0.0","58235166","wem/bandit_either","A1OQ3KL56KMQSU","either","6","","","","","","","75","K","2","","0","0","1","0.1189605486","","","131","0.2807576759","","main_expt","0.8","","0.2","0.3850752379","0.1189605486","0.6","0.2680880231","0.4","","","","","","","",""
"533","","bandit","210","546986","0.0-171.0-0.0","58235166","wem/bandit_either","A1OQ3KL56KMQSU","either","6","","","","","","","75","K","2","","0","0","1","","0.08638656351","","132","","0.2044414959","main_expt","0.8","0.3547422913","0.2","","","0.6","","0.4","0.08638656351","0.2053564998","","","","","",""
"320","","bandit","211","548821","0.0-172.0-0.0","58235166","wem/bandit_either","A1OQ3KL56KMQSU","either","6","","","","","","","75","K","2","","0","0","1","0.104542274","","","133","0.2352631215","","main_expt","0.8","","0.2","0.3256782816","0.104542274","0.6","0.2102644512","0.4","","","","","","","",""
"122","","bandit","212","550451","0.0-173.0-0.0","58235166","wem/bandit_either","A1OQ3KL56KMQSU","either","6","","","","","","","76","L","3","","0","0","1","","0.2028105977","","134","","0.2808822736","main_expt","0.8","0.2479378245","0.2","","","0.6","","0.4","0.1401790922","0.2028105977","","","","","",""
"593","","bandit","213","552551","0.0-174.0-0.0","58235166","wem/bandit_either","A1OQ3KL56KMQSU","either","6","","","","","","","76","L","3","","0","0","1","","0.1556880781","","135","","0.3053704558","main_expt","0.8","0.24301602","0.2","","","0.6","","0.4","0.1818128853","0.1556880781","","","","","",""
"725","","bandit","214","554787","0.0-175.0-0.0","58235166","wem/bandit_either","A1OQ3KL56KMQSU","either","6","","","","","","","76","L","3","","0","0","1","0.1428421262","","","136","0.3140058771","","main_expt","0.8","","0.2","0.2630427063","0.1583738081","0.6","0.1428421262","0.4","","","","","","","",""
"265","","bandit","215","556559","0.0-176.0-0.0","58235166","wem/bandit_either","A1OQ3KL56KMQSU","either","6","","","","","","","72","H","0","img/none_selected.jpg","0","0","1","0.323699752","","","137","0.323699752","","main_expt","0.8","","0.2","0.3053425806","0.1497920091","0.6","0.1039390038","0.4","","","","","","","",""
"604","","bandit","216","558670","0.0-177.0-0.0","58235166","wem/bandit_either","A1OQ3KL56KMQSU","either","6","","","","","","","72","H","0","img/none_selected.jpg","0","0","1","","0.3435108126","","138","","0.3435108126","main_expt","0.8","0.3588623722","0.2","","","0.6","","0.4","0.1128601551","0.07132433681","","","","","",""
"919","","bandit","217","561096","0.0-178.0-0.0","58235166","wem/bandit_either","A1OQ3KL56KMQSU","either","6","","","","","","","74","J","1","","0","1","0","","0.2762704672","","139","","0.3505637202","main_expt","0.8","0.2762704672","0.2","","","0.6","","0.4","0.1073604677","0.1047165976","","","","","",""
"256","","bandit","218","562859","0.0-179.0-0.0","58235166","wem/bandit_either","A1OQ3KL56KMQSU","either","6","","","","","","","74","J","1","","0","0","1","","0.2475753012","","140","","0.4185251601","main_expt","0.8","0.2475753012","0.2","","","0.6","","0.4","0.1376710563","0.09043849554","","","","","",""
"486","","bandit","219","564854","0.0-180.0-0.0","58235166","wem/bandit_either","A1OQ3KL56KMQSU","either","6","","","","","","","74","J","1","","0","0","1","","0.2436306075","","141","","0.4225289085","main_expt","0.8","0.2436306075","0.2","","","0.6","","0.4","0.1412662962","0.05096505815","","","","","",""
"790","","bandit","220","567152","0.0-181.0-0.0","58235166","wem/bandit_either","A1OQ3KL56KMQSU","either","6","","","","","","","74","J","1","","0","0","1","","0.1998899021","","142","","0.455259632","main_expt","0.8","0.1998899021","0.2","","","0.6","","0.4","0.1543424817","0.02973759478","","","","","",""
"566","","bandit","221","569234","0.0-182.0-0.0","58235166","wem/bandit_either","A1OQ3KL56KMQSU","either","6","","","","","","","75","K","2","","1","0","0","0.1552636118","","","143","0.4287003803","","main_expt","0.8","","0.2","0.2568100034","0.1552636118","0.6","0.04457260366","0.4","","","","","","","",""
"493","","bandit","222","571238","0.0-183.0-0.0","58235166","wem/bandit_either","A1OQ3KL56KMQSU","either","6","","","","","","","75","K","2","","0","0","1","0.2241753426","","","144","0.4260506414","","main_expt","0.8","","0.2","0.2859833531","0.2241753426","0.6","0.04060115041","0.4","","","","","","","",""
"677","","bandit","223","573423","0.0-184.0-0.0","58235166","wem/bandit_either","A1OQ3KL56KMQSU","either","6","","","","","","","75","K","2","","0","0","1","0.2484131349","","","145","0.4202170594","","main_expt","0.8","","0.2","0.2080640158","0.2484131349","0.6","0.06712401514","0.4","","","","","","","",""
"1270","","bandit","224","576201","0.0-185.0-0.0","58235166","wem/bandit_either","A1OQ3KL56KMQSU","either","6","","","","","","","75","K","2","","1","0","0","0.2905032103","","","146","0.4333226383","","main_expt","0.8","","0.2","0.2469639643","0.2905032103","0.6","0.08780921534","0.4","","","","","","","",""
"1223","","bandit","225","578930","0.0-186.0-0.0","58235166","wem/bandit_either","A1OQ3KL56KMQSU","either","6","","","","","","","75","K","2","","0","0","1","0.2846703457","","","147","0.4340954059","","main_expt","0.8","","0.2","0.2169279296","0.2846703457","0.6","0.1333368233","0.4","","","","","","","",""
"4195","","bandit","226","584635","0.0-187.0-0.0","58235166","wem/bandit_either","A1OQ3KL56KMQSU","either","6","","","","","","","75","K","2","","0","0","1","","0.3010433131","","148","","0.3903754431","main_expt","0.8","0.1248284812","0.2","","","0.6","","0.4","0.3010433131","0.09264147873","","","","","",""
"929","","bandit","227","587072","0.0-188.0-0.0","58235166","wem/bandit_either","A1OQ3KL56KMQSU","either","6","","","","","","","76","L","3","","0","0","1","","0.123708687","","149","","0.4161192262","main_expt","0.8","0.1498862571","0.2","","","0.6","","0.4","0.3421268102","0.123708687","","","","","",""
"686","","bandit","228","589269","0.0-189.0-0.0","58235166","wem/bandit_either","A1OQ3KL56KMQSU","either","6","","","","","","","76","L","3","","0","0","1","","0.1087811601","","150","","0.4545257836","main_expt","0.8","0.2044632824","0.2","","","0.6","","0.4","0.3382865341","0.1087811601","","","","","",""
"981","","bandit","229","591784","0.0-190.0-0.0","58235166","wem/bandit_either","A1OQ3KL56KMQSU","either","6","","","","","","","74","J","1","","0","0","1","","0.1630699797","","151","","0.4553704948","main_expt","0.8","0.1630699797","0.2","","","0.6","","0.4","0.3031951358","0.1640336927","","","","","",""
"341","","bandit","230","593642","0.0-191.0-0.0","58235166","wem/bandit_either","A1OQ3KL56KMQSU","either","6","","","","","","","74","J","1","","1","0","0","0.1534962237","","","152","0.4692720684","","main_expt","0.8","","0.2","0.1534962237","0.3163498213","0.6","0.1474195158","0.4","","","","","","","",""
"1016","","bandit","231","596167","0.0-192.0-0.0","58235166","wem/bandit_either","A1OQ3KL56KMQSU","either","6","","","","","","","74","J","1","","0","0","1","","0.1506701345","","153","","0.4794448159","main_expt","0.8","0.1506701345","0.2","","","0.6","","0.4","0.3205280093","0.1200421148","","","","","",""
"2271","","bandit","232","599947","0.0-193.0-0.0","58235166","wem/bandit_either","A1OQ3KL56KMQSU","either","6","","","","","","","74","J","1","","0","0","1","0.1810992197","","","154","0.4762011242","","main_expt","0.8","","0.2","0.1810992197","0.2780981807","0.6","0.1295208369","0.4","","","","","","","",""
"1364","","bandit","233","602819","0.0-194.0-0.0","58235166","wem/bandit_either","A1OQ3KL56KMQSU","either","6","","","","","","","75","K","2","","0","0","1","0.2543788853","","","155","0.4797315341","","main_expt","0.8","","0.2","0.2574031695","0.2543788853","0.6","0.1189574303","0.4","","","","","","","",""
"2042","","bandit","234","606368","0.0-195.0-0.0","58235166","wem/bandit_either","A1OQ3KL56KMQSU","either","6","","","","","","","74","J","1","","0","0","1","","0.1838662476","","156","","0.4815153028","main_expt","0.8","0.1838662476","0.2","","","0.6","","0.4","0.2601772157","0.1511338071","","","","","",""
"1548","","bandit","235","609425","0.0-196.0-0.0","58235166","wem/bandit_either","A1OQ3KL56KMQSU","either","6","","","","","","","72","H","0","img/none_selected.jpg","0","0","1","0.4769669351","","","157","0.4769669351","","main_expt","0.8","","0.2","0.1951262555","0.27050514","0.6","0.1494559257","0.4","","","","","","","",""
"1352","","bandit","236","612284","0.0-197.0-0.0","58235166","wem/bandit_either","A1OQ3KL56KMQSU","either","6","","","","","","","72","H","0","img/none_selected.jpg","0","0","1","","0.4819637572","","158","","0.4819637572","main_expt","0.8","0.1711173681","0.2","","","0.6","","0.4","0.2912044809","0.1398300683","","","","","",""
"1567","","bandit","237","615360","0.0-198.0-0.0","58235166","wem/bandit_either","A1OQ3KL56KMQSU","either","6","","","","","","","76","L","3","","0","0","1","","0.1482700517","","159","","0.4802617926","main_expt","0.8","0.1262927185","0.2","","","0.6","","0.4","0.2863852675","0.1482700517","","","","","",""
"1025","","bandit","238","617894","0.0-199.0-0.0","58235166","wem/bandit_either","A1OQ3KL56KMQSU","either","6","","","","","","","75","K","2","","0","0","1","0.3188379944","","","160","0.4834703177","","main_expt","0.8","","0.2","0.1289005464","0.3188379944","0.6","0.1327856751","0.4","","","","","","","",""
"920","","bandit","239","620322","0.0-200.0-0.0","58235166","wem/bandit_either","A1OQ3KL56KMQSU","either","6","","","","","","","74","J","1","","0","0","1","","0.07062595825","","161","","0.4783639554","main_expt","0.8","0.07062595825","0.2","","","0.6","","0.4","0.3918259889","0.1936248495","","","","","",""
"1825","","bandit","240","623655","0.0-201.0-0.0","58235166","wem/bandit_either","A1OQ3KL56KMQSU","either","6","","","","","","","74","J","1","","0","0","1","","0.08554885259","","162","","0.4702379588","main_expt","0.8","0.08554885259","0.2","","","0.6","","0.4","0.3825352776","0.1917288119","","","","","",""
"1097","","bandit","241","626259","0.0-202.0-0.0","58235166","wem/bandit_either","A1OQ3KL56KMQSU","either","6","","","","","","","75","K","2","","0","0","1","0.3500114378","","","163","0.4761999765","","main_expt","0.8","","0.2","0.05790820845","0.3500114378","0.6","0.2410074379","0.4","","","","","","","",""
"317","","bandit","242","628088","0.0-203.0-0.0","58235166","wem/bandit_either","A1OQ3KL56KMQSU","either","6","","","","","","","72","H","0","img/none_selected.jpg","0","1","0","","0.4683988395","","164","","0.4683988395","main_expt","0.8","0.04744410613","0.2","","","0.6","","0.4","0.3138306729","0.2717164652","","","","","",""
"262","","bandit","243","629864","0.0-204.0-0.0","58235166","wem/bandit_either","A1OQ3KL56KMQSU","either","6","","","","","","","72","H","0","img/none_selected.jpg","1","0","0","0.4594806004","","","165","0.4594806004","","main_expt","0.8","","0.2","0.07721988326","0.3066591237","0.6","0.3360488911","0.4","","","","","","","",""
"216","","bandit","244","631605","0.0-205.0-0.0","58235166","wem/bandit_either","A1OQ3KL56KMQSU","either","6","","","","","","","72","H","0","img/none_selected.jpg","1","0","0","0.4769271284","","","166","0.4769271284","","main_expt","0.8","","0.2","0.09276645858","0.359337808","0.6","0.3288768439","0.4","","","","","","","",""
"307","","bandit","245","633433","0.0-206.0-0.0","58235166","wem/bandit_either","A1OQ3KL56KMQSU","either","6","","","","","","","72","H","0","img/none_selected.jpg","1","0","0","0.4824675089","","","167","0.4824675089","","main_expt","0.8","","0.2","0.1092251717","0.3888119778","0.6","0.341079324","0.4","","","","","","","",""
"198","","bandit","246","635142","0.0-207.0-0.0","58235166","wem/bandit_either","A1OQ3KL56KMQSU","either","6","","","","","","","72","H","0","img/none_selected.jpg","1","0","0","0.4731218304","","","168","0.4731218304","","main_expt","0.8","","0.2","0.09704797424","0.3188253523","0.6","0.2972081376","0.4","","","","","","","",""
"490","","bandit","247","637144","0.0-208.0-0.0","58235166","wem/bandit_either","A1OQ3KL56KMQSU","either","6","","","","","","","72","H","0","img/none_selected.jpg","0","1","0","","0.4558692975","","169","","0.4558692975","main_expt","0.8","0.1131958007","0.2","","","0.6","","0.4","0.3035082617","0.2716537329","","","","","",""
"233","","bandit","248","638895","0.0-209.0-0.0","58235166","wem/bandit_either","A1OQ3KL56KMQSU","either","6","","","","","","","72","H","0","img/none_selected.jpg","0","0","1","0.424927817","","","170","0.424927817","","main_expt","0.8","","0.2","0.1636150477","0.3540810543","0.6","0.3705489528","0.4","","","","","","","",""
"590","","bandit","249","640997","0.0-210.0-0.0","58235166","wem/bandit_either","A1OQ3KL56KMQSU","either","6","","","","","","","72","H","0","img/none_selected.jpg","0","0","1","0.4254050478","","","171","0.4254050478","","main_expt","0.8","","0.2","0.1889182236","0.2912941695","0.6","0.3259531709","0.4","","","","","","","",""
"767","","bandit","250","643272","0.0-211.0-0.0","58235166","wem/bandit_either","A1OQ3KL56KMQSU","either","6","","","","","","","72","H","0","img/none_selected.jpg","0","1","0","","0.4319935488","","172","","0.4319935488","main_expt","0.8","0.1494540944","0.2","","","0.6","","0.4","0.2964718019","0.3253578443","","","","","",""
"284","","bandit","251","645064","0.0-212.0-0.0","58235166","wem/bandit_either","A1OQ3KL56KMQSU","either","6","","","","","","","72","H","0","img/none_selected.jpg","1","0","0","0.4157756128","","","173","0.4157756128","","main_expt","0.8","","0.2","0.1700291406","0.2411205861","0.6","0.3133285256","0.4","","","","","","","",""
"689","","bandit","252","647261","0.0-213.0-0.0","58235166","wem/bandit_either","A1OQ3KL56KMQSU","either","6","","","","","","","72","H","0","img/none_selected.jpg","0","1","0","","0.3650518631","","174","","0.3650518631","main_expt","0.8","0.2007600912","0.2","","","0.6","","0.4","0.2132737127","0.3470844982","","","","","",""
"3687","","bandit","253","652457","0.0-214.0-0.0","58235166","wem/bandit_either","A1OQ3KL56KMQSU","either","6","","","","","","","72","H","0","img/none_selected.jpg","0","0","1","0.3583375904","","","175","0.3583375904","","main_expt","0.8","","0.2","0.1613291475","0.2722172758","0.6","0.3615725976","0.4","","","","","","","",""
"603","","bandit","254","654567","0.0-215.0-0.0","58235166","wem/bandit_either","A1OQ3KL56KMQSU","either","6","","","","","","","72","H","0","img/none_selected.jpg","1","0","0","0.3849487833","","","176","0.3849487833","","main_expt","0.8","","0.2","0.1618540135","0.3158297255","0.6","0.3592449917","0.4","","","","","","","",""
"866","","bandit","255","656943","0.0-216.0-0.0","58235166","wem/bandit_either","A1OQ3KL56KMQSU","either","6","","","","","","","72","H","0","img/none_selected.jpg","0","0","1","0.3741193846","","","177","0.3741193846","","main_expt","0.8","","0.2","0.1337509382","0.3033070912","0.6","0.3614776984","0.4","","","","","","","",""
"1380","","bandit","256","659831","0.0-217.0-0.0","58235166","wem/bandit_either","A1OQ3KL56KMQSU","either","6","","","","","","","72","H","0","img/none_selected.jpg","1","0","0","0.3704436283","","","178","0.3704436283","","main_expt","0.8","","0.2","0.172909152","0.3070990366","0.6","0.4042649322","0.4","","","","","","","",""
"1112","","bandit","257","662453","0.0-218.0-0.0","58235166","wem/bandit_either","A1OQ3KL56KMQSU","either","6","","","","","","","72","H","0","img/none_selected.jpg","0","0","1","0.3718647044","","","179","0.3718647044","","main_expt","0.8","","0.2","0.2306318455","0.349206168","0.6","0.3626499081","0.4","","","","","","","",""
"392","","bandit","258","664351","0.0-219.0-0.0","58235166","wem/bandit_either","A1OQ3KL56KMQSU","either","6","","","","","","","74","J","1","","0","0","1","","0.2531752843","","180","","0.3144845341","main_expt","0.8","0.2531752843","0.2","","","0.6","","0.4","0.3533593609","0.365831292","","","","","",""
"253","","bandit","259","666112","0.0-220.0-0.0","58235166","wem/bandit_either","A1OQ3KL56KMQSU","either","6","","","","","","","72","H","0","img/none_selected.jpg","0","0","1","0.3328992573","","","181","0.3328992573","","main_expt","0.8","","0.2","0.2995137733","0.3792633926","0.6","0.3720079561","0.4","","","","","","","",""
"273","","bandit","260","667895","0.0-221.0-0.0","58235166","wem/bandit_either","A1OQ3KL56KMQSU","either","6","","","","","","","72","H","0","img/none_selected.jpg","1","0","0","0.3443004049","","","182","0.3443004049","","main_expt","0.8","","0.2","0.2818604164","0.4170401524","0.6","0.3747751333","0.4","","","","","","","",""
"308","","bandit","261","669719","0.0-222.0-0.0","58235166","wem/bandit_either","A1OQ3KL56KMQSU","either","6","","","","","","","72","H","0","img/none_selected.jpg","1","0","0","0.3572445505","","","183","0.3572445505","","main_expt","0.8","","0.2","0.2706787236","0.4349898381","0.6","0.3772869326","0.4","","","","","","","",""
"297","","bandit","262","671538","0.0-223.0-0.0","58235166","wem/bandit_either","A1OQ3KL56KMQSU","either","6","","","","","","","72","H","0","img/none_selected.jpg","0","1","0","","0.358140682","","184","","0.358140682","main_expt","0.8","0.2788381055","0.2","","","0.6","","0.4","0.4355724899","0.3719200221","","","","","",""
"244","","bandit","263","673290","0.0-224.0-0.0","58235166","wem/bandit_either","A1OQ3KL56KMQSU","either","6","","","","","","","72","H","0","img/none_selected.jpg","0","0","1","0.2938856532","","","185","0.2938856532","","main_expt","0.8","","0.2","0.2591604306","0.443517249","0.6","0.3759280431","0.4","","","","","","","",""
"367","","bandit","264","675167","0.0-225.0-0.0","58235166","wem/bandit_either","A1OQ3KL56KMQSU","either","6","","","","","","","72","H","0","img/none_selected.jpg","0","0","1","0.2570442146","","","186","0.2570442146","","main_expt","0.8","","0.2","0.1717283936","0.4185550765","0.6","0.3686405037","0.4","","","","","","","",""
"348","","bandit","265","677022","0.0-226.0-0.0","58235166","wem/bandit_either","A1OQ3KL56KMQSU","either","6","","","","","","","72","H","0","img/none_selected.jpg","0","0","1","0.2781151114","","","187","0.2781151114","","main_expt","0.8","","0.2","0.1399016055","0.4582246802","0.6","0.3693778387","0.4","","","","","","","",""
"538","","bandit","266","679068","0.0-227.0-0.0","58235166","wem/bandit_either","A1OQ3KL56KMQSU","either","6","","","","","","","74","J","1","","0","0","1","","0.116743447","","188","","0.2510368257","main_expt","0.8","0.116743447","0.2","","","0.6","","0.4","0.4499637214","0.3858781765","","","","","",""
"373","","bandit","267","680950","0.0-228.0-0.0","58235166","wem/bandit_either","A1OQ3KL56KMQSU","either","6","","","","","","","74","J","1","","0","0","1","","0.09810356538","","189","","0.2299291889","main_expt","0.8","0.09810356538","0.2","","","0.6","","0.4","0.4681283031","0.353665234","","","","","",""
"247","","bandit","268","682705","0.0-229.0-0.0","58235166","wem/bandit_either","A1OQ3KL56KMQSU","either","6","","","","","","","74","J","1","","0","0","1","","0.1333212727","","190","","0.2957770397","main_expt","0.8","0.1333212727","0.2","","","0.6","","0.4","0.4672384316","0.3702546744","","","","","",""
"130","","bandit","269","684343","0.0-230.0-0.0","58235166","wem/bandit_either","A1OQ3KL56KMQSU","either","6","","","","","","","75","K","2","","0","0","1","0.4633056668","","","191","0.2806998676","","main_expt","0.8","","0.2","0.07289491444","0.4633056668","0.6","0.3373283559","0.4","","","","","","","",""
"331","","bandit","270","686181","0.0-231.0-0.0","58235166","wem/bandit_either","A1OQ3KL56KMQSU","either","6","","","","","","","76","L","3","","1","0","0","0.3717228864","","","192","0.2578649702","","main_expt","0.8","","0.2","0.09060717316","0.4701423021","0.6","0.3717228864","0.4","","","","","","","",""
"111","","bandit","271","687804","0.0-232.0-0.0","58235166","wem/bandit_either","A1OQ3KL56KMQSU","either","6","","","","","","","76","L","3","","0","0","1","","0.3861484819","","193","","0.3019093773","main_expt","0.8","0.1038106097","0.2","","","0.6","","0.4","0.4625827917","0.3861484819","","","","","",""
"371","","bandit","272","689683","0.0-233.0-0.0","58235166","wem/bandit_either","A1OQ3KL56KMQSU","either","6","","","","","","","76","L","3","","0","1","0","","0.3884838939","","194","","0.3028603149","main_expt","0.8","0.1222204007","0.2","","","0.6","","0.4","0.4480064119","0.3884838939","","","","","",""
"316","","bandit","273","691511","0.0-234.0-0.0","58235166","wem/bandit_either","A1OQ3KL56KMQSU","either","6","","","","","","","76","L","3","","0","1","0","","0.4058549971","","195","","0.2933095063","main_expt","0.8","0.1230179676","0.2","","","0.6","","0.4","0.4263193963","0.4058549971","","","","","",""
"308","","bandit","274","693348","0.0-235.0-0.0","58235166","wem/bandit_either","A1OQ3KL56KMQSU","either","6","","","","","","","76","L","3","","0","0","1","0.3894648227","","","196","0.3333663608","","main_expt","0.8","","0.2","0.1972068901","0.4399191733","0.6","0.3894648227","0.4","","","","","","","",""
"361","","bandit","275","695217","0.0-236.0-0.0","58235166","wem/bandit_either","A1OQ3KL56KMQSU","either","6","","","","","","","76","L","3","","1","0","0","0.3452919481","","","197","0.3472763543","","main_expt","0.8","","0.2","0.2091218652","0.4303685687","0.6","0.3452919481","0.4","","","","","","","",""
"493","","bandit","276","697220","0.0-237.0-0.0","58235166","wem/bandit_either","A1OQ3KL56KMQSU","either","6","","","","","","","76","L","3","","0","0","1","","0.3571156804","","198","","0.3420385624","main_expt","0.8","0.2316117542","0.2","","","0.6","","0.4","0.4166638701","0.3571156804","","","","","",""
"2173","","bandit","277","700904","0.0-238.0-0.0","58235166","wem/bandit_either","A1OQ3KL56KMQSU","either","6","","","","","","","76","L","3","","0","0","1","","0.3761278261","","199","","0.3009927129","main_expt","0.8","0.1983173389","0.2","","","0.6","","0.4","0.4166192342","0.3761278261","","","","","",""
"528","","bandit","278","702949","0.0-239.0-0.0","58235166","wem/bandit_either","A1OQ3KL56KMQSU","either","6","","","","","","","75","K","2","","0","0","1","","0.4065109498","","200","","0.2834367318","main_expt","0.8","0.2275108597","0.2","","","0.6","","0.4","0.4065109498","0.3623939384","","","","","",""
"208","","bandit","279","704668","0.0-240.0-0.0","58235166","wem/bandit_either","A1OQ3KL56KMQSU","either","6","","","","","","","74","J","1","","0","0","1","","0.2753755663","","201","","0.2305195973","main_expt","0.8","0.2753755663","0.2","","","0.6","","0.4","0.4210367682","0.3470966653","","","","","",""
"273","","bandit","280","706448","0.0-241.0-0.0","58235166","wem/bandit_either","A1OQ3KL56KMQSU","either","6","","","","","","","72","H","0","img/none_selected.jpg","0","0","1","0.236439039","","","202","0.236439039","","main_expt","0.8","","0.2","0.2867984519","0.4059774394","0.6","0.3738670455","0.4","","","","","","","",""
"221","","bandit","281","708177","0.0-242.0-0.0","58235166","wem/bandit_either","A1OQ3KL56KMQSU","either","6","","","","","","","72","H","0","img/none_selected.jpg","0","0","1","0.207292508","","","203","0.207292508","","main_expt","0.8","","0.2","0.227681123","0.4217634448","0.6","0.4434414113","0.4","","","","","","","",""
"141","","bandit","282","709828","0.0-243.0-0.0","58235166","wem/bandit_either","A1OQ3KL56KMQSU","either","6","","","","","","","74","J","1","","0","0","1","0.2421814767","","","204","0.2706274655","","main_expt","0.8","","0.2","0.2421814767","0.417590799","0.6","0.4363530878","0.4","","","","","","","",""
"112","","bandit","283","711449","0.0-244.0-0.0","58235166","wem/bandit_either","A1OQ3KL56KMQSU","either","6","","","","","","","75","K","2","","1","0","0","0.3892328218","","","205","0.2688171721","","main_expt","0.8","","0.2","0.2250127273","0.3892328218","0.6","0.4390009565","0.4","","","","","","","",""
"247","","bandit","284","713204","0.0-245.0-0.0","58235166","wem/bandit_either","A1OQ3KL56KMQSU","either","6","","","","","","","75","K","2","","0","0","1","0.3877758809","","","206","0.2774640617","","main_expt","0.8","","0.2","0.2148063869","0.3877758809","0.6","0.4606838579","0.4","","","","","","","",""
"305","","bandit","285","715019","0.0-246.0-0.0","58235166","wem/bandit_either","A1OQ3KL56KMQSU","either","6","","","","","","","75","K","2","","0","0","1","","0.3344078408","","207","","0.31303597","main_expt","0.8","0.2370073307","0.2","","","0.6","","0.4","0.3344078408","0.4679198071","","","","","",""
"237","","bandit","286","716765","0.0-247.0-0.0","58235166","wem/bandit_either","A1OQ3KL56KMQSU","either","6","","","","","","","75","K","2","","1","0","0","0.3285414067","","","208","0.3187850143","","main_expt","0.8","","0.2","0.1736764344","0.3285414067","0.6","0.4731710197","0.4","","","","","","","",""
"299","","bandit","287","718585","0.0-248.0-0.0","58235166","wem/bandit_either","A1OQ3KL56KMQSU","either","6","","","","","","","75","K","2","","0","0","1","","0.337659841","","209","","0.3031297305","main_expt","0.8","0.2033963155","0.2","","","0.6","","0.4","0.337659841","0.472507437","","","","","",""
"382","","bandit","288","720480","0.0-249.0-0.0","58235166","wem/bandit_either","A1OQ3KL56KMQSU","either","6","","","","","","","76","L","3","","0","0","1","0.4759946166","","","210","0.3593083662","","main_expt","0.8","","0.2","0.1849029676","0.322880172","0.6","0.4759946166","0.4","","","","","","","",""
"258","","bandit","289","722254","0.0-250.0-0.0","58235166","wem/bandit_either","A1OQ3KL56KMQSU","either","6","","","","","","","75","K","2","","1","0","0","0.3440981268","","","211","0.3758292662","","main_expt","0.8","","0.2","0.08033524441","0.3440981268","0.6","0.4838002785","0.4","","","","","","","",""
"459","","bandit","290","724221","0.0-251.0-0.0","58235166","wem/bandit_either","A1OQ3KL56KMQSU","either","6","","","","","","","75","K","2","","0","0","1","","0.3135232579","","212","","0.3771764803","main_expt","0.8","0.1024936548","0.2","","","0.6","","0.4","0.3135232579","0.4871609062","","","","","",""
"586","","bandit","291","726315","0.0-252.0-0.0","58235166","wem/bandit_either","A1OQ3KL56KMQSU","either","6","","","","","","","75","K","2","","0","0","1","0.328558382","","","213","0.3935517348","","main_expt","0.8","","0.2","0.1380366818","0.328558382","0.6","0.4829725273","0.4","","","","","","","",""
"122","","bandit","292","727948","0.0-253.0-0.0","58235166","wem/bandit_either","A1OQ3KL56KMQSU","either","6","","","","","","","74","J","1","","0","0","1","0.1206441992","","","214","0.3792377037","","main_expt","0.8","","0.2","0.1206441992","0.3024402918","0.6","0.4742933803","0.4","","","","","","","",""
"101","","bandit","293","729557","0.0-254.0-0.0","58235166","wem/bandit_either","A1OQ3KL56KMQSU","either","6","","","","","","","75","K","2","","0","0","1","","0.3024001881","","215","","0.3364308411","main_expt","0.8","0.1320715796","0.2","","","0.6","","0.4","0.3024001881","0.4754417465","","","","","",""
"215","","bandit","294","731282","0.0-255.0-0.0","58235166","wem/bandit_either","A1OQ3KL56KMQSU","either","6","","","","","","","76","L","3","","1","0","0","0.4764866221","","","216","0.3348871659","","main_expt","0.8","","0.2","0.1152906885","0.2975117226","0.6","0.4764866221","0.4","","","","","","","",""
"223","","bandit","295","733015","0.0-256.0-0.0","58235166","wem/bandit_either","A1OQ3KL56KMQSU","either","6","","","","","","","76","L","3","","0","1","0","","0.4727866334","","217","","0.321293363","main_expt","0.8","0.1191406027","0.2","","","0.6","","0.4","0.3331298207","0.4727866334","","","","","",""
"211","","bandit","296","734734","0.0-257.0-0.0","58235166","wem/bandit_either","A1OQ3KL56KMQSU","either","6","","","","","","","76","L","3","","0","1","0","","0.4664653133","","218","","0.3530973922","main_expt","0.8","0.1177717736","0.2","","","0.6","","0.4","0.2905667849","0.4664653133","","","","","",""
"219","","bandit","297","736464","0.0-258.0-0.0","58235166","wem/bandit_either","A1OQ3KL56KMQSU","either","6","","","","","","","76","L","3","","0","1","0","","0.4636837267","","219","","0.3837093308","main_expt","0.8","0.1178729669","0.2","","","0.6","","0.4","0.2701708387","0.4636837267","","","","","",""
"249","","bandit","298","738222","0.0-259.0-0.0","58235166","wem/bandit_either","A1OQ3KL56KMQSU","either","6","","","","","","","76","L","3","","0","0","1","0.4599900571","","","220","0.3651541458","","main_expt","0.8","","0.2","0.1284790336","0.2395453957","0.6","0.4599900571","0.4","","","","","","","",""
"385","","bandit","299","740117","0.0-260.0-0.0","58235166","wem/bandit_either","A1OQ3KL56KMQSU","either","6","","","","","","","76","L","3","","1","0","0","0.4490722186","","","221","0.254085412","","main_expt","0.8","","0.2","0.147465279","0.2770622605","0.6","0.4490722186","0.4","","","","","","","",""
"421","","bandit","300","742060","0.0-261.0-0.0","58235166","wem/bandit_either","A1OQ3KL56KMQSU","either","6","","","","","","","76","L","3","","0","0","1","0.4253353094","","","222","0.2590796483","","main_expt","0.8","","0.2","0.1441925756","0.3390746663","0.6","0.4253353094","0.4","","","","","","","",""
"457","","bandit","301","744028","0.0-262.0-0.0","58235166","wem/bandit_either","A1OQ3KL56KMQSU","either","6","","","","","","","76","L","3","","0","1","0","","0.4559825987","","223","","0.2640852941","main_expt","0.8","0.1731110736","0.2","","","0.6","","0.4","0.384843876","0.4559825987","","","","","",""
"1537","","bandit","302","747074","0.0-263.0-0.0","58235166","wem/bandit_either","A1OQ3KL56KMQSU","either","6","","","","","","","76","L","3","","0","0","1","","0.464560515","","224","","0.2636590797","main_expt","0.8","0.1124600034","0.2","","","0.6","","0.4","0.4367619307","0.464560515","","","","","",""
"326","","bandit","303","748911","0.0-264.0-0.0","58235166","wem/bandit_either","A1OQ3KL56KMQSU","either","6","","","","","","","75","K","2","","0","0","1","","0.42055701","","225","","0.3110444069","main_expt","0.8","0.1174510337","0.2","","","0.6","","0.4","0.42055701","0.4528378766","","","","","",""
"228","","bandit","304","750654","0.0-265.0-0.0","58235166","wem/bandit_either","A1OQ3KL56KMQSU","either","6","","","","","","","74","J","1","","0","0","1","0.1494320736","","","226","0.3268768972","","main_expt","0.8","","0.2","0.1494320736","0.4282593698","0.6","0.4585160156","0.4","","","","","","","",""
"112","","bandit","305","752290","0.0-266.0-0.0","58235166","wem/bandit_either","A1OQ3KL56KMQSU","either","6","","","","","","","72","H","0","img/none_selected.jpg","0","0","1","0.3112991039","","","227","0.3112991039","","main_expt","0.8","","0.2","0.1655037845","0.4213985596","0.6","0.4525914875","0.4","","","","","","","",""
"232","","bandit","306","754033","0.0-267.0-0.0","58235166","wem/bandit_either","A1OQ3KL56KMQSU","either","6","","","","","","","72","H","0","img/none_selected.jpg","0","1","0","","0.3481066565","","228","","0.3481066565","main_expt","0.8","0.1595877114","0.2","","","0.6","","0.4","0.4115599459","0.4618810074","","","","","",""
"149","","bandit","307","755689","0.0-268.0-0.0","58235166","wem/bandit_either","A1OQ3KL56KMQSU","either","6","","","","","","","72","H","0","img/none_selected.jpg","0","0","1","0.3267856819","","","229","0.3267856819","","main_expt","0.8","","0.2","0.1811982871","0.375967734","0.6","0.4661541784","0.4","","","","","","","",""
"208","","bandit","308","757411","0.0-269.0-0.0","58235166","wem/bandit_either","A1OQ3KL56KMQSU","either","6","","","","","","","72","H","0","img/none_selected.jpg","0","0","1","0.3043034776","","","230","0.3043034776","","main_expt","0.8","","0.2","0.2088208598","0.4172813036","0.6","0.4681373403","0.4","","","","","","","",""
"211","","bandit","309","759136","0.0-270.0-0.0","58235166","wem/bandit_either","A1OQ3KL56KMQSU","either","6","","","","","","","72","H","0","img/none_selected.jpg","0","0","1","0.3127123154","","","231","0.3127123154","","main_expt","0.8","","0.2","0.2062946352","0.3871641603","0.6","0.4733838814","0.4","","","","","","","",""
"242","","bandit","310","760886","0.0-271.0-0.0","58235166","wem/bandit_either","A1OQ3KL56KMQSU","either","6","","","","","","","72","H","0","img/none_selected.jpg","0","0","1","0.3039198066","","","232","0.3039198066","","main_expt","0.8","","0.2","0.1448621505","0.3381606844","0.6","0.455942125","0.4","","","","","","","",""
"62","","bandit","311","762459","0.0-272.0-0.0","58235166","wem/bandit_either","A1OQ3KL56KMQSU","either","6","","","","","","","74","J","1","","0","0","1","0.1096360744","","","233","0.2846072758","","main_expt","0.8","","0.2","0.1096360744","0.2918198365","0.6","0.4523014459","0.4","","","","","","","",""
"55","","bandit","312","764025","0.0-273.0-0.0","58235166","wem/bandit_either","A1OQ3KL56KMQSU","either","6","","","","","","","75","K","2","","0","0","1","0.3016980071","","","234","0.2430061478","","main_expt","0.8","","0.2","0.1102272527","0.3016980071","0.6","0.4715877437","0.4","","","","","","","",""
"51","","bandit","313","765585","0.0-274.0-0.0","58235166","wem/bandit_either","A1OQ3KL56KMQSU","either","6","","","","","","","76","L","3","","0","0","1","","0.4667146267","","235","","0.263037213","main_expt","0.8","0.1428859574","0.2","","","0.6","","0.4","0.2940059945","0.4667146267","","","","","",""
"284","","bandit","314","767377","0.0-275.0-0.0","58235166","wem/bandit_either","A1OQ3KL56KMQSU","either","6","","","","","","","76","L","3","","0","0","1","","0.4638430617","","236","","0.2976510001","main_expt","0.8","0.1659437887","0.2","","","0.6","","0.4","0.2926833733","0.4638430617","","","","","",""
"333","","bandit","315","769219","0.0-276.0-0.0","58235166","wem/bandit_either","A1OQ3KL56KMQSU","either","6","","","","","","","76","L","3","","1","0","0","0.4584702359","","","237","0.2789990486","","main_expt","0.8","","0.2","0.1948695303","0.278351659","0.6","0.4584702359","0.4","","","","","","","",""
"259","","bandit","316","770988","0.0-277.0-0.0","58235166","wem/bandit_either","A1OQ3KL56KMQSU","either","6","","","","","","","76","L","3","","0","0","1","","0.4297714473","","238","","0.2760904485","main_expt","0.8","0.2231382717","0.2","","","0.6","","0.4","0.2475781625","0.4297714473","","","","","",""
"379","","bandit","317","772878","0.0-278.0-0.0","58235166","wem/bandit_either","A1OQ3KL56KMQSU","either","6","","","","","","","76","L","3","","0","1","0","","0.4225482751","","239","","0.2679201555","main_expt","0.8","0.2118273477","0.2","","","0.6","","0.4","0.2476463542","0.4225482751","","","","","",""
"314","","bandit","318","774704","0.0-279.0-0.0","58235166","wem/bandit_either","A1OQ3KL56KMQSU","either","6","","","","","","","76","L","3","","1","0","0","0.3911766626","","","240","0.1815101208","","main_expt","0.8","","0.2","0.175879666","0.2691810592","0.6","0.3911766626","0.4","","","","","","","",""
"499","","bandit","319","776720","0.0-280.0-0.0","58235166","wem/bandit_either","A1OQ3KL56KMQSU","either","6","","","","","","","76","L","3","","0","0","1","","0.3576719612","","241","","0.2107278188","main_expt","0.8","0.2619723004","0.2","","","0.6","","0.4","0.2600118225","0.3576719612","","","","","",""
"136","","bandit","320","778366","0.0-281.0-0.0","58235166","wem/bandit_either","A1OQ3KL56KMQSU","either","6","","","","","","","72","H","0","img/none_selected.jpg","1","0","0","0.1890457695","","","242","0.1890457695","","main_expt","0.8","","0.2","0.253357122","0.2585740571","0.6","0.3649942216","0.4","","","","","","","",""
"878","","bandit","321","780754","0.0-282.0-0.0","58235166","wem/bandit_either","A1OQ3KL56KMQSU","either","6","","","","","","","72","H","0","img/none_selected.jpg","0","0","1","0.1983598585","","","243","0.1983598585","","main_expt","0.8","","0.2","0.2937411872","0.1943885749","0.6","0.3462843793","0.4","","","","","","","",""
"2495","","bandit","322","784758","0.0-283.0-0.0","58235166","wem/bandit_either","A1OQ3KL56KMQSU","either","6","","","","","","","72","H","0","img/none_selected.jpg","0","0","1","","0.2165838592","","244","","0.2165838592","main_expt","0.8","0.2743784529","0.2","","","0.6","","0.4","0.1861062248","0.3520149162","","","","","",""
"1388","","bandit","323","787654","0.0-284.0-0.0","58235166","wem/bandit_either","A1OQ3KL56KMQSU","either","6","","","","","","","76","L","3","","0","0","1","","0.3483485742","","245","","0.1823109088","main_expt","0.8","0.2734657034","0.2","","","0.6","","0.4","0.1398782291","0.3483485742","","","","","",""
"270","","bandit","324","789434","0.0-285.0-0.0","58235166","wem/bandit_either","A1OQ3KL56KMQSU","either","6","","","","","","","76","L","3","","1","0","0","0.3814570076","","","246","0.172760958","","main_expt","0.8","","0.2","0.2285423815","0.1392076576","0.6","0.3814570076","0.4","","","","","","","",""
"117","","bandit","325","791060","0.0-286.0-0.0","58235166","wem/bandit_either","A1OQ3KL56KMQSU","either","6","","","","","","","76","L","3","","0","1","0","","0.3871035364","","247","","0.1955602127","main_expt","0.8","0.269943793","0.2","","","0.6","","0.4","0.2028121248","0.3871035364","","","","","",""
"170","","bandit","326","792747","0.0-287.0-0.0","58235166","wem/bandit_either","A1OQ3KL56KMQSU","either","6","","","","","","","76","L","3","","0","0","1","","0.3746835134","","248","","0.1770790361","main_expt","0.8","0.2974302923","0.2","","","0.6","","0.4","0.2522392451","0.3746835134","","","","","",""
"217","","bandit","327","794501","0.0-288.0-0.0","58235166","wem/bandit_either","A1OQ3KL56KMQSU","either","6","","","","","","","76","L","3","","0","0","1","0.3787028279","","","249","0.1884848562","","main_expt","0.8","","0.2","0.2667415426","0.234975876","0.6","0.3787028279","0.4","","","","","","","",""
"298","","bandit","328","796307","0.0-289.0-0.0","58235166","wem/bandit_either","A1OQ3KL56KMQSU","either","6","","","","","","","75","K","2","","0","1","0","","0.2388523745","","250","","0.2314514176","main_expt","0.8","0.3302420342","0.2","","","0.6","","0.4","0.2388523745","0.3475116331","","","","","",""
"100","","bandit","329","797915","0.0-290.0-0.0","58235166","wem/bandit_either","A1OQ3KL56KMQSU","either","6","","","","","","","75","K","2","","0","0","1","0.2412642198","","","251","0.2028544779","","main_expt","0.8","","0.2","0.3080318139","0.2412642198","0.6","0.3297368302","0.4","","","","","","","",""
"601","","bandit","330","800025","0.0-291.0-0.0","58235166","wem/bandit_either","A1OQ3KL56KMQSU","either","6","","","","","","","75","K","2","","0","0","1","0.2662386667","","","252","0.2296758881","","main_expt","0.8","","0.2","0.2931646133","0.2662386667","0.6","0.2830962297","0.4","","","","","","","",""
