"rt","responses","trial_type","trial_index","time_elapsed","internal_node_id","subjID","study","MID","cond","drift","key_press","expt_phase","target","like","value","connected","gems","bombs","no_reward","GemPrChosen","BombPrChosen","GainOverPainPr_0","GainOverPainPr_1","GainOverPainPr_2","GainOverPainPr_3","LosePr_0","LosePr_1","LosePr_2","LosePr_3","WinPr_0","WinPr_1","WinPr_2","WinPr_3","Q0","Q1","Q2","gender","age","ethnicity","respCharCode","respKey","respChoiceNum","respChoice","practice","trial_counter","trial_label"
"6456","{""Q0"":""A1CH3TODZNQCES""}","survey-text","0","6471","0.0-0.0","59945591","wem/bandit_either","A1CH3TODZNQCES","either","1","","","","","","","","","","","","","","","","","","","","","","","","","","","","","","","","","","","",""
"23701","","text","1","31176","0.0-1.0","59945591","wem/bandit_either","A1CH3TODZNQCES","either","1","32","","","","","","","","","","","","","","","","","","","","","","","","","","","","","","","","","","",""
"2613","","text","2","33791","0.0-2.0","59945591","wem/bandit_either","A1CH3TODZNQCES","either","1","32","","","","","","","","","","","","","","","","","","","","","","","","","","","","","","","","","","",""
"710","","text","3","34503","0.0-3.0","59945591","wem/bandit_either","A1CH3TODZNQCES","either","1","32","","","","","","","","","","","","","","","","","","","","","","","","","","","","","","","","","","",""
"2141","","text","4","36647","0.0-4.0","59945591","wem/bandit_either","A1CH3TODZNQCES","either","1","32","","","","","","","","","","","","","","","","","","","","","","","","","","","","","","","","","","",""
"1590","","text","5","38239","0.0-5.0","59945591","wem/bandit_either","A1CH3TODZNQCES","either","1","32","","","","","","","","","","","","","","","","","","","","","","","","","","","","","","","","","","",""
"868","","text","6","39110","0.0-6.0","59945591","wem/bandit_either","A1CH3TODZNQCES","either","1","32","","","","","","","","","","","","","","","","","","","","","","","","","","","","","","","","","","",""
"821","","text","7","39935","0.0-7.0","59945591","wem/bandit_either","A1CH3TODZNQCES","either","1","32","","","","","","","","","","","","","","","","","","","","","","","","","","","","","","","","","","",""
"5141","","identification","8","45106","0.0-8.0-0.0","59945591","wem/bandit_either","A1CH3TODZNQCES","either","1","","identification_pre","the village of Zur","","","","","","","","","","","","","","","","","","","","","","","","","","","","","","","","",""
"3309","","identification","9","49442","0.0-8.0-1.0","59945591","wem/bandit_either","A1CH3TODZNQCES","either","1","","identification_pre","the village of Nyx","","","","","","","","","","","","","","","","","","","","","","","","","","","","","","","","",""
"8335","","text","10","58781","0.0-9.0","59945591","wem/bandit_either","A1CH3TODZNQCES","either","1","32","","","","","","","","","","","","","","","","","","","","","","","","","","","","","","","","","","",""
"2127","","text","11","60910","0.0-10.0","59945591","wem/bandit_either","A1CH3TODZNQCES","either","1","32","","","","","","","","","","","","","","","","","","","","","","","","","","","","","","","","","","",""
"2119","","text","12","63032","0.0-11.0","59945591","wem/bandit_either","A1CH3TODZNQCES","either","1","32","","","","","","","","","","","","","","","","","","","","","","","","","","","","","","","","","","",""
"1683","","text","13","64720","0.0-12.0","59945591","wem/bandit_either","A1CH3TODZNQCES","either","1","32","","","","","","","","","","","","","","","","","","","","","","","","","","","","","","","","","","",""
"2038","","bandit","14","68271","0.0-13.0-0.0","59945591","wem/bandit_either","A1CH3TODZNQCES","either","1","","","","","","","0","0","1","0","0","","","","","0","","","","0","","","","","","","","","","74","J","0","img/none_selected_demo.jpg","true","0",""
"1348","","bandit","15","71124","0.0-14.0-0.0","59945591","wem/bandit_either","A1CH3TODZNQCES","either","1","","","","","","","0","0","1","0","0","","","","","0","","","","0","","","","","","","","","","75","K","0","img/none_selected_demo.jpg","true","0",""
"3168","","text","16","74293","0.0-15.0","59945591","wem/bandit_either","A1CH3TODZNQCES","either","1","32","","","","","","","","","","","","","","","","","","","","","","","","","","","","","","","","","","",""
"1841","","text","17","76135","0.0-16.0","59945591","wem/bandit_either","A1CH3TODZNQCES","either","1","32","","","","","","","","","","","","","","","","","","","","","","","","","","","","","","","","","","",""
"2053","","text","18","78190","0.0-17.0","59945591","wem/bandit_either","A1CH3TODZNQCES","either","1","32","","","","","","","","","","","","","","","","","","","","","","","","","","","","","","","","","","",""
"1419","","text","19","79614","0.0-18.0","59945591","wem/bandit_either","A1CH3TODZNQCES","either","1","32","","","","","","","","","","","","","","","","","","","","","","","","","","","","","","","","","","",""
"2442","","bandit","20","83565","0.0-19.0-0.0","59945591","wem/bandit_either","A1CH3TODZNQCES","either","1","","","","","","","0","1","0","","0.2","0.5","0.5","","","0.8","0.2","","","","","","","","","","","","","75","K","1","","true","0","80_20_practice"
"447","","bandit","21","85519","0.0-19.0-1.0","59945591","wem/bandit_either","A1CH3TODZNQCES","either","1","","","","","","","0","1","0","","0.8","0.5","0.5","","","0.8","0.2","","","","","","","","","","","","","74","J","0","img/none_selected_demo.jpg","true","0","80_20_practice"
"337","","bandit","22","87364","0.0-19.0-2.0","59945591","wem/bandit_either","A1CH3TODZNQCES","either","1","","","","","","","1","0","0","0.8","","0.5","0.5","","","","","","","0.8","0.2","","","","","","","","","74","J","0","img/none_selected_demo.jpg","true","0","80_20_practice"
"429","","bandit","23","89302","0.0-19.0-3.0","59945591","wem/bandit_either","A1CH3TODZNQCES","either","1","","","","","","","0","0","1","0.8","","0.5","0.5","","","","","","","0.8","0.2","","","","","","","","","74","J","0","img/none_selected_demo.jpg","true","0","80_20_practice"
"315","","bandit","24","91126","0.0-19.0-4.0","59945591","wem/bandit_either","A1CH3TODZNQCES","either","1","","","","","","","0","0","1","0.2","","0.5","0.5","","","","","","","0.8","0.2","","","","","","","","","75","K","1","","true","0","80_20_practice"
"317","","bandit","25","92951","0.0-19.0-5.0","59945591","wem/bandit_either","A1CH3TODZNQCES","either","1","","","","","","","0","1","0","","0.8","0.5","0.5","","","0.8","0.2","","","","","","","","","","","","","74","J","0","img/none_selected_demo.jpg","true","0","80_20_practice"
"248","","bandit","26","94708","0.0-19.0-6.0","59945591","wem/bandit_either","A1CH3TODZNQCES","either","1","","","","","","","0","0","1","","0.2","0.5","0.5","","","0.8","0.2","","","","","","","","","","","","","75","K","1","","true","0","80_20_practice"
"60","","bandit","27","96279","0.0-19.0-7.0","59945591","wem/bandit_either","A1CH3TODZNQCES","either","1","","","","","","","0","0","1","0.2","","0.5","0.5","","","","","","","0.8","0.2","","","","","","","","","75","K","1","","true","0","80_20_practice"
"373","","bandit","28","98162","0.0-19.0-8.0","59945591","wem/bandit_either","A1CH3TODZNQCES","either","1","","","","","","","1","0","0","0.2","","0.5","0.5","","","","","","","0.8","0.2","","","","","","","","","75","K","1","","true","0","80_20_practice"
"353","","bandit","29","100023","0.0-19.0-9.0","59945591","wem/bandit_either","A1CH3TODZNQCES","either","1","","","","","","","0","0","1","","0.2","0.5","0.5","","","0.8","0.2","","","","","","","","","","","","","75","K","1","","true","0","80_20_practice"
"915","","bandit","30","102446","0.0-19.0-10.0","59945591","wem/bandit_either","A1CH3TODZNQCES","either","1","","","","","","","0","0","1","","0.2","0.5","0.5","","","0.8","0.2","","","","","","","","","","","","","75","K","1","","true","0","80_20_practice"
"427","","bandit","31","104385","0.0-19.0-11.0","59945591","wem/bandit_either","A1CH3TODZNQCES","either","1","","","","","","","1","0","0","0.8","","0.5","0.5","","","","","","","0.8","0.2","","","","","","","","","74","J","0","img/none_selected_demo.jpg","true","0","80_20_practice"
"130","","bandit","32","106024","0.0-19.0-12.0","59945591","wem/bandit_either","A1CH3TODZNQCES","either","1","","","","","","","1","0","0","0.8","","0.5","0.5","","","","","","","0.8","0.2","","","","","","","","","74","J","0","img/none_selected_demo.jpg","true","0","80_20_practice"
"329","","bandit","33","107864","0.0-19.0-13.0","59945591","wem/bandit_either","A1CH3TODZNQCES","either","1","","","","","","","0","1","0","","0.8","0.5","0.5","","","0.8","0.2","","","","","","","","","","","","","74","J","0","img/none_selected_demo.jpg","true","0","80_20_practice"
"256","","bandit","34","109636","0.0-19.0-14.0","59945591","wem/bandit_either","A1CH3TODZNQCES","either","1","","","","","","","0","1","0","","0.2","0.5","0.5","","","0.8","0.2","","","","","","","","","","","","","75","K","1","","true","0","80_20_practice"
"238","","bandit","35","111384","0.0-19.0-15.0","59945591","wem/bandit_either","A1CH3TODZNQCES","either","1","","","","","","","0","0","1","0.8","","0.5","0.5","","","","","","","0.8","0.2","","","","","","","","","74","J","0","img/none_selected_demo.jpg","true","0","80_20_practice"
"234","","bandit","36","113126","0.0-19.0-16.0","59945591","wem/bandit_either","A1CH3TODZNQCES","either","1","","","","","","","0","0","1","","0.2","0.5","0.5","","","0.8","0.2","","","","","","","","","","","","","75","K","1","","true","0","80_20_practice"
"1669","","bandit","37","116303","0.0-19.0-17.0","59945591","wem/bandit_either","A1CH3TODZNQCES","either","1","","","","","","","0","0","1","0.2","","0.5","0.5","","","","","","","0.8","0.2","","","","","","","","","75","K","1","","true","0","80_20_practice"
"252","","bandit","38","118062","0.0-19.0-18.0","59945591","wem/bandit_either","A1CH3TODZNQCES","either","1","","","","","","","0","1","0","","0.8","0.5","0.5","","","0.8","0.2","","","","","","","","","","","","","74","J","0","img/none_selected_demo.jpg","true","0","80_20_practice"
"152","","bandit","39","119722","0.0-19.0-19.0","59945591","wem/bandit_either","A1CH3TODZNQCES","either","1","","","","","","","0","1","0","","0.8","0.5","0.5","","","0.8","0.2","","","","","","","","","","","","","74","J","0","img/none_selected_demo.jpg","true","0","80_20_practice"
"8176","","text","40","127903","0.0-20.0","59945591","wem/bandit_either","A1CH3TODZNQCES","either","1","32","","","","","","","","","","","","","","","","","","","","","","","","","","","","","","","","","","",""
"573","","bandit","41","129984","0.0-21.0-0.0","59945591","wem/bandit_either","A1CH3TODZNQCES","either","1","","","","","","","1","0","0","1","0","","","","","0","1","","","1","0","","","","","","","","","74","J","0","img/none_selected_demo.jpg","true","0",""
"4885","","text","42","134872","0.0-22.0","59945591","wem/bandit_either","A1CH3TODZNQCES","either","1","32","","","","","","","","","","","","","","","","","","","","","","","","","","","","","","","","","","",""
"4723","","text","43","139600","0.0-23.0","59945591","wem/bandit_either","A1CH3TODZNQCES","either","1","32","","","","","","","","","","","","","","","","","","","","","","","","","","","","","","","","","","",""
"2348","","text","44","141951","0.0-24.0","59945591","wem/bandit_either","A1CH3TODZNQCES","either","1","32","","","","","","","","","","","","","","","","","","","","","","","","","","","","","","","","","","",""
"1708","","text","45","143663","0.0-25.0","59945591","wem/bandit_either","A1CH3TODZNQCES","either","1","32","","","","","","","","","","","","","","","","","","","","","","","","","","","","","","","","","","",""
"5644","","text","46","149311","0.0-26.0","59945591","wem/bandit_either","A1CH3TODZNQCES","either","1","32","","","","","","","","","","","","","","","","","","","","","","","","","","","","","","","","","","",""
"2118","","text","47","151432","0.0-27.0","59945591","wem/bandit_either","A1CH3TODZNQCES","either","1","32","","","","","","","","","","","","","","","","","","","","","","","","","","","","","","","","","","",""
"2475","","text","48","153912","0.0-28.0","59945591","wem/bandit_either","A1CH3TODZNQCES","either","1","32","","","","","","","","","","","","","","","","","","","","","","","","","","","","","","","","","","",""
"2587","","text","49","156503","0.0-29.0","59945591","wem/bandit_either","A1CH3TODZNQCES","either","1","32","","","","","","","","","","","","","","","","","","","","","","","","","","","","","","","","","","",""
"2252","","text","50","158759","0.0-30.0","59945591","wem/bandit_either","A1CH3TODZNQCES","either","1","32","","","","","","","","","","","","","","","","","","","","","","","","","","","","","","","","","","",""
"1155","","text","51","159919","0.0-31.0","59945591","wem/bandit_either","A1CH3TODZNQCES","either","1","32","","","","","","","","","","","","","","","","","","","","","","","","","","","","","","","","","","",""
"1308","","text","52","161230","0.0-32.0","59945591","wem/bandit_either","A1CH3TODZNQCES","either","1","32","","","","","","","","","","","","","","","","","","","","","","","","","","","","","","","","","","",""
"563","","bandit","53","163303","0.0-33.0-0.0","59945591","wem/bandit_either","A1CH3TODZNQCES","either","1","","","","","","","0","0","1","0.2","","0.5","0.5","0.5","0.5","","","","","0.8","0.2","0.6","0.2","","","","","","","74","J","1","","true","0","full_practice"
"868","","bandit","54","165684","0.0-33.0-1.0","59945591","wem/bandit_either","A1CH3TODZNQCES","either","1","","","","","","","0","1","0","","0.8","0.5","0.5","0.5","0.5","0.8","0.2","0.6","0.2","","","","","","","","","","","72","H","0","img/none_selected.jpg","true","0","full_practice"
"331","","bandit","55","167525","0.0-33.0-2.0","59945591","wem/bandit_either","A1CH3TODZNQCES","either","1","","","","","","","0","0","1","0.2","","0.5","0.5","0.5","0.5","","","","","0.8","0.2","0.6","0.2","","","","","","","74","J","1","","true","0","full_practice"
"16","","bandit","56","169051","0.0-33.0-3.0","59945591","wem/bandit_either","A1CH3TODZNQCES","either","1","","","","","","","0","0","1","","0.8","0.5","0.5","0.5","0.5","0.8","0.2","0.6","0.2","","","","","","","","","","","72","H","0","img/none_selected.jpg","true","0","full_practice"
"440","","bandit","57","170998","0.0-33.0-4.0","59945591","wem/bandit_either","A1CH3TODZNQCES","either","1","","","","","","","0","1","0","","0.6","0.5","0.5","0.5","0.5","0.8","0.2","0.6","0.2","","","","","","","","","","","75","K","2","","true","0","full_practice"
"132","","bandit","58","172636","0.0-33.0-5.0","59945591","wem/bandit_either","A1CH3TODZNQCES","either","1","","","","","","","0","1","0","","0.6","0.5","0.5","0.5","0.5","0.8","0.2","0.6","0.2","","","","","","","","","","","75","K","2","","true","0","full_practice"
"221","","bandit","59","174367","0.0-33.0-6.0","59945591","wem/bandit_either","A1CH3TODZNQCES","either","1","","","","","","","1","0","0","0.2","","0.5","0.5","0.5","0.5","","","","","0.8","0.2","0.6","0.2","","","","","","","74","J","1","","true","0","full_practice"
"354","","bandit","60","176230","0.0-33.0-7.0","59945591","wem/bandit_either","A1CH3TODZNQCES","either","1","","","","","","","0","0","1","","0.2","0.5","0.5","0.5","0.5","0.8","0.2","0.6","0.2","","","","","","","","","","","74","J","1","","true","0","full_practice"
"191","","bandit","61","177932","0.0-33.0-8.0","59945591","wem/bandit_either","A1CH3TODZNQCES","either","1","","","","","","","0","0","1","","0.8","0.5","0.5","0.5","0.5","0.8","0.2","0.6","0.2","","","","","","","","","","","72","H","0","img/none_selected.jpg","true","0","full_practice"
"139","","bandit","62","179581","0.0-33.0-9.0","59945591","wem/bandit_either","A1CH3TODZNQCES","either","1","","","","","","","0","1","0","","0.6","0.5","0.5","0.5","0.5","0.8","0.2","0.6","0.2","","","","","","","","","","","75","K","2","","true","0","full_practice"
"307","","bandit","63","181399","0.0-33.0-10.0","59945591","wem/bandit_either","A1CH3TODZNQCES","either","1","","","","","","","0","0","1","0.6","","0.5","0.5","0.5","0.5","","","","","0.8","0.2","0.6","0.2","","","","","","","75","K","2","","true","0","full_practice"
"290","","bandit","64","183199","0.0-33.0-11.0","59945591","wem/bandit_either","A1CH3TODZNQCES","either","1","","","","","","","0","0","1","0.2","","0.5","0.5","0.5","0.5","","","","","0.8","0.2","0.6","0.2","","","","","","","76","L","3","","true","0","full_practice"
"328","","bandit","65","185039","0.0-33.0-12.0","59945591","wem/bandit_either","A1CH3TODZNQCES","either","1","","","","","","","0","0","1","","0.2","0.5","0.5","0.5","0.5","0.8","0.2","0.6","0.2","","","","","","","","","","","76","L","3","","true","0","full_practice"
"292","","bandit","66","186839","0.0-33.0-13.0","59945591","wem/bandit_either","A1CH3TODZNQCES","either","1","","","","","","","0","0","1","0.2","","0.5","0.5","0.5","0.5","","","","","0.8","0.2","0.6","0.2","","","","","","","76","L","3","","true","0","full_practice"
"233","","bandit","67","188583","0.0-33.0-14.0","59945591","wem/bandit_either","A1CH3TODZNQCES","either","1","","","","","","","0","1","0","","0.6","0.5","0.5","0.5","0.5","0.8","0.2","0.6","0.2","","","","","","","","","","","75","K","2","","true","0","full_practice"
"345","","bandit","68","190439","0.0-33.0-15.0","59945591","wem/bandit_either","A1CH3TODZNQCES","either","1","","","","","","","0","0","1","0.2","","0.5","0.5","0.5","0.5","","","","","0.8","0.2","0.6","0.2","","","","","","","74","J","1","","true","0","full_practice"
"47","","bandit","69","191996","0.0-33.0-16.0","59945591","wem/bandit_either","A1CH3TODZNQCES","either","1","","","","","","","0","0","1","","0.8","0.5","0.5","0.5","0.5","0.8","0.2","0.6","0.2","","","","","","","","","","","72","H","0","img/none_selected.jpg","true","0","full_practice"
"187","","bandit","70","193693","0.0-33.0-17.0","59945591","wem/bandit_either","A1CH3TODZNQCES","either","1","","","","","","","0","0","1","","0.8","0.5","0.5","0.5","0.5","0.8","0.2","0.6","0.2","","","","","","","","","","","72","H","0","img/none_selected.jpg","true","0","full_practice"
"129","","bandit","71","195333","0.0-33.0-18.0","59945591","wem/bandit_either","A1CH3TODZNQCES","either","1","","","","","","","1","0","0","0.8","","0.5","0.5","0.5","0.5","","","","","0.8","0.2","0.6","0.2","","","","","","","72","H","0","img/none_selected.jpg","true","0","full_practice"
"250","","bandit","72","197092","0.0-33.0-19.0","59945591","wem/bandit_either","A1CH3TODZNQCES","either","1","","","","","","","0","0","1","0.2","","0.5","0.5","0.5","0.5","","","","","0.8","0.2","0.6","0.2","","","","","","","74","J","1","","true","0","full_practice"
"25132","","text","73","222232","0.0-34.0","59945591","wem/bandit_either","A1CH3TODZNQCES","either","1","32","","","","","","","","","","","","","","","","","","","","","","","","","","","","","","","","","","",""
"6394","","text","74","229633","0.0-35.0","59945591","wem/bandit_either","A1CH3TODZNQCES","either","1","32","","","","","","","","","","","","","","","","","","","","","","","","","","","","","","","","","","",""
"10464","","text","75","240103","0.0-36.0","59945591","wem/bandit_either","A1CH3TODZNQCES","either","1","32","","","","","","","","","","","","","","","","","","","","","","","","","","","","","","","","","","",""
"3541","","text","76","243645","0.0-37.0","59945591","wem/bandit_either","A1CH3TODZNQCES","either","1","32","","","","","","","","","","","","","","","","","","","","","","","","","","","","","","","","","","",""
"1520","","text","77","245166","0.0-38.0","59945591","wem/bandit_either","A1CH3TODZNQCES","either","1","32","","","","","","","","","","","","","","","","","","","","","","","","","","","","","","","","","","",""
"4214","","text","78","249384","0.0-39.0","59945591","wem/bandit_either","A1CH3TODZNQCES","either","1","32","","","","","","","","","","","","","","","","","","","","","","","","","","","","","","","","","","",""
"1577","","bandit","79","252475","0.0-40.0-0.0","59945591","wem/bandit_either","A1CH3TODZNQCES","either","1","","","","","","","0","0","1","","0.3592836462","0.8","0.4","0.2","0.6","0.3592836462","0.0798457429","0.02943109976","0.4269289603","","","","","","","","","","","72","H","0","img/none_selected.jpg","","1","main_expt"
"384","","bandit","80","254367","0.0-41.0-0.0","59945591","wem/bandit_either","A1CH3TODZNQCES","either","1","","","","","","","0","0","1","","0.06336112212","0.8","0.4","0.2","0.6","0.3454903542","0.07621336767","0.06336112212","0.4660243271","","","","","","","","","","","75","K","2","","","2","main_expt"
"353","","bandit","81","256232","0.0-42.0-0.0","59945591","wem/bandit_either","A1CH3TODZNQCES","either","1","","","","","","","0","0","1","0.07476295528","","0.8","0.4","0.2","0.6","","","","","0.2941512374","0.07476295528","0.07335687118","0.4738503749","","","","","","","74","J","1","","","3","main_expt"
"471","","bandit","82","258216","0.0-43.0-0.0","59945591","wem/bandit_either","A1CH3TODZNQCES","either","1","","","","","","","1","0","0","0.4618500418","","0.8","0.4","0.2","0.6","","","","","0.2851241965","0.06526985361","0.06156305515","0.4618500418","","","","","","","76","L","3","","","4","main_expt"
"375","","bandit","83","260100","0.0-44.0-0.0","59945591","wem/bandit_either","A1CH3TODZNQCES","either","1","","","","","","","1","0","0","0.4488935273","","0.8","0.4","0.2","0.6","","","","","0.3172925843","0.05487735528","0.08141194251","0.4488935273","","","","","","","76","L","3","","","5","main_expt"
"383","","bandit","84","261991","0.0-45.0-0.0","59945591","wem/bandit_either","A1CH3TODZNQCES","either","1","","","","","","","1","0","0","0.4437832297","","0.8","0.4","0.2","0.6","","","","","0.3319153021","0.04340015571","0.1104821702","0.4437832297","","","","","","","76","L","3","","","6","main_expt"
"409","","bandit","85","263914","0.0-46.0-0.0","59945591","wem/bandit_either","A1CH3TODZNQCES","either","1","","","","","","","0","0","1","","0.4310077805","0.8","0.4","0.2","0.6","0.3553039772","0.04575060371","0.1191408541","0.4310077805","","","","","","","","","","","76","L","3","","","7","main_expt"
"814","","bandit","86","266239","0.0-47.0-0.0","59945591","wem/bandit_either","A1CH3TODZNQCES","either","1","","","","","","","1","0","0","0.4480386191","","0.8","0.4","0.2","0.6","","","","","0.3868093767","0.06112087539","0.1517570037","0.4480386191","","","","","","","76","L","3","","","8","main_expt"
"351","","bandit","87","268101","0.0-48.0-0.0","59945591","wem/bandit_either","A1CH3TODZNQCES","either","1","","","","","","","0","0","1","0.4460224538","","0.8","0.4","0.2","0.6","","","","","0.3754406694","0.07854191076","0.1738087075","0.4460224538","","","","","","","76","L","3","","","9","main_expt"
"628","","bandit","88","270240","0.0-49.0-0.0","59945591","wem/bandit_either","A1CH3TODZNQCES","either","1","","","","","","","0","0","1","0.3954493452","","0.8","0.4","0.2","0.6","","","","","0.3537433427","0.06865483858","0.2033535465","0.3954493452","","","","","","","76","L","3","","","10","main_expt"
"719","","bandit","89","272470","0.0-50.0-0.0","59945591","wem/bandit_either","A1CH3TODZNQCES","either","1","","","","","","","1","0","0","0.4064238371","","0.8","0.4","0.2","0.6","","","","","0.3793358735","0.05083805298","0.1751631116","0.4064238371","","","","","","","76","L","3","","","11","main_expt"
"427","","bandit","90","274408","0.0-51.0-0.0","59945591","wem/bandit_either","A1CH3TODZNQCES","either","1","","","","","","","1","0","0","0.3800839449","","0.8","0.4","0.2","0.6","","","","","0.3800428212","0.1038792476","0.1787487179","0.3800839449","","","","","","","76","L","3","","","12","main_expt"
"168","","bandit","91","276087","0.0-52.0-0.0","59945591","wem/bandit_either","A1CH3TODZNQCES","either","1","","","","","","","0","0","1","0.3866628193","","0.8","0.4","0.2","0.6","","","","","0.3647981021","0.1197284353","0.1794712961","0.3866628193","","","","","","","76","L","3","","","13","main_expt"
"277","","bandit","92","277871","0.0-53.0-0.0","59945591","wem/bandit_either","A1CH3TODZNQCES","either","1","","","","","","","0","0","1","0.326509825","","0.8","0.4","0.2","0.6","","","","","0.3646471907","0.135681701","0.2482140722","0.326509825","","","","","","","76","L","3","","","14","main_expt"
"232","","bandit","93","279612","0.0-54.0-0.0","59945591","wem/bandit_either","A1CH3TODZNQCES","either","1","","","","","","","0","0","1","0.2428529647","","0.8","0.4","0.2","0.6","","","","","0.3549291363","0.125153919","0.2859415589","0.2428529647","","","","","","","76","L","3","","","15","main_expt"
"73","","bandit","94","281198","0.0-55.0-0.0","59945591","wem/bandit_either","A1CH3TODZNQCES","either","1","","","","","","","0","0","1","","0.1096891688","0.8","0.4","0.2","0.6","0.3727350689","0.1096891688","0.26587149","0.2332962783","","","","","","","","","","","74","J","1","","","16","main_expt"
"214","","bandit","95","282926","0.0-56.0-0.0","59945591","wem/bandit_either","A1CH3TODZNQCES","either","1","","","","","","","0","0","1","","0.1051581447","0.8","0.4","0.2","0.6","0.3112083829","0.1051581447","0.2776265896","0.2271032234","","","","","","","","","","","74","J","1","","","17","main_expt"
"362","","bandit","96","284798","0.0-57.0-0.0","59945591","wem/bandit_either","A1CH3TODZNQCES","either","1","","","","","","","0","0","1","","0.3223387563","0.8","0.4","0.2","0.6","0.2403081055","0.1437943492","0.3223387563","0.1701710303","","","","","","","","","","","75","K","2","","","18","main_expt"
"393","","bandit","97","286700","0.0-58.0-0.0","59945591","wem/bandit_either","A1CH3TODZNQCES","either","1","","","","","","","0","0","1","","0.3192918255","0.8","0.4","0.2","0.6","0.2377482675","0.1405615485","0.3192918255","0.2070198111","","","","","","","","","","","75","K","2","","","19","main_expt"
"226","","bandit","98","288438","0.0-59.0-0.0","59945591","wem/bandit_either","A1CH3TODZNQCES","either","1","","","","","","","0","0","1","0.2607530295","","0.8","0.4","0.2","0.6","","","","","0.2607530295","0.1063334751","0.2739159796","0.2412547966","","","","","","","72","H","0","img/none_selected.jpg","","20","main_expt"
"208","","bandit","99","290158","0.0-60.0-0.0","59945591","wem/bandit_either","A1CH3TODZNQCES","either","1","","","","","","","0","0","1","0.2919400674","","0.8","0.4","0.2","0.6","","","","","0.2919400674","0.07848250716","0.2454385858","0.2184758186","","","","","","","72","H","0","img/none_selected.jpg","","21","main_expt"
"321","","bandit","100","291991","0.0-61.0-0.0","59945591","wem/bandit_either","A1CH3TODZNQCES","either","1","","","","","","","0","0","1","0.2995681058","","0.8","0.4","0.2","0.6","","","","","0.2995681058","0.1005082742","0.2340842041","0.1849325376","","","","","","","72","H","0","img/none_selected.jpg","","22","main_expt"
"297","","bandit","101","293799","0.0-62.0-0.0","59945591","wem/bandit_either","A1CH3TODZNQCES","either","1","","","","","","","0","0","1","0.0792694407","","0.8","0.4","0.2","0.6","","","","","0.292554742","0.0792694407","0.1840173947","0.1521197653","","","","","","","74","J","1","","","23","main_expt"
"344","","bandit","102","295655","0.0-63.0-0.0","59945591","wem/bandit_either","A1CH3TODZNQCES","either","1","","","","","","","0","0","1","","0.1759403195","0.8","0.4","0.2","0.6","0.3616894364","0.07358699385","0.1745529383","0.1759403195","","","","","","","","","","","76","L","3","","","24","main_expt"
"224","","bandit","103","297391","0.0-64.0-0.0","59945591","wem/bandit_either","A1CH3TODZNQCES","either","1","","","","","","","0","0","1","","0.1756582033","0.8","0.4","0.2","0.6","0.3575757263","0.142208116","0.1756582033","0.09479311865","","","","","","","","","","","75","K","2","","","25","main_expt"
"33","","bandit","104","298936","0.0-65.0-0.0","59945591","wem/bandit_either","A1CH3TODZNQCES","either","1","","","","","","","0","0","1","","0.08156123497","0.8","0.4","0.2","0.6","0.3635346368","0.1245113583","0.2086365416","0.08156123497","","","","","","","","","","","76","L","3","","","26","main_expt"
"191","","bandit","105","300637","0.0-66.0-0.0","59945591","wem/bandit_either","A1CH3TODZNQCES","either","1","","","","","","","0","0","1","","0.1102307873","0.8","0.4","0.2","0.6","0.4109801844","0.118364605","0.2139763749","0.1102307873","","","","","","","","","","","76","L","3","","","27","main_expt"
"250","","bandit","106","302397","0.0-67.0-0.0","59945591","wem/bandit_either","A1CH3TODZNQCES","either","1","","","","","","","0","0","1","","0.08274430796","0.8","0.4","0.2","0.6","0.3772962545","0.1105930361","0.1613483267","0.08274430796","","","","","","","","","","","76","L","3","","","28","main_expt"
"200","","bandit","107","304107","0.0-68.0-0.0","59945591","wem/bandit_either","A1CH3TODZNQCES","either","1","","","","","","","0","0","1","0.1086911099","","0.8","0.4","0.2","0.6","","","","","0.3875745016","0.1118713044","0.1712488152","0.1086911099","","","","","","","76","L","3","","","29","main_expt"
"324","","bandit","108","305944","0.0-69.0-0.0","59945591","wem/bandit_either","A1CH3TODZNQCES","either","1","","","","","","","0","0","1","","0.1116575632","0.8","0.4","0.2","0.6","0.3780019893","0.1914750456","0.1675524316","0.1116575632","","","","","","","","","","","76","L","3","","","30","main_expt"
"342","","bandit","109","307799","0.0-70.0-0.0","59945591","wem/bandit_either","A1CH3TODZNQCES","either","1","","","","","","","0","0","1","","0.07828091442","0.8","0.4","0.2","0.6","0.416860241","0.2367730164","0.140325158","0.07828091442","","","","","","","","","","","76","L","3","","","31","main_expt"
"64","","bandit","110","309374","0.0-71.0-0.0","59945591","wem/bandit_either","A1CH3TODZNQCES","either","1","","","","","","","0","0","1","0.4242573056","","0.8","0.4","0.2","0.6","","","","","0.4242573056","0.2109574779","0.1553940025","0.07550395781","","","","","","","72","H","0","img/none_selected.jpg","","32","main_expt"
"344","","bandit","111","311231","0.0-72.0-0.0","59945591","wem/bandit_either","A1CH3TODZNQCES","either","1","","","","","","","0","0","1","0.4185546122","","0.8","0.4","0.2","0.6","","","","","0.4185546122","0.2005542758","0.1925614924","0.1445529326","","","","","","","72","H","0","img/none_selected.jpg","","33","main_expt"
"96","","bandit","112","312838","0.0-73.0-0.0","59945591","wem/bandit_either","A1CH3TODZNQCES","either","1","","","","","","","0","0","1","","0.180377021","0.8","0.4","0.2","0.6","0.4268308419","0.180377021","0.2150530123","0.1091775744","","","","","","","","","","","74","J","1","","","34","main_expt"
"555","","bandit","113","314903","0.0-74.0-0.0","59945591","wem/bandit_either","A1CH3TODZNQCES","either","1","","","","","","","0","0","1","","0.2688968874","0.8","0.4","0.2","0.6","0.4265642185","0.2111187229","0.2688968874","0.1297995116","","","","","","","","","","","75","K","2","","","35","main_expt"
"432","","bandit","114","316846","0.0-75.0-0.0","59945591","wem/bandit_either","A1CH3TODZNQCES","either","1","","","","","","","0","0","1","0.2119332756","","0.8","0.4","0.2","0.6","","","","","0.4066287969","0.2119332756","0.2977459964","0.09468550628","","","","","","","74","J","1","","","36","main_expt"
"296","","bandit","115","318654","0.0-76.0-0.0","59945591","wem/bandit_either","A1CH3TODZNQCES","either","1","","","","","","","0","0","1","","0.2684429955","0.8","0.4","0.2","0.6","0.4611471687","0.2256131965","0.2684429955","0.09396978408","","","","","","","","","","","75","K","2","","","37","main_expt"
"68","","bandit","116","320236","0.0-77.0-0.0","59945591","wem/bandit_either","A1CH3TODZNQCES","either","1","","","","","","","0","0","1","0.1975147253","","0.8","0.4","0.2","0.6","","","","","0.4482708269","0.1975147253","0.2490186117","0.1062257399","","","","","","","74","J","1","","","38","main_expt"
"120","","bandit","117","321869","0.0-78.0-0.0","59945591","wem/bandit_either","A1CH3TODZNQCES","either","1","","","","","","","0","1","0","","0.4402774387","0.8","0.4","0.2","0.6","0.4402774387","0.1595648847","0.2548033483","0.09676453159","","","","","","","","","","","72","H","0","img/none_selected.jpg","","39","main_expt"
"332","","bandit","118","323719","0.0-79.0-0.0","59945591","wem/bandit_either","A1CH3TODZNQCES","either","1","","","","","","","1","0","0","0.4385128538","","0.8","0.4","0.2","0.6","","","","","0.4385128538","0.1626610004","0.2688720753","0.08197179495","","","","","","","72","H","0","img/none_selected.jpg","","40","main_expt"
"279","","bandit","119","325511","0.0-80.0-0.0","59945591","wem/bandit_either","A1CH3TODZNQCES","either","1","","","","","","","0","0","1","0.4380640779","","0.8","0.4","0.2","0.6","","","","","0.4380640779","0.1982402655","0.297778532","0.14416382","","","","","","","72","H","0","img/none_selected.jpg","","41","main_expt"
"30","","bandit","120","327053","0.0-81.0-0.0","59945591","wem/bandit_either","A1CH3TODZNQCES","either","1","","","","","","","0","0","1","0.4265224768","","0.8","0.4","0.2","0.6","","","","","0.4265224768","0.1863610343","0.2449207522","0.1070927036","","","","","","","72","H","0","img/none_selected.jpg","","42","main_expt"
"328","","bandit","121","328895","0.0-82.0-0.0","59945591","wem/bandit_either","A1CH3TODZNQCES","either","1","","","","","","","0","1","0","","0.435880106","0.8","0.4","0.2","0.6","0.435880106","0.2418389683","0.2457567503","0.1214526226","","","","","","","","","","","72","H","0","img/none_selected.jpg","","43","main_expt"
"133","","bandit","122","330541","0.0-83.0-0.0","59945591","wem/bandit_either","A1CH3TODZNQCES","either","1","","","","","","","0","0","1","0.4450576882","","0.8","0.4","0.2","0.6","","","","","0.4450576882","0.1943491227","0.2432732657","0.1450738833","","","","","","","72","H","0","img/none_selected.jpg","","44","main_expt"
"153","","bandit","123","332208","0.0-84.0-0.0","59945591","wem/bandit_either","A1CH3TODZNQCES","either","1","","","","","","","0","0","1","0.4382030275","","0.8","0.4","0.2","0.6","","","","","0.4382030275","0.1543250971","0.2656772236","0.09632230927","","","","","","","72","H","0","img/none_selected.jpg","","45","main_expt"
"284","","bandit","124","334006","0.0-85.0-0.0","59945591","wem/bandit_either","A1CH3TODZNQCES","either","1","","","","","","","0","0","1","0.4412369426","","0.8","0.4","0.2","0.6","","","","","0.4412369426","0.09719433791","0.2432112423","0.103211431","","","","","","","72","H","0","img/none_selected.jpg","","46","main_expt"
"4","","bandit","125","335524","0.0-86.0-0.0","59945591","wem/bandit_either","A1CH3TODZNQCES","either","1","","","","","","","0","1","0","","0.4588863431","0.8","0.4","0.2","0.6","0.4588863431","0.1228880329","0.2992745976","0.09916324924","","","","","","","","","","","72","H","0","img/none_selected.jpg","","47","main_expt"
"291","","bandit","126","337328","0.0-87.0-0.0","59945591","wem/bandit_either","A1CH3TODZNQCES","either","1","","","","","","","0","0","1","0.4408788818","","0.8","0.4","0.2","0.6","","","","","0.4408788818","0.1068532567","0.2594611615","0.1090242341","","","","","","","72","H","0","img/none_selected.jpg","","48","main_expt"
"154","","bandit","127","338996","0.0-88.0-0.0","59945591","wem/bandit_either","A1CH3TODZNQCES","either","1","","","","","","","0","0","1","0.4232064109","","0.8","0.4","0.2","0.6","","","","","0.4232064109","0.1044048509","0.2767916858","0.1265186769","","","","","","","72","H","0","img/none_selected.jpg","","49","main_expt"
"167","","bandit","128","340677","0.0-89.0-0.0","59945591","wem/bandit_either","A1CH3TODZNQCES","either","1","","","","","","","0","0","1","","0.4210883962","0.8","0.4","0.2","0.6","0.4210883962","0.1072026782","0.2762534014","0.1397440907","","","","","","","","","","","72","H","0","img/none_selected.jpg","","50","main_expt"
"78","","bandit","129","342271","0.0-90.0-0.0","59945591","wem/bandit_either","A1CH3TODZNQCES","either","1","","","","","","","1","0","0","0.4225635581","","0.8","0.4","0.2","0.6","","","","","0.4225635581","0.1287882573","0.3379376541","0.153600331","","","","","","","72","H","0","img/none_selected.jpg","","51","main_expt"
"133","","bandit","130","343917","0.0-91.0-0.0","59945591","wem/bandit_either","A1CH3TODZNQCES","either","1","","","","","","","0","0","1","","0.4146237098","0.8","0.4","0.2","0.6","0.4146237098","0.1298059469","0.3395267946","0.1718407591","","","","","","","","","","","72","H","0","img/none_selected.jpg","","52","main_expt"
"140","","bandit","131","345573","0.0-92.0-0.0","59945591","wem/bandit_either","A1CH3TODZNQCES","either","1","","","","","","","0","0","1","0.3763623321","","0.8","0.4","0.2","0.6","","","","","0.3763623321","0.07423060895","0.29674647","0.1945727614","","","","","","","72","H","0","img/none_selected.jpg","","53","main_expt"
"115","","bandit","132","347197","0.0-93.0-0.0","59945591","wem/bandit_either","A1CH3TODZNQCES","either","1","","","","","","","1","0","0","0.3289081181","","0.8","0.4","0.2","0.6","","","","","0.3289081181","0.08562383645","0.3372955831","0.2450542523","","","","","","","72","H","0","img/none_selected.jpg","","54","main_expt"
"124","","bandit","133","348837","0.0-94.0-0.0","59945591","wem/bandit_either","A1CH3TODZNQCES","either","1","","","","","","","0","0","1","0.3025984711","","0.8","0.4","0.2","0.6","","","","","0.3025984711","0.0757818623","0.3506099842","0.2547241938","","","","","","","72","H","0","img/none_selected.jpg","","55","main_expt"
"195","","bandit","134","350545","0.0-95.0-0.0","59945591","wem/bandit_either","A1CH3TODZNQCES","either","1","","","","","","","0","1","0","","0.2921333137","0.8","0.4","0.2","0.6","0.2921333137","0.09897923035","0.3418029788","0.2595112895","","","","","","","","","","","72","H","0","img/none_selected.jpg","","56","main_expt"
"187","","bandit","135","352246","0.0-96.0-0.0","59945591","wem/bandit_either","A1CH3TODZNQCES","either","1","","","","","","","1","0","0","0.3317177772","","0.8","0.4","0.2","0.6","","","","","0.3317177772","0.1160875525","0.3162475816","0.2610276213","","","","","","","72","H","0","img/none_selected.jpg","","57","main_expt"
"286","","bandit","136","354045","0.0-97.0-0.0","59945591","wem/bandit_either","A1CH3TODZNQCES","either","1","","","","","","","0","0","1","0.3240244649","","0.8","0.4","0.2","0.6","","","","","0.3240244649","0.1134641846","0.3269881105","0.2354201416","","","","","","","72","H","0","img/none_selected.jpg","","58","main_expt"
"103","","bandit","137","355662","0.0-98.0-0.0","59945591","wem/bandit_either","A1CH3TODZNQCES","either","1","","","","","","","1","0","0","0.2988076671","","0.8","0.4","0.2","0.6","","","","","0.2988076671","0.1177083384","0.2901324944","0.2346370837","","","","","","","72","H","0","img/none_selected.jpg","","59","main_expt"
"28","","bandit","138","357204","0.0-99.0-0.0","59945591","wem/bandit_either","A1CH3TODZNQCES","either","1","","","","","","","0","0","1","0.3096792726","","0.8","0.4","0.2","0.6","","","","","0.3096792726","0.1125723432","0.289588464","0.2315637733","","","","","","","72","H","0","img/none_selected.jpg","","60","main_expt"
"153","","bandit","139","358870","0.0-100.0-0.0","59945591","wem/bandit_either","A1CH3TODZNQCES","either","1","","","","","","","1","0","0","0.2821336973","","0.8","0.4","0.2","0.6","","","","","0.2821336973","0.09911093426","0.2782845563","0.2599537756","","","","","","","72","H","0","img/none_selected.jpg","","61","main_expt"
"118","","bandit","140","360503","0.0-101.0-0.0","59945591","wem/bandit_either","A1CH3TODZNQCES","either","1","","","","","","","0","0","1","0.2414244345","","0.8","0.4","0.2","0.6","","","","","0.2414244345","0.09440438105","0.3165490401","0.2594941563","","","","","","","72","H","0","img/none_selected.jpg","","62","main_expt"
"1548","","bandit","141","363567","0.0-102.0-0.0","59945591","wem/bandit_either","A1CH3TODZNQCES","either","1","","","","","","","0","0","1","0.213639373","","0.8","0.4","0.2","0.6","","","","","0.213639373","0.1015409351","0.3034564924","0.2660839385","","","","","","","72","H","0","img/none_selected.jpg","","63","main_expt"
"301","","bandit","142","365381","0.0-103.0-0.0","59945591","wem/bandit_either","A1CH3TODZNQCES","either","1","","","","","","","0","0","1","","0.07049798599","0.8","0.4","0.2","0.6","0.1876308072","0.07049798599","0.2506654962","0.2426585031","","","","","","","","","","","74","J","1","","","64","main_expt"
"1","","bandit","143","366895","0.0-104.0-0.0","59945591","wem/bandit_either","A1CH3TODZNQCES","either","1","","","","","","","0","0","1","","0.253414466","0.8","0.4","0.2","0.6","0.1841803182","0.05735603507","0.253414466","0.2581047566","","","","","","","","","","","75","K","2","","","65","main_expt"
"53","","bandit","144","368462","0.0-105.0-0.0","59945591","wem/bandit_either","A1CH3TODZNQCES","either","1","","","","","","","0","0","1","0.0621258055","","0.8","0.4","0.2","0.6","","","","","0.187417598","0.0621258055","0.2836500186","0.2872127433","","","","","","","74","J","1","","","66","main_expt"
"356","","bandit","145","370334","0.0-106.0-0.0","59945591","wem/bandit_either","A1CH3TODZNQCES","either","1","","","","","","","0","0","1","","0.06966106928","0.8","0.4","0.2","0.6","0.1395950637","0.06966106928","0.3217852231","0.3232337643","","","","","","","","","","","74","J","1","","","67","main_expt"
"254","","bandit","146","372098","0.0-107.0-0.0","59945591","wem/bandit_either","A1CH3TODZNQCES","either","1","","","","","","","0","1","0","","0.3574581916","0.8","0.4","0.2","0.6","0.1363519197","0.09965709916","0.3574581916","0.3376006622","","","","","","","","","","","75","K","2","","","68","main_expt"
"47","","bandit","147","373652","0.0-108.0-0.0","59945591","wem/bandit_either","A1CH3TODZNQCES","either","1","","","","","","","0","0","1","0.3884563005","","0.8","0.4","0.2","0.6","","","","","0.1117144852","0.1428217854","0.3884563005","0.2917609244","","","","","","","75","K","2","","","69","main_expt"
"455","","bandit","148","375622","0.0-109.0-0.0","59945591","wem/bandit_either","A1CH3TODZNQCES","either","1","","","","","","","0","0","1","","0.1866845388","0.8","0.4","0.2","0.6","0.09667493602","0.1866845388","0.3920047773","0.2218665627","","","","","","","","","","","74","J","1","","","70","main_expt"
"75","","bandit","149","377213","0.0-110.0-0.0","59945591","wem/bandit_either","A1CH3TODZNQCES","either","1","","","","","","","0","0","1","","0.4066376731","0.8","0.4","0.2","0.6","0.09186933139","0.1702545286","0.4066376731","0.2409383839","","","","","","","","","","","75","K","2","","","71","main_expt"
"296","","bandit","150","379024","0.0-111.0-0.0","59945591","wem/bandit_either","A1CH3TODZNQCES","either","1","","","","","","","0","0","1","","0.3443789926","0.8","0.4","0.2","0.6","0.09472009463","0.1836279043","0.3443789926","0.1920783453","","","","","","","","","","","75","K","2","","","72","main_expt"
"4","","bandit","151","380546","0.0-112.0-0.0","59945591","wem/bandit_either","A1CH3TODZNQCES","either","1","","","","","","","0","1","0","","0.1644348242","0.8","0.4","0.2","0.6","0.1167805336","0.1644348242","0.3227553012","0.1905254877","","","","","","","","","","","74","J","1","","","73","main_expt"
"305","","bandit","152","382367","0.0-113.0-0.0","59945591","wem/bandit_either","A1CH3TODZNQCES","either","1","","","","","","","0","1","0","","0.1833421201","0.8","0.4","0.2","0.6","0.1465151254","0.1833421201","0.3336652139","0.184198213","","","","","","","","","","","74","J","1","","","74","main_expt"
"94","","bandit","153","383974","0.0-114.0-0.0","59945591","wem/bandit_either","A1CH3TODZNQCES","either","1","","","","","","","0","0","1","0.1519653276","","0.8","0.4","0.2","0.6","","","","","0.123285719","0.1519653276","0.2890150868","0.1881920243","","","","","","","74","J","1","","","75","main_expt"
"876","","bandit","154","386358","0.0-115.0-0.0","59945591","wem/bandit_either","A1CH3TODZNQCES","either","1","","","","","","","1","0","0","0.1506622639","","0.8","0.4","0.2","0.6","","","","","0.1392606081","0.1506622639","0.2673490463","0.1988930589","","","","","","","74","J","1","","","76","main_expt"
"261","","bandit","155","388134","0.0-116.0-0.0","59945591","wem/bandit_either","A1CH3TODZNQCES","either","1","","","","","","","0","0","1","","0.1860897766","0.8","0.4","0.2","0.6","0.099337717","0.1860897766","0.2858541315","0.2255968657","","","","","","","","","","","74","J","1","","","77","main_expt"
"410","","bandit","156","390058","0.0-117.0-0.0","59945591","wem/bandit_either","A1CH3TODZNQCES","either","1","","","","","","","0","1","0","","0.2639968829","0.8","0.4","0.2","0.6","0.09666605973","0.1618556875","0.2639968829","0.1917014014","","","","","","","","","","","75","K","2","","","78","main_expt"
"361","","bandit","157","391934","0.0-118.0-0.0","59945591","wem/bandit_either","A1CH3TODZNQCES","either","1","","","","","","","0","0","1","","0.2304888896","0.8","0.4","0.2","0.6","0.09639353985","0.1976853889","0.2304888896","0.2092129429","","","","","","","","","","","75","K","2","","","79","main_expt"
"1317","","bandit","158","394766","0.0-119.0-0.0","59945591","wem/bandit_either","A1CH3TODZNQCES","either","1","","","","","","","0","0","1","","0.1991809665","0.8","0.4","0.2","0.6","0.09566996791","0.2198838985","0.1991809665","0.1974306726","","","","","","","","","","","75","K","2","","","80","main_expt"
"769","","bandit","159","397046","0.0-120.0-0.0","59945591","wem/bandit_either","A1CH3TODZNQCES","either","1","","","","","","","0","0","1","0.1627434897","","0.8","0.4","0.2","0.6","","","","","0.07958501382","0.2167005254","0.1627434897","0.1414754506","","","","","","","75","K","2","","","81","main_expt"
"914","","bandit","160","399470","0.0-121.0-0.0","59945591","wem/bandit_either","A1CH3TODZNQCES","either","1","","","","","","","0","0","1","","0.1624637972","0.8","0.4","0.2","0.6","0.08833774835","0.2527486409","0.1624637972","0.1422587364","","","","","","","","","","","75","K","2","","","82","main_expt"
"1584","","bandit","161","402565","0.0-122.0-0.0","59945591","wem/bandit_either","A1CH3TODZNQCES","either","1","","","","","","","0","0","1","","0.1900332","0.8","0.4","0.2","0.6","0.09109006352","0.2569721607","0.1900332","0.1079415531","","","","","","","","","","","75","K","2","","","83","main_expt"
"821","","bandit","162","404902","0.0-123.0-0.0","59945591","wem/bandit_either","A1CH3TODZNQCES","either","1","","","","","","","0","0","1","0.1705646391","","0.8","0.4","0.2","0.6","","","","","0.05321730921","0.2535394321","0.1705646391","0.07696487024","","","","","","","75","K","2","","","84","main_expt"
"2036","","bandit","163","408454","0.0-124.0-0.0","59945591","wem/bandit_either","A1CH3TODZNQCES","either","1","","","","","","","0","0","1","","0.2053302659","0.8","0.4","0.2","0.6","0.03321009489","0.2255799186","0.2053302659","0.08313016423","","","","","","","","","","","75","K","2","","","85","main_expt"
"603","","bandit","164","410572","0.0-125.0-0.0","59945591","wem/bandit_either","A1CH3TODZNQCES","either","1","","","","","","","0","0","1","","0.102083396","0.8","0.4","0.2","0.6","0.04864990798","0.2197080914","0.2128685413","0.102083396","","","","","","","","","","","76","L","3","","","86","main_expt"
"16","","bandit","165","412102","0.0-126.0-0.0","59945591","wem/bandit_either","A1CH3TODZNQCES","either","1","","","","","","","0","0","1","0.09067070718","","0.8","0.4","0.2","0.6","","","","","0.07919268752","0.2230338057","0.213778815","0.09067070718","","","","","","","76","L","3","","","87","main_expt"
"451","","bandit","166","414069","0.0-127.0-0.0","59945591","wem/bandit_either","A1CH3TODZNQCES","either","1","","","","","","","0","0","1","","0.1421970704","0.8","0.4","0.2","0.6","0.05835116993","0.2484269739","0.2102340809","0.1421970704","","","","","","","","","","","76","L","3","","","88","main_expt"
"311","","bandit","167","415895","0.0-128.0-0.0","59945591","wem/bandit_either","A1CH3TODZNQCES","either","1","","","","","","","0","0","1","0.219142046","","0.8","0.4","0.2","0.6","","","","","0.05115519592","0.2733562597","0.1809358483","0.219142046","","","","","","","76","L","3","","","89","main_expt"
"124","","bandit","168","417534","0.0-129.0-0.0","59945591","wem/bandit_either","A1CH3TODZNQCES","either","1","","","","","","","0","0","1","","0.2806923657","0.8","0.4","0.2","0.6","0.07819273649","0.2973868449","0.1293356972","0.2806923657","","","","","","","","","","","76","L","3","","","90","main_expt"
"116","","bandit","169","419168","0.0-130.0-0.0","59945591","wem/bandit_either","A1CH3TODZNQCES","either","1","","","","","","","1","0","0","0.2819660137","","0.8","0.4","0.2","0.6","","","","","0.05564661524","0.3067689268","0.1136224352","0.2819660137","","","","","","","76","L","3","","","91","main_expt"
"316","","bandit","170","420998","0.0-131.0-0.0","59945591","wem/bandit_either","A1CH3TODZNQCES","either","1","","","","","","","0","0","1","0.3370305887","","0.8","0.4","0.2","0.6","","","","","0.05914103421","0.2719776188","0.07539152519","0.3370305887","","","","","","","76","L","3","","","92","main_expt"
"108","","bandit","171","422622","0.0-132.0-0.0","59945591","wem/bandit_either","A1CH3TODZNQCES","either","1","","","","","","","1","0","0","0.3722719914","","0.8","0.4","0.2","0.6","","","","","0.03944324463","0.3081791896","0.08243558305","0.3722719914","","","","","","","76","L","3","","","93","main_expt"
"358","","bandit","172","424496","0.0-133.0-0.0","59945591","wem/bandit_either","A1CH3TODZNQCES","either","1","","","","","","","0","1","0","","0.3840030774","0.8","0.4","0.2","0.6","0.05023017475","0.356667856","0.09807673793","0.3840030774","","","","","","","","","","","76","L","3","","","94","main_expt"
"387","","bandit","173","426398","0.0-134.0-0.0","59945591","wem/bandit_either","A1CH3TODZNQCES","either","1","","","","","","","0","1","0","","0.4050844552","0.8","0.4","0.2","0.6","0.07311956304","0.3300765204","0.09746204728","0.4050844552","","","","","","","","","","","76","L","3","","","95","main_expt"
"101","","bandit","174","428014","0.0-135.0-0.0","59945591","wem/bandit_either","A1CH3TODZNQCES","either","1","","","","","","","0","0","1","","0.4081076376","0.8","0.4","0.2","0.6","0.09573717159","0.3642735905","0.08559835745","0.4081076376","","","","","","","","","","","76","L","3","","","96","main_expt"
"593","","bandit","175","430127","0.0-136.0-0.0","59945591","wem/bandit_either","A1CH3TODZNQCES","either","1","","","","","","","0","1","0","","0.4142780263","0.8","0.4","0.2","0.6","0.1235519285","0.3885664579","0.0732645996","0.4142780263","","","","","","","","","","","76","L","3","","","97","main_expt"
"180","","bandit","176","431823","0.0-137.0-0.0","59945591","wem/bandit_either","A1CH3TODZNQCES","either","1","","","","","","","0","0","1","0.4131193208","","0.8","0.4","0.2","0.6","","","","","0.1274282425","0.4162912028","0.05343209845","0.4131193208","","","","","","","76","L","3","","","98","main_expt"
"284","","bandit","177","433623","0.0-138.0-0.0","59945591","wem/bandit_either","A1CH3TODZNQCES","either","1","","","","","","","0","1","0","","0.428944851","0.8","0.4","0.2","0.6","0.1457321849","0.4074153657","0.05144299931","0.428944851","","","","","","","","","","","76","L","3","","","99","main_expt"
"555","","bandit","178","435695","0.0-139.0-0.0","59945591","wem/bandit_either","A1CH3TODZNQCES","either","1","","","","","","","1","0","0","0.4279797645","","0.8","0.4","0.2","0.6","","","","","0.1492128348","0.3349137267","0.03934302155","0.4279797645","","","","","","","76","L","3","","","100","main_expt"
"227","","bandit","179","437439","0.0-140.0-0.0","59945591","wem/bandit_either","A1CH3TODZNQCES","either","1","","","","","","","0","0","1","0.4189249443","","0.8","0.4","0.2","0.6","","","","","0.125019219","0.2732947861","0.05783306622","0.4189249443","","","","","","","76","L","3","","","101","main_expt"
"852","","bandit","180","439807","0.0-141.0-0.0","59945591","wem/bandit_either","A1CH3TODZNQCES","either","1","","","","","","","1","0","0","0.4279241466","","0.8","0.4","0.2","0.6","","","","","0.1008510245","0.2584454073","0.06484492547","0.4279241466","","","","","","","76","L","3","","","102","main_expt"
"625","","bandit","181","441949","0.0-142.0-0.0","59945591","wem/bandit_either","A1CH3TODZNQCES","either","1","","","","","","","0","0","1","0.419390052","","0.8","0.4","0.2","0.6","","","","","0.1087281004","0.2143891894","0.0701259157","0.419390052","","","","","","","76","L","3","","","103","main_expt"
"492","","bandit","182","443956","0.0-143.0-0.0","59945591","wem/bandit_either","A1CH3TODZNQCES","either","1","","","","","","","0","0","1","0.3761202226","","0.8","0.4","0.2","0.6","","","","","0.143855427","0.1354346047","0.06922647753","0.3761202226","","","","","","","76","L","3","","","104","main_expt"
"713","","bandit","183","446181","0.0-144.0-0.0","59945591","wem/bandit_either","A1CH3TODZNQCES","either","1","","","","","","","0","0","1","","0.4229881466","0.8","0.4","0.2","0.6","0.1606853024","0.1615963473","0.07802312096","0.4229881466","","","","","","","","","","","76","L","3","","","105","main_expt"
"276","","bandit","184","447967","0.0-145.0-0.0","59945591","wem/bandit_either","A1CH3TODZNQCES","either","1","","","","","","","0","0","1","0.4110558218","","0.8","0.4","0.2","0.6","","","","","0.1612939645","0.1738621023","0.08930313369","0.4110558218","","","","","","","76","L","3","","","106","main_expt"
"1252","","bandit","185","450735","0.0-146.0-0.0","59945591","wem/bandit_either","A1CH3TODZNQCES","either","1","","","","","","","1","0","0","0.4176599015","","0.8","0.4","0.2","0.6","","","","","0.1778053335","0.1799671425","0.1397733654","0.4176599015","","","","","","","76","L","3","","","107","main_expt"
"124","","bandit","186","452374","0.0-147.0-0.0","59945591","wem/bandit_either","A1CH3TODZNQCES","either","1","","","","","","","1","0","0","0.4210396584","","0.8","0.4","0.2","0.6","","","","","0.1826465361","0.1844274074","0.1505899732","0.4210396584","","","","","","","76","L","3","","","108","main_expt"
"200","","bandit","187","454085","0.0-148.0-0.0","59945591","wem/bandit_either","A1CH3TODZNQCES","either","1","","","","","","","0","1","0","","0.4328015469","0.8","0.4","0.2","0.6","0.1737022726","0.1702708828","0.1162436109","0.4328015469","","","","","","","","","","","76","L","3","","","109","main_expt"
"227","","bandit","188","455823","0.0-149.0-0.0","59945591","wem/bandit_either","A1CH3TODZNQCES","either","1","","","","","","","1","0","0","0.4495585744","","0.8","0.4","0.2","0.6","","","","","0.1658344406","0.1964407335","0.08267976014","0.4495585744","","","","","","","76","L","3","","","110","main_expt"
"151","","bandit","189","457486","0.0-150.0-0.0","59945591","wem/bandit_either","A1CH3TODZNQCES","either","1","","","","","","","0","0","1","","0.4237631325","0.8","0.4","0.2","0.6","0.240619448","0.1777579569","0.09389793805","0.4237631325","","","","","","","","","","","76","L","3","","","111","main_expt"
"42","","bandit","190","459045","0.0-151.0-0.0","59945591","wem/bandit_either","A1CH3TODZNQCES","either","1","","","","","","","0","1","0","","0.4521571561","0.8","0.4","0.2","0.6","0.1927397719","0.1395994444","0.07903418564","0.4521571561","","","","","","","","","","","76","L","3","","","112","main_expt"
"363","","bandit","191","460918","0.0-152.0-0.0","59945591","wem/bandit_either","A1CH3TODZNQCES","either","1","","","","","","","1","0","0","0.4350762846","","0.8","0.4","0.2","0.6","","","","","0.234725565","0.1205999431","0.05501139052","0.4350762846","","","","","","","76","L","3","","","113","main_expt"
"57","","bandit","192","462492","0.0-153.0-0.0","59945591","wem/bandit_either","A1CH3TODZNQCES","either","1","","","","","","","0","0","1","","0.4315824664","0.8","0.4","0.2","0.6","0.1950215869","0.09123355482","0.07627702456","0.4315824664","","","","","","","","","","","76","L","3","","","114","main_expt"
"380","","bandit","193","464390","0.0-154.0-0.0","59945591","wem/bandit_either","A1CH3TODZNQCES","either","1","","","","","","","1","0","0","0.4127349624","","0.8","0.4","0.2","0.6","","","","","0.2575833325","0.09554471192","0.03985247356","0.4127349624","","","","","","","76","L","3","","","115","main_expt"
"836","","bandit","194","466744","0.0-155.0-0.0","59945591","wem/bandit_either","A1CH3TODZNQCES","either","1","","","","","","","0","0","1","","0.4468356006","0.8","0.4","0.2","0.6","0.2296468005","0.1942182492","0.0683792979","0.4468356006","","","","","","","","","","","76","L","3","","","116","main_expt"
"124","","bandit","195","468385","0.0-156.0-0.0","59945591","wem/bandit_either","A1CH3TODZNQCES","either","1","","","","","","","0","0","1","0.4458703805","","0.8","0.4","0.2","0.6","","","","","0.2816483341","0.2208250117","0.03956212276","0.4458703805","","","","","","","76","L","3","","","117","main_expt"
"233","","bandit","196","470134","0.0-157.0-0.0","59945591","wem/bandit_either","A1CH3TODZNQCES","either","1","","","","","","","0","0","1","0.4500370674","","0.8","0.4","0.2","0.6","","","","","0.2626769985","0.1687975443","0.04459229253","0.4500370674","","","","","","","76","L","3","","","118","main_expt"
"107","","bandit","197","471748","0.0-158.0-0.0","59945591","wem/bandit_either","A1CH3TODZNQCES","either","1","","","","","","","0","0","1","","0.4704359259","0.8","0.4","0.2","0.6","0.2418090277","0.1546105485","0.03386957434","0.4704359259","","","","","","","","","","","76","L","3","","","119","main_expt"
"308","","bandit","198","473572","0.0-159.0-0.0","59945591","wem/bandit_either","A1CH3TODZNQCES","either","1","","","","","","","0","0","1","0.4578798539","","0.8","0.4","0.2","0.6","","","","","0.2603236095","0.143668411","0.03305427522","0.4578798539","","","","","","","76","L","3","","","120","main_expt"
"173","","bandit","199","475261","0.0-160.0-0.0","59945591","wem/bandit_either","A1CH3TODZNQCES","either","1","","","","","","","0","0","1","0.4591190262","","0.8","0.4","0.2","0.6","","","","","0.2381785671","0.1098317425","0.03146098963","0.4591190262","","","","","","","76","L","3","","","121","main_expt"
"18","","bandit","200","476797","0.0-161.0-0.0","59945591","wem/bandit_either","A1CH3TODZNQCES","either","1","","","","","","","1","0","0","0.4643737298","","0.8","0.4","0.2","0.6","","","","","0.2388462554","0.1097832873","0.02311797033","0.4643737298","","","","","","","76","L","3","","","122","main_expt"
"347","","bandit","201","478663","0.0-162.0-0.0","59945591","wem/bandit_either","A1CH3TODZNQCES","either","1","","","","","","","1","0","0","0.451586091","","0.8","0.4","0.2","0.6","","","","","0.2079929623","0.1145900252","0.0171261738","0.451586091","","","","","","","76","L","3","","","123","main_expt"
"210","","bandit","202","480390","0.0-163.0-0.0","59945591","wem/bandit_either","A1CH3TODZNQCES","either","1","","","","","","","1","0","0","0.4456906556","","0.8","0.4","0.2","0.6","","","","","0.2148400852","0.1137783892","0.03468299263","0.4456906556","","","","","","","76","L","3","","","124","main_expt"
"66","","bandit","203","481974","0.0-164.0-0.0","59945591","wem/bandit_either","A1CH3TODZNQCES","either","1","","","","","","","0","1","0","","0.4240876494","0.8","0.4","0.2","0.6","0.2185056602","0.145605256","0.02544516396","0.4240876494","","","","","","","","","","","76","L","3","","","125","main_expt"
"100","","bandit","204","483588","0.0-165.0-0.0","59945591","wem/bandit_either","A1CH3TODZNQCES","either","1","","","","","","","1","0","0","0.4008501573","","0.8","0.4","0.2","0.6","","","","","0.2152323899","0.1443839055","0.03059506073","0.4008501573","","","","","","","76","L","3","","","126","main_expt"
"11773","","bandit","205","496878","0.0-166.0-0.0","59945591","wem/bandit_either","A1CH3TODZNQCES","either","1","","","","","","","0","1","0","","0.0339638967","0.8","0.4","0.2","0.6","0.1699446714","0.1434222382","0.0339638967","0.4066073101","","","","","","","","","","","75","K","2","","","127","main_expt"
"47","","bandit","206","498437","0.0-167.0-0.0","59945591","wem/bandit_either","A1CH3TODZNQCES","either","1","","","","","","","0","0","1","","0.02632978063","0.8","0.4","0.2","0.6","0.1299446217","0.1412168693","0.02632978063","0.4270302575","","","","","","","","","","","75","K","2","","","128","main_expt"
"3","","bandit","207","499958","0.0-168.0-0.0","59945591","wem/bandit_either","A1CH3TODZNQCES","either","1","","","","","","","0","0","1","0.02640977482","","0.8","0.4","0.2","0.6","","","","","0.1299487573","0.1086871361","0.02640977482","0.4401824822","","","","","","","75","K","2","","","129","main_expt"
"1500","","bandit","208","502975","0.0-169.0-0.0","59945591","wem/bandit_either","A1CH3TODZNQCES","either","1","","","","","","","0","0","1","","0.03646961518","0.8","0.4","0.2","0.6","0.1172580566","0.1672766288","0.03646961518","0.4160959849","","","","","","","","","","","75","K","2","","","130","main_expt"
"593","","bandit","209","505085","0.0-170.0-0.0","59945591","wem/bandit_either","A1CH3TODZNQCES","either","1","","","","","","","0","0","1","","0.02171712127","0.8","0.4","0.2","0.6","0.1289979545","0.157110596","0.02171712127","0.4374535298","","","","","","","","","","","75","K","2","","","131","main_expt"
"10545","","bandit","210","517143","0.0-171.0-0.0","59945591","wem/bandit_either","A1CH3TODZNQCES","either","1","","","","","","","0","0","1","0.1243754988","","0.8","0.4","0.2","0.6","","","","","0.1243754988","0.1338697581","0.01004766493","0.4382483821","","","","","","","72","H","0","img/none_selected.jpg","","132","main_expt"
"353","","bandit","211","519014","0.0-172.0-0.0","59945591","wem/bandit_either","A1CH3TODZNQCES","either","1","","","","","","","0","1","0","","0.1101669797","0.8","0.4","0.2","0.6","0.1189203389","0.1101669797","0.005153708139","0.3913946914","","","","","","","","","","","74","J","1","","","133","main_expt"
"881","","bandit","212","521406","0.0-173.0-0.0","59945591","wem/bandit_either","A1CH3TODZNQCES","either","1","","","","","","","0","0","1","","0.060775537","0.8","0.4","0.2","0.6","0.07075860378","0.060775537","0.01308543257","0.4280120537","","","","","","","","","","","74","J","1","","","134","main_expt"
"420","","bandit","213","523345","0.0-174.0-0.0","59945591","wem/bandit_either","A1CH3TODZNQCES","either","1","","","","","","","0","0","1","","0.0714416082","0.8","0.4","0.2","0.6","0.1073185777","0.0714416082","0.02634180281","0.4385213509","","","","","","","","","","","74","J","1","","","135","main_expt"
"297","","bandit","214","525159","0.0-175.0-0.0","59945591","wem/bandit_either","A1CH3TODZNQCES","either","1","","","","","","","0","0","1","","0.1115096907","0.8","0.4","0.2","0.6","0.1001442491","0.1115096907","0.04122629063","0.4605212521","","","","","","","","","","","74","J","1","","","136","main_expt"
"603","","bandit","215","527279","0.0-176.0-0.0","59945591","wem/bandit_either","A1CH3TODZNQCES","either","1","","","","","","","0","1","0","","0.1307091067","0.8","0.4","0.2","0.6","0.1736681681","0.1307091067","0.05517648788","0.4729500637","","","","","","","","","","","74","J","1","","","137","main_expt"
"32","","bandit","216","528830","0.0-177.0-0.0","59945591","wem/bandit_either","A1CH3TODZNQCES","either","1","","","","","","","0","0","1","","0.1289533412","0.8","0.4","0.2","0.6","0.1839908368","0.1289533412","0.05929415862","0.4705425907","","","","","","","","","","","74","J","1","","","138","main_expt"
"217","","bandit","217","530565","0.0-178.0-0.0","59945591","wem/bandit_either","A1CH3TODZNQCES","either","1","","","","","","","0","0","1","","0.1215972271","0.8","0.4","0.2","0.6","0.1500833973","0.1215972271","0.05470710098","0.465423541","","","","","","","","","","","74","J","1","","","139","main_expt"
"148","","bandit","218","532230","0.0-179.0-0.0","59945591","wem/bandit_either","A1CH3TODZNQCES","either","1","","","","","","","0","0","1","","0.1158179575","0.8","0.4","0.2","0.6","0.1718879457","0.1158179575","0.06062538604","0.4486857012","","","","","","","","","","","74","J","1","","","140","main_expt"
"268","","bandit","219","534011","0.0-180.0-0.0","59945591","wem/bandit_either","A1CH3TODZNQCES","either","1","","","","","","","0","0","1","","0.08691297649","0.8","0.4","0.2","0.6","0.2025036279","0.08691297649","0.05819772386","0.4053061298","","","","","","","","","","","74","J","1","","","141","main_expt"
"380","","bandit","220","535911","0.0-181.0-0.0","59945591","wem/bandit_either","A1CH3TODZNQCES","either","1","","","","","","","0","0","1","","0.1425267255","0.8","0.4","0.2","0.6","0.1872564568","0.1425267255","0.05329701838","0.3989731656","","","","","","","","","","","74","J","1","","","142","main_expt"
"40","","bandit","221","537469","0.0-182.0-0.0","59945591","wem/bandit_either","A1CH3TODZNQCES","either","1","","","","","","","0","1","0","","0.06209903385","0.8","0.4","0.2","0.6","0.1676641842","0.1425141192","0.06209903385","0.3783570596","","","","","","","","","","","75","K","2","","","143","main_expt"
"594","","bandit","222","539580","0.0-183.0-0.0","59945591","wem/bandit_either","A1CH3TODZNQCES","either","1","","","","","","","0","0","1","0.06954729647","","0.8","0.4","0.2","0.6","","","","","0.1502987652","0.1362652721","0.06954729647","0.3485663762","","","","","","","75","K","2","","","144","main_expt"
"531","","bandit","223","541631","0.0-184.0-0.0","59945591","wem/bandit_either","A1CH3TODZNQCES","either","1","","","","","","","0","0","1","0.062760129","","0.8","0.4","0.2","0.6","","","","","0.1050568962","0.1335650053","0.062760129","0.3534190037","","","","","","","75","K","2","","","145","main_expt"
"490","","bandit","224","543638","0.0-185.0-0.0","59945591","wem/bandit_either","A1CH3TODZNQCES","either","1","","","","","","","0","0","1","","0.05014677947","0.8","0.4","0.2","0.6","0.1266784727","0.1392461982","0.05014677947","0.342282706","","","","","","","","","","","75","K","2","","","146","main_expt"
"195","","bandit","225","545352","0.0-186.0-0.0","59945591","wem/bandit_either","A1CH3TODZNQCES","either","1","","","","","","","0","0","1","","0.04801868921","0.8","0.4","0.2","0.6","0.1121887101","0.1060810453","0.04801868921","0.3497384939","","","","","","","","","","","75","K","2","","","147","main_expt"
"609","","bandit","226","547479","0.0-187.0-0.0","59945591","wem/bandit_either","A1CH3TODZNQCES","either","1","","","","","","","0","0","1","0.1050077765","","0.8","0.4","0.2","0.6","","","","","0.1050077765","0.1076054289","0.05298179562","0.3507348305","","","","","","","72","H","0","img/none_selected.jpg","","148","main_expt"
"426","","bandit","227","549422","0.0-188.0-0.0","59945591","wem/bandit_either","A1CH3TODZNQCES","either","1","","","","","","","0","0","1","0.08725679698","","0.8","0.4","0.2","0.6","","","","","0.08725679698","0.09143227578","0.05271587927","0.306786392","","","","","","","72","H","0","img/none_selected.jpg","","149","main_expt"
"161","","bandit","228","551102","0.0-189.0-0.0","59945591","wem/bandit_either","A1CH3TODZNQCES","either","1","","","","","","","0","0","1","0.04813781364","","0.8","0.4","0.2","0.6","","","","","0.04813781364","0.08361181256","0.06153260368","0.3289077467","","","","","","","72","H","0","img/none_selected.jpg","","150","main_expt"
"435","","bandit","229","553045","0.0-190.0-0.0","59945591","wem/bandit_either","A1CH3TODZNQCES","either","1","","","","","","","0","0","1","","0.1038450747","0.8","0.4","0.2","0.6","0.04690393958","0.1038450747","0.07716317934","0.2844912386","","","","","","","","","","","74","J","1","","","151","main_expt"
"328","","bandit","230","554887","0.0-191.0-0.0","59945591","wem/bandit_either","A1CH3TODZNQCES","either","1","","","","","","","0","0","1","","0.08370894892","0.8","0.4","0.2","0.6","0.05051779207","0.1311897928","0.08370894892","0.3221551402","","","","","","","","","","","75","K","2","","","152","main_expt"
"850","","bandit","231","557254","0.0-192.0-0.0","59945591","wem/bandit_either","A1CH3TODZNQCES","either","1","","","","","","","0","0","1","0.288581716","","0.8","0.4","0.2","0.6","","","","","0.0417019452","0.1106636196","0.06235129306","0.288581716","","","","","","","76","L","3","","","153","main_expt"
"90","","bandit","232","558856","0.0-193.0-0.0","59945591","wem/bandit_either","A1CH3TODZNQCES","either","1","","","","","","","0","0","1","","0.3674714493","0.8","0.4","0.2","0.6","0.04565059468","0.08044616817","0.08808261531","0.3674714493","","","","","","","","","","","76","L","3","","","154","main_expt"
"649","","bandit","233","561022","0.0-194.0-0.0","59945591","wem/bandit_either","A1CH3TODZNQCES","either","1","","","","","","","0","0","1","0.3836765626","","0.8","0.4","0.2","0.6","","","","","0.0249337719","0.09849608375","0.08415746701","0.3836765626","","","","","","","76","L","3","","","155","main_expt"
"551","","bandit","234","563092","0.0-195.0-0.0","59945591","wem/bandit_either","A1CH3TODZNQCES","either","1","","","","","","","1","0","0","0.3499766022","","0.8","0.4","0.2","0.6","","","","","0.0207568711","0.0679626842","0.1363215429","0.3499766022","","","","","","","76","L","3","","","156","main_expt"
"916","","bandit","235","565517","0.0-196.0-0.0","59945591","wem/bandit_either","A1CH3TODZNQCES","either","1","","","","","","","0","0","1","","0.3083455354","0.8","0.4","0.2","0.6","0.01044871803","0.06316877849","0.176329139","0.3083455354","","","","","","","","","","","76","L","3","","","157","main_expt"
"408","","bandit","236","567446","0.0-197.0-0.0","59945591","wem/bandit_either","A1CH3TODZNQCES","either","1","","","","","","","0","0","1","0.06381796224","","0.8","0.4","0.2","0.6","","","","","0.008486032171","0.06381796224","0.2239815039","0.2780985587","","","","","","","74","J","1","","","158","main_expt"
"178","","bandit","237","569136","0.0-198.0-0.0","59945591","wem/bandit_either","A1CH3TODZNQCES","either","1","","","","","","","0","0","1","","0.1754735631","0.8","0.4","0.2","0.6","0.006770001311","0.09986374221","0.1754735631","0.2721424699","","","","","","","","","","","75","K","2","","","159","main_expt"
"223","","bandit","238","570878","0.0-199.0-0.0","59945591","wem/bandit_either","A1CH3TODZNQCES","either","1","","","","","","","0","0","1","0.005009972043","","0.8","0.4","0.2","0.6","","","","","0.005009972043","0.08334790929","0.1820859676","0.3005636977","","","","","","","72","H","0","img/none_selected.jpg","","160","main_expt"
"68","","bandit","239","572462","0.0-200.0-0.0","59945591","wem/bandit_either","A1CH3TODZNQCES","either","1","","","","","","","0","0","1","0.1094566723","","0.8","0.4","0.2","0.6","","","","","0.003825417776","0.1094566723","0.1771527669","0.2481613967","","","","","","","74","J","1","","","161","main_expt"
"240","","bandit","240","574223","0.0-201.0-0.0","59945591","wem/bandit_either","A1CH3TODZNQCES","either","1","","","","","","","0","1","0","","0.209245514","0.8","0.4","0.2","0.6","0.006458278423","0.1287108975","0.209245514","0.2040880477","","","","","","","","","","","75","K","2","","","162","main_expt"
"265","","bandit","241","576006","0.0-202.0-0.0","59945591","wem/bandit_either","A1CH3TODZNQCES","either","1","","","","","","","0","0","1","","0.1864252411","0.8","0.4","0.2","0.6","0.01344146107","0.1811808859","0.1864252411","0.256608811","","","","","","","","","","","75","K","2","","","163","main_expt"
"457","","bandit","242","577983","0.0-203.0-0.0","59945591","wem/bandit_either","A1CH3TODZNQCES","either","1","","","","","","","0","1","0","","0.1662237337","0.8","0.4","0.2","0.6","0.004940614731","0.1374611454","0.1662237337","0.2798468236","","","","","","","","","","","75","K","2","","","164","main_expt"
"300","","bandit","243","579800","0.0-204.0-0.0","59945591","wem/bandit_either","A1CH3TODZNQCES","either","1","","","","","","","0","0","1","","0.1375661656","0.8","0.4","0.2","0.6","0.007349038951","0.1640313333","0.1375661656","0.2689568899","","","","","","","","","","","75","K","2","","","165","main_expt"
"397","","bandit","244","581718","0.0-205.0-0.0","59945591","wem/bandit_either","A1CH3TODZNQCES","either","1","","","","","","","1","0","0","0.1416727521","","0.8","0.4","0.2","0.6","","","","","0.005679103294","0.20052236","0.1416727521","0.2786045926","","","","","","","75","K","2","","","166","main_expt"
"369","","bandit","245","583604","0.0-206.0-0.0","59945591","wem/bandit_either","A1CH3TODZNQCES","either","1","","","","","","","0","1","0","","0.1497541138","0.8","0.4","0.2","0.6","0.004037182679","0.1945206589","0.1497541138","0.2507583434","","","","","","","","","","","75","K","2","","","167","main_expt"
"433","","bandit","246","585556","0.0-207.0-0.0","59945591","wem/bandit_either","A1CH3TODZNQCES","either","1","","","","","","","0","0","1","","0.1761460581","0.8","0.4","0.2","0.6","0.007111326723","0.1902154162","0.1761460581","0.1827624484","","","","","","","","","","","75","K","2","","","168","main_expt"
"737","","bandit","247","587807","0.0-208.0-0.0","59945591","wem/bandit_either","A1CH3TODZNQCES","either","1","","","","","","","0","0","1","","0.2248215173","0.8","0.4","0.2","0.6","0.01708305062","0.1931964682","0.2248215173","0.1558723634","","","","","","","","","","","75","K","2","","","169","main_expt"
"799","","bandit","248","590125","0.0-209.0-0.0","59945591","wem/bandit_either","A1CH3TODZNQCES","either","1","","","","","","","0","0","1","0.2503105048","","0.8","0.4","0.2","0.6","","","","","0.02105388628","0.236179436","0.2503105048","0.1757164868","","","","","","","75","K","2","","","170","main_expt"
"565","","bandit","249","592199","0.0-210.0-0.0","59945591","wem/bandit_either","A1CH3TODZNQCES","either","1","","","","","","","0","0","1","","0.2515708499","0.8","0.4","0.2","0.6","0.01477187034","0.2229285478","0.2515708499","0.1985597056","","","","","","","","","","","75","K","2","","","171","main_expt"
"702","","bandit","250","594421","0.0-211.0-0.0","59945591","wem/bandit_either","A1CH3TODZNQCES","either","1","","","","","","","0","0","1","","0.2601117771","0.8","0.4","0.2","0.6","0.00639283578","0.1805811295","0.2601117771","0.1725269859","","","","","","","","","","","75","K","2","","","172","main_expt"
"13","","bandit","251","595954","0.0-212.0-0.0","59945591","wem/bandit_either","A1CH3TODZNQCES","either","1","","","","","","","0","0","1","0.008503536177","","0.8","0.4","0.2","0.6","","","","","0.008503536177","0.2203049146","0.2277859889","0.1955807132","","","","","","","72","H","0","img/none_selected.jpg","","173","main_expt"
"188","","bandit","252","597663","0.0-213.0-0.0","59945591","wem/bandit_either","A1CH3TODZNQCES","either","1","","","","","","","0","0","1","0.2079245196","","0.8","0.4","0.2","0.6","","","","","0.01512836446","0.2079245196","0.204090619","0.1712969398","","","","","","","74","J","1","","","174","main_expt"
"408","","bandit","253","599589","0.0-214.0-0.0","59945591","wem/bandit_either","A1CH3TODZNQCES","either","1","","","","","","","0","1","0","","0.2264282848","0.8","0.4","0.2","0.6","0.034550241","0.1904909119","0.2264282848","0.2145566876","","","","","","","","","","","75","K","2","","","175","main_expt"
"306","","bandit","254","601415","0.0-215.0-0.0","59945591","wem/bandit_either","A1CH3TODZNQCES","either","1","","","","","","","0","0","1","","0.2263436383","0.8","0.4","0.2","0.6","0.01969997198","0.1611975006","0.2263436383","0.1987050603","","","","","","","","","","","75","K","2","","","176","main_expt"
"72","","bandit","255","603003","0.0-216.0-0.0","59945591","wem/bandit_either","A1CH3TODZNQCES","either","1","","","","","","","0","0","1","","0.2449632337","0.8","0.4","0.2","0.6","0.02558747067","0.1747210449","0.2449632337","0.2161967517","","","","","","","","","","","75","K","2","","","177","main_expt"
"251","","bandit","256","604765","0.0-217.0-0.0","59945591","wem/bandit_either","A1CH3TODZNQCES","either","1","","","","","","","0","0","1","","0.1923885174","0.8","0.4","0.2","0.6","0.02865462312","0.1667690144","0.1923885174","0.1790488899","","","","","","","","","","","75","K","2","","","178","main_expt"
"555","","bandit","257","606839","0.0-218.0-0.0","59945591","wem/bandit_either","A1CH3TODZNQCES","either","1","","","","","","","0","0","1","0.1791230597","","0.8","0.4","0.2","0.6","","","","","0.05873937836","0.248539666","0.1791230597","0.1254539317","","","","","","","75","K","2","","","179","main_expt"
"295","","bandit","258","608655","0.0-219.0-0.0","59945591","wem/bandit_either","A1CH3TODZNQCES","either","1","","","","","","","0","0","1","","0.1641305094","0.8","0.4","0.2","0.6","0.04996702027","0.2393284063","0.1641305094","0.1761702366","","","","","","","","","","","75","K","2","","","180","main_expt"
"263","","bandit","259","610436","0.0-220.0-0.0","59945591","wem/bandit_either","A1CH3TODZNQCES","either","1","","","","","","","0","0","1","","0.1567194189","0.8","0.4","0.2","0.6","0.06192223509","0.2450765022","0.1567194189","0.2307221343","","","","","","","","","","","75","K","2","","","181","main_expt"
"442","","bandit","260","612400","0.0-221.0-0.0","59945591","wem/bandit_either","A1CH3TODZNQCES","either","1","","","","","","","0","0","1","","0.1805899487","0.8","0.4","0.2","0.6","0.07865608963","0.2898963007","0.1805899487","0.1656926355","","","","","","","","","","","75","K","2","","","182","main_expt"
"553","","bandit","261","614471","0.0-222.0-0.0","59945591","wem/bandit_either","A1CH3TODZNQCES","either","1","","","","","","","0","0","1","","0.1381226487","0.8","0.4","0.2","0.6","0.0695036973","0.337419987","0.1381226487","0.1997223474","","","","","","","","","","","75","K","2","","","183","main_expt"
"158","","bandit","262","616150","0.0-223.0-0.0","59945591","wem/bandit_either","A1CH3TODZNQCES","either","1","","","","","","","0","0","1","","0.3334404967","0.8","0.4","0.2","0.6","0.09883674892","0.3334404967","0.1157029232","0.1936006223","","","","","","","","","","","74","J","1","","","184","main_expt"
"359","","bandit","263","618030","0.0-224.0-0.0","59945591","wem/bandit_either","A1CH3TODZNQCES","either","1","","","","","","","1","0","0","0.3049781316","","0.8","0.4","0.2","0.6","","","","","0.1344132801","0.3049781316","0.09007466759","0.1794548994","","","","","","","74","J","1","","","185","main_expt"
"318","","bandit","264","619870","0.0-225.0-0.0","59945591","wem/bandit_either","A1CH3TODZNQCES","either","1","","","","","","","0","0","1","0.322039184","","0.8","0.4","0.2","0.6","","","","","0.1194183803","0.322039184","0.07784091677","0.1679588243","","","","","","","74","J","1","","","186","main_expt"
"424","","bandit","265","621814","0.0-226.0-0.0","59945591","wem/bandit_either","A1CH3TODZNQCES","either","1","","","","","","","0","0","1","0.2898485093","","0.8","0.4","0.2","0.6","","","","","0.1456002269","0.2898485093","0.1332261693","0.1692259204","","","","","","","74","J","1","","","187","main_expt"
"362","","bandit","266","623696","0.0-227.0-0.0","59945591","wem/bandit_either","A1CH3TODZNQCES","either","1","","","","","","","0","0","1","0.3046836684","","0.8","0.4","0.2","0.6","","","","","0.1008589119","0.3046836684","0.1302169342","0.1796926114","","","","","","","74","J","1","","","188","main_expt"
"316","","bandit","267","625534","0.0-228.0-0.0","59945591","wem/bandit_either","A1CH3TODZNQCES","either","1","","","","","","","0","1","0","","0.3437642557","0.8","0.4","0.2","0.6","0.09109327247","0.3437642557","0.1459867673","0.1463090895","","","","","","","","","","","74","J","1","","","189","main_expt"
"464","","bandit","268","627517","0.0-229.0-0.0","59945591","wem/bandit_either","A1CH3TODZNQCES","either","1","","","","","","","0","0","1","","0.3685715368","0.8","0.4","0.2","0.6","0.133333279","0.3685715368","0.1930387326","0.1670442817","","","","","","","","","","","74","J","1","","","190","main_expt"
"401","","bandit","269","629438","0.0-230.0-0.0","59945591","wem/bandit_either","A1CH3TODZNQCES","either","1","","","","","","","0","0","1","0.4063368095","","0.8","0.4","0.2","0.6","","","","","0.1253338948","0.4063368095","0.1447045196","0.2148667481","","","","","","","74","J","1","","","191","main_expt"
"347","","bandit","270","631303","0.0-231.0-0.0","59945591","wem/bandit_either","A1CH3TODZNQCES","either","1","","","","","","","0","0","1","","0.4194789623","0.8","0.4","0.2","0.6","0.1371372983","0.4194789623","0.1521301445","0.1891029698","","","","","","","","","","","74","J","1","","","192","main_expt"
"310","","bandit","271","633130","0.0-232.0-0.0","59945591","wem/bandit_either","A1CH3TODZNQCES","either","1","","","","","","","0","0","1","0.1269519223","","0.8","0.4","0.2","0.6","","","","","0.1269519223","0.3914453041","0.1216552598","0.1818436489","","","","","","","72","H","0","img/none_selected.jpg","","193","main_expt"
"478","","bandit","272","635128","0.0-233.0-0.0","59945591","wem/bandit_either","A1CH3TODZNQCES","either","1","","","","","","","0","0","1","0.1253972088","","0.8","0.4","0.2","0.6","","","","","0.1253972088","0.3988429791","0.07681554104","0.2036833838","","","","","","","72","H","0","img/none_selected.jpg","","194","main_expt"
"246","","bandit","273","636893","0.0-234.0-0.0","59945591","wem/bandit_either","A1CH3TODZNQCES","either","1","","","","","","","1","0","0","0.4212514022","","0.8","0.4","0.2","0.6","","","","","0.1231557279","0.4212514022","0.07468822185","0.2189502041","","","","","","","74","J","1","","","195","main_expt"
"335","","bandit","274","638742","0.0-235.0-0.0","59945591","wem/bandit_either","A1CH3TODZNQCES","either","1","","","","","","","0","1","0","","0.4128950903","0.8","0.4","0.2","0.6","0.2304226507","0.4128950903","0.07634526252","0.2011136523","","","","","","","","","","","74","J","1","","","196","main_expt"
"325","","bandit","275","640583","0.0-236.0-0.0","59945591","wem/bandit_either","A1CH3TODZNQCES","either","1","","","","","","","0","0","1","0.3979973083","","0.8","0.4","0.2","0.6","","","","","0.3102822931","0.3979973083","0.06680697181","0.2295646827","","","","","","","74","J","1","","","197","main_expt"
"294","","bandit","276","642398","0.0-237.0-0.0","59945591","wem/bandit_either","A1CH3TODZNQCES","either","1","","","","","","","0","1","0","","0.3153467244","0.8","0.4","0.2","0.6","0.3222054514","0.3153467244","0.05107679344","0.2570874699","","","","","","","","","","","74","J","1","","","198","main_expt"
"355","","bandit","277","644272","0.0-238.0-0.0","59945591","wem/bandit_either","A1CH3TODZNQCES","either","1","","","","","","","0","0","1","0.3121882746","","0.8","0.4","0.2","0.6","","","","","0.3416159467","0.3121882746","0.06140804873","0.2215013189","","","","","","","74","J","1","","","199","main_expt"
"1607","","bandit","278","647401","0.0-239.0-0.0","59945591","wem/bandit_either","A1CH3TODZNQCES","either","1","","","","","","","0","1","0","","0.3789620948","0.8","0.4","0.2","0.6","0.3826655938","0.3789620948","0.05697288244","0.1681318695","","","","","","","","","","","74","J","1","","","200","main_expt"
"1348","","bandit","279","650270","0.0-240.0-0.0","59945591","wem/bandit_either","A1CH3TODZNQCES","either","1","","","","","","","1","0","0","0.3575696279","","0.8","0.4","0.2","0.6","","","","","0.4117435103","0.3575696279","0.04802221103","0.1787039029","","","","","","","74","J","1","","","201","main_expt"
"319","","bandit","280","652110","0.0-241.0-0.0","59945591","wem/bandit_either","A1CH3TODZNQCES","either","1","","","","","","","1","0","0","0.3937046418","","0.8","0.4","0.2","0.6","","","","","0.4023622846","0.3937046418","0.04583536071","0.2180442152","","","","","","","74","J","1","","","202","main_expt"
"348","","bandit","281","653968","0.0-242.0-0.0","59945591","wem/bandit_either","A1CH3TODZNQCES","either","1","","","","","","","0","1","0","","0.3901943722","0.8","0.4","0.2","0.6","0.4225273878","0.3901943722","0.03655969434","0.262784421","","","","","","","","","","","74","J","1","","","203","main_expt"
"430","","bandit","282","655920","0.0-243.0-0.0","59945591","wem/bandit_either","A1CH3TODZNQCES","either","1","","","","","","","1","0","0","0.4099131859","","0.8","0.4","0.2","0.6","","","","","0.4151046429","0.4099131859","0.05773518339","0.2843732649","","","","","","","74","J","1","","","204","main_expt"
"1718","","bandit","283","659158","0.0-244.0-0.0","59945591","wem/bandit_either","A1CH3TODZNQCES","either","1","","","","","","","0","1","0","","0.4238238901","0.8","0.4","0.2","0.6","0.4288165897","0.4238238901","0.06616346658","0.2549063301","","","","","","","","","","","74","J","1","","","205","main_expt"
"2448","","bandit","284","663128","0.0-245.0-0.0","59945591","wem/bandit_either","A1CH3TODZNQCES","either","1","","","","","","","0","1","0","","0.4139837541","0.8","0.4","0.2","0.6","0.436745712","0.4139837541","0.09055598832","0.2982701688","","","","","","","","","","","74","J","1","","","206","main_expt"
"392","","bandit","285","665040","0.0-246.0-0.0","59945591","wem/bandit_either","A1CH3TODZNQCES","either","1","","","","","","","0","0","1","","0.3544894801","0.8","0.4","0.2","0.6","0.4484652972","0.3544894801","0.07583085731","0.3423773839","","","","","","","","","","","74","J","1","","","207","main_expt"
"570","","bandit","286","667127","0.0-247.0-0.0","59945591","wem/bandit_either","A1CH3TODZNQCES","either","1","","","","","","","1","0","0","0.3703609936","","0.8","0.4","0.2","0.6","","","","","0.4516947584","0.3703609936","0.09768014643","0.3321535101","","","","","","","74","J","1","","","208","main_expt"
"389","","bandit","287","669029","0.0-248.0-0.0","59945591","wem/bandit_either","A1CH3TODZNQCES","either","1","","","","","","","0","0","1","","0.3590511704","0.8","0.4","0.2","0.6","0.4590139285","0.3590511704","0.08389795445","0.3467721984","","","","","","","","","","","74","J","1","","","209","main_expt"
"1516","","bandit","288","672065","0.0-249.0-0.0","59945591","wem/bandit_either","A1CH3TODZNQCES","either","1","","","","","","","0","0","1","0.3781523972","","0.8","0.4","0.2","0.6","","","","","0.4378910613","0.3781523972","0.07846525543","0.3513447539","","","","","","","74","J","1","","","210","main_expt"
"531","","bandit","289","674119","0.0-250.0-0.0","59945591","wem/bandit_either","A1CH3TODZNQCES","either","1","","","","","","","0","0","1","0.3895188655","","0.8","0.4","0.2","0.6","","","","","0.4139384991","0.3895188655","0.05906932722","0.4003692624","","","","","","","74","J","1","","","211","main_expt"
"416","","bandit","290","676056","0.0-251.0-0.0","59945591","wem/bandit_either","A1CH3TODZNQCES","either","1","","","","","","","0","0","1","0.4075098947","","0.8","0.4","0.2","0.6","","","","","0.3659234609","0.4075098947","0.04754192311","0.3949660502","","","","","","","74","J","1","","","212","main_expt"
"435","","bandit","291","678008","0.0-252.0-0.0","59945591","wem/bandit_either","A1CH3TODZNQCES","either","1","","","","","","","0","0","1","","0.4191075236","0.8","0.4","0.2","0.6","0.3180572988","0.4191075236","0.05481920189","0.4233479157","","","","","","","","","","","74","J","1","","","213","main_expt"
"463","","bandit","292","679991","0.0-253.0-0.0","59945591","wem/bandit_either","A1CH3TODZNQCES","either","1","","","","","","","0","0","1","0.3799529118","","0.8","0.4","0.2","0.6","","","","","0.2611162072","0.3799529118","0.07954578011","0.4182751871","","","","","","","74","J","1","","","214","main_expt"
"634","","bandit","293","682145","0.0-254.0-0.0","59945591","wem/bandit_either","A1CH3TODZNQCES","either","1","","","","","","","0","1","0","","0.3924699069","0.8","0.4","0.2","0.6","0.2331309726","0.3924699069","0.1078137614","0.3745823719","","","","","","","","","","","74","J","1","","","215","main_expt"
"511","","bandit","294","684177","0.0-255.0-0.0","59945591","wem/bandit_either","A1CH3TODZNQCES","either","1","","","","","","","1","0","0","0.3556657658","","0.8","0.4","0.2","0.6","","","","","0.2428402293","0.3556657658","0.1269525553","0.3809837923","","","","","","","74","J","1","","","216","main_expt"
"454","","bandit","295","686152","0.0-256.0-0.0","59945591","wem/bandit_either","A1CH3TODZNQCES","either","1","","","","","","","0","0","1","","0.3870416945","0.8","0.4","0.2","0.6","0.2317762644","0.3870416945","0.1849794572","0.4144294186","","","","","","","","","","","74","J","1","","","217","main_expt"
"381","","bandit","296","688054","0.0-257.0-0.0","59945591","wem/bandit_either","A1CH3TODZNQCES","either","1","","","","","","","0","0","1","","0.1903787706","0.8","0.4","0.2","0.6","0.204309912","0.3944581396","0.1903787706","0.4090742927","","","","","","","","","","","75","K","2","","","218","main_expt"
"67","","bandit","297","689639","0.0-258.0-0.0","59945591","wem/bandit_either","A1CH3TODZNQCES","either","1","","","","","","","0","0","1","0.1685596251","","0.8","0.4","0.2","0.6","","","","","0.1685596251","0.4256173987","0.1768508397","0.3869695378","","","","","","","72","H","0","img/none_selected.jpg","","219","main_expt"
"189","","bandit","298","691352","0.0-259.0-0.0","59945591","wem/bandit_either","A1CH3TODZNQCES","either","1","","","","","","","0","0","1","0.3814250035","","0.8","0.4","0.2","0.6","","","","","0.2488487331","0.4240862242","0.2176561852","0.3814250035","","","","","","","76","L","3","","","220","main_expt"
"384","","bandit","299","693258","0.0-260.0-0.0","59945591","wem/bandit_either","A1CH3TODZNQCES","either","1","","","","","","","0","0","1","","0.3560431311","0.8","0.4","0.2","0.6","0.2789816034","0.4364702466","0.2075488201","0.3560431311","","","","","","","","","","","76","L","3","","","221","main_expt"
"30","","bandit","300","694804","0.0-261.0-0.0","59945591","wem/bandit_either","A1CH3TODZNQCES","either","1","","","","","","","0","0","1","0.4512924842","","0.8","0.4","0.2","0.6","","","","","0.242729834","0.4512924842","0.2260831429","0.3424215647","","","","","","","74","J","1","","","222","main_expt"
"576","","bandit","301","696904","0.0-262.0-0.0","59945591","wem/bandit_either","A1CH3TODZNQCES","either","1","","","","","","","0","1","0","","0.4649948574","0.8","0.4","0.2","0.6","0.196538567","0.4649948574","0.2512075751","0.3118962833","","","","","","","","","","","74","J","1","","","223","main_expt"
"1551","","bandit","302","699975","0.0-263.0-0.0","59945591","wem/bandit_either","A1CH3TODZNQCES","either","1","","","","","","","0","1","0","","0.4692106987","0.8","0.4","0.2","0.6","0.2189223785","0.4692106987","0.3072691987","0.261290028","","","","","","","","","","","74","J","1","","","224","main_expt"
"829","","bandit","303","702327","0.0-264.0-0.0","59945591","wem/bandit_either","A1CH3TODZNQCES","either","1","","","","","","","0","1","0","","0.4772226815","0.8","0.4","0.2","0.6","0.2131207899","0.4772226815","0.3358063032","0.2748104332","","","","","","","","","","","74","J","1","","","225","main_expt"
"158","","bandit","304","704007","0.0-265.0-0.0","59945591","wem/bandit_either","A1CH3TODZNQCES","either","1","","","","","","","0","1","0","","0.4828013869","0.8","0.4","0.2","0.6","0.187439681","0.4828013869","0.2994610032","0.2112523614","","","","","","","","","","","74","J","1","","","226","main_expt"
"608","","bandit","305","706134","0.0-266.0-0.0","59945591","wem/bandit_either","A1CH3TODZNQCES","either","1","","","","","","","0","1","0","","0.4805292857","0.8","0.4","0.2","0.6","0.1522087394","0.4805292857","0.2719992041","0.1879164098","","","","","","","","","","","74","J","1","","","227","main_expt"
"887","","bandit","306","708543","0.0-267.0-0.0","59945591","wem/bandit_either","A1CH3TODZNQCES","either","1","","","","","","","0","0","1","0.4770879938","","0.8","0.4","0.2","0.6","","","","","0.1975586059","0.4770879938","0.2601066631","0.1857646906","","","","","","","74","J","1","","","228","main_expt"
"771","","bandit","307","710839","0.0-268.0-0.0","59945591","wem/bandit_either","A1CH3TODZNQCES","either","1","","","","","","","0","0","1","","0.4830225504","0.8","0.4","0.2","0.6","0.2280604414","0.4830225504","0.2333982712","0.1608888173","","","","","","","","","","","74","J","1","","","229","main_expt"
"2","","bandit","308","712366","0.0-269.0-0.0","59945591","wem/bandit_either","A1CH3TODZNQCES","either","1","","","","","","","0","0","1","","0.4827210916","0.8","0.4","0.2","0.6","0.2120359748","0.4827210916","0.2179366985","0.1139945837","","","","","","","","","","","74","J","1","","","230","main_expt"
"416","","bandit","309","714305","0.0-270.0-0.0","59945591","wem/bandit_either","A1CH3TODZNQCES","either","1","","","","","","","1","0","0","0.4764813513","","0.8","0.4","0.2","0.6","","","","","0.2260377558","0.4764813513","0.210335649","0.1071229599","","","","","","","74","J","1","","","231","main_expt"
"7557","","bandit","310","723382","0.0-271.0-0.0","59945591","wem/bandit_either","A1CH3TODZNQCES","either","1","","","","","","","1","0","0","0.4794978353","","0.8","0.4","0.2","0.6","","","","","0.2810037348","0.4794978353","0.2154905401","0.1250262501","","","","","","","74","J","1","","","232","main_expt"
"367","","bandit","311","725270","0.0-272.0-0.0","59945591","wem/bandit_either","A1CH3TODZNQCES","either","1","","","","","","","0","1","0","","0.2199054097","0.8","0.4","0.2","0.6","0.3371590923","0.4717583679","0.2199054097","0.1262657767","","","","","","","","","","","75","K","2","","","233","main_expt"
"140","","bandit","312","726935","0.0-273.0-0.0","59945591","wem/bandit_either","A1CH3TODZNQCES","either","1","","","","","","","0","1","0","","0.4801470087","0.8","0.4","0.2","0.6","0.2614597929","0.4801470087","0.2116885818","0.1436583916","","","","","","","","","","","74","J","1","","","234","main_expt"
"69","","bandit","313","728529","0.0-274.0-0.0","59945591","wem/bandit_either","A1CH3TODZNQCES","either","1","","","","","","","0","1","0","","0.4698449305","0.8","0.4","0.2","0.6","0.2855471023","0.4698449305","0.2037112673","0.1776605917","","","","","","","","","","","74","J","1","","","235","main_expt"
"57","","bandit","314","730108","0.0-275.0-0.0","59945591","wem/bandit_either","A1CH3TODZNQCES","either","1","","","","","","","0","0","1","","0.4750890902","0.8","0.4","0.2","0.6","0.2806831757","0.4750890902","0.2295670059","0.2039581082","","","","","","","","","","","74","J","1","","","236","main_expt"
"3","","bandit","315","731636","0.0-276.0-0.0","59945591","wem/bandit_either","A1CH3TODZNQCES","either","1","","","","","","","1","0","0","0.490873849","","0.8","0.4","0.2","0.6","","","","","0.3314479917","0.490873849","0.2602584061","0.1898025468","","","","","","","74","J","1","","","237","main_expt"
"392","","bandit","316","733550","0.0-277.0-0.0","59945591","wem/bandit_either","A1CH3TODZNQCES","either","1","","","","","","","0","0","1","0.4658125052","","0.8","0.4","0.2","0.6","","","","","0.3495093658","0.4658125052","0.2505035884","0.20274426","","","","","","","74","J","1","","","238","main_expt"
"835","","bandit","317","735905","0.0-278.0-0.0","59945591","wem/bandit_either","A1CH3TODZNQCES","either","1","","","","","","","0","0","1","","0.4717810478","0.8","0.4","0.2","0.6","0.3413466471","0.4717810478","0.209031891","0.2051086292","","","","","","","","","","","74","J","1","","","239","main_expt"
"331","","bandit","318","737759","0.0-279.0-0.0","59945591","wem/bandit_either","A1CH3TODZNQCES","either","1","","","","","","","0","1","0","","0.4751676635","0.8","0.4","0.2","0.6","0.3848911707","0.4751676635","0.2203826704","0.1823871945","","","","","","","","","","","74","J","1","","","240","main_expt"
"733","","bandit","319","740014","0.0-280.0-0.0","59945591","wem/bandit_either","A1CH3TODZNQCES","either","1","","","","","","","0","1","0","","0.4782176083","0.8","0.4","0.2","0.6","0.3352713547","0.4782176083","0.2502218434","0.2206124516","","","","","","","","","","","74","J","1","","","241","main_expt"
"943","","bandit","320","742478","0.0-281.0-0.0","59945591","wem/bandit_either","A1CH3TODZNQCES","either","1","","","","","","","0","0","1","0.4842593171","","0.8","0.4","0.2","0.6","","","","","0.3898112853","0.4842593171","0.2465850657","0.1822231347","","","","","","","74","J","1","","","242","main_expt"
"1187","","bandit","321","745191","0.0-282.0-0.0","59945591","wem/bandit_either","A1CH3TODZNQCES","either","1","","","","","","","0","0","1","0.4877308522","","0.8","0.4","0.2","0.6","","","","","0.3746092993","0.4877308522","0.2768687636","0.1782216913","","","","","","","74","J","1","","","243","main_expt"
"952","","bandit","322","747665","0.0-283.0-0.0","59945591","wem/bandit_either","A1CH3TODZNQCES","either","1","","","","","","","0","0","1","","0.4867000748","0.8","0.4","0.2","0.6","0.3551642001","0.4867000748","0.3318130554","0.1683297066","","","","","","","","","","","74","J","1","","","244","main_expt"
"155","","bandit","323","749335","0.0-284.0-0.0","59945591","wem/bandit_either","A1CH3TODZNQCES","either","1","","","","","","","0","0","1","","0.4779689664","0.8","0.4","0.2","0.6","0.3556023966","0.4779689664","0.3549389872","0.2394915997","","","","","","","","","","","74","J","1","","","245","main_expt"
"379","","bandit","324","751239","0.0-285.0-0.0","59945591","wem/bandit_either","A1CH3TODZNQCES","either","1","","","","","","","0","1","0","","0.4691428495","0.8","0.4","0.2","0.6","0.3265039954","0.4691428495","0.333301522","0.2279590519","","","","","","","","","","","74","J","1","","","246","main_expt"
"876","","bandit","325","753637","0.0-286.0-0.0","59945591","wem/bandit_either","A1CH3TODZNQCES","either","1","","","","","","","0","0","1","","0.4726686318","0.8","0.4","0.2","0.6","0.2868106963","0.4726686318","0.3514606933","0.2464238951","","","","","","","","","","","74","J","1","","","247","main_expt"
"583","","bandit","326","755742","0.0-287.0-0.0","59945591","wem/bandit_either","A1CH3TODZNQCES","either","1","","","","","","","0","0","1","","0.4803067915","0.8","0.4","0.2","0.6","0.3185934195","0.4803067915","0.3714826816","0.2743013104","","","","","","","","","","","74","J","1","","","248","main_expt"
"727","","bandit","327","757980","0.0-288.0-0.0","59945591","wem/bandit_either","A1CH3TODZNQCES","either","1","","","","","","","1","0","0","0.4711679289","","0.8","0.4","0.2","0.6","","","","","0.358181829","0.4711679289","0.386783615","0.265015958","","","","","","","74","J","1","","","249","main_expt"
"1095","","bandit","328","760598","0.0-289.0-0.0","59945591","wem/bandit_either","A1CH3TODZNQCES","either","1","","","","","","","0","0","1","","0.4353456883","0.8","0.4","0.2","0.6","0.3548152509","0.4353456883","0.401921917","0.2414596854","","","","","","","","","","","74","J","1","","","250","main_expt"
"577","","bandit","329","762697","0.0-290.0-0.0","59945591","wem/bandit_either","A1CH3TODZNQCES","either","1","","","","","","","0","1","0","","0.4224206017","0.8","0.4","0.2","0.6","0.3481631732","0.4224206017","0.4214807698","0.2747351927","","","","","","","","","","","74","J","1","","","251","main_expt"
"557","","bandit","330","764776","0.0-291.0-0.0","59945591","wem/bandit_either","A1CH3TODZNQCES","either","1","","","","","","","1","0","0","0.4171240554","","0.8","0.4","0.2","0.6","","","","","0.3357984296","0.4171240554","0.3562017588","0.2814651432","","","","","","","74","J","1","","","252","main_expt"
"589","","bandit","331","766888","0.0-292.0-0.0","59945591","wem/bandit_either","A1CH3TODZNQCES","either","1","","","","","","","0","1","0","","0.4255780754","0.8","0.4","0.2","0.6","0.2585495719","0.4255780754","0.2749590952","0.2185424791","","","","","","","","","","","74","J","1","","","253","main_expt"
"548","","bandit","332","768959","0.0-293.0-0.0","59945591","wem/bandit_either","A1CH3TODZNQCES","either","1","","","","","","","0","1","0","","0.4183488494","0.8","0.4","0.2","0.6","0.2503838878","0.4183488494","0.2898909049","0.1714714561","","","","","","","","","","","74","J","1","","","254","main_expt"
"349","","bandit","333","770823","0.0-294.0-0.0","59945591","wem/bandit_either","A1CH3TODZNQCES","either","1","","","","","","","0","1","0","","0.3767889497","0.8","0.4","0.2","0.6","0.3011071058","0.3767889497","0.3175460208","0.1407879831","","","","","","","","","","","74","J","1","","","255","main_expt"
