"rt","responses","trial_type","trial_index","time_elapsed","internal_node_id","subjID","study","MID","cond","drift","key_press","expt_phase","target","like","value","connected","gems","bombs","no_reward","GemPrChosen","BombPrChosen","GainOverPainPr_0","GainOverPainPr_1","GainOverPainPr_2","GainOverPainPr_3","LosePr_0","LosePr_1","LosePr_2","LosePr_3","WinPr_0","WinPr_1","WinPr_2","WinPr_3","Q0","Q1","Q2","gender","age","ethnicity","respCharCode","respKey","respChoiceNum","respChoice","practice","trial_counter","trial_label"
"11630","{""Q0"":""A1CACVD2OGEOXR""}","survey-text","0","11630","0.0-0.0","60287239","wem/bandit_either","A1CACVD2OGEOXR","either","6","","","","","","","","","","","","","","","","","","","","","","","","","","","","","","","","","","","",""
"22989","","text","1","35629","0.0-1.0","60287239","wem/bandit_either","A1CACVD2OGEOXR","either","6","32","","","","","","","","","","","","","","","","","","","","","","","","","","","","","","","","","","",""
"6976","","text","2","42605","0.0-2.0","60287239","wem/bandit_either","A1CACVD2OGEOXR","either","6","32","","","","","","","","","","","","","","","","","","","","","","","","","","","","","","","","","","",""
"48087","","text","3","90692","0.0-3.0","60287239","wem/bandit_either","A1CACVD2OGEOXR","either","6","32","","","","","","","","","","","","","","","","","","","","","","","","","","","","","","","","","","",""
"11331","","text","4","102023","0.0-4.0","60287239","wem/bandit_either","A1CACVD2OGEOXR","either","6","32","","","","","","","","","","","","","","","","","","","","","","","","","","","","","","","","","","",""
"31516","","text","5","133549","0.0-5.0","60287239","wem/bandit_either","A1CACVD2OGEOXR","either","6","32","","","","","","","","","","","","","","","","","","","","","","","","","","","","","","","","","","",""
"20212","","text","6","153761","0.0-6.0","60287239","wem/bandit_either","A1CACVD2OGEOXR","either","6","32","","","","","","","","","","","","","","","","","","","","","","","","","","","","","","","","","","",""
"6225","","text","7","159986","0.0-7.0","60287239","wem/bandit_either","A1CACVD2OGEOXR","either","6","32","","","","","","","","","","","","","","","","","","","","","","","","","","","","","","","","","","",""
"13818","","identification","8","173826","0.0-8.0-0.0","60287239","wem/bandit_either","A1CACVD2OGEOXR","either","6","","identification_pre","the village of Zur","","","","","","","","","","","","","","","","","","","","","","","","","","","","","","","","",""
"13063","","identification","9","187909","0.0-8.0-1.0","60287239","wem/bandit_either","A1CACVD2OGEOXR","either","6","","identification_pre","the village of Nyx","","","","","","","","","","","","","","","","","","","","","","","","","","","","","","","","",""
"6840","","text","10","195756","0.0-9.0","60287239","wem/bandit_either","A1CACVD2OGEOXR","either","6","32","","","","","","","","","","","","","","","","","","","","","","","","","","","","","","","","","","",""
"8338","","text","11","204094","0.0-10.0","60287239","wem/bandit_either","A1CACVD2OGEOXR","either","6","32","","","","","","","","","","","","","","","","","","","","","","","","","","","","","","","","","","",""
"2038","","text","12","206132","0.0-11.0","60287239","wem/bandit_either","A1CACVD2OGEOXR","either","6","32","","","","","","","","","","","","","","","","","","","","","","","","","","","","","","","","","","",""
"11461","","text","13","217594","0.0-12.0","60287239","wem/bandit_either","A1CACVD2OGEOXR","either","6","32","","","","","","","","","","","","","","","","","","","","","","","","","","","","","","","","","","",""
"4771","","bandit","14","223882","0.0-13.0-0.0","60287239","wem/bandit_either","A1CACVD2OGEOXR","either","6","","","","","","","0","0","1","0","0","","","","","0","","","","0","","","","","","","","","","74","J","0","img/none_selected_demo.jpg","true","0",""
"4050","","bandit","15","229441","0.0-14.0-0.0","60287239","wem/bandit_either","A1CACVD2OGEOXR","either","6","","","","","","","0","0","1","0","0","","","","","0","","","","0","","","","","","","","","","75","K","0","img/none_selected_demo.jpg","true","0",""
"18884","","text","16","248328","0.0-15.0","60287239","wem/bandit_either","A1CACVD2OGEOXR","either","6","32","","","","","","","","","","","","","","","","","","","","","","","","","","","","","","","","","","",""
"7066","","text","17","255394","0.0-16.0","60287239","wem/bandit_either","A1CACVD2OGEOXR","either","6","32","","","","","","","","","","","","","","","","","","","","","","","","","","","","","","","","","","",""
"14340","","text","18","269744","0.0-17.0","60287239","wem/bandit_either","A1CACVD2OGEOXR","either","6","32","","","","","","","","","","","","","","","","","","","","","","","","","","","","","","","","","","",""
"7879","","text","19","277623","0.0-18.0","60287239","wem/bandit_either","A1CACVD2OGEOXR","either","6","32","","","","","","","","","","","","","","","","","","","","","","","","","","","","","","","","","","",""
"4268","","bandit","20","283409","0.0-19.0-0.0","60287239","wem/bandit_either","A1CACVD2OGEOXR","either","6","","","","","","","0","1","0","","0.8","0.5","0.5","","","0.8","0.2","","","","","","","","","","","","","74","J","0","img/none_selected_demo.jpg","true","0","80_20_practice"
"16976","","bandit","21","301896","0.0-19.0-1.0","60287239","wem/bandit_either","A1CACVD2OGEOXR","either","6","","","","","","","0","1","0","","0.8","0.5","0.5","","","0.8","0.2","","","","","","","","","","","","","74","J","0","img/none_selected_demo.jpg","true","0","80_20_practice"
"5724","","bandit","22","309138","0.0-19.0-2.0","60287239","wem/bandit_either","A1CACVD2OGEOXR","either","6","","","","","","","0","1","0","","0.8","0.5","0.5","","","0.8","0.2","","","","","","","","","","","","","74","J","0","img/none_selected_demo.jpg","true","0","80_20_practice"
"2807","","bandit","23","313454","0.0-19.0-3.0","60287239","wem/bandit_either","A1CACVD2OGEOXR","either","6","","","","","","","0","0","1","","0.2","0.5","0.5","","","0.8","0.2","","","","","","","","","","","","","75","K","1","","true","0","80_20_practice"
"895","","bandit","24","315857","0.0-19.0-4.0","60287239","wem/bandit_either","A1CACVD2OGEOXR","either","6","","","","","","","0","0","1","0.2","","0.5","0.5","","","","","","","0.8","0.2","","","","","","","","","75","K","1","","true","0","80_20_practice"
"547","","bandit","25","317921","0.0-19.0-5.0","60287239","wem/bandit_either","A1CACVD2OGEOXR","either","6","","","","","","","0","0","1","","0.2","0.5","0.5","","","0.8","0.2","","","","","","","","","","","","","75","K","1","","true","0","80_20_practice"
"900","","bandit","26","320324","0.0-19.0-6.0","60287239","wem/bandit_either","A1CACVD2OGEOXR","either","6","","","","","","","0","0","1","0.2","","0.5","0.5","","","","","","","0.8","0.2","","","","","","","","","75","K","1","","true","0","80_20_practice"
"4100","","bandit","27","325934","0.0-19.0-7.0","60287239","wem/bandit_either","A1CACVD2OGEOXR","either","6","","","","","","","0","0","1","","0.8","0.5","0.5","","","0.8","0.2","","","","","","","","","","","","","74","J","0","img/none_selected_demo.jpg","true","0","80_20_practice"
"1597","","bandit","28","329040","0.0-19.0-8.0","60287239","wem/bandit_either","A1CACVD2OGEOXR","either","6","","","","","","","0","0","1","","0.2","0.5","0.5","","","0.8","0.2","","","","","","","","","","","","","75","K","1","","true","0","80_20_practice"
"457","","bandit","29","331007","0.0-19.0-9.0","60287239","wem/bandit_either","A1CACVD2OGEOXR","either","6","","","","","","","0","0","1","0.2","","0.5","0.5","","","","","","","0.8","0.2","","","","","","","","","75","K","1","","true","0","80_20_practice"
"387","","bandit","30","332897","0.0-19.0-10.0","60287239","wem/bandit_either","A1CACVD2OGEOXR","either","6","","","","","","","0","0","1","","0.2","0.5","0.5","","","0.8","0.2","","","","","","","","","","","","","75","K","1","","true","0","80_20_practice"
"576","","bandit","31","334977","0.0-19.0-11.0","60287239","wem/bandit_either","A1CACVD2OGEOXR","either","6","","","","","","","0","1","0","","0.8","0.5","0.5","","","0.8","0.2","","","","","","","","","","","","","74","J","0","img/none_selected_demo.jpg","true","0","80_20_practice"
"524","","bandit","32","337007","0.0-19.0-12.0","60287239","wem/bandit_either","A1CACVD2OGEOXR","either","6","","","","","","","1","0","0","0.8","","0.5","0.5","","","","","","","0.8","0.2","","","","","","","","","74","J","0","img/none_selected_demo.jpg","true","0","80_20_practice"
"468","","bandit","33","338980","0.0-19.0-13.0","60287239","wem/bandit_either","A1CACVD2OGEOXR","either","6","","","","","","","0","1","0","","0.8","0.5","0.5","","","0.8","0.2","","","","","","","","","","","","","74","J","0","img/none_selected_demo.jpg","true","0","80_20_practice"
"423","","bandit","34","340920","0.0-19.0-14.0","60287239","wem/bandit_either","A1CACVD2OGEOXR","either","6","","","","","","","1","0","0","0.8","","0.5","0.5","","","","","","","0.8","0.2","","","","","","","","","74","J","0","img/none_selected_demo.jpg","true","0","80_20_practice"
"412","","bandit","35","342840","0.0-19.0-15.0","60287239","wem/bandit_either","A1CACVD2OGEOXR","either","6","","","","","","","0","1","0","","0.8","0.5","0.5","","","0.8","0.2","","","","","","","","","","","","","74","J","0","img/none_selected_demo.jpg","true","0","80_20_practice"
"656","","bandit","36","345008","0.0-19.0-16.0","60287239","wem/bandit_either","A1CACVD2OGEOXR","either","6","","","","","","","1","0","0","0.8","","0.5","0.5","","","","","","","0.8","0.2","","","","","","","","","74","J","0","img/none_selected_demo.jpg","true","0","80_20_practice"
"378","","bandit","37","346887","0.0-19.0-17.0","60287239","wem/bandit_either","A1CACVD2OGEOXR","either","6","","","","","","","1","0","0","0.2","","0.5","0.5","","","","","","","0.8","0.2","","","","","","","","","75","K","1","","true","0","80_20_practice"
"468","","bandit","38","348863","0.0-19.0-18.0","60287239","wem/bandit_either","A1CACVD2OGEOXR","either","6","","","","","","","0","1","0","","0.2","0.5","0.5","","","0.8","0.2","","","","","","","","","","","","","75","K","1","","true","0","80_20_practice"
"492","","bandit","39","350865","0.0-19.0-19.0","60287239","wem/bandit_either","A1CACVD2OGEOXR","either","6","","","","","","","0","1","0","","0.8","0.5","0.5","","","0.8","0.2","","","","","","","","","","","","","74","J","0","img/none_selected_demo.jpg","true","0","80_20_practice"
"13557","","text","40","364422","0.0-20.0","60287239","wem/bandit_either","A1CACVD2OGEOXR","either","6","32","","","","","","","","","","","","","","","","","","","","","","","","","","","","","","","","","","",""
"3015","","bandit","41","368952","0.0-21.0-0.0","60287239","wem/bandit_either","A1CACVD2OGEOXR","either","6","","","","","","","1","0","0","1","0","","","","","0","1","","","1","0","","","","","","","","","74","J","0","img/none_selected_demo.jpg","true","0",""
"7579","","text","42","376531","0.0-22.0","60287239","wem/bandit_either","A1CACVD2OGEOXR","either","6","32","","","","","","","","","","","","","","","","","","","","","","","","","","","","","","","","","","",""
"6426","","text","43","382957","0.0-23.0","60287239","wem/bandit_either","A1CACVD2OGEOXR","either","6","32","","","","","","","","","","","","","","","","","","","","","","","","","","","","","","","","","","",""
"22007","","text","44","404964","0.0-24.0","60287239","wem/bandit_either","A1CACVD2OGEOXR","either","6","32","","","","","","","","","","","","","","","","","","","","","","","","","","","","","","","","","","",""
"5806","","text","45","410770","0.0-25.0","60287239","wem/bandit_either","A1CACVD2OGEOXR","either","6","32","","","","","","","","","","","","","","","","","","","","","","","","","","","","","","","","","","",""
"11892","","text","46","422672","0.0-26.0","60287239","wem/bandit_either","A1CACVD2OGEOXR","either","6","32","","","","","","","","","","","","","","","","","","","","","","","","","","","","","","","","","","",""
"3904","","text","47","426576","0.0-27.0","60287239","wem/bandit_either","A1CACVD2OGEOXR","either","6","32","","","","","","","","","","","","","","","","","","","","","","","","","","","","","","","","","","",""
"3409","","text","48","429995","0.0-28.0","60287239","wem/bandit_either","A1CACVD2OGEOXR","either","6","32","","","","","","","","","","","","","","","","","","","","","","","","","","","","","","","","","","",""
"3391","","text","49","433386","0.0-29.0","60287239","wem/bandit_either","A1CACVD2OGEOXR","either","6","32","","","","","","","","","","","","","","","","","","","","","","","","","","","","","","","","","","",""
"8680","","text","50","442076","0.0-30.0","60287239","wem/bandit_either","A1CACVD2OGEOXR","either","6","32","","","","","","","","","","","","","","","","","","","","","","","","","","","","","","","","","","",""
"2836","","text","51","444912","0.0-31.0","60287239","wem/bandit_either","A1CACVD2OGEOXR","either","6","32","","","","","","","","","","","","","","","","","","","","","","","","","","","","","","","","","","",""
"9073","","text","52","453985","0.0-32.0","60287239","wem/bandit_either","A1CACVD2OGEOXR","either","6","32","","","","","","","","","","","","","","","","","","","","","","","","","","","","","","","","","","",""
"820","","bandit","53","456322","0.0-33.0-0.0","60287239","wem/bandit_either","A1CACVD2OGEOXR","either","6","","","","","","","0","0","1","","0.2","0.5","0.5","0.5","0.5","0.8","0.2","0.6","0.2","","","","","","","","","","","74","J","1","","true","0","full_practice"
"830","","bandit","54","458655","0.0-33.0-1.0","60287239","wem/bandit_either","A1CACVD2OGEOXR","either","6","","","","","","","0","0","1","0.2","","0.5","0.5","0.5","0.5","","","","","0.8","0.2","0.6","0.2","","","","","","","74","J","1","","true","0","full_practice"
"1895","","bandit","55","462058","0.0-33.0-2.0","60287239","wem/bandit_either","A1CACVD2OGEOXR","either","6","","","","","","","0","0","1","","0.8","0.5","0.5","0.5","0.5","0.8","0.2","0.6","0.2","","","","","","","","","","","72","H","0","img/none_selected.jpg","true","0","full_practice"
"2170","","bandit","56","465739","0.0-33.0-3.0","60287239","wem/bandit_either","A1CACVD2OGEOXR","either","6","","","","","","","1","0","0","0.2","","0.5","0.5","0.5","0.5","","","","","0.8","0.2","0.6","0.2","","","","","","","74","J","1","","true","0","full_practice"
"467","","bandit","57","467718","0.0-33.0-4.0","60287239","wem/bandit_either","A1CACVD2OGEOXR","either","6","","","","","","","0","0","1","0.2","","0.5","0.5","0.5","0.5","","","","","0.8","0.2","0.6","0.2","","","","","","","74","J","1","","true","0","full_practice"
"578","","bandit","58","469803","0.0-33.0-5.0","60287239","wem/bandit_either","A1CACVD2OGEOXR","either","6","","","","","","","0","0","1","0.2","","0.5","0.5","0.5","0.5","","","","","0.8","0.2","0.6","0.2","","","","","","","74","J","1","","true","0","full_practice"
"539","","bandit","59","471854","0.0-33.0-6.0","60287239","wem/bandit_either","A1CACVD2OGEOXR","either","6","","","","","","","0","1","0","","0.2","0.5","0.5","0.5","0.5","0.8","0.2","0.6","0.2","","","","","","","","","","","74","J","1","","true","0","full_practice"
"1113","","bandit","60","474483","0.0-33.0-7.0","60287239","wem/bandit_either","A1CACVD2OGEOXR","either","6","","","","","","","1","0","0","0.2","","0.5","0.5","0.5","0.5","","","","","0.8","0.2","0.6","0.2","","","","","","","76","L","3","","true","0","full_practice"
"919","","bandit","61","476903","0.0-33.0-8.0","60287239","wem/bandit_either","A1CACVD2OGEOXR","either","6","","","","","","","0","0","1","","0.2","0.5","0.5","0.5","0.5","0.8","0.2","0.6","0.2","","","","","","","","","","","76","L","3","","true","0","full_practice"
"469","","bandit","62","478882","0.0-33.0-9.0","60287239","wem/bandit_either","A1CACVD2OGEOXR","either","6","","","","","","","0","1","0","","0.6","0.5","0.5","0.5","0.5","0.8","0.2","0.6","0.2","","","","","","","","","","","75","K","2","","true","0","full_practice"
"601","","bandit","63","480990","0.0-33.0-10.0","60287239","wem/bandit_either","A1CACVD2OGEOXR","either","6","","","","","","","1","0","0","0.6","","0.5","0.5","0.5","0.5","","","","","0.8","0.2","0.6","0.2","","","","","","","75","K","2","","true","0","full_practice"
"1570","","bandit","64","484061","0.0-33.0-11.0","60287239","wem/bandit_either","A1CACVD2OGEOXR","either","6","","","","","","","0","0","1","","0.2","0.5","0.5","0.5","0.5","0.8","0.2","0.6","0.2","","","","","","","","","","","74","J","1","","true","0","full_practice"
"905","","bandit","65","486484","0.0-33.0-12.0","60287239","wem/bandit_either","A1CACVD2OGEOXR","either","6","","","","","","","0","1","0","","0.8","0.5","0.5","0.5","0.5","0.8","0.2","0.6","0.2","","","","","","","","","","","72","H","0","img/none_selected.jpg","true","0","full_practice"
"550","","bandit","66","488546","0.0-33.0-13.0","60287239","wem/bandit_either","A1CACVD2OGEOXR","either","6","","","","","","","0","1","0","","0.8","0.5","0.5","0.5","0.5","0.8","0.2","0.6","0.2","","","","","","","","","","","72","H","0","img/none_selected.jpg","true","0","full_practice"
"485","","bandit","67","490548","0.0-33.0-14.0","60287239","wem/bandit_either","A1CACVD2OGEOXR","either","6","","","","","","","1","0","0","0.8","","0.5","0.5","0.5","0.5","","","","","0.8","0.2","0.6","0.2","","","","","","","72","H","0","img/none_selected.jpg","true","0","full_practice"
"1252","","bandit","68","493307","0.0-33.0-15.0","60287239","wem/bandit_either","A1CACVD2OGEOXR","either","6","","","","","","","0","1","0","","0.8","0.5","0.5","0.5","0.5","0.8","0.2","0.6","0.2","","","","","","","","","","","72","H","0","img/none_selected.jpg","true","0","full_practice"
"1021","","bandit","69","495840","0.0-33.0-16.0","60287239","wem/bandit_either","A1CACVD2OGEOXR","either","6","","","","","","","0","0","1","0.2","","0.5","0.5","0.5","0.5","","","","","0.8","0.2","0.6","0.2","","","","","","","76","L","3","","true","0","full_practice"
"1133","","bandit","70","498478","0.0-33.0-17.0","60287239","wem/bandit_either","A1CACVD2OGEOXR","either","6","","","","","","","0","1","0","","0.8","0.5","0.5","0.5","0.5","0.8","0.2","0.6","0.2","","","","","","","","","","","72","H","0","img/none_selected.jpg","true","0","full_practice"
"776","","bandit","71","500767","0.0-33.0-18.0","60287239","wem/bandit_either","A1CACVD2OGEOXR","either","6","","","","","","","1","0","0","0.8","","0.5","0.5","0.5","0.5","","","","","0.8","0.2","0.6","0.2","","","","","","","72","H","0","img/none_selected.jpg","true","0","full_practice"
"526","","bandit","72","502805","0.0-33.0-19.0","60287239","wem/bandit_either","A1CACVD2OGEOXR","either","6","","","","","","","0","1","0","","0.8","0.5","0.5","0.5","0.5","0.8","0.2","0.6","0.2","","","","","","","","","","","72","H","0","img/none_selected.jpg","true","0","full_practice"
"6611","","text","73","509416","0.0-34.0","60287239","wem/bandit_either","A1CACVD2OGEOXR","either","6","32","","","","","","","","","","","","","","","","","","","","","","","","","","","","","","","","","","",""
"10901","","text","74","521331","0.0-35.0","60287239","wem/bandit_either","A1CACVD2OGEOXR","either","6","32","","","","","","","","","","","","","","","","","","","","","","","","","","","","","","","","","","",""
"11661","","text","75","532992","0.0-36.0","60287239","wem/bandit_either","A1CACVD2OGEOXR","either","6","32","","","","","","","","","","","","","","","","","","","","","","","","","","","","","","","","","","",""
"4567","","text","76","537559","0.0-37.0","60287239","wem/bandit_either","A1CACVD2OGEOXR","either","6","32","","","","","","","","","","","","","","","","","","","","","","","","","","","","","","","","","","",""
"4166","","text","77","541725","0.0-38.0","60287239","wem/bandit_either","A1CACVD2OGEOXR","either","6","32","","","","","","","","","","","","","","","","","","","","","","","","","","","","","","","","","","",""
"3823","","text","78","545558","0.0-39.0","60287239","wem/bandit_either","A1CACVD2OGEOXR","either","6","32","","","","","","","","","","","","","","","","","","","","","","","","","","","","","","","","","","",""
"2701","","bandit","79","549778","0.0-40.0-0.0","60287239","wem/bandit_either","A1CACVD2OGEOXR","either","6","","","","","","","0","0","1","0.1734470434","","0.8","0.4","0.2","0.6","","","","","0.1734470434","0.4656478179","0.06094066238","0.1720655487","","","","","","","72","H","0","img/none_selected.jpg","","1","main_expt"
"620","","bandit","80","551904","0.0-41.0-0.0","60287239","wem/bandit_either","A1CACVD2OGEOXR","either","6","","","","","","","0","0","1","","0.4661883906","0.8","0.4","0.2","0.6","0.1582158198","0.4661883906","0.04941180107","0.1607886358","","","","","","","","","","","74","J","1","","","2","main_expt"
"476","","bandit","81","553884","0.0-42.0-0.0","60287239","wem/bandit_either","A1CACVD2OGEOXR","either","6","","","","","","","1","0","0","0.1264016625","","0.8","0.4","0.2","0.6","","","","","0.1264016625","0.4608397999","0.09066711981","0.1825924006","","","","","","","72","H","0","img/none_selected.jpg","","3","main_expt"
"364","","bandit","82","555754","0.0-43.0-0.0","60287239","wem/bandit_either","A1CACVD2OGEOXR","either","6","","","","","","","1","0","0","0.1212924903","","0.8","0.4","0.2","0.6","","","","","0.1212924903","0.4568511376","0.07815644495","0.1572982515","","","","","","","72","H","0","img/none_selected.jpg","","4","main_expt"
"411","","bandit","83","557676","0.0-44.0-0.0","60287239","wem/bandit_either","A1CACVD2OGEOXR","either","6","","","","","","","0","0","1","0.1603104869","","0.8","0.4","0.2","0.6","","","","","0.1603104869","0.4576747282","0.06547040057","0.1873501432","","","","","","","72","H","0","img/none_selected.jpg","","5","main_expt"
"595","","bandit","84","559776","0.0-45.0-0.0","60287239","wem/bandit_either","A1CACVD2OGEOXR","either","6","","","","","","","0","0","1","","0.09500806419","0.8","0.4","0.2","0.6","0.1916070739","0.4673201091","0.09500806419","0.1484719509","","","","","","","","","","","75","K","2","","","6","main_expt"
"495","","bandit","85","561771","0.0-46.0-0.0","60287239","wem/bandit_either","A1CACVD2OGEOXR","either","6","","","","","","","0","0","1","0.1368680622","","0.8","0.4","0.2","0.6","","","","","0.1624213819","0.4671816856","0.1156714339","0.1368680622","","","","","","","76","L","3","","","7","main_expt"
"1124","","bandit","86","564398","0.0-47.0-0.0","60287239","wem/bandit_either","A1CACVD2OGEOXR","either","6","","","","","","","0","0","1","0.1529627983","","0.8","0.4","0.2","0.6","","","","","0.1529627983","0.4577650209","0.08939878806","0.1412197478","","","","","","","72","H","0","img/none_selected.jpg","","8","main_expt"
"820","","bandit","87","566736","0.0-48.0-0.0","60287239","wem/bandit_either","A1CACVD2OGEOXR","either","6","","","","","","","0","0","1","0.4538037209","","0.8","0.4","0.2","0.6","","","","","0.1638779","0.4538037209","0.1379609943","0.1285241668","","","","","","","74","J","1","","","9","main_expt"
"568","","bandit","88","568807","0.0-49.0-0.0","60287239","wem/bandit_either","A1CACVD2OGEOXR","either","6","","","","","","","0","0","1","0.1682184418","","0.8","0.4","0.2","0.6","","","","","0.1682184418","0.4567906288","0.08892925829","0.1137500729","","","","","","","72","H","0","img/none_selected.jpg","","10","main_expt"
"1199","","bandit","89","571507","0.0-50.0-0.0","60287239","wem/bandit_either","A1CACVD2OGEOXR","either","6","","","","","","","0","0","1","","0.1053961985","0.8","0.4","0.2","0.6","0.1511948373","0.4707556997","0.1053961985","0.1134058804","","","","","","","","","","","75","K","2","","","11","main_expt"
"267","","bandit","90","573278","0.0-51.0-0.0","60287239","wem/bandit_either","A1CACVD2OGEOXR","either","6","","","","","","","0","0","1","0.1358134986","","0.8","0.4","0.2","0.6","","","","","0.2144966391","0.4534589675","0.1267534428","0.1358134986","","","","","","","76","L","3","","","12","main_expt"
"1836","","bandit","91","576620","0.0-52.0-0.0","60287239","wem/bandit_either","A1CACVD2OGEOXR","either","6","","","","","","","0","0","1","","0.1105925571","0.8","0.4","0.2","0.6","0.1443049275","0.4474824422","0.1179877152","0.1105925571","","","","","","","","","","","76","L","3","","","13","main_expt"
"214","","bandit","92","578341","0.0-53.0-0.0","60287239","wem/bandit_either","A1CACVD2OGEOXR","either","6","","","","","","","0","0","1","","0.1300626215","0.8","0.4","0.2","0.6","0.149160688","0.4125602811","0.1300626215","0.09057326494","","","","","","","","","","","75","K","2","","","14","main_expt"
"674","","bandit","93","580521","0.0-54.0-0.0","60287239","wem/bandit_either","A1CACVD2OGEOXR","either","6","","","","","","","0","0","1","","0.1525333278","0.8","0.4","0.2","0.6","0.1525333278","0.3715785473","0.1129073675","0.05963436345","","","","","","","","","","","72","H","0","img/none_selected.jpg","","15","main_expt"
"962","","bandit","94","582997","0.0-55.0-0.0","60287239","wem/bandit_either","A1CACVD2OGEOXR","either","6","","","","","","","0","0","1","0.1437253933","","0.8","0.4","0.2","0.6","","","","","0.1437253933","0.3670357029","0.1132840383","0.03970917029","","","","","","","72","H","0","img/none_selected.jpg","","16","main_expt"
"478","","bandit","95","584983","0.0-56.0-0.0","60287239","wem/bandit_either","A1CACVD2OGEOXR","either","6","","","","","","","0","0","1","","0.333794799","0.8","0.4","0.2","0.6","0.1191274054","0.333794799","0.1530786807","0.03301664506","","","","","","","","","","","74","J","1","","","17","main_expt"
"600","","bandit","96","587095","0.0-57.0-0.0","60287239","wem/bandit_either","A1CACVD2OGEOXR","either","6","","","","","","","1","0","0","0.3720862831","","0.8","0.4","0.2","0.6","","","","","0.1231388663","0.3720862831","0.1367655081","0.0325619","","","","","","","74","J","1","","","18","main_expt"
"578","","bandit","97","589183","0.0-58.0-0.0","60287239","wem/bandit_either","A1CACVD2OGEOXR","either","6","","","","","","","0","0","1","","0.3940248177","0.8","0.4","0.2","0.6","0.1014962652","0.3940248177","0.1519969922","0.05136562407","","","","","","","","","","","74","J","1","","","19","main_expt"
"418","","bandit","98","591111","0.0-59.0-0.0","60287239","wem/bandit_either","A1CACVD2OGEOXR","either","6","","","","","","","0","1","0","","0.3980303587","0.8","0.4","0.2","0.6","0.1184271466","0.3980303587","0.2344823222","0.05620034239","","","","","","","","","","","74","J","1","","","20","main_expt"
"636","","bandit","99","593248","0.0-60.0-0.0","60287239","wem/bandit_either","A1CACVD2OGEOXR","either","6","","","","","","","0","0","1","","0.405953395","0.8","0.4","0.2","0.6","0.1434190777","0.405953395","0.2227593861","0.04865895453","","","","","","","","","","","74","J","1","","","21","main_expt"
"468","","bandit","100","595227","0.0-61.0-0.0","60287239","wem/bandit_either","A1CACVD2OGEOXR","either","6","","","","","","","0","0","1","0.1323354157","","0.8","0.4","0.2","0.6","","","","","0.1323354157","0.37898799","0.1831098024","0.05276066643","","","","","","","72","H","0","img/none_selected.jpg","","22","main_expt"
"612","","bandit","101","597343","0.0-62.0-0.0","60287239","wem/bandit_either","A1CACVD2OGEOXR","either","6","","","","","","","0","0","1","0.1660310818","","0.8","0.4","0.2","0.6","","","","","0.1384191998","0.3661255489","0.1660310818","0.05284133488","","","","","","","75","K","2","","","23","main_expt"
"440","","bandit","102","599295","0.0-63.0-0.0","60287239","wem/bandit_either","A1CACVD2OGEOXR","either","6","","","","","","","0","0","1","","0.1395593146","0.8","0.4","0.2","0.6","0.1395593146","0.3576379461","0.1400827643","0.0333904923","","","","","","","","","","","72","H","0","img/none_selected.jpg","","24","main_expt"
"364","","bandit","103","601173","0.0-64.0-0.0","60287239","wem/bandit_either","A1CACVD2OGEOXR","either","6","","","","","","","0","0","1","0.3346121782","","0.8","0.4","0.2","0.6","","","","","0.1696236693","0.3346121782","0.2022937807","0.04666446392","","","","","","","74","J","1","","","25","main_expt"
"776","","bandit","104","603456","0.0-65.0-0.0","60287239","wem/bandit_either","A1CACVD2OGEOXR","either","6","","","","","","","0","0","1","","0.04067930801","0.8","0.4","0.2","0.6","0.1754084838","0.3790434843","0.1725383963","0.04067930801","","","","","","","","","","","76","L","3","","","26","main_expt"
"500","","bandit","105","605470","0.0-66.0-0.0","60287239","wem/bandit_either","A1CACVD2OGEOXR","either","6","","","","","","","0","0","1","0.03070036018","","0.8","0.4","0.2","0.6","","","","","0.118483546","0.3744762435","0.1735642386","0.03070036018","","","","","","","76","L","3","","","27","main_expt"
"476","","bandit","106","607448","0.0-67.0-0.0","60287239","wem/bandit_either","A1CACVD2OGEOXR","either","6","","","","","","","0","0","1","","0.149532802","0.8","0.4","0.2","0.6","0.1259847853","0.3650769418","0.149532802","0.02292460278","","","","","","","","","","","75","K","2","","","28","main_expt"
"458","","bandit","107","609412","0.0-68.0-0.0","60287239","wem/bandit_either","A1CACVD2OGEOXR","either","6","","","","","","","0","0","1","","0.3299345172","0.8","0.4","0.2","0.6","0.1072727049","0.3299345172","0.1597785082","0.03476379039","","","","","","","","","","","74","J","1","","","29","main_expt"
"430","","bandit","108","611350","0.0-69.0-0.0","60287239","wem/bandit_either","A1CACVD2OGEOXR","either","6","","","","","","","0","0","1","","0.07952930744","0.8","0.4","0.2","0.6","0.07952930744","0.3010095271","0.1978771271","0.04211589453","","","","","","","","","","","72","H","0","img/none_selected.jpg","","30","main_expt"
"356","","bandit","109","613219","0.0-70.0-0.0","60287239","wem/bandit_either","A1CACVD2OGEOXR","either","6","","","","","","","0","0","1","","0.09691030242","0.8","0.4","0.2","0.6","0.09691030242","0.331530841","0.1928768267","0.04495483672","","","","","","","","","","","72","H","0","img/none_selected.jpg","","31","main_expt"
"372","","bandit","110","615108","0.0-71.0-0.0","60287239","wem/bandit_either","A1CACVD2OGEOXR","either","6","","","","","","","0","0","1","0.1338720944","","0.8","0.4","0.2","0.6","","","","","0.1338720944","0.3469043085","0.1511047494","0.04126869591","","","","","","","72","H","0","img/none_selected.jpg","","32","main_expt"
"594","","bandit","111","617207","0.0-72.0-0.0","60287239","wem/bandit_either","A1CACVD2OGEOXR","either","6","","","","","","","0","0","1","","0.2778139242","0.8","0.4","0.2","0.6","0.1428203538","0.2778139242","0.09247049486","0.02396570111","","","","","","","","","","","74","J","1","","","33","main_expt"
"105","","bandit","112","618816","0.0-73.0-0.0","60287239","wem/bandit_either","A1CACVD2OGEOXR","either","6","","","","","","","0","0","1","","0.1127946788","0.8","0.4","0.2","0.6","0.1258169527","0.236883459","0.1127946788","0.03561151332","","","","","","","","","","","75","K","2","","","34","main_expt"
"428","","bandit","113","620757","0.0-74.0-0.0","60287239","wem/bandit_either","A1CACVD2OGEOXR","either","6","","","","","","","0","0","1","0.04565222073","","0.8","0.4","0.2","0.6","","","","","0.1652362889","0.2656196476","0.1279928094","0.04565222073","","","","","","","76","L","3","","","35","main_expt"
"489","","bandit","114","622757","0.0-75.0-0.0","60287239","wem/bandit_either","A1CACVD2OGEOXR","either","6","","","","","","","0","0","1","","0.05036449293","0.8","0.4","0.2","0.6","0.1472348388","0.2309028503","0.09285608896","0.05036449293","","","","","","","","","","","76","L","3","","","36","main_expt"
"475","","bandit","115","624745","0.0-76.0-0.0","60287239","wem/bandit_either","A1CACVD2OGEOXR","either","6","","","","","","","0","0","1","","0.04764774511","0.8","0.4","0.2","0.6","0.20581188","0.1961267878","0.1251507517","0.04764774511","","","","","","","","","","","76","L","3","","","37","main_expt"
"360","","bandit","116","626614","0.0-77.0-0.0","60287239","wem/bandit_either","A1CACVD2OGEOXR","either","6","","","","","","","0","0","1","","0.1248439258","0.8","0.4","0.2","0.6","0.2096070571","0.2197692452","0.1248439258","0.04692466818","","","","","","","","","","","75","K","2","","","38","main_expt"
"378","","bandit","117","628497","0.0-78.0-0.0","60287239","wem/bandit_either","A1CACVD2OGEOXR","either","6","","","","","","","0","0","1","","0.1783178102","0.8","0.4","0.2","0.6","0.1888903691","0.1783178102","0.1192858938","0.06150360576","","","","","","","","","","","74","J","1","","","39","main_expt"
"388","","bandit","118","630386","0.0-79.0-0.0","60287239","wem/bandit_either","A1CACVD2OGEOXR","either","6","","","","","","","0","0","1","0.1769314034","","0.8","0.4","0.2","0.6","","","","","0.1769314034","0.1354267005","0.1457630933","0.1025324214","","","","","","","72","H","0","img/none_selected.jpg","","40","main_expt"
"325","","bandit","119","632224","0.0-80.0-0.0","60287239","wem/bandit_either","A1CACVD2OGEOXR","either","6","","","","","","","0","0","1","","0.1764673912","0.8","0.4","0.2","0.6","0.1764673912","0.1307301687","0.1788887836","0.1278282258","","","","","","","","","","","72","H","0","img/none_selected.jpg","","41","main_expt"
"389","","bandit","120","634122","0.0-81.0-0.0","60287239","wem/bandit_either","A1CACVD2OGEOXR","either","6","","","","","","","0","0","1","0.1164002711","","0.8","0.4","0.2","0.6","","","","","0.1164002711","0.1002459791","0.1550439797","0.1144783829","","","","","","","72","H","0","img/none_selected.jpg","","42","main_expt"
"226","","bandit","121","635855","0.0-82.0-0.0","60287239","wem/bandit_either","A1CACVD2OGEOXR","either","6","","","","","","","0","0","1","","0.06131682752","0.8","0.4","0.2","0.6","0.1248357276","0.06131682752","0.1624336935","0.148274456","","","","","","","","","","","74","J","1","","","43","main_expt"
"386","","bandit","122","637748","0.0-83.0-0.0","60287239","wem/bandit_either","A1CACVD2OGEOXR","either","6","","","","","","","0","0","1","","0.05757194937","0.8","0.4","0.2","0.6","0.1801883524","0.05757194937","0.2610419313","0.1733993608","","","","","","","","","","","74","J","1","","","44","main_expt"
"323","","bandit","123","639585","0.0-84.0-0.0","60287239","wem/bandit_either","A1CACVD2OGEOXR","either","6","","","","","","","0","0","1","0.1536252234","","0.8","0.4","0.2","0.6","","","","","0.1536252234","0.06317169253","0.2547096211","0.1731137141","","","","","","","72","H","0","img/none_selected.jpg","","45","main_expt"
"1357","","bandit","124","642443","0.0-85.0-0.0","60287239","wem/bandit_either","A1CACVD2OGEOXR","either","6","","","","","","","0","0","1","","0.2690630982","0.8","0.4","0.2","0.6","0.1453657368","0.08604650327","0.2690630982","0.2577534017","","","","","","","","","","","75","K","2","","","46","main_expt"
"443","","bandit","125","644398","0.0-86.0-0.0","60287239","wem/bandit_either","A1CACVD2OGEOXR","either","6","","","","","","","0","0","1","","0.2613787364","0.8","0.4","0.2","0.6","0.1163474927","0.07503215105","0.2613787364","0.2436059896","","","","","","","","","","","75","K","2","","","47","main_expt"
"472","","bandit","126","646380","0.0-87.0-0.0","60287239","wem/bandit_either","A1CACVD2OGEOXR","either","6","","","","","","","1","0","0","0.261356988","","0.8","0.4","0.2","0.6","","","","","0.1187671899","0.09661626413","0.2764851171","0.261356988","","","","","","","76","L","3","","","48","main_expt"
"468","","bandit","127","648353","0.0-88.0-0.0","60287239","wem/bandit_either","A1CACVD2OGEOXR","either","6","","","","","","","0","0","1","","0.2707362224","0.8","0.4","0.2","0.6","0.1321787199","0.141419135","0.2628846066","0.2707362224","","","","","","","","","","","76","L","3","","","49","main_expt"
"411","","bandit","128","650274","0.0-89.0-0.0","60287239","wem/bandit_either","A1CACVD2OGEOXR","either","6","","","","","","","0","1","0","","0.2733601765","0.8","0.4","0.2","0.6","0.1310663867","0.1341637883","0.3634831931","0.2733601765","","","","","","","","","","","76","L","3","","","50","main_expt"
"960","","bandit","129","652744","0.0-90.0-0.0","60287239","wem/bandit_either","A1CACVD2OGEOXR","either","6","","","","","","","0","0","1","0.3771608335","","0.8","0.4","0.2","0.6","","","","","0.1450472339","0.1225974466","0.3771608335","0.2590969561","","","","","","","75","K","2","","","51","main_expt"
"192","","bandit","130","654442","0.0-91.0-0.0","60287239","wem/bandit_either","A1CACVD2OGEOXR","either","6","","","","","","","0","0","1","0.2515646212","","0.8","0.4","0.2","0.6","","","","","0.1731775471","0.1145468474","0.3093307572","0.2515646212","","","","","","","76","L","3","","","52","main_expt"
"469","","bandit","131","656419","0.0-92.0-0.0","60287239","wem/bandit_either","A1CACVD2OGEOXR","either","6","","","","","","","0","0","1","0.2257746054","","0.8","0.4","0.2","0.6","","","","","0.2258016315","0.1059564611","0.2990929044","0.2257746054","","","","","","","76","L","3","","","53","main_expt"
"300","","bandit","132","658237","0.0-93.0-0.0","60287239","wem/bandit_either","A1CACVD2OGEOXR","either","6","","","","","","","0","0","1","","0.2172527187","0.8","0.4","0.2","0.6","0.2172527187","0.1090017536","0.2221679908","0.2750925763","","","","","","","","","","","72","H","0","img/none_selected.jpg","","54","main_expt"
"1820","","bandit","133","661567","0.0-94.0-0.0","60287239","wem/bandit_either","A1CACVD2OGEOXR","either","6","","","","","","","1","0","0","0.1652356872","","0.8","0.4","0.2","0.6","","","","","0.1652356872","0.1249444004","0.1886471815","0.3608357377","","","","","","","72","H","0","img/none_selected.jpg","","55","main_expt"
"633","","bandit","134","663711","0.0-95.0-0.0","60287239","wem/bandit_either","A1CACVD2OGEOXR","either","6","","","","","","","0","0","1","0.1576418272","","0.8","0.4","0.2","0.6","","","","","0.1576418272","0.09043885587","0.1973213641","0.4022545085","","","","","","","72","H","0","img/none_selected.jpg","","56","main_expt"
"511","","bandit","135","665730","0.0-96.0-0.0","60287239","wem/bandit_either","A1CACVD2OGEOXR","either","6","","","","","","","1","0","0","0.180776926","","0.8","0.4","0.2","0.6","","","","","0.180776926","0.07448640425","0.2207101474","0.3867568464","","","","","","","72","H","0","img/none_selected.jpg","","57","main_expt"
"504","","bandit","136","667742","0.0-97.0-0.0","60287239","wem/bandit_either","A1CACVD2OGEOXR","either","6","","","","","","","0","0","1","0.1489081552","","0.8","0.4","0.2","0.6","","","","","0.1489081552","0.09808879237","0.2480089655","0.3840355114","","","","","","","72","H","0","img/none_selected.jpg","","58","main_expt"
"433","","bandit","137","669688","0.0-98.0-0.0","60287239","wem/bandit_either","A1CACVD2OGEOXR","either","6","","","","","","","0","0","1","","0.0721355853","0.8","0.4","0.2","0.6","0.125555473","0.0721355853","0.2667579505","0.3617876187","","","","","","","","","","","74","J","1","","","59","main_expt"
"415","","bandit","138","671603","0.0-99.0-0.0","60287239","wem/bandit_either","A1CACVD2OGEOXR","either","6","","","","","","","0","0","1","","0.08871326978","0.8","0.4","0.2","0.6","0.1228814318","0.08871326978","0.2637313595","0.3018070945","","","","","","","","","","","74","J","1","","","60","main_expt"
"433","","bandit","139","673550","0.0-100.0-0.0","60287239","wem/bandit_either","A1CACVD2OGEOXR","either","6","","","","","","","0","0","1","0.195834737","","0.8","0.4","0.2","0.6","","","","","0.195834737","0.1472383223","0.2400462537","0.2687465691","","","","","","","72","H","0","img/none_selected.jpg","","61","main_expt"
"974","","bandit","140","676032","0.0-101.0-0.0","60287239","wem/bandit_either","A1CACVD2OGEOXR","either","6","","","","","","","0","1","0","","0.2396546157","0.8","0.4","0.2","0.6","0.1952904108","0.1625866577","0.2396546157","0.287622952","","","","","","","","","","","75","K","2","","","62","main_expt"
"358","","bandit","141","677894","0.0-102.0-0.0","60287239","wem/bandit_either","A1CACVD2OGEOXR","either","6","","","","","","","0","1","0","","0.2558687718","0.8","0.4","0.2","0.6","0.187392073","0.1196153378","0.2558687718","0.2060093557","","","","","","","","","","","75","K","2","","","63","main_expt"
"406","","bandit","142","679806","0.0-103.0-0.0","60287239","wem/bandit_either","A1CACVD2OGEOXR","either","6","","","","","","","0","1","0","","0.1789331692","0.8","0.4","0.2","0.6","0.1774517964","0.1025290435","0.1789331692","0.1865830226","","","","","","","","","","","75","K","2","","","64","main_expt"
"394","","bandit","143","681703","0.0-104.0-0.0","60287239","wem/bandit_either","A1CACVD2OGEOXR","either","6","","","","","","","0","0","1","","0.2041721298","0.8","0.4","0.2","0.6","0.1956590225","0.06637487434","0.2041721298","0.2242960511","","","","","","","","","","","75","K","2","","","65","main_expt"
"256","","bandit","144","683469","0.0-105.0-0.0","60287239","wem/bandit_either","A1CACVD2OGEOXR","either","6","","","","","","","1","0","0","0.213739571","","0.8","0.4","0.2","0.6","","","","","0.1559932489","0.09888809835","0.1083731131","0.213739571","","","","","","","76","L","3","","","66","main_expt"
"413","","bandit","145","685391","0.0-106.0-0.0","60287239","wem/bandit_either","A1CACVD2OGEOXR","either","6","","","","","","","1","0","0","0.2463093088","","0.8","0.4","0.2","0.6","","","","","0.1327283285","0.08542348091","0.08148965902","0.2463093088","","","","","","","76","L","3","","","67","main_expt"
"433","","bandit","146","687341","0.0-107.0-0.0","60287239","wem/bandit_either","A1CACVD2OGEOXR","either","6","","","","","","","0","0","1","0.1863602012","","0.8","0.4","0.2","0.6","","","","","0.1646421129","0.05648132023","0.115871946","0.1863602012","","","","","","","76","L","3","","","68","main_expt"
"530","","bandit","147","689385","0.0-108.0-0.0","60287239","wem/bandit_either","A1CACVD2OGEOXR","either","6","","","","","","","0","0","1","0.1481768435","","0.8","0.4","0.2","0.6","","","","","0.1879918005","0.07427448495","0.1049465522","0.1481768435","","","","","","","76","L","3","","","69","main_expt"
"168","","bandit","148","691059","0.0-109.0-0.0","60287239","wem/bandit_either","A1CACVD2OGEOXR","either","6","","","","","","","0","0","1","","0.1052870039","0.8","0.4","0.2","0.6","0.1708527721","0.1052870039","0.1224614501","0.2062415021","","","","","","","","","","","74","J","1","","","70","main_expt"
"177","","bandit","149","692742","0.0-110.0-0.0","60287239","wem/bandit_either","A1CACVD2OGEOXR","either","6","","","","","","","0","0","1","0.1114501371","","0.8","0.4","0.2","0.6","","","","","0.1930923514","0.1114501371","0.1687358413","0.2175562698","","","","","","","74","J","1","","","71","main_expt"
"177","","bandit","150","694435","0.0-111.0-0.0","60287239","wem/bandit_either","A1CACVD2OGEOXR","either","6","","","","","","","0","0","1","0.2289396243","","0.8","0.4","0.2","0.6","","","","","0.2289396243","0.1282799478","0.1902964731","0.2182173038","","","","","","","72","H","0","img/none_selected.jpg","","72","main_expt"
"351","","bandit","151","696295","0.0-112.0-0.0","60287239","wem/bandit_either","A1CACVD2OGEOXR","either","6","","","","","","","0","0","1","0.2223781067","","0.8","0.4","0.2","0.6","","","","","0.2223781067","0.1113050996","0.1764690901","0.1629952044","","","","","","","72","H","0","img/none_selected.jpg","","73","main_expt"
"41","","bandit","152","697848","0.0-113.0-0.0","60287239","wem/bandit_either","A1CACVD2OGEOXR","either","6","","","","","","","0","0","1","0.1720288853","","0.8","0.4","0.2","0.6","","","","","0.1664819569","0.1573287606","0.1720288853","0.2291178652","","","","","","","75","K","2","","","74","main_expt"
"2055","","bandit","153","701414","0.0-114.0-0.0","60287239","wem/bandit_either","A1CACVD2OGEOXR","either","6","","","","","","","0","0","1","","0.098780463","0.8","0.4","0.2","0.6","0.1157276324","0.168318459","0.098780463","0.2087405931","","","","","","","","","","","75","K","2","","","75","main_expt"
"469","","bandit","154","703392","0.0-115.0-0.0","60287239","wem/bandit_either","A1CACVD2OGEOXR","either","6","","","","","","","0","0","1","","0.1981976751","0.8","0.4","0.2","0.6","0.06912044911","0.131742089","0.08192786134","0.1981976751","","","","","","","","","","","76","L","3","","","76","main_expt"
"234","","bandit","155","705127","0.0-116.0-0.0","60287239","wem/bandit_either","A1CACVD2OGEOXR","either","6","","","","","","","0","0","1","0.1382621175","","0.8","0.4","0.2","0.6","","","","","0.06151132513","0.1382621175","0.03620126105","0.2302368041","","","","","","","74","J","1","","","77","main_expt"
"19","","bandit","156","706663","0.0-117.0-0.0","60287239","wem/bandit_either","A1CACVD2OGEOXR","either","6","","","","","","","0","0","1","0.08824794056","","0.8","0.4","0.2","0.6","","","","","0.08824794056","0.1351161864","0.03362754592","0.2538269909","","","","","","","72","H","0","img/none_selected.jpg","","78","main_expt"
"1551","","bandit","157","709722","0.0-118.0-0.0","60287239","wem/bandit_either","A1CACVD2OGEOXR","either","6","","","","","","","0","0","1","0.08425003046","","0.8","0.4","0.2","0.6","","","","","0.08425003046","0.1125986002","0.03917851348","0.221492582","","","","","","","72","H","0","img/none_selected.jpg","","79","main_expt"
"151","","bandit","158","711383","0.0-119.0-0.0","60287239","wem/bandit_either","A1CACVD2OGEOXR","either","6","","","","","","","0","0","1","0.1059393704","","0.8","0.4","0.2","0.6","","","","","0.1059393704","0.1071358869","0.06916691586","0.2126184008","","","","","","","72","H","0","img/none_selected.jpg","","80","main_expt"
"396","","bandit","159","713293","0.0-120.0-0.0","60287239","wem/bandit_either","A1CACVD2OGEOXR","either","6","","","","","","","0","0","1","","0.1410751298","0.8","0.4","0.2","0.6","0.114990546","0.1410751298","0.1110223174","0.1803612399","","","","","","","","","","","74","J","1","","","81","main_expt"
"1030","","bandit","160","715825","0.0-121.0-0.0","60287239","wem/bandit_either","A1CACVD2OGEOXR","either","6","","","","","","","0","0","1","0.1518454263","","0.8","0.4","0.2","0.6","","","","","0.1246300745","0.1518454263","0.08899533144","0.1883980103","","","","","","","74","J","1","","","82","main_expt"
"740","","bandit","161","718065","0.0-122.0-0.0","60287239","wem/bandit_either","A1CACVD2OGEOXR","either","6","","","","","","","0","0","1","","0.2099895667","0.8","0.4","0.2","0.6","0.1523433176","0.1285150734","0.1383499545","0.2099895667","","","","","","","","","","","76","L","3","","","83","main_expt"
"700","","bandit","162","720271","0.0-123.0-0.0","60287239","wem/bandit_either","A1CACVD2OGEOXR","either","6","","","","","","","0","0","1","","0.1815119679","0.8","0.4","0.2","0.6","0.1230513595","0.1083679187","0.1815119679","0.1760666055","","","","","","","","","","","75","K","2","","","84","main_expt"
"490","","bandit","163","722272","0.0-124.0-0.0","60287239","wem/bandit_either","A1CACVD2OGEOXR","either","6","","","","","","","0","0","1","0.2121304898","","0.8","0.4","0.2","0.6","","","","","0.1460595132","0.08985983991","0.2121304898","0.2077415988","","","","","","","75","K","2","","","85","main_expt"
"439","","bandit","164","724212","0.0-125.0-0.0","60287239","wem/bandit_either","A1CACVD2OGEOXR","either","6","","","","","","","1","0","0","0.1931166697","","0.8","0.4","0.2","0.6","","","","","0.1578730034","0.08377758623","0.1931166697","0.1940704576","","","","","","","75","K","2","","","86","main_expt"
"420","","bandit","165","726144","0.0-126.0-0.0","60287239","wem/bandit_either","A1CACVD2OGEOXR","either","6","","","","","","","0","0","1","","0.1908876969","0.8","0.4","0.2","0.6","0.1329566931","0.08340742779","0.1908876969","0.1920524506","","","","","","","","","","","75","K","2","","","87","main_expt"
"344","","bandit","166","727988","0.0-127.0-0.0","60287239","wem/bandit_either","A1CACVD2OGEOXR","either","6","","","","","","","0","0","1","","0.2525081946","0.8","0.4","0.2","0.6","0.1156353122","0.06937011617","0.1727332377","0.2525081946","","","","","","","","","","","76","L","3","","","88","main_expt"
"100","","bandit","167","729597","0.0-128.0-0.0","60287239","wem/bandit_either","A1CACVD2OGEOXR","either","6","","","","","","","0","0","1","0.1169245856","","0.8","0.4","0.2","0.6","","","","","0.1169245856","0.08556693901","0.1747664758","0.2476280913","","","","","","","72","H","0","img/none_selected.jpg","","89","main_expt"
"527","","bandit","168","731626","0.0-129.0-0.0","60287239","wem/bandit_either","A1CACVD2OGEOXR","either","6","","","","","","","0","0","1","","0.1013294801","0.8","0.4","0.2","0.6","0.1276927611","0.1013294801","0.1302891894","0.2476417222","","","","","","","","","","","74","J","1","","","90","main_expt"
"395","","bandit","169","733532","0.0-130.0-0.0","60287239","wem/bandit_either","A1CACVD2OGEOXR","either","6","","","","","","","0","1","0","","0.1567130635","0.8","0.4","0.2","0.6","0.1633868825","0.1567130635","0.1143331172","0.1875867431","","","","","","","","","","","74","J","1","","","91","main_expt"
"569","","bandit","170","735614","0.0-131.0-0.0","60287239","wem/bandit_either","A1CACVD2OGEOXR","either","6","","","","","","","0","0","1","","0.1214255195","0.8","0.4","0.2","0.6","0.2172033847","0.1214255195","0.1674068059","0.1804963823","","","","","","","","","","","74","J","1","","","92","main_expt"
"463","","bandit","171","737588","0.0-132.0-0.0","60287239","wem/bandit_either","A1CACVD2OGEOXR","either","6","","","","","","","0","0","1","0.1405005834","","0.8","0.4","0.2","0.6","","","","","0.2178255547","0.1317465968","0.1405005834","0.1468121695","","","","","","","75","K","2","","","93","main_expt"
"109","","bandit","172","739203","0.0-133.0-0.0","60287239","wem/bandit_either","A1CACVD2OGEOXR","either","6","","","","","","","0","0","1","0.1810196293","","0.8","0.4","0.2","0.6","","","","","0.2058786334","0.1810196293","0.1338278818","0.1270151289","","","","","","","74","J","1","","","94","main_expt"
"381","","bandit","173","741095","0.0-134.0-0.0","60287239","wem/bandit_either","A1CACVD2OGEOXR","either","6","","","","","","","0","0","1","0.2009860572","","0.8","0.4","0.2","0.6","","","","","0.2009860572","0.1537803575","0.16416917","0.1049494322","","","","","","","72","H","0","img/none_selected.jpg","","95","main_expt"
"92","","bandit","174","742694","0.0-135.0-0.0","60287239","wem/bandit_either","A1CACVD2OGEOXR","either","6","","","","","","","0","0","1","","0.1242023773","0.8","0.4","0.2","0.6","0.2792576191","0.2255368078","0.1075549125","0.1242023773","","","","","","","","","","","76","L","3","","","96","main_expt"
"1277","","bandit","175","745472","0.0-136.0-0.0","60287239","wem/bandit_either","A1CACVD2OGEOXR","either","6","","","","","","","0","0","1","","0.101802889","0.8","0.4","0.2","0.6","0.291042229","0.1881791955","0.07285617598","0.101802889","","","","","","","","","","","76","L","3","","","97","main_expt"
"1007","","bandit","176","747999","0.0-137.0-0.0","60287239","wem/bandit_either","A1CACVD2OGEOXR","either","6","","","","","","","0","0","1","0.1128802937","","0.8","0.4","0.2","0.6","","","","","0.2919937097","0.1722186849","0.1128802937","0.08559904752","","","","","","","75","K","2","","","98","main_expt"
"486","","bandit","177","749991","0.0-138.0-0.0","60287239","wem/bandit_either","A1CACVD2OGEOXR","either","6","","","","","","","0","0","1","","0.07338875894","0.8","0.4","0.2","0.6","0.338066437","0.2581810796","0.07338875894","0.04480153982","","","","","","","","","","","75","K","2","","","99","main_expt"
"519","","bandit","178","752021","0.0-139.0-0.0","60287239","wem/bandit_either","A1CACVD2OGEOXR","either","6","","","","","","","1","0","0","0.3094702251","","0.8","0.4","0.2","0.6","","","","","0.3466775547","0.3094702251","0.06256672301","0.03694367041","","","","","","","74","J","1","","","100","main_expt"
"456","","bandit","179","753987","0.0-140.0-0.0","60287239","wem/bandit_either","A1CACVD2OGEOXR","either","6","","","","","","","0","1","0","","0.3217449289","0.8","0.4","0.2","0.6","0.3776837944","0.3217449289","0.06765033746","0.02534596886","","","","","","","","","","","74","J","1","","","101","main_expt"
"400","","bandit","180","755893","0.0-141.0-0.0","60287239","wem/bandit_either","A1CACVD2OGEOXR","either","6","","","","","","","0","1","0","","0.3656493725","0.8","0.4","0.2","0.6","0.3988278911","0.3656493725","0.08460413752","0.03456503798","","","","","","","","","","","74","J","1","","","102","main_expt"
"387","","bandit","181","757795","0.0-142.0-0.0","60287239","wem/bandit_either","A1CACVD2OGEOXR","either","6","","","","","","","0","0","1","","0.4097417878","0.8","0.4","0.2","0.6","0.3642388176","0.4097417878","0.1149622558","0.03116272615","","","","","","","","","","","74","J","1","","","103","main_expt"
"310","","bandit","182","759612","0.0-143.0-0.0","60287239","wem/bandit_either","A1CACVD2OGEOXR","either","6","","","","","","","0","0","1","","0.3059376685","0.8","0.4","0.2","0.6","0.3059376685","0.4005896235","0.1223821921","0.04034009898","","","","","","","","","","","72","H","0","img/none_selected.jpg","","104","main_expt"
"60","","bandit","183","761173","0.0-144.0-0.0","60287239","wem/bandit_either","A1CACVD2OGEOXR","either","6","","","","","","","0","0","1","0.2658022239","","0.8","0.4","0.2","0.6","","","","","0.2658022239","0.3967946647","0.1302837569","0.06132200156","","","","","","","72","H","0","img/none_selected.jpg","","105","main_expt"
"2049","","bandit","184","764730","0.0-145.0-0.0","60287239","wem/bandit_either","A1CACVD2OGEOXR","either","6","","","","","","","0","0","1","0.03171667797","","0.8","0.4","0.2","0.6","","","","","0.2583534607","0.3920329447","0.1405927316","0.03171667797","","","","","","","76","L","3","","","106","main_expt"
"718","","bandit","185","766948","0.0-146.0-0.0","60287239","wem/bandit_either","A1CACVD2OGEOXR","either","6","","","","","","","0","0","1","","0.1835021143","0.8","0.4","0.2","0.6","0.2402432731","0.3973329777","0.1835021143","0.06603394544","","","","","","","","","","","75","K","2","","","107","main_expt"
"1639","","bandit","186","770098","0.0-147.0-0.0","60287239","wem/bandit_either","A1CACVD2OGEOXR","either","6","","","","","","","0","0","1","","0.2124513917","0.8","0.4","0.2","0.6","0.2364509509","0.3839010997","0.2124513917","0.08137973005","","","","","","","","","","","75","K","2","","","108","main_expt"
"449","","bandit","187","772048","0.0-148.0-0.0","60287239","wem/bandit_either","A1CACVD2OGEOXR","either","6","","","","","","","0","0","1","0.3879107289","","0.8","0.4","0.2","0.6","","","","","0.2164051194","0.3879107289","0.218007314","0.04765661509","","","","","","","74","J","1","","","109","main_expt"
"87","","bandit","188","773638","0.0-149.0-0.0","60287239","wem/bandit_either","A1CACVD2OGEOXR","either","6","","","","","","","0","0","1","","0.3989855113","0.8","0.4","0.2","0.6","0.1611838666","0.3989855113","0.229469423","0.06789381979","","","","","","","","","","","74","J","1","","","110","main_expt"
"487","","bandit","189","775628","0.0-150.0-0.0","60287239","wem/bandit_either","A1CACVD2OGEOXR","either","6","","","","","","","0","0","1","0.2042622235","","0.8","0.4","0.2","0.6","","","","","0.2042622235","0.3959495959","0.2923436213","0.08972795074","","","","","","","72","H","0","img/none_selected.jpg","","111","main_expt"
"331","","bandit","190","777473","0.0-151.0-0.0","60287239","wem/bandit_either","A1CACVD2OGEOXR","either","6","","","","","","","0","0","1","0.2113733305","","0.8","0.4","0.2","0.6","","","","","0.2113733305","0.335596647","0.2778802509","0.1176683061","","","","","","","72","H","0","img/none_selected.jpg","","112","main_expt"
"2129","","bandit","191","781123","0.0-152.0-0.0","60287239","wem/bandit_either","A1CACVD2OGEOXR","either","6","","","","","","","0","0","1","","0.1973953549","0.8","0.4","0.2","0.6","0.220236308","0.2876347753","0.2852166322","0.1973953549","","","","","","","","","","","76","L","3","","","113","main_expt"
"10","","bandit","192","782639","0.0-153.0-0.0","60287239","wem/bandit_either","A1CACVD2OGEOXR","either","6","","","","","","","0","0","1","","0.200840576","0.8","0.4","0.2","0.6","0.2453392608","0.2811359795","0.3222351196","0.200840576","","","","","","","","","","","76","L","3","","","114","main_expt"
"1327","","bandit","193","785478","0.0-154.0-0.0","60287239","wem/bandit_either","A1CACVD2OGEOXR","either","6","","","","","","","0","0","1","","0.2865303103","0.8","0.4","0.2","0.6","0.2311931225","0.2056035349","0.2865303103","0.2544006126","","","","","","","","","","","75","K","2","","","115","main_expt"
"477","","bandit","194","787465","0.0-155.0-0.0","60287239","wem/bandit_either","A1CACVD2OGEOXR","either","6","","","","","","","0","0","1","","0.1901772154","0.8","0.4","0.2","0.6","0.2290532582","0.2435386161","0.1901772154","0.2264812366","","","","","","","","","","","75","K","2","","","116","main_expt"
"537","","bandit","195","789511","0.0-156.0-0.0","60287239","wem/bandit_either","A1CACVD2OGEOXR","either","6","","","","","","","0","0","1","","0.2523066444","0.8","0.4","0.2","0.6","0.2610634121","0.2523066444","0.1854727963","0.2535822563","","","","","","","","","","","74","J","1","","","117","main_expt"
"398","","bandit","196","791419","0.0-157.0-0.0","60287239","wem/bandit_either","A1CACVD2OGEOXR","either","6","","","","","","","0","0","1","","0.258758296","0.8","0.4","0.2","0.6","0.2915584027","0.258758296","0.223078523","0.288462609","","","","","","","","","","","74","J","1","","","118","main_expt"
"409","","bandit","197","793338","0.0-158.0-0.0","60287239","wem/bandit_either","A1CACVD2OGEOXR","either","6","","","","","","","0","0","1","0.3240034744","","0.8","0.4","0.2","0.6","","","","","0.3240034744","0.2513882557","0.2157898803","0.3077733757","","","","","","","72","H","0","img/none_selected.jpg","","119","main_expt"
"577","","bandit","198","795425","0.0-159.0-0.0","60287239","wem/bandit_either","A1CACVD2OGEOXR","either","6","","","","","","","1","0","0","0.3584552205","","0.8","0.4","0.2","0.6","","","","","0.3584552205","0.2178230887","0.2055853597","0.3470363664","","","","","","","72","H","0","img/none_selected.jpg","","120","main_expt"
"442","","bandit","199","797384","0.0-160.0-0.0","60287239","wem/bandit_either","A1CACVD2OGEOXR","either","6","","","","","","","0","0","1","","0.3392259721","0.8","0.4","0.2","0.6","0.3392259721","0.2249913612","0.2308362602","0.36369082","","","","","","","","","","","72","H","0","img/none_selected.jpg","","121","main_expt"
"391","","bandit","200","799286","0.0-161.0-0.0","60287239","wem/bandit_either","A1CACVD2OGEOXR","either","6","","","","","","","0","0","1","0.3211990091","","0.8","0.4","0.2","0.6","","","","","0.3211990091","0.2135386538","0.1858821776","0.3740977319","","","","","","","72","H","0","img/none_selected.jpg","","122","main_expt"
"279","","bandit","201","801066","0.0-162.0-0.0","60287239","wem/bandit_either","A1CACVD2OGEOXR","either","6","","","","","","","0","0","1","0.3082515077","","0.8","0.4","0.2","0.6","","","","","0.3082515077","0.2742148462","0.1948645322","0.3617230251","","","","","","","72","H","0","img/none_selected.jpg","","123","main_expt"
"537","","bandit","202","803111","0.0-163.0-0.0","60287239","wem/bandit_either","A1CACVD2OGEOXR","either","6","","","","","","","0","0","1","0.3189133642","","0.8","0.4","0.2","0.6","","","","","0.3337980485","0.3092488957","0.1875433284","0.3189133642","","","","","","","76","L","3","","","124","main_expt"
"412","","bandit","203","805031","0.0-164.0-0.0","60287239","wem/bandit_either","A1CACVD2OGEOXR","either","6","","","","","","","0","1","0","","0.3134342975","0.8","0.4","0.2","0.6","0.2815584253","0.2832498899","0.1805360773","0.3134342975","","","","","","","","","","","76","L","3","","","125","main_expt"
"497","","bandit","204","807038","0.0-165.0-0.0","60287239","wem/bandit_either","A1CACVD2OGEOXR","either","6","","","","","","","0","0","1","","0.2889117865","0.8","0.4","0.2","0.6","0.2544389989","0.321902755","0.2199741614","0.2889117865","","","","","","","","","","","76","L","3","","","126","main_expt"
"406","","bandit","205","808958","0.0-166.0-0.0","60287239","wem/bandit_either","A1CACVD2OGEOXR","either","6","","","","","","","1","0","0","0.3101500906","","0.8","0.4","0.2","0.6","","","","","0.217883989","0.3163630435","0.212963778","0.3101500906","","","","","","","76","L","3","","","127","main_expt"
"433","","bandit","206","810897","0.0-167.0-0.0","60287239","wem/bandit_either","A1CACVD2OGEOXR","either","6","","","","","","","0","0","1","0.3257933697","","0.8","0.4","0.2","0.6","","","","","0.1941215274","0.3242789072","0.1853882534","0.3257933697","","","","","","","76","L","3","","","128","main_expt"
"417","","bandit","207","812824","0.0-168.0-0.0","60287239","wem/bandit_either","A1CACVD2OGEOXR","either","6","","","","","","","0","0","1","","0.1486900389","0.8","0.4","0.2","0.6","0.2093197904","0.3430844202","0.1486900389","0.2767822115","","","","","","","","","","","75","K","2","","","129","main_expt"
"134","","bandit","208","814474","0.0-169.0-0.0","60287239","wem/bandit_either","A1CACVD2OGEOXR","either","6","","","","","","","0","0","1","","0.1581202816","0.8","0.4","0.2","0.6","0.2325895014","0.3487272729","0.1581202816","0.3389859305","","","","","","","","","","","75","K","2","","","130","main_expt"
"64","","bandit","209","816044","0.0-170.0-0.0","60287239","wem/bandit_either","A1CACVD2OGEOXR","either","6","","","","","","","0","0","1","0.2680880231","","0.8","0.4","0.2","0.6","","","","","0.2680880231","0.3850752379","0.1189605486","0.2807576759","","","","","","","72","H","0","img/none_selected.jpg","","131","main_expt"
"10","","bandit","210","817554","0.0-171.0-0.0","60287239","wem/bandit_either","A1CACVD2OGEOXR","either","6","","","","","","","0","0","1","0.3547422913","","0.8","0.4","0.2","0.6","","","","","0.2053564998","0.3547422913","0.08638656351","0.2044414959","","","","","","","74","J","1","","","132","main_expt"
"1350","","bandit","211","820404","0.0-172.0-0.0","60287239","wem/bandit_either","A1CACVD2OGEOXR","either","6","","","","","","","0","0","1","0.2352631215","","0.8","0.4","0.2","0.6","","","","","0.2102644512","0.3256782816","0.104542274","0.2352631215","","","","","","","76","L","3","","","133","main_expt"
"468","","bandit","212","822391","0.0-173.0-0.0","60287239","wem/bandit_either","A1CACVD2OGEOXR","either","6","","","","","","","1","0","0","0.2808822736","","0.8","0.4","0.2","0.6","","","","","0.2028105977","0.2479378245","0.1401790922","0.2808822736","","","","","","","76","L","3","","","134","main_expt"
"530","","bandit","213","824427","0.0-174.0-0.0","60287239","wem/bandit_either","A1CACVD2OGEOXR","either","6","","","","","","","0","0","1","","0.3053704558","0.8","0.4","0.2","0.6","0.1556880781","0.24301602","0.1818128853","0.3053704558","","","","","","","","","","","76","L","3","","","135","main_expt"
"400","","bandit","214","826335","0.0-175.0-0.0","60287239","wem/bandit_either","A1CACVD2OGEOXR","either","6","","","","","","","0","0","1","0.3140058771","","0.8","0.4","0.2","0.6","","","","","0.1428421262","0.2630427063","0.1583738081","0.3140058771","","","","","","","76","L","3","","","136","main_expt"
"509","","bandit","215","828345","0.0-176.0-0.0","60287239","wem/bandit_either","A1CACVD2OGEOXR","either","6","","","","","","","0","0","1","0.1039390038","","0.8","0.4","0.2","0.6","","","","","0.1039390038","0.3053425806","0.1497920091","0.323699752","","","","","","","72","H","0","img/none_selected.jpg","","137","main_expt"
"470","","bandit","216","830325","0.0-177.0-0.0","60287239","wem/bandit_either","A1CACVD2OGEOXR","either","6","","","","","","","0","0","1","0.07132433681","","0.8","0.4","0.2","0.6","","","","","0.07132433681","0.3588623722","0.1128601551","0.3435108126","","","","","","","72","H","0","img/none_selected.jpg","","138","main_expt"
"455","","bandit","217","832291","0.0-178.0-0.0","60287239","wem/bandit_either","A1CACVD2OGEOXR","either","6","","","","","","","0","1","0","","0.2762704672","0.8","0.4","0.2","0.6","0.1047165976","0.2762704672","0.1073604677","0.3505637202","","","","","","","","","","","74","J","1","","","139","main_expt"
"499","","bandit","218","834297","0.0-179.0-0.0","60287239","wem/bandit_either","A1CACVD2OGEOXR","either","6","","","","","","","0","0","1","0.2475753012","","0.8","0.4","0.2","0.6","","","","","0.09043849554","0.2475753012","0.1376710563","0.4185251601","","","","","","","74","J","1","","","140","main_expt"
"921","","bandit","219","836730","0.0-180.0-0.0","60287239","wem/bandit_either","A1CACVD2OGEOXR","either","6","","","","","","","0","0","1","","0.1412662962","0.8","0.4","0.2","0.6","0.05096505815","0.2436306075","0.1412662962","0.4225289085","","","","","","","","","","","75","K","2","","","141","main_expt"
"463","","bandit","220","838703","0.0-181.0-0.0","60287239","wem/bandit_either","A1CACVD2OGEOXR","either","6","","","","","","","0","0","1","","0.1543424817","0.8","0.4","0.2","0.6","0.02973759478","0.1998899021","0.1543424817","0.455259632","","","","","","","","","","","75","K","2","","","142","main_expt"
"627","","bandit","221","840835","0.0-182.0-0.0","60287239","wem/bandit_either","A1CACVD2OGEOXR","either","6","","","","","","","0","0","1","","0.4287003803","0.8","0.4","0.2","0.6","0.04457260366","0.2568100034","0.1552636118","0.4287003803","","","","","","","","","","","76","L","3","","","143","main_expt"
"478","","bandit","222","842816","0.0-183.0-0.0","60287239","wem/bandit_either","A1CACVD2OGEOXR","either","6","","","","","","","0","0","1","","0.2859833531","0.8","0.4","0.2","0.6","0.04060115041","0.2859833531","0.2241753426","0.4260506414","","","","","","","","","","","74","J","1","","","144","main_expt"
"370","","bandit","223","844686","0.0-184.0-0.0","60287239","wem/bandit_either","A1CACVD2OGEOXR","either","6","","","","","","","0","0","1","","0.06712401514","0.8","0.4","0.2","0.6","0.06712401514","0.2080640158","0.2484131349","0.4202170594","","","","","","","","","","","72","H","0","img/none_selected.jpg","","145","main_expt"
"417","","bandit","224","846631","0.0-185.0-0.0","60287239","wem/bandit_either","A1CACVD2OGEOXR","either","6","","","","","","","0","0","1","0.08780921534","","0.8","0.4","0.2","0.6","","","","","0.08780921534","0.2469639643","0.2905032103","0.4333226383","","","","","","","72","H","0","img/none_selected.jpg","","146","main_expt"
"481","","bandit","225","848635","0.0-186.0-0.0","60287239","wem/bandit_either","A1CACVD2OGEOXR","either","6","","","","","","","0","0","1","0.4340954059","","0.8","0.4","0.2","0.6","","","","","0.1333368233","0.2169279296","0.2846703457","0.4340954059","","","","","","","76","L","3","","","147","main_expt"
"758","","bandit","226","850908","0.0-187.0-0.0","60287239","wem/bandit_either","A1CACVD2OGEOXR","either","6","","","","","","","0","0","1","","0.3010433131","0.8","0.4","0.2","0.6","0.09264147873","0.1248284812","0.3010433131","0.3903754431","","","","","","","","","","","75","K","2","","","148","main_expt"
"518","","bandit","227","852930","0.0-188.0-0.0","60287239","wem/bandit_either","A1CACVD2OGEOXR","either","6","","","","","","","0","0","1","","0.1498862571","0.8","0.4","0.2","0.6","0.123708687","0.1498862571","0.3421268102","0.4161192262","","","","","","","","","","","74","J","1","","","149","main_expt"
"323","","bandit","228","854755","0.0-189.0-0.0","60287239","wem/bandit_either","A1CACVD2OGEOXR","either","6","","","","","","","0","0","1","0.1087811601","","0.8","0.4","0.2","0.6","","","","","0.1087811601","0.2044632824","0.3382865341","0.4545257836","","","","","","","72","H","0","img/none_selected.jpg","","150","main_expt"
"284","","bandit","229","856553","0.0-190.0-0.0","60287239","wem/bandit_either","A1CACVD2OGEOXR","either","6","","","","","","","0","0","1","0.1640336927","","0.8","0.4","0.2","0.6","","","","","0.1640336927","0.1630699797","0.3031951358","0.4553704948","","","","","","","72","H","0","img/none_selected.jpg","","151","main_expt"
"346","","bandit","230","858412","0.0-191.0-0.0","60287239","wem/bandit_either","A1CACVD2OGEOXR","either","6","","","","","","","0","0","1","0.1474195158","","0.8","0.4","0.2","0.6","","","","","0.1474195158","0.1534962237","0.3163498213","0.4692720684","","","","","","","72","H","0","img/none_selected.jpg","","152","main_expt"
"426","","bandit","231","860349","0.0-192.0-0.0","60287239","wem/bandit_either","A1CACVD2OGEOXR","either","6","","","","","","","1","0","0","0.4794448159","","0.8","0.4","0.2","0.6","","","","","0.1200421148","0.1506701345","0.3205280093","0.4794448159","","","","","","","76","L","3","","","153","main_expt"
"475","","bandit","232","862349","0.0-193.0-0.0","60287239","wem/bandit_either","A1CACVD2OGEOXR","either","6","","","","","","","0","0","1","0.4762011242","","0.8","0.4","0.2","0.6","","","","","0.1295208369","0.1810992197","0.2780981807","0.4762011242","","","","","","","76","L","3","","","154","main_expt"
"433","","bandit","233","864293","0.0-194.0-0.0","60287239","wem/bandit_either","A1CACVD2OGEOXR","either","6","","","","","","","0","1","0","","0.4797315341","0.8","0.4","0.2","0.6","0.1189574303","0.2574031695","0.2543788853","0.4797315341","","","","","","","","","","","76","L","3","","","155","main_expt"
"466","","bandit","234","866269","0.0-195.0-0.0","60287239","wem/bandit_either","A1CACVD2OGEOXR","either","6","","","","","","","0","0","1","0.4815153028","","0.8","0.4","0.2","0.6","","","","","0.1511338071","0.1838662476","0.2601772157","0.4815153028","","","","","","","76","L","3","","","156","main_expt"
"608","","bandit","235","868385","0.0-196.0-0.0","60287239","wem/bandit_either","A1CACVD2OGEOXR","either","6","","","","","","","0","1","0","","0.4769669351","0.8","0.4","0.2","0.6","0.1494559257","0.1951262555","0.27050514","0.4769669351","","","","","","","","","","","76","L","3","","","157","main_expt"
"640","","bandit","236","870527","0.0-197.0-0.0","60287239","wem/bandit_either","A1CACVD2OGEOXR","either","6","","","","","","","1","0","0","0.4819637572","","0.8","0.4","0.2","0.6","","","","","0.1398300683","0.1711173681","0.2912044809","0.4819637572","","","","","","","76","L","3","","","158","main_expt"
"465","","bandit","237","872505","0.0-198.0-0.0","60287239","wem/bandit_either","A1CACVD2OGEOXR","either","6","","","","","","","0","0","1","0.4802617926","","0.8","0.4","0.2","0.6","","","","","0.1482700517","0.1262927185","0.2863852675","0.4802617926","","","","","","","76","L","3","","","159","main_expt"
"710","","bandit","238","874716","0.0-199.0-0.0","60287239","wem/bandit_either","A1CACVD2OGEOXR","either","6","","","","","","","0","0","1","","0.3188379944","0.8","0.4","0.2","0.6","0.1327856751","0.1289005464","0.3188379944","0.4834703177","","","","","","","","","","","75","K","2","","","160","main_expt"
"411","","bandit","239","876638","0.0-200.0-0.0","60287239","wem/bandit_either","A1CACVD2OGEOXR","either","6","","","","","","","0","0","1","0.07062595825","","0.8","0.4","0.2","0.6","","","","","0.1936248495","0.07062595825","0.3918259889","0.4783639554","","","","","","","74","J","1","","","161","main_expt"
"59","","bandit","240","878214","0.0-201.0-0.0","60287239","wem/bandit_either","A1CACVD2OGEOXR","either","6","","","","","","","0","0","1","","0.1917288119","0.8","0.4","0.2","0.6","0.1917288119","0.08554885259","0.3825352776","0.4702379588","","","","","","","","","","","72","H","0","img/none_selected.jpg","","162","main_expt"
"242","","bandit","241","879964","0.0-202.0-0.0","60287239","wem/bandit_either","A1CACVD2OGEOXR","either","6","","","","","","","0","0","1","0.2410074379","","0.8","0.4","0.2","0.6","","","","","0.2410074379","0.05790820845","0.3500114378","0.4761999765","","","","","","","72","H","0","img/none_selected.jpg","","163","main_expt"
"410","","bandit","242","881874","0.0-203.0-0.0","60287239","wem/bandit_either","A1CACVD2OGEOXR","either","6","","","","","","","0","0","1","","0.4683988395","0.8","0.4","0.2","0.6","0.2717164652","0.04744410613","0.3138306729","0.4683988395","","","","","","","","","","","76","L","3","","","164","main_expt"
"236","","bandit","243","883627","0.0-204.0-0.0","60287239","wem/bandit_either","A1CACVD2OGEOXR","either","6","","","","","","","0","1","0","","0.3066591237","0.8","0.4","0.2","0.6","0.3360488911","0.07721988326","0.3066591237","0.4594806004","","","","","","","","","","","75","K","2","","","165","main_expt"
"523","","bandit","244","885660","0.0-205.0-0.0","60287239","wem/bandit_either","A1CACVD2OGEOXR","either","6","","","","","","","0","0","1","0.359337808","","0.8","0.4","0.2","0.6","","","","","0.3288768439","0.09276645858","0.359337808","0.4769271284","","","","","","","75","K","2","","","166","main_expt"
"394","","bandit","245","887568","0.0-206.0-0.0","60287239","wem/bandit_either","A1CACVD2OGEOXR","either","6","","","","","","","0","0","1","0.3888119778","","0.8","0.4","0.2","0.6","","","","","0.341079324","0.1092251717","0.3888119778","0.4824675089","","","","","","","75","K","2","","","167","main_expt"
"376","","bandit","246","889454","0.0-207.0-0.0","60287239","wem/bandit_either","A1CACVD2OGEOXR","either","6","","","","","","","0","1","0","","0.3188253523","0.8","0.4","0.2","0.6","0.2972081376","0.09704797424","0.3188253523","0.4731218304","","","","","","","","","","","75","K","2","","","168","main_expt"
"720","","bandit","247","891690","0.0-208.0-0.0","60287239","wem/bandit_either","A1CACVD2OGEOXR","either","6","","","","","","","0","0","1","0.1131958007","","0.8","0.4","0.2","0.6","","","","","0.2716537329","0.1131958007","0.3035082617","0.4558692975","","","","","","","74","J","1","","","169","main_expt"
"517","","bandit","248","893716","0.0-209.0-0.0","60287239","wem/bandit_either","A1CACVD2OGEOXR","either","6","","","","","","","0","0","1","","0.3540810543","0.8","0.4","0.2","0.6","0.3705489528","0.1636150477","0.3540810543","0.424927817","","","","","","","","","","","75","K","2","","","170","main_expt"
"577","","bandit","249","895808","0.0-210.0-0.0","60287239","wem/bandit_either","A1CACVD2OGEOXR","either","6","","","","","","","0","1","0","","0.2912941695","0.8","0.4","0.2","0.6","0.3259531709","0.1889182236","0.2912941695","0.4254050478","","","","","","","","","","","75","K","2","","","171","main_expt"
"622","","bandit","250","897945","0.0-211.0-0.0","60287239","wem/bandit_either","A1CACVD2OGEOXR","either","6","","","","","","","0","0","1","0.4319935488","","0.8","0.4","0.2","0.6","","","","","0.3253578443","0.1494540944","0.2964718019","0.4319935488","","","","","","","76","L","3","","","172","main_expt"
"383","","bandit","251","899843","0.0-212.0-0.0","60287239","wem/bandit_either","A1CACVD2OGEOXR","either","6","","","","","","","0","0","1","","0.2411205861","0.8","0.4","0.2","0.6","0.3133285256","0.1700291406","0.2411205861","0.4157756128","","","","","","","","","","","75","K","2","","","173","main_expt"
"374","","bandit","252","901723","0.0-213.0-0.0","60287239","wem/bandit_either","A1CACVD2OGEOXR","either","6","","","","","","","1","0","0","0.2132737127","","0.8","0.4","0.2","0.6","","","","","0.3470844982","0.2007600912","0.2132737127","0.3650518631","","","","","","","75","K","2","","","174","main_expt"
"628","","bandit","253","903877","0.0-214.0-0.0","60287239","wem/bandit_either","A1CACVD2OGEOXR","either","6","","","","","","","0","0","1","0.2722172758","","0.8","0.4","0.2","0.6","","","","","0.3615725976","0.1613291475","0.2722172758","0.3583375904","","","","","","","75","K","2","","","175","main_expt"
"378","","bandit","254","905760","0.0-215.0-0.0","60287239","wem/bandit_either","A1CACVD2OGEOXR","either","6","","","","","","","0","1","0","","0.3592449917","0.8","0.4","0.2","0.6","0.3592449917","0.1618540135","0.3158297255","0.3849487833","","","","","","","","","","","72","H","0","img/none_selected.jpg","","176","main_expt"
"702","","bandit","255","907980","0.0-216.0-0.0","60287239","wem/bandit_either","A1CACVD2OGEOXR","either","6","","","","","","","0","0","1","0.3741193846","","0.8","0.4","0.2","0.6","","","","","0.3614776984","0.1337509382","0.3033070912","0.3741193846","","","","","","","76","L","3","","","177","main_expt"
"482","","bandit","256","909976","0.0-217.0-0.0","60287239","wem/bandit_either","A1CACVD2OGEOXR","either","6","","","","","","","0","0","1","","0.3070990366","0.8","0.4","0.2","0.6","0.4042649322","0.172909152","0.3070990366","0.3704436283","","","","","","","","","","","75","K","2","","","178","main_expt"
"574","","bandit","257","912062","0.0-218.0-0.0","60287239","wem/bandit_either","A1CACVD2OGEOXR","either","6","","","","","","","0","0","1","0.3626499081","","0.8","0.4","0.2","0.6","","","","","0.3626499081","0.2306318455","0.349206168","0.3718647044","","","","","","","72","H","0","img/none_selected.jpg","","179","main_expt"
"578","","bandit","258","914147","0.0-219.0-0.0","60287239","wem/bandit_either","A1CACVD2OGEOXR","either","6","","","","","","","0","0","1","","0.365831292","0.8","0.4","0.2","0.6","0.365831292","0.2531752843","0.3533593609","0.3144845341","","","","","","","","","","","72","H","0","img/none_selected.jpg","","180","main_expt"
"362","","bandit","259","916035","0.0-220.0-0.0","60287239","wem/bandit_either","A1CACVD2OGEOXR","either","6","","","","","","","0","1","0","","0.3792633926","0.8","0.4","0.2","0.6","0.3720079561","0.2995137733","0.3792633926","0.3328992573","","","","","","","","","","","75","K","2","","","181","main_expt"
"332","","bandit","260","917885","0.0-221.0-0.0","60287239","wem/bandit_either","A1CACVD2OGEOXR","either","6","","","","","","","0","0","1","","0.4170401524","0.8","0.4","0.2","0.6","0.3747751333","0.2818604164","0.4170401524","0.3443004049","","","","","","","","","","","75","K","2","","","182","main_expt"
"488","","bandit","261","919885","0.0-222.0-0.0","60287239","wem/bandit_either","A1CACVD2OGEOXR","either","6","","","","","","","0","1","0","","0.4349898381","0.8","0.4","0.2","0.6","0.3772869326","0.2706787236","0.4349898381","0.3572445505","","","","","","","","","","","75","K","2","","","183","main_expt"
"586","","bandit","262","921981","0.0-223.0-0.0","60287239","wem/bandit_either","A1CACVD2OGEOXR","either","6","","","","","","","0","0","1","","0.4355724899","0.8","0.4","0.2","0.6","0.3719200221","0.2788381055","0.4355724899","0.358140682","","","","","","","","","","","75","K","2","","","184","main_expt"
"539","","bandit","263","924037","0.0-224.0-0.0","60287239","wem/bandit_either","A1CACVD2OGEOXR","either","6","","","","","","","1","0","0","0.2938856532","","0.8","0.4","0.2","0.6","","","","","0.3759280431","0.2591604306","0.443517249","0.2938856532","","","","","","","76","L","3","","","185","main_expt"
"555","","bandit","264","926097","0.0-225.0-0.0","60287239","wem/bandit_either","A1CACVD2OGEOXR","either","6","","","","","","","0","1","0","","0.4185550765","0.8","0.4","0.2","0.6","0.3686405037","0.1717283936","0.4185550765","0.2570442146","","","","","","","","","","","75","K","2","","","186","main_expt"
"400","","bandit","265","928007","0.0-226.0-0.0","60287239","wem/bandit_either","A1CACVD2OGEOXR","either","6","","","","","","","0","0","1","0.2781151114","","0.8","0.4","0.2","0.6","","","","","0.3693778387","0.1399016055","0.4582246802","0.2781151114","","","","","","","76","L","3","","","187","main_expt"
"0","","bandit","266","929517","0.0-227.0-0.0","60287239","wem/bandit_either","A1CACVD2OGEOXR","either","6","","","","","","","1","0","0","0.2510368257","","0.8","0.4","0.2","0.6","","","","","0.3858781765","0.116743447","0.4499637214","0.2510368257","","","","","","","76","L","3","","","188","main_expt"
"398","","bandit","267","931425","0.0-228.0-0.0","60287239","wem/bandit_either","A1CACVD2OGEOXR","either","6","","","","","","","0","1","0","","0.4681283031","0.8","0.4","0.2","0.6","0.353665234","0.09810356538","0.4681283031","0.2299291889","","","","","","","","","","","75","K","2","","","189","main_expt"
"142","","bandit","268","933075","0.0-229.0-0.0","60287239","wem/bandit_either","A1CACVD2OGEOXR","either","6","","","","","","","0","0","1","0.2957770397","","0.8","0.4","0.2","0.6","","","","","0.3702546744","0.1333212727","0.4672384316","0.2957770397","","","","","","","76","L","3","","","190","main_expt"
"509","","bandit","269","935101","0.0-230.0-0.0","60287239","wem/bandit_either","A1CACVD2OGEOXR","either","6","","","","","","","0","0","1","","0.4633056668","0.8","0.4","0.2","0.6","0.3373283559","0.07289491444","0.4633056668","0.2806998676","","","","","","","","","","","75","K","2","","","191","main_expt"
"1416","","bandit","270","938029","0.0-231.0-0.0","60287239","wem/bandit_either","A1CACVD2OGEOXR","either","6","","","","","","","0","1","0","","0.3717228864","0.8","0.4","0.2","0.6","0.3717228864","0.09060717316","0.4701423021","0.2578649702","","","","","","","","","","","72","H","0","img/none_selected.jpg","","192","main_expt"
"732","","bandit","271","940277","0.0-232.0-0.0","60287239","wem/bandit_either","A1CACVD2OGEOXR","either","6","","","","","","","0","0","1","0.1038106097","","0.8","0.4","0.2","0.6","","","","","0.3861484819","0.1038106097","0.4625827917","0.3019093773","","","","","","","74","J","1","","","193","main_expt"
"531","","bandit","272","942325","0.0-233.0-0.0","60287239","wem/bandit_either","A1CACVD2OGEOXR","either","6","","","","","","","0","0","1","0.3884838939","","0.8","0.4","0.2","0.6","","","","","0.3884838939","0.1222204007","0.4480064119","0.3028603149","","","","","","","72","H","0","img/none_selected.jpg","","194","main_expt"
"438","","bandit","273","944273","0.0-234.0-0.0","60287239","wem/bandit_either","A1CACVD2OGEOXR","either","6","","","","","","","1","0","0","0.4058549971","","0.8","0.4","0.2","0.6","","","","","0.4058549971","0.1230179676","0.4263193963","0.2933095063","","","","","","","72","H","0","img/none_selected.jpg","","195","main_expt"
"630","","bandit","274","946411","0.0-235.0-0.0","60287239","wem/bandit_either","A1CACVD2OGEOXR","either","6","","","","","","","0","0","1","","0.3894648227","0.8","0.4","0.2","0.6","0.3894648227","0.1972068901","0.4399191733","0.3333663608","","","","","","","","","","","72","H","0","img/none_selected.jpg","","196","main_expt"
"199","","bandit","275","948130","0.0-236.0-0.0","60287239","wem/bandit_either","A1CACVD2OGEOXR","either","6","","","","","","","0","1","0","","0.3472763543","0.8","0.4","0.2","0.6","0.3452919481","0.2091218652","0.4303685687","0.3472763543","","","","","","","","","","","76","L","3","","","197","main_expt"
"1052","","bandit","276","950686","0.0-237.0-0.0","60287239","wem/bandit_either","A1CACVD2OGEOXR","either","6","","","","","","","1","0","0","0.4166638701","","0.8","0.4","0.2","0.6","","","","","0.3571156804","0.2316117542","0.4166638701","0.3420385624","","","","","","","75","K","2","","","198","main_expt"
"1950","","bandit","277","954146","0.0-238.0-0.0","60287239","wem/bandit_either","A1CACVD2OGEOXR","either","6","","","","","","","0","0","1","","0.3009927129","0.8","0.4","0.2","0.6","0.3761278261","0.1983173389","0.4166192342","0.3009927129","","","","","","","","","","","76","L","3","","","199","main_expt"
"430","","bandit","278","956095","0.0-239.0-0.0","60287239","wem/bandit_either","A1CACVD2OGEOXR","either","6","","","","","","","0","1","0","","0.4065109498","0.8","0.4","0.2","0.6","0.3623939384","0.2275108597","0.4065109498","0.2834367318","","","","","","","","","","","75","K","2","","","200","main_expt"
"618","","bandit","279","958223","0.0-240.0-0.0","60287239","wem/bandit_either","A1CACVD2OGEOXR","either","6","","","","","","","0","0","1","","0.4210367682","0.8","0.4","0.2","0.6","0.3470966653","0.2753755663","0.4210367682","0.2305195973","","","","","","","","","","","75","K","2","","","201","main_expt"
"710","","bandit","280","960444","0.0-241.0-0.0","60287239","wem/bandit_either","A1CACVD2OGEOXR","either","6","","","","","","","1","0","0","0.3738670455","","0.8","0.4","0.2","0.6","","","","","0.3738670455","0.2867984519","0.4059774394","0.236439039","","","","","","","72","H","0","img/none_selected.jpg","","202","main_expt"
"575","","bandit","281","962546","0.0-242.0-0.0","60287239","wem/bandit_either","A1CACVD2OGEOXR","either","6","","","","","","","1","0","0","0.4434414113","","0.8","0.4","0.2","0.6","","","","","0.4434414113","0.227681123","0.4217634448","0.207292508","","","","","","","72","H","0","img/none_selected.jpg","","203","main_expt"
"1034","","bandit","282","965106","0.0-243.0-0.0","60287239","wem/bandit_either","A1CACVD2OGEOXR","either","6","","","","","","","0","0","1","0.4363530878","","0.8","0.4","0.2","0.6","","","","","0.4363530878","0.2421814767","0.417590799","0.2706274655","","","","","","","72","H","0","img/none_selected.jpg","","204","main_expt"
"1130","","bandit","283","967751","0.0-244.0-0.0","60287239","wem/bandit_either","A1CACVD2OGEOXR","either","6","","","","","","","1","0","0","0.3892328218","","0.8","0.4","0.2","0.6","","","","","0.4390009565","0.2250127273","0.3892328218","0.2688171721","","","","","","","75","K","2","","","205","main_expt"
"734","","bandit","284","970008","0.0-245.0-0.0","60287239","wem/bandit_either","A1CACVD2OGEOXR","either","6","","","","","","","0","0","1","","0.3877758809","0.8","0.4","0.2","0.6","0.4606838579","0.2148063869","0.3877758809","0.2774640617","","","","","","","","","","","75","K","2","","","206","main_expt"
"1286","","bandit","285","972805","0.0-246.0-0.0","60287239","wem/bandit_either","A1CACVD2OGEOXR","either","6","","","","","","","0","0","1","0.31303597","","0.8","0.4","0.2","0.6","","","","","0.4679198071","0.2370073307","0.3344078408","0.31303597","","","","","","","76","L","3","","","207","main_expt"
"480","","bandit","286","974804","0.0-247.0-0.0","60287239","wem/bandit_either","A1CACVD2OGEOXR","either","6","","","","","","","0","0","1","","0.3285414067","0.8","0.4","0.2","0.6","0.4731710197","0.1736764344","0.3285414067","0.3187850143","","","","","","","","","","","75","K","2","","","208","main_expt"
"521","","bandit","287","976851","0.0-248.0-0.0","60287239","wem/bandit_either","A1CACVD2OGEOXR","either","6","","","","","","","0","1","0","","0.337659841","0.8","0.4","0.2","0.6","0.472507437","0.2033963155","0.337659841","0.3031297305","","","","","","","","","","","75","K","2","","","209","main_expt"
"1342","","bandit","288","979709","0.0-249.0-0.0","60287239","wem/bandit_either","A1CACVD2OGEOXR","either","6","","","","","","","0","1","0","","0.1849029676","0.8","0.4","0.2","0.6","0.4759946166","0.1849029676","0.322880172","0.3593083662","","","","","","","","","","","74","J","1","","","210","main_expt"
"640","","bandit","289","981862","0.0-250.0-0.0","60287239","wem/bandit_either","A1CACVD2OGEOXR","either","6","","","","","","","0","1","0","","0.3440981268","0.8","0.4","0.2","0.6","0.4838002785","0.08033524441","0.3440981268","0.3758292662","","","","","","","","","","","75","K","2","","","211","main_expt"
"519","","bandit","290","983901","0.0-251.0-0.0","60287239","wem/bandit_either","A1CACVD2OGEOXR","either","6","","","","","","","0","0","1","","0.3135232579","0.8","0.4","0.2","0.6","0.4871609062","0.1024936548","0.3135232579","0.3771764803","","","","","","","","","","","75","K","2","","","212","main_expt"
"354","","bandit","291","985778","0.0-252.0-0.0","60287239","wem/bandit_either","A1CACVD2OGEOXR","either","6","","","","","","","0","0","1","0.1380366818","","0.8","0.4","0.2","0.6","","","","","0.4829725273","0.1380366818","0.328558382","0.3935517348","","","","","","","74","J","1","","","213","main_expt"
"549","","bandit","292","987844","0.0-253.0-0.0","60287239","wem/bandit_either","A1CACVD2OGEOXR","either","6","","","","","","","1","0","0","0.3792377037","","0.8","0.4","0.2","0.6","","","","","0.4742933803","0.1206441992","0.3024402918","0.3792377037","","","","","","","76","L","3","","","214","main_expt"
"655","","bandit","293","990017","0.0-254.0-0.0","60287239","wem/bandit_either","A1CACVD2OGEOXR","either","6","","","","","","","1","0","0","0.4754417465","","0.8","0.4","0.2","0.6","","","","","0.4754417465","0.1320715796","0.3024001881","0.3364308411","","","","","","","72","H","0","img/none_selected.jpg","","215","main_expt"
"475","","bandit","294","992007","0.0-255.0-0.0","60287239","wem/bandit_either","A1CACVD2OGEOXR","either","6","","","","","","","0","1","0","","0.3348871659","0.8","0.4","0.2","0.6","0.4764866221","0.1152906885","0.2975117226","0.3348871659","","","","","","","","","","","76","L","3","","","216","main_expt"
"524","","bandit","295","994048","0.0-256.0-0.0","60287239","wem/bandit_either","A1CACVD2OGEOXR","either","6","","","","","","","1","0","0","0.4727866334","","0.8","0.4","0.2","0.6","","","","","0.4727866334","0.1191406027","0.3331298207","0.321293363","","","","","","","72","H","0","img/none_selected.jpg","","217","main_expt"
"499","","bandit","296","996067","0.0-257.0-0.0","60287239","wem/bandit_either","A1CACVD2OGEOXR","either","6","","","","","","","0","0","1","0.3530973922","","0.8","0.4","0.2","0.6","","","","","0.4664653133","0.1177717736","0.2905667849","0.3530973922","","","","","","","76","L","3","","","218","main_expt"
"405","","bandit","297","997985","0.0-258.0-0.0","60287239","wem/bandit_either","A1CACVD2OGEOXR","either","6","","","","","","","0","0","1","0.4636837267","","0.8","0.4","0.2","0.6","","","","","0.4636837267","0.1178729669","0.2701708387","0.3837093308","","","","","","","72","H","0","img/none_selected.jpg","","219","main_expt"
"553","","bandit","298","1000060","0.0-259.0-0.0","60287239","wem/bandit_either","A1CACVD2OGEOXR","either","6","","","","","","","0","0","1","","0.1284790336","0.8","0.4","0.2","0.6","0.4599900571","0.1284790336","0.2395453957","0.3651541458","","","","","","","","","","","74","J","1","","","220","main_expt"
"230","","bandit","299","1001800","0.0-260.0-0.0","60287239","wem/bandit_either","A1CACVD2OGEOXR","either","6","","","","","","","0","0","1","0.2770622605","","0.8","0.4","0.2","0.6","","","","","0.4490722186","0.147465279","0.2770622605","0.254085412","","","","","","","75","K","2","","","221","main_expt"
"483","","bandit","300","1003807","0.0-261.0-0.0","60287239","wem/bandit_either","A1CACVD2OGEOXR","either","6","","","","","","","0","0","1","","0.3390746663","0.8","0.4","0.2","0.6","0.4253353094","0.1441925756","0.3390746663","0.2590796483","","","","","","","","","","","75","K","2","","","222","main_expt"
"493","","bandit","301","1005817","0.0-262.0-0.0","60287239","wem/bandit_either","A1CACVD2OGEOXR","either","6","","","","","","","0","0","1","0.2640852941","","0.8","0.4","0.2","0.6","","","","","0.4559825987","0.1731110736","0.384843876","0.2640852941","","","","","","","76","L","3","","","223","main_expt"
"413","","bandit","302","1007753","0.0-263.0-0.0","60287239","wem/bandit_either","A1CACVD2OGEOXR","either","6","","","","","","","0","0","1","0.464560515","","0.8","0.4","0.2","0.6","","","","","0.464560515","0.1124600034","0.4367619307","0.2636590797","","","","","","","72","H","0","img/none_selected.jpg","","224","main_expt"
"1062","","bandit","303","1010335","0.0-264.0-0.0","60287239","wem/bandit_either","A1CACVD2OGEOXR","either","6","","","","","","","0","0","1","","0.1174510337","0.8","0.4","0.2","0.6","0.4528378766","0.1174510337","0.42055701","0.3110444069","","","","","","","","","","","74","J","1","","","225","main_expt"
"378","","bandit","304","1012230","0.0-265.0-0.0","60287239","wem/bandit_either","A1CACVD2OGEOXR","either","6","","","","","","","0","0","1","0.1494320736","","0.8","0.4","0.2","0.6","","","","","0.4585160156","0.1494320736","0.4282593698","0.3268768972","","","","","","","74","J","1","","","226","main_expt"
"578","","bandit","305","1014320","0.0-266.0-0.0","60287239","wem/bandit_either","A1CACVD2OGEOXR","either","6","","","","","","","0","0","1","","0.4213985596","0.8","0.4","0.2","0.6","0.4525914875","0.1655037845","0.4213985596","0.3112991039","","","","","","","","","","","75","K","2","","","227","main_expt"
"352","","bandit","306","1016186","0.0-267.0-0.0","60287239","wem/bandit_either","A1CACVD2OGEOXR","either","6","","","","","","","0","0","1","","0.4115599459","0.8","0.4","0.2","0.6","0.4618810074","0.1595877114","0.4115599459","0.3481066565","","","","","","","","","","","75","K","2","","","228","main_expt"
"430","","bandit","307","1018134","0.0-268.0-0.0","60287239","wem/bandit_either","A1CACVD2OGEOXR","either","6","","","","","","","0","0","1","","0.3267856819","0.8","0.4","0.2","0.6","0.4661541784","0.1811982871","0.375967734","0.3267856819","","","","","","","","","","","76","L","3","","","229","main_expt"
"491","","bandit","308","1020150","0.0-269.0-0.0","60287239","wem/bandit_either","A1CACVD2OGEOXR","either","6","","","","","","","0","0","1","0.4681373403","","0.8","0.4","0.2","0.6","","","","","0.4681373403","0.2088208598","0.4172813036","0.3043034776","","","","","","","72","H","0","img/none_selected.jpg","","230","main_expt"
"515","","bandit","309","1022179","0.0-270.0-0.0","60287239","wem/bandit_either","A1CACVD2OGEOXR","either","6","","","","","","","0","0","1","0.2062946352","","0.8","0.4","0.2","0.6","","","","","0.4733838814","0.2062946352","0.3871641603","0.3127123154","","","","","","","74","J","1","","","231","main_expt"
"568","","bandit","310","1024259","0.0-271.0-0.0","60287239","wem/bandit_either","A1CACVD2OGEOXR","either","6","","","","","","","0","0","1","","0.1448621505","0.8","0.4","0.2","0.6","0.455942125","0.1448621505","0.3381606844","0.3039198066","","","","","","","","","","","74","J","1","","","232","main_expt"
"220","","bandit","311","1026005","0.0-272.0-0.0","60287239","wem/bandit_either","A1CACVD2OGEOXR","either","6","","","","","","","0","0","1","","0.2918198365","0.8","0.4","0.2","0.6","0.4523014459","0.1096360744","0.2918198365","0.2846072758","","","","","","","","","","","75","K","2","","","233","main_expt"
"60","","bandit","312","1027582","0.0-273.0-0.0","60287239","wem/bandit_either","A1CACVD2OGEOXR","either","6","","","","","","","1","0","0","0.4715877437","","0.8","0.4","0.2","0.6","","","","","0.4715877437","0.1102272527","0.3016980071","0.2430061478","","","","","","","72","H","0","img/none_selected.jpg","","234","main_expt"
"596","","bandit","313","1029694","0.0-274.0-0.0","60287239","wem/bandit_either","A1CACVD2OGEOXR","either","6","","","","","","","0","0","1","0.4667146267","","0.8","0.4","0.2","0.6","","","","","0.4667146267","0.1428859574","0.2940059945","0.263037213","","","","","","","72","H","0","img/none_selected.jpg","","235","main_expt"
"2228","","bandit","314","1033433","0.0-275.0-0.0","60287239","wem/bandit_either","A1CACVD2OGEOXR","either","6","","","","","","","0","0","1","","0.2926833733","0.8","0.4","0.2","0.6","0.4638430617","0.1659437887","0.2926833733","0.2976510001","","","","","","","","","","","75","K","2","","","236","main_expt"
"1793","","bandit","315","1036746","0.0-276.0-0.0","60287239","wem/bandit_either","A1CACVD2OGEOXR","either","6","","","","","","","0","0","1","","0.1948695303","0.8","0.4","0.2","0.6","0.4584702359","0.1948695303","0.278351659","0.2789990486","","","","","","","","","","","74","J","1","","","237","main_expt"
"687","","bandit","316","1038946","0.0-277.0-0.0","60287239","wem/bandit_either","A1CACVD2OGEOXR","either","6","","","","","","","0","0","1","0.2760904485","","0.8","0.4","0.2","0.6","","","","","0.4297714473","0.2231382717","0.2475781625","0.2760904485","","","","","","","76","L","3","","","238","main_expt"
"536","","bandit","317","1041000","0.0-278.0-0.0","60287239","wem/bandit_either","A1CACVD2OGEOXR","either","6","","","","","","","0","1","0","","0.2679201555","0.8","0.4","0.2","0.6","0.4225482751","0.2118273477","0.2476463542","0.2679201555","","","","","","","","","","","76","L","3","","","239","main_expt"
"513","","bandit","318","1043023","0.0-279.0-0.0","60287239","wem/bandit_either","A1CACVD2OGEOXR","either","6","","","","","","","0","0","1","0.1815101208","","0.8","0.4","0.2","0.6","","","","","0.3911766626","0.175879666","0.2691810592","0.1815101208","","","","","","","76","L","3","","","240","main_expt"
"363","","bandit","319","1044909","0.0-280.0-0.0","60287239","wem/bandit_either","A1CACVD2OGEOXR","either","6","","","","","","","0","1","0","","0.2107278188","0.8","0.4","0.2","0.6","0.3576719612","0.2619723004","0.2600118225","0.2107278188","","","","","","","","","","","76","L","3","","","241","main_expt"
"470","","bandit","320","1046899","0.0-281.0-0.0","60287239","wem/bandit_either","A1CACVD2OGEOXR","either","6","","","","","","","0","0","1","","0.2585740571","0.8","0.4","0.2","0.6","0.3649942216","0.253357122","0.2585740571","0.1890457695","","","","","","","","","","","75","K","2","","","242","main_expt"
"134","","bandit","321","1048544","0.0-282.0-0.0","60287239","wem/bandit_either","A1CACVD2OGEOXR","either","6","","","","","","","1","0","0","0.3462843793","","0.8","0.4","0.2","0.6","","","","","0.3462843793","0.2937411872","0.1943885749","0.1983598585","","","","","","","72","H","0","img/none_selected.jpg","","243","main_expt"
"796","","bandit","322","1050856","0.0-283.0-0.0","60287239","wem/bandit_either","A1CACVD2OGEOXR","either","6","","","","","","","1","0","0","0.2165838592","","0.8","0.4","0.2","0.6","","","","","0.3520149162","0.2743784529","0.1861062248","0.2165838592","","","","","","","76","L","3","","","244","main_expt"
"383","","bandit","323","1052762","0.0-284.0-0.0","60287239","wem/bandit_either","A1CACVD2OGEOXR","either","6","","","","","","","1","0","0","0.3483485742","","0.8","0.4","0.2","0.6","","","","","0.3483485742","0.2734657034","0.1398782291","0.1823109088","","","","","","","72","H","0","img/none_selected.jpg","","245","main_expt"
"517","","bandit","324","1054792","0.0-285.0-0.0","60287239","wem/bandit_either","A1CACVD2OGEOXR","either","6","","","","","","","0","0","1","0.172760958","","0.8","0.4","0.2","0.6","","","","","0.3814570076","0.2285423815","0.1392076576","0.172760958","","","","","","","76","L","3","","","246","main_expt"
"480","","bandit","325","1056782","0.0-286.0-0.0","60287239","wem/bandit_either","A1CACVD2OGEOXR","either","6","","","","","","","0","0","1","0.3871035364","","0.8","0.4","0.2","0.6","","","","","0.3871035364","0.269943793","0.2028121248","0.1955602127","","","","","","","72","H","0","img/none_selected.jpg","","247","main_expt"
"383","","bandit","326","1058679","0.0-287.0-0.0","60287239","wem/bandit_either","A1CACVD2OGEOXR","either","6","","","","","","","0","1","0","","0.2974302923","0.8","0.4","0.2","0.6","0.3746835134","0.2974302923","0.2522392451","0.1770790361","","","","","","","","","","","74","J","1","","","248","main_expt"
"626","","bandit","327","1060819","0.0-288.0-0.0","60287239","wem/bandit_either","A1CACVD2OGEOXR","either","6","","","","","","","0","1","0","","0.2667415426","0.8","0.4","0.2","0.6","0.3787028279","0.2667415426","0.234975876","0.1884848562","","","","","","","","","","","74","J","1","","","249","main_expt"
"770","","bandit","328","1063109","0.0-289.0-0.0","60287239","wem/bandit_either","A1CACVD2OGEOXR","either","6","","","","","","","0","0","1","","0.3302420342","0.8","0.4","0.2","0.6","0.3475116331","0.3302420342","0.2388523745","0.2314514176","","","","","","","","","","","74","J","1","","","250","main_expt"
"380","","bandit","329","1065005","0.0-290.0-0.0","60287239","wem/bandit_either","A1CACVD2OGEOXR","either","6","","","","","","","1","0","0","0.2412642198","","0.8","0.4","0.2","0.6","","","","","0.3297368302","0.3080318139","0.2412642198","0.2028544779","","","","","","","75","K","2","","","251","main_expt"
"486","","bandit","330","1067005","0.0-291.0-0.0","60287239","wem/bandit_either","A1CACVD2OGEOXR","either","6","","","","","","","0","0","1","0.2931646133","","0.8","0.4","0.2","0.6","","","","","0.2830962297","0.2931646133","0.2662386667","0.2296758881","","","","","","","74","J","1","","","252","main_expt"
"413","","bandit","331","1068935","0.0-292.0-0.0","60287239","wem/bandit_either","A1CACVD2OGEOXR","either","6","","","","","","","0","0","1","0.288812178","","0.8","0.4","0.2","0.6","","","","","0.2360872172","0.3315577467","0.288812178","0.1527325802","","","","","","","75","K","2","","","253","main_expt"
