"rt","responses","trial_type","trial_index","time_elapsed","internal_node_id","subjID","study","MID","cond","drift","key_press","expt_phase","target","like","value","connected","gems","bombs","no_reward","GemPrChosen","BombPrChosen","GainOverPainPr_0","GainOverPainPr_1","GainOverPainPr_2","GainOverPainPr_3","LosePr_0","LosePr_1","LosePr_2","LosePr_3","WinPr_0","WinPr_1","WinPr_2","WinPr_3","Q0","Q1","Q2","gender","age","ethnicity","respCharCode","respKey","respChoiceNum","respChoice","practice","trial_counter","trial_label"
"7811","{""Q0"":""A21S7MA9DCW95E""}","survey-text","0","7829","0.0-0.0","60323577","wem/bandit_either","A21S7MA9DCW95E","either","6","","","","","","","","","","","","","","","","","","","","","","","","","","","","","","","","","","","",""
"17547","","text","1","26387","0.0-1.0","60323577","wem/bandit_either","A21S7MA9DCW95E","either","6","32","","","","","","","","","","","","","","","","","","","","","","","","","","","","","","","","","","",""
"8517","","text","2","34907","0.0-2.0","60323577","wem/bandit_either","A21S7MA9DCW95E","either","6","32","","","","","","","","","","","","","","","","","","","","","","","","","","","","","","","","","","",""
"29078","","text","3","63989","0.0-3.0","60323577","wem/bandit_either","A21S7MA9DCW95E","either","6","32","","","","","","","","","","","","","","","","","","","","","","","","","","","","","","","","","","",""
"18153","","text","4","82146","0.0-4.0","60323577","wem/bandit_either","A21S7MA9DCW95E","either","6","32","","","","","","","","","","","","","","","","","","","","","","","","","","","","","","","","","","",""
"23273","","text","5","105422","0.0-5.0","60323577","wem/bandit_either","A21S7MA9DCW95E","either","6","32","","","","","","","","","","","","","","","","","","","","","","","","","","","","","","","","","","",""
"9632","","text","6","115056","0.0-6.0","60323577","wem/bandit_either","A21S7MA9DCW95E","either","6","32","","","","","","","","","","","","","","","","","","","","","","","","","","","","","","","","","","",""
"8900","","text","7","123959","0.0-7.0","60323577","wem/bandit_either","A21S7MA9DCW95E","either","6","32","","","","","","","","","","","","","","","","","","","","","","","","","","","","","","","","","","",""
"10443","","identification","8","134465","0.0-8.0-0.0","60323577","wem/bandit_either","A21S7MA9DCW95E","either","6","","identification_pre","the village of Zur","","","","","","","","","","","","","","","","","","","","","","","","","","","","","","","","",""
"5838","","identification","9","141343","0.0-8.0-1.0","60323577","wem/bandit_either","A21S7MA9DCW95E","either","6","","identification_pre","the village of Nyx","","","","","","","","","","","","","","","","","","","","","","","","","","","","","","","","",""
"7039","","text","10","149387","0.0-9.0","60323577","wem/bandit_either","A21S7MA9DCW95E","either","6","32","","","","","","","","","","","","","","","","","","","","","","","","","","","","","","","","","","",""
"4094","","text","11","153485","0.0-10.0","60323577","wem/bandit_either","A21S7MA9DCW95E","either","6","32","","","","","","","","","","","","","","","","","","","","","","","","","","","","","","","","","","",""
"2775","","text","12","156263","0.0-11.0","60323577","wem/bandit_either","A21S7MA9DCW95E","either","6","32","","","","","","","","","","","","","","","","","","","","","","","","","","","","","","","","","","",""
"6758","","text","13","163023","0.0-12.0","60323577","wem/bandit_either","A21S7MA9DCW95E","either","6","32","","","","","","","","","","","","","","","","","","","","","","","","","","","","","","","","","","",""
"3208","","bandit","14","167746","0.0-13.0-0.0","60323577","wem/bandit_either","A21S7MA9DCW95E","either","6","","","","","","","0","0","1","0","0","","","","","0","","","","0","","","","","","","","","","74","J","0","img/none_selected_demo.jpg","true","0",""
"1403","","bandit","15","170661","0.0-14.0-0.0","60323577","wem/bandit_either","A21S7MA9DCW95E","either","6","","","","","","","0","0","1","0","0","","","","","0","","","","0","","","","","","","","","","75","K","0","img/none_selected_demo.jpg","true","0",""
"9754","","text","16","180419","0.0-15.0","60323577","wem/bandit_either","A21S7MA9DCW95E","either","6","32","","","","","","","","","","","","","","","","","","","","","","","","","","","","","","","","","","",""
"15392","","text","17","195815","0.0-16.0","60323577","wem/bandit_either","A21S7MA9DCW95E","either","6","32","","","","","","","","","","","","","","","","","","","","","","","","","","","","","","","","","","",""
"16859","","text","18","212678","0.0-17.0","60323577","wem/bandit_either","A21S7MA9DCW95E","either","6","32","","","","","","","","","","","","","","","","","","","","","","","","","","","","","","","","","","",""
"6227","","text","19","218910","0.0-18.0","60323577","wem/bandit_either","A21S7MA9DCW95E","either","6","32","","","","","","","","","","","","","","","","","","","","","","","","","","","","","","","","","","",""
"1082","","bandit","20","221503","0.0-19.0-0.0","60323577","wem/bandit_either","A21S7MA9DCW95E","either","6","","","","","","","1","0","0","0.8","","0.5","0.5","","","","","","","0.8","0.2","","","","","","","","","74","J","0","img/none_selected_demo.jpg","true","0","80_20_practice"
"389","","bandit","21","223409","0.0-19.0-1.0","60323577","wem/bandit_either","A21S7MA9DCW95E","either","6","","","","","","","0","0","1","","0.8","0.5","0.5","","","0.8","0.2","","","","","","","","","","","","","74","J","0","img/none_selected_demo.jpg","true","0","80_20_practice"
"798","","bandit","22","225721","0.0-19.0-2.0","60323577","wem/bandit_either","A21S7MA9DCW95E","either","6","","","","","","","0","0","1","0.8","","0.5","0.5","","","","","","","0.8","0.2","","","","","","","","","74","J","0","img/none_selected_demo.jpg","true","0","80_20_practice"
"422","","bandit","23","227655","0.0-19.0-3.0","60323577","wem/bandit_either","A21S7MA9DCW95E","either","6","","","","","","","0","0","1","","0.2","0.5","0.5","","","0.8","0.2","","","","","","","","","","","","","75","K","1","","true","0","80_20_practice"
"543","","bandit","24","229713","0.0-19.0-4.0","60323577","wem/bandit_either","A21S7MA9DCW95E","either","6","","","","","","","0","0","1","0.2","","0.5","0.5","","","","","","","0.8","0.2","","","","","","","","","75","K","1","","true","0","80_20_practice"
"57","","bandit","25","231282","0.0-19.0-5.0","60323577","wem/bandit_either","A21S7MA9DCW95E","either","6","","","","","","","0","1","0","","0.8","0.5","0.5","","","0.8","0.2","","","","","","","","","","","","","74","J","0","img/none_selected_demo.jpg","true","0","80_20_practice"
"537","","bandit","26","233336","0.0-19.0-6.0","60323577","wem/bandit_either","A21S7MA9DCW95E","either","6","","","","","","","0","0","1","0.2","","0.5","0.5","","","","","","","0.8","0.2","","","","","","","","","75","K","1","","true","0","80_20_practice"
"327","","bandit","27","235173","0.0-19.0-7.0","60323577","wem/bandit_either","A21S7MA9DCW95E","either","6","","","","","","","0","0","1","","0.8","0.5","0.5","","","0.8","0.2","","","","","","","","","","","","","74","J","0","img/none_selected_demo.jpg","true","0","80_20_practice"
"349","","bandit","28","237033","0.0-19.0-8.0","60323577","wem/bandit_either","A21S7MA9DCW95E","either","6","","","","","","","0","1","0","","0.8","0.5","0.5","","","0.8","0.2","","","","","","","","","","","","","74","J","0","img/none_selected_demo.jpg","true","0","80_20_practice"
"868","","bandit","29","239411","0.0-19.0-9.0","60323577","wem/bandit_either","A21S7MA9DCW95E","either","6","","","","","","","1","0","0","0.8","","0.5","0.5","","","","","","","0.8","0.2","","","","","","","","","74","J","0","img/none_selected_demo.jpg","true","0","80_20_practice"
"503","","bandit","30","241426","0.0-19.0-10.0","60323577","wem/bandit_either","A21S7MA9DCW95E","either","6","","","","","","","0","0","1","","0.2","0.5","0.5","","","0.8","0.2","","","","","","","","","","","","","75","K","1","","true","0","80_20_practice"
"477","","bandit","31","243413","0.0-19.0-11.0","60323577","wem/bandit_either","A21S7MA9DCW95E","either","6","","","","","","","0","0","1","0.2","","0.5","0.5","","","","","","","0.8","0.2","","","","","","","","","75","K","1","","true","0","80_20_practice"
"420","","bandit","32","245349","0.0-19.0-12.0","60323577","wem/bandit_either","A21S7MA9DCW95E","either","6","","","","","","","1","0","0","0.8","","0.5","0.5","","","","","","","0.8","0.2","","","","","","","","","74","J","0","img/none_selected_demo.jpg","true","0","80_20_practice"
"360","","bandit","33","247222","0.0-19.0-13.0","60323577","wem/bandit_either","A21S7MA9DCW95E","either","6","","","","","","","0","1","0","","0.8","0.5","0.5","","","0.8","0.2","","","","","","","","","","","","","74","J","0","img/none_selected_demo.jpg","true","0","80_20_practice"
"448","","bandit","34","249182","0.0-19.0-14.0","60323577","wem/bandit_either","A21S7MA9DCW95E","either","6","","","","","","","1","0","0","0.8","","0.5","0.5","","","","","","","0.8","0.2","","","","","","","","","74","J","0","img/none_selected_demo.jpg","true","0","80_20_practice"
"533","","bandit","35","251227","0.0-19.0-15.0","60323577","wem/bandit_either","A21S7MA9DCW95E","either","6","","","","","","","0","1","0","","0.8","0.5","0.5","","","0.8","0.2","","","","","","","","","","","","","74","J","0","img/none_selected_demo.jpg","true","0","80_20_practice"
"318","","bandit","36","253057","0.0-19.0-16.0","60323577","wem/bandit_either","A21S7MA9DCW95E","either","6","","","","","","","1","0","0","0.8","","0.5","0.5","","","","","","","0.8","0.2","","","","","","","","","74","J","0","img/none_selected_demo.jpg","true","0","80_20_practice"
"311","","bandit","37","254884","0.0-19.0-17.0","60323577","wem/bandit_either","A21S7MA9DCW95E","either","6","","","","","","","0","0","1","","0.2","0.5","0.5","","","0.8","0.2","","","","","","","","","","","","","75","K","1","","true","0","80_20_practice"
"68","","bandit","38","256466","0.0-19.0-18.0","60323577","wem/bandit_either","A21S7MA9DCW95E","either","6","","","","","","","1","0","0","0.8","","0.5","0.5","","","","","","","0.8","0.2","","","","","","","","","74","J","0","img/none_selected_demo.jpg","true","0","80_20_practice"
"360","","bandit","39","258339","0.0-19.0-19.0","60323577","wem/bandit_either","A21S7MA9DCW95E","either","6","","","","","","","1","0","0","0.8","","0.5","0.5","","","","","","","0.8","0.2","","","","","","","","","74","J","0","img/none_selected_demo.jpg","true","0","80_20_practice"
"6318","","text","40","264663","0.0-20.0","60323577","wem/bandit_either","A21S7MA9DCW95E","either","6","32","","","","","","","","","","","","","","","","","","","","","","","","","","","","","","","","","","",""
"755","","bandit","41","266931","0.0-21.0-0.0","60323577","wem/bandit_either","A21S7MA9DCW95E","either","6","","","","","","","1","0","0","1","0","","","","","0","1","","","1","0","","","","","","","","","74","J","0","img/none_selected_demo.jpg","true","0",""
"12495","","text","42","279433","0.0-22.0","60323577","wem/bandit_either","A21S7MA9DCW95E","either","6","32","","","","","","","","","","","","","","","","","","","","","","","","","","","","","","","","","","",""
"3503","","text","43","282942","0.0-23.0","60323577","wem/bandit_either","A21S7MA9DCW95E","either","6","32","","","","","","","","","","","","","","","","","","","","","","","","","","","","","","","","","","",""
"3734","","text","44","286680","0.0-24.0","60323577","wem/bandit_either","A21S7MA9DCW95E","either","6","32","","","","","","","","","","","","","","","","","","","","","","","","","","","","","","","","","","",""
"5141","","text","45","291827","0.0-25.0","60323577","wem/bandit_either","A21S7MA9DCW95E","either","6","32","","","","","","","","","","","","","","","","","","","","","","","","","","","","","","","","","","",""
"15777","","text","46","307612","0.0-26.0","60323577","wem/bandit_either","A21S7MA9DCW95E","either","6","32","","","","","","","","","","","","","","","","","","","","","","","","","","","","","","","","","","",""
"4655","","text","47","312274","0.0-27.0","60323577","wem/bandit_either","A21S7MA9DCW95E","either","6","32","","","","","","","","","","","","","","","","","","","","","","","","","","","","","","","","","","",""
"6036","","text","48","318316","0.0-28.0","60323577","wem/bandit_either","A21S7MA9DCW95E","either","6","32","","","","","","","","","","","","","","","","","","","","","","","","","","","","","","","","","","",""
"4639","","text","49","322960","0.0-29.0","60323577","wem/bandit_either","A21S7MA9DCW95E","either","6","32","","","","","","","","","","","","","","","","","","","","","","","","","","","","","","","","","","",""
"5978","","text","50","328942","0.0-30.0","60323577","wem/bandit_either","A21S7MA9DCW95E","either","6","32","","","","","","","","","","","","","","","","","","","","","","","","","","","","","","","","","","",""
"3299","","text","51","332247","0.0-31.0","60323577","wem/bandit_either","A21S7MA9DCW95E","either","6","32","","","","","","","","","","","","","","","","","","","","","","","","","","","","","","","","","","",""
"4806","","text","52","337058","0.0-32.0","60323577","wem/bandit_either","A21S7MA9DCW95E","either","6","32","","","","","","","","","","","","","","","","","","","","","","","","","","","","","","","","","","",""
"1292","","bandit","53","339861","0.0-33.0-0.0","60323577","wem/bandit_either","A21S7MA9DCW95E","either","6","","","","","","","0","1","0","","0.8","0.5","0.5","0.5","0.5","0.8","0.2","0.6","0.2","","","","","","","","","","","72","H","0","img/none_selected.jpg","true","0","full_practice"
"440","","bandit","54","341816","0.0-33.0-1.0","60323577","wem/bandit_either","A21S7MA9DCW95E","either","6","","","","","","","0","0","1","0.2","","0.5","0.5","0.5","0.5","","","","","0.8","0.2","0.6","0.2","","","","","","","74","J","1","","true","0","full_practice"
"714","","bandit","55","344042","0.0-33.0-2.0","60323577","wem/bandit_either","A21S7MA9DCW95E","either","6","","","","","","","1","0","0","0.6","","0.5","0.5","0.5","0.5","","","","","0.8","0.2","0.6","0.2","","","","","","","75","K","2","","true","0","full_practice"
"496","","bandit","56","346050","0.0-33.0-3.0","60323577","wem/bandit_either","A21S7MA9DCW95E","either","6","","","","","","","0","0","1","0.2","","0.5","0.5","0.5","0.5","","","","","0.8","0.2","0.6","0.2","","","","","","","76","L","3","","true","0","full_practice"
"45","","bandit","57","347613","0.0-33.0-4.0","60323577","wem/bandit_either","A21S7MA9DCW95E","either","6","","","","","","","1","0","0","0.8","","0.5","0.5","0.5","0.5","","","","","0.8","0.2","0.6","0.2","","","","","","","72","H","0","img/none_selected.jpg","true","0","full_practice"
"330","","bandit","58","349459","0.0-33.0-5.0","60323577","wem/bandit_either","A21S7MA9DCW95E","either","6","","","","","","","0","1","0","","0.6","0.5","0.5","0.5","0.5","0.8","0.2","0.6","0.2","","","","","","","","","","","75","K","2","","true","0","full_practice"
"323","","bandit","59","351294","0.0-33.0-6.0","60323577","wem/bandit_either","A21S7MA9DCW95E","either","6","","","","","","","1","0","0","0.8","","0.5","0.5","0.5","0.5","","","","","0.8","0.2","0.6","0.2","","","","","","","72","H","0","img/none_selected.jpg","true","0","full_practice"
"96","","bandit","60","352904","0.0-33.0-7.0","60323577","wem/bandit_either","A21S7MA9DCW95E","either","6","","","","","","","0","0","1","0.6","","0.5","0.5","0.5","0.5","","","","","0.8","0.2","0.6","0.2","","","","","","","75","K","2","","true","0","full_practice"
"422","","bandit","61","354839","0.0-33.0-8.0","60323577","wem/bandit_either","A21S7MA9DCW95E","either","6","","","","","","","0","1","0","","0.8","0.5","0.5","0.5","0.5","0.8","0.2","0.6","0.2","","","","","","","","","","","72","H","0","img/none_selected.jpg","true","0","full_practice"
"661","","bandit","62","357016","0.0-33.0-9.0","60323577","wem/bandit_either","A21S7MA9DCW95E","either","6","","","","","","","1","0","0","0.8","","0.5","0.5","0.5","0.5","","","","","0.8","0.2","0.6","0.2","","","","","","","72","H","0","img/none_selected.jpg","true","0","full_practice"
"306","","bandit","63","358837","0.0-33.0-10.0","60323577","wem/bandit_either","A21S7MA9DCW95E","either","6","","","","","","","0","1","0","","0.8","0.5","0.5","0.5","0.5","0.8","0.2","0.6","0.2","","","","","","","","","","","72","H","0","img/none_selected.jpg","true","0","full_practice"
"249","","bandit","64","360602","0.0-33.0-11.0","60323577","wem/bandit_either","A21S7MA9DCW95E","either","6","","","","","","","1","0","0","0.8","","0.5","0.5","0.5","0.5","","","","","0.8","0.2","0.6","0.2","","","","","","","72","H","0","img/none_selected.jpg","true","0","full_practice"
"356","","bandit","65","362476","0.0-33.0-12.0","60323577","wem/bandit_either","A21S7MA9DCW95E","either","6","","","","","","","1","0","0","0.8","","0.5","0.5","0.5","0.5","","","","","0.8","0.2","0.6","0.2","","","","","","","72","H","0","img/none_selected.jpg","true","0","full_practice"
"410","","bandit","66","364401","0.0-33.0-13.0","60323577","wem/bandit_either","A21S7MA9DCW95E","either","6","","","","","","","1","0","0","0.8","","0.5","0.5","0.5","0.5","","","","","0.8","0.2","0.6","0.2","","","","","","","72","H","0","img/none_selected.jpg","true","0","full_practice"
"593","","bandit","67","366507","0.0-33.0-14.0","60323577","wem/bandit_either","A21S7MA9DCW95E","either","6","","","","","","","0","1","0","","0.8","0.5","0.5","0.5","0.5","0.8","0.2","0.6","0.2","","","","","","","","","","","72","H","0","img/none_selected.jpg","true","0","full_practice"
"697","","bandit","68","368718","0.0-33.0-15.0","60323577","wem/bandit_either","A21S7MA9DCW95E","either","6","","","","","","","0","1","0","","0.8","0.5","0.5","0.5","0.5","0.8","0.2","0.6","0.2","","","","","","","","","","","72","H","0","img/none_selected.jpg","true","0","full_practice"
"340","","bandit","69","370572","0.0-33.0-16.0","60323577","wem/bandit_either","A21S7MA9DCW95E","either","6","","","","","","","1","0","0","0.8","","0.5","0.5","0.5","0.5","","","","","0.8","0.2","0.6","0.2","","","","","","","72","H","0","img/none_selected.jpg","true","0","full_practice"
"1115","","bandit","70","373202","0.0-33.0-17.0","60323577","wem/bandit_either","A21S7MA9DCW95E","either","6","","","","","","","0","0","1","","0.8","0.5","0.5","0.5","0.5","0.8","0.2","0.6","0.2","","","","","","","","","","","72","H","0","img/none_selected.jpg","true","0","full_practice"
"238","","bandit","71","374953","0.0-33.0-18.0","60323577","wem/bandit_either","A21S7MA9DCW95E","either","6","","","","","","","1","0","0","0.6","","0.5","0.5","0.5","0.5","","","","","0.8","0.2","0.6","0.2","","","","","","","75","K","2","","true","0","full_practice"
"415","","bandit","72","376880","0.0-33.0-19.0","60323577","wem/bandit_either","A21S7MA9DCW95E","either","6","","","","","","","0","1","0","","0.6","0.5","0.5","0.5","0.5","0.8","0.2","0.6","0.2","","","","","","","","","","","75","K","2","","true","0","full_practice"
"3171","","text","73","380071","0.0-34.0","60323577","wem/bandit_either","A21S7MA9DCW95E","either","6","32","","","","","","","","","","","","","","","","","","","","","","","","","","","","","","","","","","",""
"16223","","text","74","397299","0.0-35.0","60323577","wem/bandit_either","A21S7MA9DCW95E","either","6","32","","","","","","","","","","","","","","","","","","","","","","","","","","","","","","","","","","",""
"16687","","text","75","413993","0.0-36.0","60323577","wem/bandit_either","A21S7MA9DCW95E","either","6","32","","","","","","","","","","","","","","","","","","","","","","","","","","","","","","","","","","",""
"9911","","text","76","423910","0.0-37.0","60323577","wem/bandit_either","A21S7MA9DCW95E","either","6","32","","","","","","","","","","","","","","","","","","","","","","","","","","","","","","","","","","",""
"8631","","text","77","432548","0.0-38.0","60323577","wem/bandit_either","A21S7MA9DCW95E","either","6","32","","","","","","","","","","","","","","","","","","","","","","","","","","","","","","","","","","",""
"6606","","text","78","439159","0.0-39.0","60323577","wem/bandit_either","A21S7MA9DCW95E","either","6","32","","","","","","","","","","","","","","","","","","","","","","","","","","","","","","","","","","",""
"1622","","bandit","79","442304","0.0-40.0-0.0","60323577","wem/bandit_either","A21S7MA9DCW95E","either","6","","","","","","","0","0","1","0.1720655487","","0.6","0.8","0.4","0.2","","","","","0.1720655487","0.06094066238","0.4656478179","0.1734470434","","","","","","","72","H","0","img/none_selected.jpg","","1","main_expt"
"378","","bandit","80","444203","0.0-41.0-0.0","60323577","wem/bandit_either","A21S7MA9DCW95E","either","6","","","","","","","0","0","1","0.04941180107","","0.6","0.8","0.4","0.2","","","","","0.1607886358","0.04941180107","0.4661883906","0.1582158198","","","","","","","74","J","1","","","2","main_expt"
"3","","bandit","81","445720","0.0-42.0-0.0","60323577","wem/bandit_either","A21S7MA9DCW95E","either","6","","","","","","","0","1","0","","0.4608397999","0.6","0.8","0.4","0.2","0.1825924006","0.09066711981","0.4608397999","0.1264016625","","","","","","","","","","","75","K","2","","","3","main_expt"
"289","","bandit","82","447528","0.0-43.0-0.0","60323577","wem/bandit_either","A21S7MA9DCW95E","either","6","","","","","","","0","0","1","","0.1212924903","0.6","0.8","0.4","0.2","0.1572982515","0.07815644495","0.4568511376","0.1212924903","","","","","","","","","","","76","L","3","","","4","main_expt"
"391","","bandit","83","449432","0.0-44.0-0.0","60323577","wem/bandit_either","A21S7MA9DCW95E","either","6","","","","","","","1","0","0","0.4576747282","","0.6","0.8","0.4","0.2","","","","","0.1873501432","0.06547040057","0.4576747282","0.1603104869","","","","","","","75","K","2","","","5","main_expt"
"321","","bandit","84","451264","0.0-45.0-0.0","60323577","wem/bandit_either","A21S7MA9DCW95E","either","6","","","","","","","1","0","0","0.4673201091","","0.6","0.8","0.4","0.2","","","","","0.1484719509","0.09500806419","0.4673201091","0.1916070739","","","","","","","75","K","2","","","6","main_expt"
"284","","bandit","85","453060","0.0-46.0-0.0","60323577","wem/bandit_either","A21S7MA9DCW95E","either","6","","","","","","","0","0","1","0.4671816856","","0.6","0.8","0.4","0.2","","","","","0.1368680622","0.1156714339","0.4671816856","0.1624213819","","","","","","","75","K","2","","","7","main_expt"
"327","","bandit","86","454901","0.0-47.0-0.0","60323577","wem/bandit_either","A21S7MA9DCW95E","either","6","","","","","","","0","1","0","","0.4577650209","0.6","0.8","0.4","0.2","0.1412197478","0.08939878806","0.4577650209","0.1529627983","","","","","","","","","","","75","K","2","","","8","main_expt"
"319","","bandit","87","456737","0.0-48.0-0.0","60323577","wem/bandit_either","A21S7MA9DCW95E","either","6","","","","","","","0","1","0","","0.4538037209","0.6","0.8","0.4","0.2","0.1285241668","0.1379609943","0.4538037209","0.1638779","","","","","","","","","","","75","K","2","","","9","main_expt"
"1167","","bandit","88","459420","0.0-49.0-0.0","60323577","wem/bandit_either","A21S7MA9DCW95E","either","6","","","","","","","0","1","0","","0.4567906288","0.6","0.8","0.4","0.2","0.1137500729","0.08892925829","0.4567906288","0.1682184418","","","","","","","","","","","75","K","2","","","10","main_expt"
"673","","bandit","89","461608","0.0-50.0-0.0","60323577","wem/bandit_either","A21S7MA9DCW95E","either","6","","","","","","","0","1","0","","0.4707556997","0.6","0.8","0.4","0.2","0.1134058804","0.1053961985","0.4707556997","0.1511948373","","","","","","","","","","","75","K","2","","","11","main_expt"
"337","","bandit","90","463463","0.0-51.0-0.0","60323577","wem/bandit_either","A21S7MA9DCW95E","either","6","","","","","","","1","0","0","0.4534589675","","0.6","0.8","0.4","0.2","","","","","0.1358134986","0.1267534428","0.4534589675","0.2144966391","","","","","","","75","K","2","","","12","main_expt"
"872","","bandit","91","465847","0.0-52.0-0.0","60323577","wem/bandit_either","A21S7MA9DCW95E","either","6","","","","","","","0","0","1","0.4474824422","","0.6","0.8","0.4","0.2","","","","","0.1105925571","0.1179877152","0.4474824422","0.1443049275","","","","","","","75","K","2","","","13","main_expt"
"345","","bandit","92","467708","0.0-53.0-0.0","60323577","wem/bandit_either","A21S7MA9DCW95E","either","6","","","","","","","0","1","0","","0.4125602811","0.6","0.8","0.4","0.2","0.09057326494","0.1300626215","0.4125602811","0.149160688","","","","","","","","","","","75","K","2","","","14","main_expt"
"1003","","bandit","93","470230","0.0-54.0-0.0","60323577","wem/bandit_either","A21S7MA9DCW95E","either","6","","","","","","","1","0","0","0.3715785473","","0.6","0.8","0.4","0.2","","","","","0.05963436345","0.1129073675","0.3715785473","0.1525333278","","","","","","","75","K","2","","","15","main_expt"
"367","","bandit","94","472112","0.0-55.0-0.0","60323577","wem/bandit_either","A21S7MA9DCW95E","either","6","","","","","","","0","0","1","0.3670357029","","0.6","0.8","0.4","0.2","","","","","0.03970917029","0.1132840383","0.3670357029","0.1437253933","","","","","","","75","K","2","","","16","main_expt"
"402","","bandit","95","474037","0.0-56.0-0.0","60323577","wem/bandit_either","A21S7MA9DCW95E","either","6","","","","","","","0","0","1","","0.1530786807","0.6","0.8","0.4","0.2","0.03301664506","0.1530786807","0.333794799","0.1191274054","","","","","","","","","","","74","J","1","","","17","main_expt"
"719","","bandit","96","476270","0.0-57.0-0.0","60323577","wem/bandit_either","A21S7MA9DCW95E","either","6","","","","","","","0","0","1","0.0325619","","0.6","0.8","0.4","0.2","","","","","0.0325619","0.1367655081","0.3720862831","0.1231388663","","","","","","","72","H","0","img/none_selected.jpg","","18","main_expt"
"280","","bandit","97","478072","0.0-58.0-0.0","60323577","wem/bandit_either","A21S7MA9DCW95E","either","6","","","","","","","0","0","1","0.1014962652","","0.6","0.8","0.4","0.2","","","","","0.05136562407","0.1519969922","0.3940248177","0.1014962652","","","","","","","76","L","3","","","19","main_expt"
"392","","bandit","98","479976","0.0-59.0-0.0","60323577","wem/bandit_either","A21S7MA9DCW95E","either","6","","","","","","","0","0","1","0.3980303587","","0.6","0.8","0.4","0.2","","","","","0.05620034239","0.2344823222","0.3980303587","0.1184271466","","","","","","","75","K","2","","","20","main_expt"
"462","","bandit","99","481955","0.0-60.0-0.0","60323577","wem/bandit_either","A21S7MA9DCW95E","either","6","","","","","","","0","0","1","0.405953395","","0.6","0.8","0.4","0.2","","","","","0.04865895453","0.2227593861","0.405953395","0.1434190777","","","","","","","75","K","2","","","21","main_expt"
"92","","bandit","100","483563","0.0-61.0-0.0","60323577","wem/bandit_either","A21S7MA9DCW95E","either","6","","","","","","","0","0","1","0.1323354157","","0.6","0.8","0.4","0.2","","","","","0.05276066643","0.1831098024","0.37898799","0.1323354157","","","","","","","76","L","3","","","22","main_expt"
"376","","bandit","101","485457","0.0-62.0-0.0","60323577","wem/bandit_either","A21S7MA9DCW95E","either","6","","","","","","","0","0","1","0.1660310818","","0.6","0.8","0.4","0.2","","","","","0.05284133488","0.1660310818","0.3661255489","0.1384191998","","","","","","","74","J","1","","","23","main_expt"
"273","","bandit","102","487247","0.0-63.0-0.0","60323577","wem/bandit_either","A21S7MA9DCW95E","either","6","","","","","","","0","0","1","0.0333904923","","0.6","0.8","0.4","0.2","","","","","0.0333904923","0.1400827643","0.3576379461","0.1395593146","","","","","","","72","H","0","img/none_selected.jpg","","24","main_expt"
"94","","bandit","103","488857","0.0-64.0-0.0","60323577","wem/bandit_either","A21S7MA9DCW95E","either","6","","","","","","","0","0","1","0.3346121782","","0.6","0.8","0.4","0.2","","","","","0.04666446392","0.2022937807","0.3346121782","0.1696236693","","","","","","","75","K","2","","","25","main_expt"
"127","","bandit","104","490500","0.0-65.0-0.0","60323577","wem/bandit_either","A21S7MA9DCW95E","either","6","","","","","","","1","0","0","0.3790434843","","0.6","0.8","0.4","0.2","","","","","0.04067930801","0.1725383963","0.3790434843","0.1754084838","","","","","","","75","K","2","","","26","main_expt"
"3","","bandit","105","492019","0.0-66.0-0.0","60323577","wem/bandit_either","A21S7MA9DCW95E","either","6","","","","","","","0","0","1","","0.3744762435","0.6","0.8","0.4","0.2","0.03070036018","0.1735642386","0.3744762435","0.118483546","","","","","","","","","","","75","K","2","","","27","main_expt"
"363","","bandit","106","493898","0.0-67.0-0.0","60323577","wem/bandit_either","A21S7MA9DCW95E","either","6","","","","","","","0","0","1","0.149532802","","0.6","0.8","0.4","0.2","","","","","0.02292460278","0.149532802","0.3650769418","0.1259847853","","","","","","","74","J","1","","","28","main_expt"
"363","","bandit","107","495777","0.0-68.0-0.0","60323577","wem/bandit_either","A21S7MA9DCW95E","either","6","","","","","","","0","0","1","0.1597785082","","0.6","0.8","0.4","0.2","","","","","0.03476379039","0.1597785082","0.3299345172","0.1072727049","","","","","","","74","J","1","","","29","main_expt"
"331","","bandit","108","497621","0.0-69.0-0.0","60323577","wem/bandit_either","A21S7MA9DCW95E","either","6","","","","","","","0","0","1","0.04211589453","","0.6","0.8","0.4","0.2","","","","","0.04211589453","0.1978771271","0.3010095271","0.07952930744","","","","","","","72","H","0","img/none_selected.jpg","","30","main_expt"
"375","","bandit","109","499513","0.0-70.0-0.0","60323577","wem/bandit_either","A21S7MA9DCW95E","either","6","","","","","","","0","0","1","","0.04495483672","0.6","0.8","0.4","0.2","0.04495483672","0.1928768267","0.331530841","0.09691030242","","","","","","","","","","","72","H","0","img/none_selected.jpg","","31","main_expt"
"67","","bandit","110","501096","0.0-71.0-0.0","60323577","wem/bandit_either","A21S7MA9DCW95E","either","6","","","","","","","0","0","1","","0.1338720944","0.6","0.8","0.4","0.2","0.04126869591","0.1511047494","0.3469043085","0.1338720944","","","","","","","","","","","76","L","3","","","32","main_expt"
"262","","bandit","111","502876","0.0-72.0-0.0","60323577","wem/bandit_either","A21S7MA9DCW95E","either","6","","","","","","","0","0","1","","0.1428203538","0.6","0.8","0.4","0.2","0.02396570111","0.09247049486","0.2778139242","0.1428203538","","","","","","","","","","","76","L","3","","","33","main_expt"
"447","","bandit","112","504840","0.0-73.0-0.0","60323577","wem/bandit_either","A21S7MA9DCW95E","either","6","","","","","","","0","0","1","0.236883459","","0.6","0.8","0.4","0.2","","","","","0.03561151332","0.1127946788","0.236883459","0.1258169527","","","","","","","75","K","2","","","34","main_expt"
"1254","","bandit","113","507610","0.0-74.0-0.0","60323577","wem/bandit_either","A21S7MA9DCW95E","either","6","","","","","","","0","0","1","","0.2656196476","0.6","0.8","0.4","0.2","0.04565222073","0.1279928094","0.2656196476","0.1652362889","","","","","","","","","","","75","K","2","","","35","main_expt"
"938","","bandit","114","510062","0.0-75.0-0.0","60323577","wem/bandit_either","A21S7MA9DCW95E","either","6","","","","","","","0","0","1","0.2309028503","","0.6","0.8","0.4","0.2","","","","","0.05036449293","0.09285608896","0.2309028503","0.1472348388","","","","","","","75","K","2","","","36","main_expt"
"841","","bandit","115","512423","0.0-76.0-0.0","60323577","wem/bandit_either","A21S7MA9DCW95E","either","6","","","","","","","0","0","1","","0.20581188","0.6","0.8","0.4","0.2","0.04764774511","0.1251507517","0.1961267878","0.20581188","","","","","","","","","","","76","L","3","","","37","main_expt"
"252","","bandit","116","514192","0.0-77.0-0.0","60323577","wem/bandit_either","A21S7MA9DCW95E","either","6","","","","","","","0","0","1","0.2096070571","","0.6","0.8","0.4","0.2","","","","","0.04692466818","0.1248439258","0.2197692452","0.2096070571","","","","","","","76","L","3","","","38","main_expt"
"790","","bandit","117","516501","0.0-78.0-0.0","60323577","wem/bandit_either","A21S7MA9DCW95E","either","6","","","","","","","0","1","0","","0.1888903691","0.6","0.8","0.4","0.2","0.06150360576","0.1192858938","0.1783178102","0.1888903691","","","","","","","","","","","76","L","3","","","39","main_expt"
"371","","bandit","118","518398","0.0-79.0-0.0","60323577","wem/bandit_either","A21S7MA9DCW95E","either","6","","","","","","","0","1","0","","0.1769314034","0.6","0.8","0.4","0.2","0.1025324214","0.1457630933","0.1354267005","0.1769314034","","","","","","","","","","","76","L","3","","","40","main_expt"
"75","","bandit","119","519991","0.0-80.0-0.0","60323577","wem/bandit_either","A21S7MA9DCW95E","either","6","","","","","","","0","0","1","","0.1764673912","0.6","0.8","0.4","0.2","0.1278282258","0.1788887836","0.1307301687","0.1764673912","","","","","","","","","","","76","L","3","","","41","main_expt"
"384","","bandit","120","521894","0.0-81.0-0.0","60323577","wem/bandit_either","A21S7MA9DCW95E","either","6","","","","","","","0","0","1","0.1164002711","","0.6","0.8","0.4","0.2","","","","","0.1144783829","0.1550439797","0.1002459791","0.1164002711","","","","","","","76","L","3","","","42","main_expt"
"1237","","bandit","121","524650","0.0-82.0-0.0","60323577","wem/bandit_either","A21S7MA9DCW95E","either","6","","","","","","","0","0","1","","0.1248357276","0.6","0.8","0.4","0.2","0.148274456","0.1624336935","0.06131682752","0.1248357276","","","","","","","","","","","76","L","3","","","43","main_expt"
"357","","bandit","122","526536","0.0-83.0-0.0","60323577","wem/bandit_either","A21S7MA9DCW95E","either","6","","","","","","","0","0","1","","0.05757194937","0.6","0.8","0.4","0.2","0.1733993608","0.2610419313","0.05757194937","0.1801883524","","","","","","","","","","","75","K","2","","","44","main_expt"
"578","","bandit","123","528635","0.0-84.0-0.0","60323577","wem/bandit_either","A21S7MA9DCW95E","either","6","","","","","","","1","0","0","0.1731137141","","0.6","0.8","0.4","0.2","","","","","0.1731137141","0.2547096211","0.06317169253","0.1536252234","","","","","","","72","H","0","img/none_selected.jpg","","45","main_expt"
"762","","bandit","124","530915","0.0-85.0-0.0","60323577","wem/bandit_either","A21S7MA9DCW95E","either","6","","","","","","","0","0","1","","0.2577534017","0.6","0.8","0.4","0.2","0.2577534017","0.2690630982","0.08604650327","0.1453657368","","","","","","","","","","","72","H","0","img/none_selected.jpg","","46","main_expt"
"375","","bandit","125","532809","0.0-86.0-0.0","60323577","wem/bandit_either","A21S7MA9DCW95E","either","6","","","","","","","0","0","1","0.2436059896","","0.6","0.8","0.4","0.2","","","","","0.2436059896","0.2613787364","0.07503215105","0.1163474927","","","","","","","72","H","0","img/none_selected.jpg","","47","main_expt"
"130","","bandit","126","534460","0.0-87.0-0.0","60323577","wem/bandit_either","A21S7MA9DCW95E","either","6","","","","","","","0","0","1","0.2764851171","","0.6","0.8","0.4","0.2","","","","","0.261356988","0.2764851171","0.09661626413","0.1187671899","","","","","","","74","J","1","","","48","main_expt"
"344","","bandit","127","536321","0.0-88.0-0.0","60323577","wem/bandit_either","A21S7MA9DCW95E","either","6","","","","","","","0","0","1","0.2628846066","","0.6","0.8","0.4","0.2","","","","","0.2707362224","0.2628846066","0.141419135","0.1321787199","","","","","","","74","J","1","","","49","main_expt"
"550","","bandit","128","538393","0.0-89.0-0.0","60323577","wem/bandit_either","A21S7MA9DCW95E","either","6","","","","","","","0","0","1","","0.1310663867","0.6","0.8","0.4","0.2","0.2733601765","0.3634831931","0.1341637883","0.1310663867","","","","","","","","","","","76","L","3","","","50","main_expt"
"293","","bandit","129","540203","0.0-90.0-0.0","60323577","wem/bandit_either","A21S7MA9DCW95E","either","6","","","","","","","0","0","1","0.1450472339","","0.6","0.8","0.4","0.2","","","","","0.2590969561","0.3771608335","0.1225974466","0.1450472339","","","","","","","76","L","3","","","51","main_expt"
"396","","bandit","130","542118","0.0-91.0-0.0","60323577","wem/bandit_either","A21S7MA9DCW95E","either","6","","","","","","","0","1","0","","0.2515646212","0.6","0.8","0.4","0.2","0.2515646212","0.3093307572","0.1145468474","0.1731775471","","","","","","","","","","","72","H","0","img/none_selected.jpg","","52","main_expt"
"354","","bandit","131","543990","0.0-92.0-0.0","60323577","wem/bandit_either","A21S7MA9DCW95E","either","6","","","","","","","1","0","0","0.2257746054","","0.6","0.8","0.4","0.2","","","","","0.2257746054","0.2990929044","0.1059564611","0.2258016315","","","","","","","72","H","0","img/none_selected.jpg","","53","main_expt"
"308","","bandit","132","545819","0.0-93.0-0.0","60323577","wem/bandit_either","A21S7MA9DCW95E","either","6","","","","","","","1","0","0","0.2750925763","","0.6","0.8","0.4","0.2","","","","","0.2750925763","0.2221679908","0.1090017536","0.2172527187","","","","","","","72","H","0","img/none_selected.jpg","","54","main_expt"
"321","","bandit","133","547658","0.0-94.0-0.0","60323577","wem/bandit_either","A21S7MA9DCW95E","either","6","","","","","","","0","1","0","","0.3608357377","0.6","0.8","0.4","0.2","0.3608357377","0.1886471815","0.1249444004","0.1652356872","","","","","","","","","","","72","H","0","img/none_selected.jpg","","55","main_expt"
"330","","bandit","134","549508","0.0-95.0-0.0","60323577","wem/bandit_either","A21S7MA9DCW95E","either","6","","","","","","","0","0","1","0.4022545085","","0.6","0.8","0.4","0.2","","","","","0.4022545085","0.1973213641","0.09043885587","0.1576418272","","","","","","","72","H","0","img/none_selected.jpg","","56","main_expt"
"143","","bandit","135","551169","0.0-96.0-0.0","60323577","wem/bandit_either","A21S7MA9DCW95E","either","6","","","","","","","0","0","1","0.3867568464","","0.6","0.8","0.4","0.2","","","","","0.3867568464","0.2207101474","0.07448640425","0.180776926","","","","","","","72","H","0","img/none_selected.jpg","","57","main_expt"
"99","","bandit","136","552790","0.0-97.0-0.0","60323577","wem/bandit_either","A21S7MA9DCW95E","either","6","","","","","","","0","0","1","0.3840355114","","0.6","0.8","0.4","0.2","","","","","0.3840355114","0.2480089655","0.09808879237","0.1489081552","","","","","","","72","H","0","img/none_selected.jpg","","58","main_expt"
"614","","bandit","137","554924","0.0-98.0-0.0","60323577","wem/bandit_either","A21S7MA9DCW95E","either","6","","","","","","","0","0","1","0.125555473","","0.6","0.8","0.4","0.2","","","","","0.3617876187","0.2667579505","0.0721355853","0.125555473","","","","","","","76","L","3","","","59","main_expt"
"157","","bandit","138","556606","0.0-99.0-0.0","60323577","wem/bandit_either","A21S7MA9DCW95E","either","6","","","","","","","0","0","1","","0.1228814318","0.6","0.8","0.4","0.2","0.3018070945","0.2637313595","0.08871326978","0.1228814318","","","","","","","","","","","76","L","3","","","60","main_expt"
"451","","bandit","139","558574","0.0-100.0-0.0","60323577","wem/bandit_either","A21S7MA9DCW95E","either","6","","","","","","","0","0","1","","0.1472383223","0.6","0.8","0.4","0.2","0.2687465691","0.2400462537","0.1472383223","0.195834737","","","","","","","","","","","75","K","2","","","61","main_expt"
"813","","bandit","140","560903","0.0-101.0-0.0","60323577","wem/bandit_either","A21S7MA9DCW95E","either","6","","","","","","","1","0","0","0.2396546157","","0.6","0.8","0.4","0.2","","","","","0.287622952","0.2396546157","0.1625866577","0.1952904108","","","","","","","74","J","1","","","62","main_expt"
"264","","bandit","141","562687","0.0-102.0-0.0","60323577","wem/bandit_either","A21S7MA9DCW95E","either","6","","","","","","","1","0","0","0.2558687718","","0.6","0.8","0.4","0.2","","","","","0.2060093557","0.2558687718","0.1196153378","0.187392073","","","","","","","74","J","1","","","63","main_expt"
"296","","bandit","142","564500","0.0-103.0-0.0","60323577","wem/bandit_either","A21S7MA9DCW95E","either","6","","","","","","","0","0","1","","0.1789331692","0.6","0.8","0.4","0.2","0.1865830226","0.1789331692","0.1025290435","0.1774517964","","","","","","","","","","","74","J","1","","","64","main_expt"
"102","","bandit","143","566120","0.0-104.0-0.0","60323577","wem/bandit_either","A21S7MA9DCW95E","either","6","","","","","","","0","0","1","0.2242960511","","0.6","0.8","0.4","0.2","","","","","0.2242960511","0.2041721298","0.06637487434","0.1956590225","","","","","","","72","H","0","img/none_selected.jpg","","65","main_expt"
"251","","bandit","144","567887","0.0-105.0-0.0","60323577","wem/bandit_either","A21S7MA9DCW95E","either","6","","","","","","","0","0","1","","0.213739571","0.6","0.8","0.4","0.2","0.213739571","0.1083731131","0.09888809835","0.1559932489","","","","","","","","","","","72","H","0","img/none_selected.jpg","","66","main_expt"
"500","","bandit","145","569906","0.0-106.0-0.0","60323577","wem/bandit_either","A21S7MA9DCW95E","either","6","","","","","","","0","0","1","","0.08148965902","0.6","0.8","0.4","0.2","0.2463093088","0.08148965902","0.08542348091","0.1327283285","","","","","","","","","","","74","J","1","","","67","main_expt"
"308","","bandit","146","571733","0.0-107.0-0.0","60323577","wem/bandit_either","A21S7MA9DCW95E","either","6","","","","","","","0","0","1","0.115871946","","0.6","0.8","0.4","0.2","","","","","0.1863602012","0.115871946","0.05648132023","0.1646421129","","","","","","","74","J","1","","","68","main_expt"
"487","","bandit","147","573736","0.0-108.0-0.0","60323577","wem/bandit_either","A21S7MA9DCW95E","either","6","","","","","","","0","0","1","0.1049465522","","0.6","0.8","0.4","0.2","","","","","0.1481768435","0.1049465522","0.07427448495","0.1879918005","","","","","","","74","J","1","","","69","main_expt"
"172","","bandit","148","575427","0.0-109.0-0.0","60323577","wem/bandit_either","A21S7MA9DCW95E","either","6","","","","","","","0","0","1","","0.2062415021","0.6","0.8","0.4","0.2","0.2062415021","0.1224614501","0.1052870039","0.1708527721","","","","","","","","","","","72","H","0","img/none_selected.jpg","","70","main_expt"
"357","","bandit","149","577303","0.0-110.0-0.0","60323577","wem/bandit_either","A21S7MA9DCW95E","either","6","","","","","","","0","0","1","","0.2175562698","0.6","0.8","0.4","0.2","0.2175562698","0.1687358413","0.1114501371","0.1930923514","","","","","","","","","","","72","H","0","img/none_selected.jpg","","71","main_expt"
"350","","bandit","150","579174","0.0-111.0-0.0","60323577","wem/bandit_either","A21S7MA9DCW95E","either","6","","","","","","","0","0","1","0.2182173038","","0.6","0.8","0.4","0.2","","","","","0.2182173038","0.1902964731","0.1282799478","0.2289396243","","","","","","","72","H","0","img/none_selected.jpg","","72","main_expt"
"526","","bandit","151","581220","0.0-112.0-0.0","60323577","wem/bandit_either","A21S7MA9DCW95E","either","6","","","","","","","0","0","1","0.2223781067","","0.6","0.8","0.4","0.2","","","","","0.1629952044","0.1764690901","0.1113050996","0.2223781067","","","","","","","76","L","3","","","73","main_expt"
"327","","bandit","152","583065","0.0-113.0-0.0","60323577","wem/bandit_either","A21S7MA9DCW95E","either","6","","","","","","","0","0","1","","0.1664819569","0.6","0.8","0.4","0.2","0.2291178652","0.1720288853","0.1573287606","0.1664819569","","","","","","","","","","","76","L","3","","","74","main_expt"
"375","","bandit","153","584961","0.0-114.0-0.0","60323577","wem/bandit_either","A21S7MA9DCW95E","either","6","","","","","","","0","1","0","","0.1157276324","0.6","0.8","0.4","0.2","0.2087405931","0.098780463","0.168318459","0.1157276324","","","","","","","","","","","76","L","3","","","75","main_expt"
"343","","bandit","154","586822","0.0-115.0-0.0","60323577","wem/bandit_either","A21S7MA9DCW95E","either","6","","","","","","","0","0","1","","0.06912044911","0.6","0.8","0.4","0.2","0.1981976751","0.08192786134","0.131742089","0.06912044911","","","","","","","","","","","76","L","3","","","76","main_expt"
"45","","bandit","155","588386","0.0-116.0-0.0","60323577","wem/bandit_either","A21S7MA9DCW95E","either","6","","","","","","","0","0","1","","0.06151132513","0.6","0.8","0.4","0.2","0.2302368041","0.03620126105","0.1382621175","0.06151132513","","","","","","","","","","","76","L","3","","","77","main_expt"
"431","","bandit","156","590340","0.0-117.0-0.0","60323577","wem/bandit_either","A21S7MA9DCW95E","either","6","","","","","","","0","0","1","0.1351161864","","0.6","0.8","0.4","0.2","","","","","0.2538269909","0.03362754592","0.1351161864","0.08824794056","","","","","","","75","K","2","","","78","main_expt"
"276","","bandit","157","592134","0.0-118.0-0.0","60323577","wem/bandit_either","A21S7MA9DCW95E","either","6","","","","","","","0","0","1","","0.1125986002","0.6","0.8","0.4","0.2","0.221492582","0.03917851348","0.1125986002","0.08425003046","","","","","","","","","","","75","K","2","","","79","main_expt"
"302","","bandit","158","593956","0.0-119.0-0.0","60323577","wem/bandit_either","A21S7MA9DCW95E","either","6","","","","","","","0","0","1","0.06916691586","","0.6","0.8","0.4","0.2","","","","","0.2126184008","0.06916691586","0.1071358869","0.1059393704","","","","","","","74","J","1","","","80","main_expt"
"305","","bandit","159","595779","0.0-120.0-0.0","60323577","wem/bandit_either","A21S7MA9DCW95E","either","6","","","","","","","0","0","1","0.1110223174","","0.6","0.8","0.4","0.2","","","","","0.1803612399","0.1110223174","0.1410751298","0.114990546","","","","","","","74","J","1","","","81","main_expt"
"294","","bandit","160","597589","0.0-121.0-0.0","60323577","wem/bandit_either","A21S7MA9DCW95E","either","6","","","","","","","0","0","1","","0.08899533144","0.6","0.8","0.4","0.2","0.1883980103","0.08899533144","0.1518454263","0.1246300745","","","","","","","","","","","74","J","1","","","82","main_expt"
"175","","bandit","161","599283","0.0-122.0-0.0","60323577","wem/bandit_either","A21S7MA9DCW95E","either","6","","","","","","","0","0","1","0.2099895667","","0.6","0.8","0.4","0.2","","","","","0.2099895667","0.1383499545","0.1285150734","0.1523433176","","","","","","","72","H","0","img/none_selected.jpg","","83","main_expt"
"311","","bandit","162","601119","0.0-123.0-0.0","60323577","wem/bandit_either","A21S7MA9DCW95E","either","6","","","","","","","0","0","1","","0.1760666055","0.6","0.8","0.4","0.2","0.1760666055","0.1815119679","0.1083679187","0.1230513595","","","","","","","","","","","72","H","0","img/none_selected.jpg","","84","main_expt"
"167","","bandit","163","602847","0.0-124.0-0.0","60323577","wem/bandit_either","A21S7MA9DCW95E","either","6","","","","","","","1","0","0","0.2077415988","","0.6","0.8","0.4","0.2","","","","","0.2077415988","0.2121304898","0.08985983991","0.1460595132","","","","","","","72","H","0","img/none_selected.jpg","","85","main_expt"
"110","","bandit","164","604479","0.0-125.0-0.0","60323577","wem/bandit_either","A21S7MA9DCW95E","either","6","","","","","","","0","0","1","0.1940704576","","0.6","0.8","0.4","0.2","","","","","0.1940704576","0.1931166697","0.08377758623","0.1578730034","","","","","","","72","H","0","img/none_selected.jpg","","86","main_expt"
"721","","bandit","165","606733","0.0-126.0-0.0","60323577","wem/bandit_either","A21S7MA9DCW95E","either","6","","","","","","","0","0","1","0.1920524506","","0.6","0.8","0.4","0.2","","","","","0.1920524506","0.1908876969","0.08340742779","0.1329566931","","","","","","","72","H","0","img/none_selected.jpg","","87","main_expt"
"679","","bandit","166","608930","0.0-127.0-0.0","60323577","wem/bandit_either","A21S7MA9DCW95E","either","6","","","","","","","0","0","1","0.2525081946","","0.6","0.8","0.4","0.2","","","","","0.2525081946","0.1727332377","0.06937011617","0.1156353122","","","","","","","72","H","0","img/none_selected.jpg","","88","main_expt"
"376","","bandit","167","610837","0.0-128.0-0.0","60323577","wem/bandit_either","A21S7MA9DCW95E","either","6","","","","","","","1","0","0","0.1747664758","","0.6","0.8","0.4","0.2","","","","","0.2476280913","0.1747664758","0.08556693901","0.1169245856","","","","","","","74","J","1","","","89","main_expt"
"281","","bandit","168","612643","0.0-129.0-0.0","60323577","wem/bandit_either","A21S7MA9DCW95E","either","6","","","","","","","0","0","1","0.1302891894","","0.6","0.8","0.4","0.2","","","","","0.2476417222","0.1302891894","0.1013294801","0.1276927611","","","","","","","74","J","1","","","90","main_expt"
"395","","bandit","169","614561","0.0-130.0-0.0","60323577","wem/bandit_either","A21S7MA9DCW95E","either","6","","","","","","","0","0","1","0.1143331172","","0.6","0.8","0.4","0.2","","","","","0.1875867431","0.1143331172","0.1567130635","0.1633868825","","","","","","","74","J","1","","","91","main_expt"
"545","","bandit","170","616626","0.0-131.0-0.0","60323577","wem/bandit_either","A21S7MA9DCW95E","either","6","","","","","","","0","0","1","","0.2172033847","0.6","0.8","0.4","0.2","0.1804963823","0.1674068059","0.1214255195","0.2172033847","","","","","","","","","","","76","L","3","","","92","main_expt"
"374","","bandit","171","618522","0.0-132.0-0.0","60323577","wem/bandit_either","A21S7MA9DCW95E","either","6","","","","","","","0","1","0","","0.2178255547","0.6","0.8","0.4","0.2","0.1468121695","0.1405005834","0.1317465968","0.2178255547","","","","","","","","","","","76","L","3","","","93","main_expt"
"357","","bandit","172","620396","0.0-133.0-0.0","60323577","wem/bandit_either","A21S7MA9DCW95E","either","6","","","","","","","0","0","1","","0.2058786334","0.6","0.8","0.4","0.2","0.1270151289","0.1338278818","0.1810196293","0.2058786334","","","","","","","","","","","76","L","3","","","94","main_expt"
"85","","bandit","173","621999","0.0-134.0-0.0","60323577","wem/bandit_either","A21S7MA9DCW95E","either","6","","","","","","","0","1","0","","0.2009860572","0.6","0.8","0.4","0.2","0.1049494322","0.16416917","0.1537803575","0.2009860572","","","","","","","","","","","76","L","3","","","95","main_expt"
"279","","bandit","174","623803","0.0-135.0-0.0","60323577","wem/bandit_either","A21S7MA9DCW95E","either","6","","","","","","","0","0","1","","0.2792576191","0.6","0.8","0.4","0.2","0.1242023773","0.1075549125","0.2255368078","0.2792576191","","","","","","","","","","","76","L","3","","","96","main_expt"
"787","","bandit","175","626109","0.0-136.0-0.0","60323577","wem/bandit_either","A21S7MA9DCW95E","either","6","","","","","","","0","0","1","","0.291042229","0.6","0.8","0.4","0.2","0.101802889","0.07285617598","0.1881791955","0.291042229","","","","","","","","","","","76","L","3","","","97","main_expt"
"316","","bandit","176","627943","0.0-137.0-0.0","60323577","wem/bandit_either","A21S7MA9DCW95E","either","6","","","","","","","0","0","1","","0.2919937097","0.6","0.8","0.4","0.2","0.08559904752","0.1128802937","0.1722186849","0.2919937097","","","","","","","","","","","76","L","3","","","98","main_expt"
"114","","bandit","177","629574","0.0-138.0-0.0","60323577","wem/bandit_either","A21S7MA9DCW95E","either","6","","","","","","","0","0","1","","0.2581810796","0.6","0.8","0.4","0.2","0.04480153982","0.07338875894","0.2581810796","0.338066437","","","","","","","","","","","75","K","2","","","99","main_expt"
"829","","bandit","178","631922","0.0-139.0-0.0","60323577","wem/bandit_either","A21S7MA9DCW95E","either","6","","","","","","","0","1","0","","0.3094702251","0.6","0.8","0.4","0.2","0.03694367041","0.06256672301","0.3094702251","0.3466775547","","","","","","","","","","","75","K","2","","","100","main_expt"
"342","","bandit","179","633787","0.0-140.0-0.0","60323577","wem/bandit_either","A21S7MA9DCW95E","either","6","","","","","","","0","0","1","0.3217449289","","0.6","0.8","0.4","0.2","","","","","0.02534596886","0.06765033746","0.3217449289","0.3776837944","","","","","","","75","K","2","","","101","main_expt"
"622","","bandit","180","635931","0.0-141.0-0.0","60323577","wem/bandit_either","A21S7MA9DCW95E","either","6","","","","","","","0","1","0","","0.3656493725","0.6","0.8","0.4","0.2","0.03456503798","0.08460413752","0.3656493725","0.3988278911","","","","","","","","","","","75","K","2","","","102","main_expt"
"292","","bandit","181","637747","0.0-142.0-0.0","60323577","wem/bandit_either","A21S7MA9DCW95E","either","6","","","","","","","0","0","1","0.4097417878","","0.6","0.8","0.4","0.2","","","","","0.03116272615","0.1149622558","0.4097417878","0.3642388176","","","","","","","75","K","2","","","103","main_expt"
"111","","bandit","182","639393","0.0-143.0-0.0","60323577","wem/bandit_either","A21S7MA9DCW95E","either","6","","","","","","","0","0","1","","0.4005896235","0.6","0.8","0.4","0.2","0.04034009898","0.1223821921","0.4005896235","0.3059376685","","","","","","","","","","","75","K","2","","","104","main_expt"
"561","","bandit","183","641473","0.0-144.0-0.0","60323577","wem/bandit_either","A21S7MA9DCW95E","either","6","","","","","","","1","0","0","0.3967946647","","0.6","0.8","0.4","0.2","","","","","0.06132200156","0.1302837569","0.3967946647","0.2658022239","","","","","","","75","K","2","","","105","main_expt"
"284","","bandit","184","643279","0.0-145.0-0.0","60323577","wem/bandit_either","A21S7MA9DCW95E","either","6","","","","","","","0","1","0","","0.3920329447","0.6","0.8","0.4","0.2","0.03171667797","0.1405927316","0.3920329447","0.2583534607","","","","","","","","","","","75","K","2","","","106","main_expt"
"194","","bandit","185","645000","0.0-146.0-0.0","60323577","wem/bandit_either","A21S7MA9DCW95E","either","6","","","","","","","0","0","1","","0.3973329777","0.6","0.8","0.4","0.2","0.06603394544","0.1835021143","0.3973329777","0.2402432731","","","","","","","","","","","75","K","2","","","107","main_expt"
"1049","","bandit","186","647572","0.0-147.0-0.0","60323577","wem/bandit_either","A21S7MA9DCW95E","either","6","","","","","","","0","0","1","0.3839010997","","0.6","0.8","0.4","0.2","","","","","0.08137973005","0.2124513917","0.3839010997","0.2364509509","","","","","","","75","K","2","","","108","main_expt"
"330","","bandit","187","649423","0.0-148.0-0.0","60323577","wem/bandit_either","A21S7MA9DCW95E","either","6","","","","","","","1","0","0","0.3879107289","","0.6","0.8","0.4","0.2","","","","","0.04765661509","0.218007314","0.3879107289","0.2164051194","","","","","","","75","K","2","","","109","main_expt"
"404","","bandit","188","651350","0.0-149.0-0.0","60323577","wem/bandit_either","A21S7MA9DCW95E","either","6","","","","","","","0","0","1","","0.3989855113","0.6","0.8","0.4","0.2","0.06789381979","0.229469423","0.3989855113","0.1611838666","","","","","","","","","","","75","K","2","","","110","main_expt"
"460","","bandit","189","653329","0.0-150.0-0.0","60323577","wem/bandit_either","A21S7MA9DCW95E","either","6","","","","","","","0","0","1","0.3959495959","","0.6","0.8","0.4","0.2","","","","","0.08972795074","0.2923436213","0.3959495959","0.2042622235","","","","","","","75","K","2","","","111","main_expt"
"418","","bandit","190","655273","0.0-151.0-0.0","60323577","wem/bandit_either","A21S7MA9DCW95E","either","6","","","","","","","0","0","1","0.335596647","","0.6","0.8","0.4","0.2","","","","","0.1176683061","0.2778802509","0.335596647","0.2113733305","","","","","","","75","K","2","","","112","main_expt"
"664","","bandit","191","657458","0.0-152.0-0.0","60323577","wem/bandit_either","A21S7MA9DCW95E","either","6","","","","","","","0","0","1","0.220236308","","0.6","0.8","0.4","0.2","","","","","0.1973953549","0.2852166322","0.2876347753","0.220236308","","","","","","","76","L","3","","","113","main_expt"
"111","","bandit","192","659096","0.0-153.0-0.0","60323577","wem/bandit_either","A21S7MA9DCW95E","either","6","","","","","","","0","0","1","","0.2453392608","0.6","0.8","0.4","0.2","0.200840576","0.3222351196","0.2811359795","0.2453392608","","","","","","","","","","","76","L","3","","","114","main_expt"
"96","","bandit","193","660713","0.0-154.0-0.0","60323577","wem/bandit_either","A21S7MA9DCW95E","either","6","","","","","","","0","0","1","","0.2311931225","0.6","0.8","0.4","0.2","0.2544006126","0.2865303103","0.2056035349","0.2311931225","","","","","","","","","","","76","L","3","","","115","main_expt"
"974","","bandit","194","663208","0.0-155.0-0.0","60323577","wem/bandit_either","A21S7MA9DCW95E","either","6","","","","","","","1","0","0","0.1901772154","","0.6","0.8","0.4","0.2","","","","","0.2264812366","0.1901772154","0.2435386161","0.2290532582","","","","","","","74","J","1","","","116","main_expt"
"266","","bandit","195","664993","0.0-156.0-0.0","60323577","wem/bandit_either","A21S7MA9DCW95E","either","6","","","","","","","0","0","1","0.1854727963","","0.6","0.8","0.4","0.2","","","","","0.2535822563","0.1854727963","0.2523066444","0.2610634121","","","","","","","74","J","1","","","117","main_expt"
"414","","bandit","196","666931","0.0-157.0-0.0","60323577","wem/bandit_either","A21S7MA9DCW95E","either","6","","","","","","","0","0","1","0.223078523","","0.6","0.8","0.4","0.2","","","","","0.288462609","0.223078523","0.258758296","0.2915584027","","","","","","","74","J","1","","","118","main_expt"
"429","","bandit","197","668880","0.0-158.0-0.0","60323577","wem/bandit_either","A21S7MA9DCW95E","either","6","","","","","","","0","0","1","","0.2157898803","0.6","0.8","0.4","0.2","0.3077733757","0.2157898803","0.2513882557","0.3240034744","","","","","","","","","","","74","J","1","","","119","main_expt"
"312","","bandit","198","670715","0.0-159.0-0.0","60323577","wem/bandit_either","A21S7MA9DCW95E","either","6","","","","","","","0","1","0","","0.3470363664","0.6","0.8","0.4","0.2","0.3470363664","0.2055853597","0.2178230887","0.3584552205","","","","","","","","","","","72","H","0","img/none_selected.jpg","","120","main_expt"
"665","","bandit","199","672901","0.0-160.0-0.0","60323577","wem/bandit_either","A21S7MA9DCW95E","either","6","","","","","","","1","0","0","0.36369082","","0.6","0.8","0.4","0.2","","","","","0.36369082","0.2308362602","0.2249913612","0.3392259721","","","","","","","72","H","0","img/none_selected.jpg","","121","main_expt"
"255","","bandit","200","674675","0.0-161.0-0.0","60323577","wem/bandit_either","A21S7MA9DCW95E","either","6","","","","","","","0","1","0","","0.3740977319","0.6","0.8","0.4","0.2","0.3740977319","0.1858821776","0.2135386538","0.3211990091","","","","","","","","","","","72","H","0","img/none_selected.jpg","","122","main_expt"
"334","","bandit","201","676530","0.0-162.0-0.0","60323577","wem/bandit_either","A21S7MA9DCW95E","either","6","","","","","","","0","0","1","0.3617230251","","0.6","0.8","0.4","0.2","","","","","0.3617230251","0.1948645322","0.2742148462","0.3082515077","","","","","","","72","H","0","img/none_selected.jpg","","123","main_expt"
"308","","bandit","202","678356","0.0-163.0-0.0","60323577","wem/bandit_either","A21S7MA9DCW95E","either","6","","","","","","","1","0","0","0.3189133642","","0.6","0.8","0.4","0.2","","","","","0.3189133642","0.1875433284","0.3092488957","0.3337980485","","","","","","","72","H","0","img/none_selected.jpg","","124","main_expt"
"342","","bandit","203","680218","0.0-164.0-0.0","60323577","wem/bandit_either","A21S7MA9DCW95E","either","6","","","","","","","0","0","1","0.3134342975","","0.6","0.8","0.4","0.2","","","","","0.3134342975","0.1805360773","0.2832498899","0.2815584253","","","","","","","72","H","0","img/none_selected.jpg","","125","main_expt"
"342","","bandit","204","682080","0.0-165.0-0.0","60323577","wem/bandit_either","A21S7MA9DCW95E","either","6","","","","","","","0","0","1","","0.2889117865","0.6","0.8","0.4","0.2","0.2889117865","0.2199741614","0.321902755","0.2544389989","","","","","","","","","","","72","H","0","img/none_selected.jpg","","126","main_expt"
"300","","bandit","205","683902","0.0-166.0-0.0","60323577","wem/bandit_either","A21S7MA9DCW95E","either","6","","","","","","","0","1","0","","0.3101500906","0.6","0.8","0.4","0.2","0.3101500906","0.212963778","0.3163630435","0.217883989","","","","","","","","","","","72","H","0","img/none_selected.jpg","","127","main_expt"
"319","","bandit","206","685744","0.0-167.0-0.0","60323577","wem/bandit_either","A21S7MA9DCW95E","either","6","","","","","","","0","1","0","","0.3257933697","0.6","0.8","0.4","0.2","0.3257933697","0.1853882534","0.3242789072","0.1941215274","","","","","","","","","","","72","H","0","img/none_selected.jpg","","128","main_expt"
"356","","bandit","207","687622","0.0-168.0-0.0","60323577","wem/bandit_either","A21S7MA9DCW95E","either","6","","","","","","","1","0","0","0.2767822115","","0.6","0.8","0.4","0.2","","","","","0.2767822115","0.1486900389","0.3430844202","0.2093197904","","","","","","","72","H","0","img/none_selected.jpg","","129","main_expt"
"485","","bandit","208","689630","0.0-169.0-0.0","60323577","wem/bandit_either","A21S7MA9DCW95E","either","6","","","","","","","0","0","1","0.3389859305","","0.6","0.8","0.4","0.2","","","","","0.3389859305","0.1581202816","0.3487272729","0.2325895014","","","","","","","72","H","0","img/none_selected.jpg","","130","main_expt"
"410","","bandit","209","691563","0.0-170.0-0.0","60323577","wem/bandit_either","A21S7MA9DCW95E","either","6","","","","","","","0","0","1","0.2807576759","","0.6","0.8","0.4","0.2","","","","","0.2807576759","0.1189605486","0.3850752379","0.2680880231","","","","","","","72","H","0","img/none_selected.jpg","","131","main_expt"
"403","","bandit","210","693489","0.0-171.0-0.0","60323577","wem/bandit_either","A21S7MA9DCW95E","either","6","","","","","","","0","0","1","","0.2044414959","0.6","0.8","0.4","0.2","0.2044414959","0.08638656351","0.3547422913","0.2053564998","","","","","","","","","","","72","H","0","img/none_selected.jpg","","132","main_expt"
"1127","","bandit","211","696139","0.0-172.0-0.0","60323577","wem/bandit_either","A21S7MA9DCW95E","either","6","","","","","","","0","0","1","","0.2102644512","0.6","0.8","0.4","0.2","0.2352631215","0.104542274","0.3256782816","0.2102644512","","","","","","","","","","","76","L","3","","","133","main_expt"
"247","","bandit","212","697907","0.0-173.0-0.0","60323577","wem/bandit_either","A21S7MA9DCW95E","either","6","","","","","","","0","0","1","","0.2479378245","0.6","0.8","0.4","0.2","0.2808822736","0.1401790922","0.2479378245","0.2028105977","","","","","","","","","","","75","K","2","","","134","main_expt"
"396","","bandit","213","699825","0.0-174.0-0.0","60323577","wem/bandit_either","A21S7MA9DCW95E","either","6","","","","","","","0","0","1","0.24301602","","0.6","0.8","0.4","0.2","","","","","0.3053704558","0.1818128853","0.24301602","0.1556880781","","","","","","","75","K","2","","","135","main_expt"
"312","","bandit","214","701659","0.0-175.0-0.0","60323577","wem/bandit_either","A21S7MA9DCW95E","either","6","","","","","","","1","0","0","0.3140058771","","0.6","0.8","0.4","0.2","","","","","0.3140058771","0.1583738081","0.2630427063","0.1428421262","","","","","","","72","H","0","img/none_selected.jpg","","136","main_expt"
"371","","bandit","215","703555","0.0-176.0-0.0","60323577","wem/bandit_either","A21S7MA9DCW95E","either","6","","","","","","","1","0","0","0.323699752","","0.6","0.8","0.4","0.2","","","","","0.323699752","0.1497920091","0.3053425806","0.1039390038","","","","","","","72","H","0","img/none_selected.jpg","","137","main_expt"
"336","","bandit","216","705418","0.0-177.0-0.0","60323577","wem/bandit_either","A21S7MA9DCW95E","either","6","","","","","","","0","0","1","0.3435108126","","0.6","0.8","0.4","0.2","","","","","0.3435108126","0.1128601551","0.3588623722","0.07132433681","","","","","","","72","H","0","img/none_selected.jpg","","138","main_expt"
"339","","bandit","217","707278","0.0-178.0-0.0","60323577","wem/bandit_either","A21S7MA9DCW95E","either","6","","","","","","","0","0","1","","0.3505637202","0.6","0.8","0.4","0.2","0.3505637202","0.1073604677","0.2762704672","0.1047165976","","","","","","","","","","","72","H","0","img/none_selected.jpg","","139","main_expt"
"52","","bandit","218","708859","0.0-179.0-0.0","60323577","wem/bandit_either","A21S7MA9DCW95E","either","6","","","","","","","0","1","0","","0.4185251601","0.6","0.8","0.4","0.2","0.4185251601","0.1376710563","0.2475753012","0.09043849554","","","","","","","","","","","72","H","0","img/none_selected.jpg","","140","main_expt"
"356","","bandit","219","710740","0.0-180.0-0.0","60323577","wem/bandit_either","A21S7MA9DCW95E","either","6","","","","","","","1","0","0","0.4225289085","","0.6","0.8","0.4","0.2","","","","","0.4225289085","0.1412662962","0.2436306075","0.05096505815","","","","","","","72","H","0","img/none_selected.jpg","","141","main_expt"
"8","","bandit","220","712279","0.0-181.0-0.0","60323577","wem/bandit_either","A21S7MA9DCW95E","either","6","","","","","","","1","0","0","0.455259632","","0.6","0.8","0.4","0.2","","","","","0.455259632","0.1543424817","0.1998899021","0.02973759478","","","","","","","72","H","0","img/none_selected.jpg","","142","main_expt"
"281","","bandit","221","714085","0.0-182.0-0.0","60323577","wem/bandit_either","A21S7MA9DCW95E","either","6","","","","","","","0","1","0","","0.4287003803","0.6","0.8","0.4","0.2","0.4287003803","0.1552636118","0.2568100034","0.04457260366","","","","","","","","","","","72","H","0","img/none_selected.jpg","","143","main_expt"
"485","","bandit","222","716094","0.0-183.0-0.0","60323577","wem/bandit_either","A21S7MA9DCW95E","either","6","","","","","","","0","1","0","","0.4260506414","0.6","0.8","0.4","0.2","0.4260506414","0.2241753426","0.2859833531","0.04060115041","","","","","","","","","","","72","H","0","img/none_selected.jpg","","144","main_expt"
"301","","bandit","223","717917","0.0-184.0-0.0","60323577","wem/bandit_either","A21S7MA9DCW95E","either","6","","","","","","","0","0","1","0.4202170594","","0.6","0.8","0.4","0.2","","","","","0.4202170594","0.2484131349","0.2080640158","0.06712401514","","","","","","","72","H","0","img/none_selected.jpg","","145","main_expt"
"383","","bandit","224","719822","0.0-185.0-0.0","60323577","wem/bandit_either","A21S7MA9DCW95E","either","6","","","","","","","0","0","1","0.4333226383","","0.6","0.8","0.4","0.2","","","","","0.4333226383","0.2905032103","0.2469639643","0.08780921534","","","","","","","72","H","0","img/none_selected.jpg","","146","main_expt"
"567","","bandit","225","721912","0.0-186.0-0.0","60323577","wem/bandit_either","A21S7MA9DCW95E","either","6","","","","","","","0","0","1","","0.1333368233","0.6","0.8","0.4","0.2","0.4340954059","0.2846703457","0.2169279296","0.1333368233","","","","","","","","","","","76","L","3","","","147","main_expt"
"641","","bandit","226","724077","0.0-187.0-0.0","60323577","wem/bandit_either","A21S7MA9DCW95E","either","6","","","","","","","0","0","1","","0.1248284812","0.6","0.8","0.4","0.2","0.3903754431","0.3010433131","0.1248284812","0.09264147873","","","","","","","","","","","75","K","2","","","148","main_expt"
"472","","bandit","227","726071","0.0-188.0-0.0","60323577","wem/bandit_either","A21S7MA9DCW95E","either","6","","","","","","","0","0","1","0.4161192262","","0.6","0.8","0.4","0.2","","","","","0.4161192262","0.3421268102","0.1498862571","0.123708687","","","","","","","72","H","0","img/none_selected.jpg","","149","main_expt"
"399","","bandit","228","727992","0.0-189.0-0.0","60323577","wem/bandit_either","A21S7MA9DCW95E","either","6","","","","","","","0","0","1","0.4545257836","","0.6","0.8","0.4","0.2","","","","","0.4545257836","0.3382865341","0.2044632824","0.1087811601","","","","","","","72","H","0","img/none_selected.jpg","","150","main_expt"
"300","","bandit","229","729816","0.0-190.0-0.0","60323577","wem/bandit_either","A21S7MA9DCW95E","either","6","","","","","","","1","0","0","0.3031951358","","0.6","0.8","0.4","0.2","","","","","0.4553704948","0.3031951358","0.1630699797","0.1640336927","","","","","","","74","J","1","","","151","main_expt"
"281","","bandit","230","731618","0.0-191.0-0.0","60323577","wem/bandit_either","A21S7MA9DCW95E","either","6","","","","","","","0","0","1","0.3163498213","","0.6","0.8","0.4","0.2","","","","","0.4692720684","0.3163498213","0.1534962237","0.1474195158","","","","","","","74","J","1","","","152","main_expt"
"137","","bandit","231","733278","0.0-192.0-0.0","60323577","wem/bandit_either","A21S7MA9DCW95E","either","6","","","","","","","0","0","1","","0.3205280093","0.6","0.8","0.4","0.2","0.4794448159","0.3205280093","0.1506701345","0.1200421148","","","","","","","","","","","74","J","1","","","153","main_expt"
"306","","bandit","232","735110","0.0-193.0-0.0","60323577","wem/bandit_either","A21S7MA9DCW95E","either","6","","","","","","","0","0","1","0.2780981807","","0.6","0.8","0.4","0.2","","","","","0.4762011242","0.2780981807","0.1810992197","0.1295208369","","","","","","","74","J","1","","","154","main_expt"
"504","","bandit","233","737139","0.0-194.0-0.0","60323577","wem/bandit_either","A21S7MA9DCW95E","either","6","","","","","","","1","0","0","0.2574031695","","0.6","0.8","0.4","0.2","","","","","0.4797315341","0.2543788853","0.2574031695","0.1189574303","","","","","","","75","K","2","","","155","main_expt"
"286","","bandit","234","738950","0.0-195.0-0.0","60323577","wem/bandit_either","A21S7MA9DCW95E","either","6","","","","","","","0","0","1","","0.1838662476","0.6","0.8","0.4","0.2","0.4815153028","0.2601772157","0.1838662476","0.1511338071","","","","","","","","","","","75","K","2","","","156","main_expt"
"289","","bandit","235","740763","0.0-196.0-0.0","60323577","wem/bandit_either","A21S7MA9DCW95E","either","6","","","","","","","0","0","1","","0.1494559257","0.6","0.8","0.4","0.2","0.4769669351","0.27050514","0.1951262555","0.1494559257","","","","","","","","","","","76","L","3","","","157","main_expt"
"222","","bandit","236","742509","0.0-197.0-0.0","60323577","wem/bandit_either","A21S7MA9DCW95E","either","6","","","","","","","0","1","0","","0.4819637572","0.6","0.8","0.4","0.2","0.4819637572","0.2912044809","0.1711173681","0.1398300683","","","","","","","","","","","72","H","0","img/none_selected.jpg","","158","main_expt"
"361","","bandit","237","744429","0.0-198.0-0.0","60323577","wem/bandit_either","A21S7MA9DCW95E","either","6","","","","","","","0","0","1","0.4802617926","","0.6","0.8","0.4","0.2","","","","","0.4802617926","0.2863852675","0.1262927185","0.1482700517","","","","","","","72","H","0","img/none_selected.jpg","","159","main_expt"
"452","","bandit","238","746408","0.0-199.0-0.0","60323577","wem/bandit_either","A21S7MA9DCW95E","either","6","","","","","","","1","0","0","0.4834703177","","0.6","0.8","0.4","0.2","","","","","0.4834703177","0.3188379944","0.1289005464","0.1327856751","","","","","","","72","H","0","img/none_selected.jpg","","160","main_expt"
"296","","bandit","239","748231","0.0-200.0-0.0","60323577","wem/bandit_either","A21S7MA9DCW95E","either","6","","","","","","","1","0","0","0.4783639554","","0.6","0.8","0.4","0.2","","","","","0.4783639554","0.3918259889","0.07062595825","0.1936248495","","","","","","","72","H","0","img/none_selected.jpg","","161","main_expt"
"302","","bandit","240","750053","0.0-201.0-0.0","60323577","wem/bandit_either","A21S7MA9DCW95E","either","6","","","","","","","1","0","0","0.4702379588","","0.6","0.8","0.4","0.2","","","","","0.4702379588","0.3825352776","0.08554885259","0.1917288119","","","","","","","72","H","0","img/none_selected.jpg","","162","main_expt"
"275","","bandit","241","751850","0.0-202.0-0.0","60323577","wem/bandit_either","A21S7MA9DCW95E","either","6","","","","","","","0","0","1","0.4761999765","","0.6","0.8","0.4","0.2","","","","","0.4761999765","0.3500114378","0.05790820845","0.2410074379","","","","","","","72","H","0","img/none_selected.jpg","","163","main_expt"
"230","","bandit","242","753605","0.0-203.0-0.0","60323577","wem/bandit_either","A21S7MA9DCW95E","either","6","","","","","","","1","0","0","0.4683988395","","0.6","0.8","0.4","0.2","","","","","0.4683988395","0.3138306729","0.04744410613","0.2717164652","","","","","","","72","H","0","img/none_selected.jpg","","164","main_expt"
"337","","bandit","243","755462","0.0-204.0-0.0","60323577","wem/bandit_either","A21S7MA9DCW95E","either","6","","","","","","","1","0","0","0.4594806004","","0.6","0.8","0.4","0.2","","","","","0.4594806004","0.3066591237","0.07721988326","0.3360488911","","","","","","","72","H","0","img/none_selected.jpg","","165","main_expt"
"226","","bandit","244","757210","0.0-205.0-0.0","60323577","wem/bandit_either","A21S7MA9DCW95E","either","6","","","","","","","0","1","0","","0.4769271284","0.6","0.8","0.4","0.2","0.4769271284","0.359337808","0.09276645858","0.3288768439","","","","","","","","","","","72","H","0","img/none_selected.jpg","","166","main_expt"
"158","","bandit","245","758889","0.0-206.0-0.0","60323577","wem/bandit_either","A21S7MA9DCW95E","either","6","","","","","","","1","0","0","0.4824675089","","0.6","0.8","0.4","0.2","","","","","0.4824675089","0.3888119778","0.1092251717","0.341079324","","","","","","","72","H","0","img/none_selected.jpg","","167","main_expt"
"201","","bandit","246","760618","0.0-207.0-0.0","60323577","wem/bandit_either","A21S7MA9DCW95E","either","6","","","","","","","1","0","0","0.4731218304","","0.6","0.8","0.4","0.2","","","","","0.4731218304","0.3188253523","0.09704797424","0.2972081376","","","","","","","72","H","0","img/none_selected.jpg","","168","main_expt"
"313","","bandit","247","762450","0.0-208.0-0.0","60323577","wem/bandit_either","A21S7MA9DCW95E","either","6","","","","","","","0","0","1","0.4558692975","","0.6","0.8","0.4","0.2","","","","","0.4558692975","0.3035082617","0.1131958007","0.2716537329","","","","","","","72","H","0","img/none_selected.jpg","","169","main_expt"
"190","","bandit","248","764162","0.0-209.0-0.0","60323577","wem/bandit_either","A21S7MA9DCW95E","either","6","","","","","","","0","1","0","","0.424927817","0.6","0.8","0.4","0.2","0.424927817","0.3540810543","0.1636150477","0.3705489528","","","","","","","","","","","72","H","0","img/none_selected.jpg","","170","main_expt"
"527","","bandit","249","766214","0.0-210.0-0.0","60323577","wem/bandit_either","A21S7MA9DCW95E","either","6","","","","","","","1","0","0","0.4254050478","","0.6","0.8","0.4","0.2","","","","","0.4254050478","0.2912941695","0.1889182236","0.3259531709","","","","","","","72","H","0","img/none_selected.jpg","","171","main_expt"
"327","","bandit","250","768063","0.0-211.0-0.0","60323577","wem/bandit_either","A21S7MA9DCW95E","either","6","","","","","","","0","0","1","","0.4319935488","0.6","0.8","0.4","0.2","0.4319935488","0.2964718019","0.1494540944","0.3253578443","","","","","","","","","","","72","H","0","img/none_selected.jpg","","172","main_expt"
"365","","bandit","251","769954","0.0-212.0-0.0","60323577","wem/bandit_either","A21S7MA9DCW95E","either","6","","","","","","","0","0","1","","0.4157756128","0.6","0.8","0.4","0.2","0.4157756128","0.2411205861","0.1700291406","0.3133285256","","","","","","","","","","","72","H","0","img/none_selected.jpg","","173","main_expt"
"278","","bandit","252","771757","0.0-213.0-0.0","60323577","wem/bandit_either","A21S7MA9DCW95E","either","6","","","","","","","0","0","1","0.2132737127","","0.6","0.8","0.4","0.2","","","","","0.3650518631","0.2132737127","0.2007600912","0.3470844982","","","","","","","74","J","1","","","174","main_expt"
"163","","bandit","253","773441","0.0-214.0-0.0","60323577","wem/bandit_either","A21S7MA9DCW95E","either","6","","","","","","","0","0","1","0.3583375904","","0.6","0.8","0.4","0.2","","","","","0.3583375904","0.2722172758","0.1613291475","0.3615725976","","","","","","","72","H","0","img/none_selected.jpg","","175","main_expt"
"365","","bandit","254","775337","0.0-215.0-0.0","60323577","wem/bandit_either","A21S7MA9DCW95E","either","6","","","","","","","0","0","1","0.1618540135","","0.6","0.8","0.4","0.2","","","","","0.3849487833","0.3158297255","0.1618540135","0.3592449917","","","","","","","75","K","2","","","176","main_expt"
"356","","bandit","255","777217","0.0-216.0-0.0","60323577","wem/bandit_either","A21S7MA9DCW95E","either","6","","","","","","","0","0","1","0.3614776984","","0.6","0.8","0.4","0.2","","","","","0.3741193846","0.3033070912","0.1337509382","0.3614776984","","","","","","","76","L","3","","","177","main_expt"
"348","","bandit","256","779089","0.0-217.0-0.0","60323577","wem/bandit_either","A21S7MA9DCW95E","either","6","","","","","","","0","0","1","","0.172909152","0.6","0.8","0.4","0.2","0.3704436283","0.3070990366","0.172909152","0.4042649322","","","","","","","","","","","75","K","2","","","178","main_expt"
"40","","bandit","257","780653","0.0-218.0-0.0","60323577","wem/bandit_either","A21S7MA9DCW95E","either","6","","","","","","","0","0","1","","0.3718647044","0.6","0.8","0.4","0.2","0.3718647044","0.349206168","0.2306318455","0.3626499081","","","","","","","","","","","72","H","0","img/none_selected.jpg","","179","main_expt"
"72","","bandit","258","782251","0.0-219.0-0.0","60323577","wem/bandit_either","A21S7MA9DCW95E","either","6","","","","","","","0","0","1","","0.3144845341","0.6","0.8","0.4","0.2","0.3144845341","0.3533593609","0.2531752843","0.365831292","","","","","","","","","","","72","H","0","img/none_selected.jpg","","180","main_expt"
"497","","bandit","259","784273","0.0-220.0-0.0","60323577","wem/bandit_either","A21S7MA9DCW95E","either","6","","","","","","","0","0","1","0.3792633926","","0.6","0.8","0.4","0.2","","","","","0.3328992573","0.3792633926","0.2995137733","0.3720079561","","","","","","","74","J","1","","","181","main_expt"
"317","","bandit","260","786112","0.0-221.0-0.0","60323577","wem/bandit_either","A21S7MA9DCW95E","either","6","","","","","","","0","0","1","","0.2818604164","0.6","0.8","0.4","0.2","0.3443004049","0.4170401524","0.2818604164","0.3747751333","","","","","","","","","","","75","K","2","","","182","main_expt"
"335","","bandit","261","787970","0.0-222.0-0.0","60323577","wem/bandit_either","A21S7MA9DCW95E","either","6","","","","","","","0","0","1","","0.3772869326","0.6","0.8","0.4","0.2","0.3572445505","0.4349898381","0.2706787236","0.3772869326","","","","","","","","","","","76","L","3","","","183","main_expt"
"272","","bandit","262","789772","0.0-223.0-0.0","60323577","wem/bandit_either","A21S7MA9DCW95E","either","6","","","","","","","1","0","0","0.3719200221","","0.6","0.8","0.4","0.2","","","","","0.358140682","0.4355724899","0.2788381055","0.3719200221","","","","","","","76","L","3","","","184","main_expt"
"146","","bandit","263","791449","0.0-224.0-0.0","60323577","wem/bandit_either","A21S7MA9DCW95E","either","6","","","","","","","0","0","1","","0.3759280431","0.6","0.8","0.4","0.2","0.2938856532","0.443517249","0.2591604306","0.3759280431","","","","","","","","","","","76","L","3","","","185","main_expt"
"202","","bandit","264","793174","0.0-225.0-0.0","60323577","wem/bandit_either","A21S7MA9DCW95E","either","6","","","","","","","0","0","1","","0.3686405037","0.6","0.8","0.4","0.2","0.2570442146","0.4185550765","0.1717283936","0.3686405037","","","","","","","","","","","76","L","3","","","186","main_expt"
"495","","bandit","265","795193","0.0-226.0-0.0","60323577","wem/bandit_either","A21S7MA9DCW95E","either","6","","","","","","","0","0","1","0.4582246802","","0.6","0.8","0.4","0.2","","","","","0.2781151114","0.4582246802","0.1399016055","0.3693778387","","","","","","","74","J","1","","","187","main_expt"
"894","","bandit","266","797611","0.0-227.0-0.0","60323577","wem/bandit_either","A21S7MA9DCW95E","either","6","","","","","","","0","0","1","","0.4499637214","0.6","0.8","0.4","0.2","0.2510368257","0.4499637214","0.116743447","0.3858781765","","","","","","","","","","","74","J","1","","","188","main_expt"
"404","","bandit","267","799537","0.0-228.0-0.0","60323577","wem/bandit_either","A21S7MA9DCW95E","either","6","","","","","","","0","0","1","","0.353665234","0.6","0.8","0.4","0.2","0.2299291889","0.4681283031","0.09810356538","0.353665234","","","","","","","","","","","76","L","3","","","189","main_expt"
"352","","bandit","268","801412","0.0-229.0-0.0","60323577","wem/bandit_either","A21S7MA9DCW95E","either","6","","","","","","","0","0","1","","0.1333212727","0.6","0.8","0.4","0.2","0.2957770397","0.4672384316","0.1333212727","0.3702546744","","","","","","","","","","","75","K","2","","","190","main_expt"
"214","","bandit","269","803150","0.0-230.0-0.0","60323577","wem/bandit_either","A21S7MA9DCW95E","either","6","","","","","","","0","1","0","","0.2806998676","0.6","0.8","0.4","0.2","0.2806998676","0.4633056668","0.07289491444","0.3373283559","","","","","","","","","","","72","H","0","img/none_selected.jpg","","191","main_expt"
"339","","bandit","270","805013","0.0-231.0-0.0","60323577","wem/bandit_either","A21S7MA9DCW95E","either","6","","","","","","","0","0","1","","0.2578649702","0.6","0.8","0.4","0.2","0.2578649702","0.4701423021","0.09060717316","0.3717228864","","","","","","","","","","","72","H","0","img/none_selected.jpg","","192","main_expt"
"457","","bandit","271","806997","0.0-232.0-0.0","60323577","wem/bandit_either","A21S7MA9DCW95E","either","6","","","","","","","0","0","1","","0.3019093773","0.6","0.8","0.4","0.2","0.3019093773","0.4625827917","0.1038106097","0.3861484819","","","","","","","","","","","72","H","0","img/none_selected.jpg","","193","main_expt"
"477","","bandit","272","808997","0.0-233.0-0.0","60323577","wem/bandit_either","A21S7MA9DCW95E","either","6","","","","","","","0","0","1","","0.1222204007","0.6","0.8","0.4","0.2","0.3028603149","0.4480064119","0.1222204007","0.3884838939","","","","","","","","","","","75","K","2","","","194","main_expt"
"362","","bandit","273","810883","0.0-234.0-0.0","60323577","wem/bandit_either","A21S7MA9DCW95E","either","6","","","","","","","0","0","1","0.2933095063","","0.6","0.8","0.4","0.2","","","","","0.2933095063","0.4263193963","0.1230179676","0.4058549971","","","","","","","72","H","0","img/none_selected.jpg","","195","main_expt"
"380","","bandit","274","812790","0.0-235.0-0.0","60323577","wem/bandit_either","A21S7MA9DCW95E","either","6","","","","","","","1","0","0","0.4399191733","","0.6","0.8","0.4","0.2","","","","","0.3333663608","0.4399191733","0.1972068901","0.3894648227","","","","","","","74","J","1","","","196","main_expt"
"394","","bandit","275","814712","0.0-236.0-0.0","60323577","wem/bandit_either","A21S7MA9DCW95E","either","6","","","","","","","1","0","0","0.4303685687","","0.6","0.8","0.4","0.2","","","","","0.3472763543","0.4303685687","0.2091218652","0.3452919481","","","","","","","74","J","1","","","197","main_expt"
"436","","bandit","276","816674","0.0-237.0-0.0","60323577","wem/bandit_either","A21S7MA9DCW95E","either","6","","","","","","","0","0","1","0.4166638701","","0.6","0.8","0.4","0.2","","","","","0.3420385624","0.4166638701","0.2316117542","0.3571156804","","","","","","","74","J","1","","","198","main_expt"
"209","","bandit","277","818407","0.0-238.0-0.0","60323577","wem/bandit_either","A21S7MA9DCW95E","either","6","","","","","","","1","0","0","0.4166192342","","0.6","0.8","0.4","0.2","","","","","0.3009927129","0.4166192342","0.1983173389","0.3761278261","","","","","","","74","J","1","","","199","main_expt"
"326","","bandit","278","820258","0.0-239.0-0.0","60323577","wem/bandit_either","A21S7MA9DCW95E","either","6","","","","","","","0","0","1","","0.4065109498","0.6","0.8","0.4","0.2","0.2834367318","0.4065109498","0.2275108597","0.3623939384","","","","","","","","","","","74","J","1","","","200","main_expt"
"377","","bandit","279","822161","0.0-240.0-0.0","60323577","wem/bandit_either","A21S7MA9DCW95E","either","6","","","","","","","0","0","1","0.4210367682","","0.6","0.8","0.4","0.2","","","","","0.2305195973","0.4210367682","0.2753755663","0.3470966653","","","","","","","74","J","1","","","201","main_expt"
"378","","bandit","280","824067","0.0-241.0-0.0","60323577","wem/bandit_either","A21S7MA9DCW95E","either","6","","","","","","","0","1","0","","0.3738670455","0.6","0.8","0.4","0.2","0.236439039","0.4059774394","0.2867984519","0.3738670455","","","","","","","","","","","76","L","3","","","202","main_expt"
"316","","bandit","281","825919","0.0-242.0-0.0","60323577","wem/bandit_either","A21S7MA9DCW95E","either","6","","","","","","","0","0","1","","0.4434414113","0.6","0.8","0.4","0.2","0.207292508","0.4217634448","0.227681123","0.4434414113","","","","","","","","","","","76","L","3","","","203","main_expt"
"233","","bandit","282","827678","0.0-243.0-0.0","60323577","wem/bandit_either","A21S7MA9DCW95E","either","6","","","","","","","0","0","1","0.4363530878","","0.6","0.8","0.4","0.2","","","","","0.2706274655","0.417590799","0.2421814767","0.4363530878","","","","","","","76","L","3","","","204","main_expt"
"241","","bandit","283","829443","0.0-244.0-0.0","60323577","wem/bandit_either","A21S7MA9DCW95E","either","6","","","","","","","0","0","1","","0.2250127273","0.6","0.8","0.4","0.2","0.2688171721","0.3892328218","0.2250127273","0.4390009565","","","","","","","","","","","75","K","2","","","205","main_expt"
"32","","bandit","284","831002","0.0-245.0-0.0","60323577","wem/bandit_either","A21S7MA9DCW95E","either","6","","","","","","","0","1","0","","0.3877758809","0.6","0.8","0.4","0.2","0.2774640617","0.3877758809","0.2148063869","0.4606838579","","","","","","","","","","","74","J","1","","","206","main_expt"
"331","","bandit","285","832859","0.0-246.0-0.0","60323577","wem/bandit_either","A21S7MA9DCW95E","either","6","","","","","","","1","0","0","0.3344078408","","0.6","0.8","0.4","0.2","","","","","0.31303597","0.3344078408","0.2370073307","0.4679198071","","","","","","","74","J","1","","","207","main_expt"
"371","","bandit","286","834763","0.0-247.0-0.0","60323577","wem/bandit_either","A21S7MA9DCW95E","either","6","","","","","","","1","0","0","0.3285414067","","0.6","0.8","0.4","0.2","","","","","0.3187850143","0.3285414067","0.1736764344","0.4731710197","","","","","","","74","J","1","","","208","main_expt"
"303","","bandit","287","836592","0.0-248.0-0.0","60323577","wem/bandit_either","A21S7MA9DCW95E","either","6","","","","","","","0","0","1","0.337659841","","0.6","0.8","0.4","0.2","","","","","0.3031297305","0.337659841","0.2033963155","0.472507437","","","","","","","74","J","1","","","209","main_expt"
"318","","bandit","288","838441","0.0-249.0-0.0","60323577","wem/bandit_either","A21S7MA9DCW95E","either","6","","","","","","","0","0","1","0.322880172","","0.6","0.8","0.4","0.2","","","","","0.3593083662","0.322880172","0.1849029676","0.4759946166","","","","","","","74","J","1","","","210","main_expt"
"405","","bandit","289","840379","0.0-250.0-0.0","60323577","wem/bandit_either","A21S7MA9DCW95E","either","6","","","","","","","0","0","1","","0.4838002785","0.6","0.8","0.4","0.2","0.3758292662","0.3440981268","0.08033524441","0.4838002785","","","","","","","","","","","76","L","3","","","211","main_expt"
"331","","bandit","290","842236","0.0-251.0-0.0","60323577","wem/bandit_either","A21S7MA9DCW95E","either","6","","","","","","","0","1","0","","0.3771764803","0.6","0.8","0.4","0.2","0.3771764803","0.3135232579","0.1024936548","0.4871609062","","","","","","","","","","","72","H","0","img/none_selected.jpg","","212","main_expt"
"325","","bandit","291","844088","0.0-252.0-0.0","60323577","wem/bandit_either","A21S7MA9DCW95E","either","6","","","","","","","0","0","1","0.3935517348","","0.6","0.8","0.4","0.2","","","","","0.3935517348","0.328558382","0.1380366818","0.4829725273","","","","","","","72","H","0","img/none_selected.jpg","","213","main_expt"
"363","","bandit","292","845980","0.0-253.0-0.0","60323577","wem/bandit_either","A21S7MA9DCW95E","either","6","","","","","","","0","0","1","","0.3792377037","0.6","0.8","0.4","0.2","0.3792377037","0.3024402918","0.1206441992","0.4742933803","","","","","","","","","","","72","H","0","img/none_selected.jpg","","214","main_expt"
"241","","bandit","293","847749","0.0-254.0-0.0","60323577","wem/bandit_either","A21S7MA9DCW95E","either","6","","","","","","","0","0","1","","0.3024001881","0.6","0.8","0.4","0.2","0.3364308411","0.3024001881","0.1320715796","0.4754417465","","","","","","","","","","","74","J","1","","","215","main_expt"
"416","","bandit","294","849690","0.0-255.0-0.0","60323577","wem/bandit_either","A21S7MA9DCW95E","either","6","","","","","","","0","1","0","","0.2975117226","0.6","0.8","0.4","0.2","0.3348871659","0.2975117226","0.1152906885","0.4764866221","","","","","","","","","","","74","J","1","","","216","main_expt"
"366","","bandit","295","851588","0.0-256.0-0.0","60323577","wem/bandit_either","A21S7MA9DCW95E","either","6","","","","","","","1","0","0","0.3331298207","","0.6","0.8","0.4","0.2","","","","","0.321293363","0.3331298207","0.1191406027","0.4727866334","","","","","","","74","J","1","","","217","main_expt"
"390","","bandit","296","853508","0.0-257.0-0.0","60323577","wem/bandit_either","A21S7MA9DCW95E","either","6","","","","","","","0","0","1","0.2905667849","","0.6","0.8","0.4","0.2","","","","","0.3530973922","0.2905667849","0.1177717736","0.4664653133","","","","","","","74","J","1","","","218","main_expt"
"532","","bandit","297","855569","0.0-258.0-0.0","60323577","wem/bandit_either","A21S7MA9DCW95E","either","6","","","","","","","0","0","1","0.2701708387","","0.6","0.8","0.4","0.2","","","","","0.3837093308","0.2701708387","0.1178729669","0.4636837267","","","","","","","74","J","1","","","219","main_expt"
"590","","bandit","298","857697","0.0-259.0-0.0","60323577","wem/bandit_either","A21S7MA9DCW95E","either","6","","","","","","","0","0","1","0.3651541458","","0.6","0.8","0.4","0.2","","","","","0.3651541458","0.2395453957","0.1284790336","0.4599900571","","","","","","","72","H","0","img/none_selected.jpg","","220","main_expt"
"346","","bandit","299","859573","0.0-260.0-0.0","60323577","wem/bandit_either","A21S7MA9DCW95E","either","6","","","","","","","0","0","1","0.147465279","","0.6","0.8","0.4","0.2","","","","","0.254085412","0.2770622605","0.147465279","0.4490722186","","","","","","","75","K","2","","","221","main_expt"
"393","","bandit","300","861496","0.0-261.0-0.0","60323577","wem/bandit_either","A21S7MA9DCW95E","either","6","","","","","","","0","0","1","","0.4253353094","0.6","0.8","0.4","0.2","0.2590796483","0.3390746663","0.1441925756","0.4253353094","","","","","","","","","","","76","L","3","","","222","main_expt"
"399","","bandit","301","863425","0.0-262.0-0.0","60323577","wem/bandit_either","A21S7MA9DCW95E","either","6","","","","","","","1","0","0","0.384843876","","0.6","0.8","0.4","0.2","","","","","0.2640852941","0.384843876","0.1731110736","0.4559825987","","","","","","","74","J","1","","","223","main_expt"
"494","","bandit","302","865449","0.0-263.0-0.0","60323577","wem/bandit_either","A21S7MA9DCW95E","either","6","","","","","","","0","0","1","","0.4367619307","0.6","0.8","0.4","0.2","0.2636590797","0.4367619307","0.1124600034","0.464560515","","","","","","","","","","","74","J","1","","","224","main_expt"
"258","","bandit","303","867237","0.0-264.0-0.0","60323577","wem/bandit_either","A21S7MA9DCW95E","either","6","","","","","","","0","0","1","","0.3110444069","0.6","0.8","0.4","0.2","0.3110444069","0.42055701","0.1174510337","0.4528378766","","","","","","","","","","","72","H","0","img/none_selected.jpg","","225","main_expt"
"351","","bandit","304","869117","0.0-265.0-0.0","60323577","wem/bandit_either","A21S7MA9DCW95E","either","6","","","","","","","0","0","1","","0.1494320736","0.6","0.8","0.4","0.2","0.3268768972","0.4282593698","0.1494320736","0.4585160156","","","","","","","","","","","75","K","2","","","226","main_expt"
"377","","bandit","305","871024","0.0-266.0-0.0","60323577","wem/bandit_either","A21S7MA9DCW95E","either","6","","","","","","","0","1","0","","0.4525914875","0.6","0.8","0.4","0.2","0.3112991039","0.4213985596","0.1655037845","0.4525914875","","","","","","","","","","","76","L","3","","","227","main_expt"
"622","","bandit","306","873174","0.0-267.0-0.0","60323577","wem/bandit_either","A21S7MA9DCW95E","either","6","","","","","","","0","0","1","","0.4618810074","0.6","0.8","0.4","0.2","0.3481066565","0.4115599459","0.1595877114","0.4618810074","","","","","","","","","","","76","L","3","","","228","main_expt"
"202","","bandit","307","874903","0.0-268.0-0.0","60323577","wem/bandit_either","A21S7MA9DCW95E","either","6","","","","","","","0","0","1","0.375967734","","0.6","0.8","0.4","0.2","","","","","0.3267856819","0.375967734","0.1811982871","0.4661541784","","","","","","","74","J","1","","","229","main_expt"
"379","","bandit","308","876811","0.0-269.0-0.0","60323577","wem/bandit_either","A21S7MA9DCW95E","either","6","","","","","","","0","0","1","0.4172813036","","0.6","0.8","0.4","0.2","","","","","0.3043034776","0.4172813036","0.2088208598","0.4681373403","","","","","","","74","J","1","","","230","main_expt"
"694","","bandit","309","879034","0.0-270.0-0.0","60323577","wem/bandit_either","A21S7MA9DCW95E","either","6","","","","","","","1","0","0","0.4733838814","","0.6","0.8","0.4","0.2","","","","","0.3127123154","0.3871641603","0.2062946352","0.4733838814","","","","","","","76","L","3","","","231","main_expt"
"490","","bandit","310","881059","0.0-271.0-0.0","60323577","wem/bandit_either","A21S7MA9DCW95E","either","6","","","","","","","0","0","1","","0.455942125","0.6","0.8","0.4","0.2","0.3039198066","0.3381606844","0.1448621505","0.455942125","","","","","","","","","","","76","L","3","","","232","main_expt"
"307","","bandit","311","882894","0.0-272.0-0.0","60323577","wem/bandit_either","A21S7MA9DCW95E","either","6","","","","","","","0","1","0","","0.4523014459","0.6","0.8","0.4","0.2","0.2846072758","0.2918198365","0.1096360744","0.4523014459","","","","","","","","","","","76","L","3","","","233","main_expt"
"478","","bandit","312","884901","0.0-273.0-0.0","60323577","wem/bandit_either","A21S7MA9DCW95E","either","6","","","","","","","0","0","1","","0.4715877437","0.6","0.8","0.4","0.2","0.2430061478","0.3016980071","0.1102272527","0.4715877437","","","","","","","","","","","76","L","3","","","234","main_expt"
"342","","bandit","313","886770","0.0-274.0-0.0","60323577","wem/bandit_either","A21S7MA9DCW95E","either","6","","","","","","","0","0","1","","0.4667146267","0.6","0.8","0.4","0.2","0.263037213","0.2940059945","0.1428859574","0.4667146267","","","","","","","","","","","76","L","3","","","235","main_expt"
"140","","bandit","314","888438","0.0-275.0-0.0","60323577","wem/bandit_either","A21S7MA9DCW95E","either","6","","","","","","","0","0","1","0.2926833733","","0.6","0.8","0.4","0.2","","","","","0.2976510001","0.2926833733","0.1659437887","0.4638430617","","","","","","","74","J","1","","","236","main_expt"
"361","","bandit","315","890331","0.0-276.0-0.0","60323577","wem/bandit_either","A21S7MA9DCW95E","either","6","","","","","","","0","1","0","","0.4584702359","0.6","0.8","0.4","0.2","0.2789990486","0.278351659","0.1948695303","0.4584702359","","","","","","","","","","","76","L","3","","","237","main_expt"
"392","","bandit","316","892252","0.0-277.0-0.0","60323577","wem/bandit_either","A21S7MA9DCW95E","either","6","","","","","","","0","0","1","","0.4297714473","0.6","0.8","0.4","0.2","0.2760904485","0.2475781625","0.2231382717","0.4297714473","","","","","","","","","","","76","L","3","","","238","main_expt"
"480","","bandit","317","894260","0.0-278.0-0.0","60323577","wem/bandit_either","A21S7MA9DCW95E","either","6","","","","","","","0","0","1","","0.4225482751","0.6","0.8","0.4","0.2","0.2679201555","0.2476463542","0.2118273477","0.4225482751","","","","","","","","","","","76","L","3","","","239","main_expt"
"376","","bandit","318","896167","0.0-279.0-0.0","60323577","wem/bandit_either","A21S7MA9DCW95E","either","6","","","","","","","0","0","1","0.2691810592","","0.6","0.8","0.4","0.2","","","","","0.1815101208","0.2691810592","0.175879666","0.3911766626","","","","","","","74","J","1","","","240","main_expt"
"322","","bandit","319","898019","0.0-280.0-0.0","60323577","wem/bandit_either","A21S7MA9DCW95E","either","6","","","","","","","0","0","1","0.2619723004","","0.6","0.8","0.4","0.2","","","","","0.2107278188","0.2600118225","0.2619723004","0.3576719612","","","","","","","75","K","2","","","241","main_expt"
"276","","bandit","320","899828","0.0-281.0-0.0","60323577","wem/bandit_either","A21S7MA9DCW95E","either","6","","","","","","","0","0","1","0.1890457695","","0.6","0.8","0.4","0.2","","","","","0.1890457695","0.2585740571","0.253357122","0.3649942216","","","","","","","72","H","0","img/none_selected.jpg","","242","main_expt"
"410","","bandit","321","901769","0.0-282.0-0.0","60323577","wem/bandit_either","A21S7MA9DCW95E","either","6","","","","","","","1","0","0","0.3462843793","","0.6","0.8","0.4","0.2","","","","","0.1983598585","0.1943885749","0.2937411872","0.3462843793","","","","","","","76","L","3","","","243","main_expt"
"456","","bandit","322","903757","0.0-283.0-0.0","60323577","wem/bandit_either","A21S7MA9DCW95E","either","6","","","","","","","0","0","1","","0.3520149162","0.6","0.8","0.4","0.2","0.2165838592","0.1861062248","0.2743784529","0.3520149162","","","","","","","","","","","76","L","3","","","244","main_expt"
"211","","bandit","323","905502","0.0-284.0-0.0","60323577","wem/bandit_either","A21S7MA9DCW95E","either","6","","","","","","","0","0","1","0.1398782291","","0.6","0.8","0.4","0.2","","","","","0.1823109088","0.1398782291","0.2734657034","0.3483485742","","","","","","","74","J","1","","","245","main_expt"
"262","","bandit","324","907298","0.0-285.0-0.0","60323577","wem/bandit_either","A21S7MA9DCW95E","either","6","","","","","","","0","1","0","","0.2285423815","0.6","0.8","0.4","0.2","0.172760958","0.1392076576","0.2285423815","0.3814570076","","","","","","","","","","","75","K","2","","","246","main_expt"
"379","","bandit","325","909212","0.0-286.0-0.0","60323577","wem/bandit_either","A21S7MA9DCW95E","either","6","","","","","","","0","0","1","","0.269943793","0.6","0.8","0.4","0.2","0.1955602127","0.2028121248","0.269943793","0.3871035364","","","","","","","","","","","75","K","2","","","247","main_expt"
"268","","bandit","326","911010","0.0-287.0-0.0","60323577","wem/bandit_either","A21S7MA9DCW95E","either","6","","","","","","","0","0","1","0.2974302923","","0.6","0.8","0.4","0.2","","","","","0.1770790361","0.2522392451","0.2974302923","0.3746835134","","","","","","","75","K","2","","","248","main_expt"
"147","","bandit","327","912685","0.0-288.0-0.0","60323577","wem/bandit_either","A21S7MA9DCW95E","either","6","","","","","","","1","0","0","0.234975876","","0.6","0.8","0.4","0.2","","","","","0.1884848562","0.234975876","0.2667415426","0.3787028279","","","","","","","74","J","1","","","249","main_expt"
"312","","bandit","328","914526","0.0-289.0-0.0","60323577","wem/bandit_either","A21S7MA9DCW95E","either","6","","","","","","","0","0","1","0.2388523745","","0.6","0.8","0.4","0.2","","","","","0.2314514176","0.2388523745","0.3302420342","0.3475116331","","","","","","","74","J","1","","","250","main_expt"
"316","","bandit","329","916374","0.0-290.0-0.0","60323577","wem/bandit_either","A21S7MA9DCW95E","either","6","","","","","","","0","0","1","","0.2028544779","0.6","0.8","0.4","0.2","0.2028544779","0.2412642198","0.3080318139","0.3297368302","","","","","","","","","","","72","H","0","img/none_selected.jpg","","251","main_expt"
"274","","bandit","330","918181","0.0-291.0-0.0","60323577","wem/bandit_either","A21S7MA9DCW95E","either","6","","","","","","","0","0","1","","0.2662386667","0.6","0.8","0.4","0.2","0.2296758881","0.2662386667","0.2931646133","0.2830962297","","","","","","","","","","","74","J","1","","","252","main_expt"
