"rt","responses","trial_type","trial_index","time_elapsed","internal_node_id","subjID","study","MID","cond","drift","key_press","expt_phase","target","like","value","connected","gems","bombs","no_reward","GemPrChosen","BombPrChosen","GainOverPainPr_0","GainOverPainPr_1","GainOverPainPr_2","GainOverPainPr_3","LosePr_0","LosePr_1","LosePr_2","LosePr_3","WinPr_0","WinPr_1","WinPr_2","WinPr_3","Q0","Q1","Q2","gender","age","ethnicity","respCharCode","respKey","respChoiceNum","respChoice","practice","trial_counter","trial_label"
"6726","{""Q0"":""A26Y58YECZUZZG""}","survey-text","0","6731","0.0-0.0","60339174","wem/bandit_either","A26Y58YECZUZZG","either","4","","","","","","","","","","","","","","","","","","","","","","","","","","","","","","","","","","","",""
"8272","","text","1","16007","0.0-1.0","60339174","wem/bandit_either","A26Y58YECZUZZG","either","4","32","","","","","","","","","","","","","","","","","","","","","","","","","","","","","","","","","","",""
"4187","","text","2","20195","0.0-2.0","60339174","wem/bandit_either","A26Y58YECZUZZG","either","4","32","","","","","","","","","","","","","","","","","","","","","","","","","","","","","","","","","","",""
"7625","","text","3","27821","0.0-3.0","60339174","wem/bandit_either","A26Y58YECZUZZG","either","4","32","","","","","","","","","","","","","","","","","","","","","","","","","","","","","","","","","","",""
"9052","","text","4","36874","0.0-4.0","60339174","wem/bandit_either","A26Y58YECZUZZG","either","4","32","","","","","","","","","","","","","","","","","","","","","","","","","","","","","","","","","","",""
"14712","","text","5","51587","0.0-5.0","60339174","wem/bandit_either","A26Y58YECZUZZG","either","4","32","","","","","","","","","","","","","","","","","","","","","","","","","","","","","","","","","","",""
"4571","","text","6","56159","0.0-6.0","60339174","wem/bandit_either","A26Y58YECZUZZG","either","4","32","","","","","","","","","","","","","","","","","","","","","","","","","","","","","","","","","","",""
"3030","","text","7","59190","0.0-7.0","60339174","wem/bandit_either","A26Y58YECZUZZG","either","4","32","","","","","","","","","","","","","","","","","","","","","","","","","","","","","","","","","","",""
"5447","","identification","8","64645","0.0-8.0-0.0","60339174","wem/bandit_either","A26Y58YECZUZZG","either","4","","identification_pre","the village of Zur","","","","","","","","","","","","","","","","","","","","","","","","","","","","","","","","",""
"2613","","identification","9","68266","0.0-8.0-1.0","60339174","wem/bandit_either","A26Y58YECZUZZG","either","4","","identification_pre","the village of Nyx","","","","","","","","","","","","","","","","","","","","","","","","","","","","","","","","",""
"4927","","text","10","74194","0.0-9.0","60339174","wem/bandit_either","A26Y58YECZUZZG","either","4","32","","","","","","","","","","","","","","","","","","","","","","","","","","","","","","","","","","",""
"1681","","text","11","75877","0.0-10.0","60339174","wem/bandit_either","A26Y58YECZUZZG","either","4","32","","","","","","","","","","","","","","","","","","","","","","","","","","","","","","","","","","",""
"1119","","text","12","76997","0.0-11.0","60339174","wem/bandit_either","A26Y58YECZUZZG","either","4","32","","","","","","","","","","","","","","","","","","","","","","","","","","","","","","","","","","",""
"3950","","text","13","80947","0.0-12.0","60339174","wem/bandit_either","A26Y58YECZUZZG","either","4","32","","","","","","","","","","","","","","","","","","","","","","","","","","","","","","","","","","",""
"2166","","bandit","14","84620","0.0-13.0-0.0","60339174","wem/bandit_either","A26Y58YECZUZZG","either","4","","","","","","","0","0","1","0","0","","","","","0","","","","0","","","","","","","","","","74","J","0","img/none_selected_demo.jpg","true","0",""
"1072","","bandit","15","87196","0.0-14.0-0.0","60339174","wem/bandit_either","A26Y58YECZUZZG","either","4","","","","","","","0","0","1","0","0","","","","","0","","","","0","","","","","","","","","","75","K","0","img/none_selected_demo.jpg","true","0",""
"6113","","text","16","93311","0.0-15.0","60339174","wem/bandit_either","A26Y58YECZUZZG","either","4","32","","","","","","","","","","","","","","","","","","","","","","","","","","","","","","","","","","",""
"11749","","text","17","105060","0.0-16.0","60339174","wem/bandit_either","A26Y58YECZUZZG","either","4","32","","","","","","","","","","","","","","","","","","","","","","","","","","","","","","","","","","",""
"4036","","text","18","109098","0.0-17.0","60339174","wem/bandit_either","A26Y58YECZUZZG","either","4","32","","","","","","","","","","","","","","","","","","","","","","","","","","","","","","","","","","",""
"2233","","text","19","111332","0.0-18.0","60339174","wem/bandit_either","A26Y58YECZUZZG","either","4","32","","","","","","","","","","","","","","","","","","","","","","","","","","","","","","","","","","",""
"723","","bandit","20","113559","0.0-19.0-0.0","60339174","wem/bandit_either","A26Y58YECZUZZG","either","4","","","","","","","1","0","0","0.8","","0.5","0.5","","","","","","","0.8","0.2","","","","","","","","","74","J","0","img/none_selected_demo.jpg","true","0","80_20_practice"
"281","","bandit","21","115344","0.0-19.0-1.0","60339174","wem/bandit_either","A26Y58YECZUZZG","either","4","","","","","","","0","1","0","","0.8","0.5","0.5","","","0.8","0.2","","","","","","","","","","","","","74","J","0","img/none_selected_demo.jpg","true","0","80_20_practice"
"399","","bandit","22","117246","0.0-19.0-2.0","60339174","wem/bandit_either","A26Y58YECZUZZG","either","4","","","","","","","0","1","0","","0.8","0.5","0.5","","","0.8","0.2","","","","","","","","","","","","","74","J","0","img/none_selected_demo.jpg","true","0","80_20_practice"
"432","","bandit","23","119182","0.0-19.0-3.0","60339174","wem/bandit_either","A26Y58YECZUZZG","either","4","","","","","","","0","0","1","0.2","","0.5","0.5","","","","","","","0.8","0.2","","","","","","","","","75","K","1","","true","0","80_20_practice"
"367","","bandit","24","121052","0.0-19.0-4.0","60339174","wem/bandit_either","A26Y58YECZUZZG","either","4","","","","","","","0","0","1","","0.2","0.5","0.5","","","0.8","0.2","","","","","","","","","","","","","75","K","1","","true","0","80_20_practice"
"503","","bandit","25","123059","0.0-19.0-5.0","60339174","wem/bandit_either","A26Y58YECZUZZG","either","4","","","","","","","0","1","0","","0.2","0.5","0.5","","","0.8","0.2","","","","","","","","","","","","","75","K","1","","true","0","80_20_practice"
"607","","bandit","26","125170","0.0-19.0-6.0","60339174","wem/bandit_either","A26Y58YECZUZZG","either","4","","","","","","","0","1","0","","0.8","0.5","0.5","","","0.8","0.2","","","","","","","","","","","","","74","J","0","img/none_selected_demo.jpg","true","0","80_20_practice"
"535","","bandit","27","127208","0.0-19.0-7.0","60339174","wem/bandit_either","A26Y58YECZUZZG","either","4","","","","","","","0","1","0","","0.8","0.5","0.5","","","0.8","0.2","","","","","","","","","","","","","74","J","0","img/none_selected_demo.jpg","true","0","80_20_practice"
"431","","bandit","28","129143","0.0-19.0-8.0","60339174","wem/bandit_either","A26Y58YECZUZZG","either","4","","","","","","","0","1","0","","0.8","0.5","0.5","","","0.8","0.2","","","","","","","","","","","","","74","J","0","img/none_selected_demo.jpg","true","0","80_20_practice"
"472","","bandit","29","131119","0.0-19.0-9.0","60339174","wem/bandit_either","A26Y58YECZUZZG","either","4","","","","","","","0","1","0","","0.8","0.5","0.5","","","0.8","0.2","","","","","","","","","","","","","74","J","0","img/none_selected_demo.jpg","true","0","80_20_practice"
"450","","bandit","30","133074","0.0-19.0-10.0","60339174","wem/bandit_either","A26Y58YECZUZZG","either","4","","","","","","","0","0","1","","0.2","0.5","0.5","","","0.8","0.2","","","","","","","","","","","","","75","K","1","","true","0","80_20_practice"
"251","","bandit","31","134829","0.0-19.0-11.0","60339174","wem/bandit_either","A26Y58YECZUZZG","either","4","","","","","","","0","0","1","","0.2","0.5","0.5","","","0.8","0.2","","","","","","","","","","","","","75","K","1","","true","0","80_20_practice"
"379","","bandit","32","136712","0.0-19.0-12.0","60339174","wem/bandit_either","A26Y58YECZUZZG","either","4","","","","","","","1","0","0","0.8","","0.5","0.5","","","","","","","0.8","0.2","","","","","","","","","74","J","0","img/none_selected_demo.jpg","true","0","80_20_practice"
"313","","bandit","33","138530","0.0-19.0-13.0","60339174","wem/bandit_either","A26Y58YECZUZZG","either","4","","","","","","","1","0","0","0.8","","0.5","0.5","","","","","","","0.8","0.2","","","","","","","","","74","J","0","img/none_selected_demo.jpg","true","0","80_20_practice"
"307","","bandit","34","140342","0.0-19.0-14.0","60339174","wem/bandit_either","A26Y58YECZUZZG","either","4","","","","","","","1","0","0","0.8","","0.5","0.5","","","","","","","0.8","0.2","","","","","","","","","74","J","0","img/none_selected_demo.jpg","true","0","80_20_practice"
"369","","bandit","35","142215","0.0-19.0-15.0","60339174","wem/bandit_either","A26Y58YECZUZZG","either","4","","","","","","","0","0","1","0.8","","0.5","0.5","","","","","","","0.8","0.2","","","","","","","","","74","J","0","img/none_selected_demo.jpg","true","0","80_20_practice"
"344","","bandit","36","144064","0.0-19.0-16.0","60339174","wem/bandit_either","A26Y58YECZUZZG","either","4","","","","","","","0","0","1","","0.8","0.5","0.5","","","0.8","0.2","","","","","","","","","","","","","74","J","0","img/none_selected_demo.jpg","true","0","80_20_practice"
"311","","bandit","37","145879","0.0-19.0-17.0","60339174","wem/bandit_either","A26Y58YECZUZZG","either","4","","","","","","","1","0","0","0.8","","0.5","0.5","","","","","","","0.8","0.2","","","","","","","","","74","J","0","img/none_selected_demo.jpg","true","0","80_20_practice"
"311","","bandit","38","147694","0.0-19.0-18.0","60339174","wem/bandit_either","A26Y58YECZUZZG","either","4","","","","","","","0","1","0","","0.8","0.5","0.5","","","0.8","0.2","","","","","","","","","","","","","74","J","0","img/none_selected_demo.jpg","true","0","80_20_practice"
"354","","bandit","39","149552","0.0-19.0-19.0","60339174","wem/bandit_either","A26Y58YECZUZZG","either","4","","","","","","","1","0","0","0.8","","0.5","0.5","","","","","","","0.8","0.2","","","","","","","","","74","J","0","img/none_selected_demo.jpg","true","0","80_20_practice"
"5012","","text","40","154565","0.0-20.0","60339174","wem/bandit_either","A26Y58YECZUZZG","either","4","32","","","","","","","","","","","","","","","","","","","","","","","","","","","","","","","","","","",""
"792","","bandit","41","156862","0.0-21.0-0.0","60339174","wem/bandit_either","A26Y58YECZUZZG","either","4","","","","","","","1","0","0","1","0","","","","","0","1","","","1","0","","","","","","","","","74","J","0","img/none_selected_demo.jpg","true","0",""
"2700","","text","42","159565","0.0-22.0","60339174","wem/bandit_either","A26Y58YECZUZZG","either","4","32","","","","","","","","","","","","","","","","","","","","","","","","","","","","","","","","","","",""
"1493","","text","43","161060","0.0-23.0","60339174","wem/bandit_either","A26Y58YECZUZZG","either","4","32","","","","","","","","","","","","","","","","","","","","","","","","","","","","","","","","","","",""
"1453","","text","44","162514","0.0-24.0","60339174","wem/bandit_either","A26Y58YECZUZZG","either","4","32","","","","","","","","","","","","","","","","","","","","","","","","","","","","","","","","","","",""
"2284","","text","45","164800","0.0-25.0","60339174","wem/bandit_either","A26Y58YECZUZZG","either","4","32","","","","","","","","","","","","","","","","","","","","","","","","","","","","","","","","","","",""
"1962","","text","46","166762","0.0-26.0","60339174","wem/bandit_either","A26Y58YECZUZZG","either","4","32","","","","","","","","","","","","","","","","","","","","","","","","","","","","","","","","","","",""
"1481","","text","47","168244","0.0-27.0","60339174","wem/bandit_either","A26Y58YECZUZZG","either","4","32","","","","","","","","","","","","","","","","","","","","","","","","","","","","","","","","","","",""
"828","","text","48","169073","0.0-28.0","60339174","wem/bandit_either","A26Y58YECZUZZG","either","4","32","","","","","","","","","","","","","","","","","","","","","","","","","","","","","","","","","","",""
"2325","","text","49","171400","0.0-29.0","60339174","wem/bandit_either","A26Y58YECZUZZG","either","4","32","","","","","","","","","","","","","","","","","","","","","","","","","","","","","","","","","","",""
"1534","","text","50","172936","0.0-30.0","60339174","wem/bandit_either","A26Y58YECZUZZG","either","4","32","","","","","","","","","","","","","","","","","","","","","","","","","","","","","","","","","","",""
"1545","","text","51","174482","0.0-31.0","60339174","wem/bandit_either","A26Y58YECZUZZG","either","4","32","","","","","","","","","","","","","","","","","","","","","","","","","","","","","","","","","","",""
"1776","","text","52","176260","0.0-32.0","60339174","wem/bandit_either","A26Y58YECZUZZG","either","4","32","","","","","","","","","","","","","","","","","","","","","","","","","","","","","","","","","","",""
"522","","bandit","53","178287","0.0-33.0-0.0","60339174","wem/bandit_either","A26Y58YECZUZZG","either","4","","","","","","","1","0","0","0.8","","0.5","0.5","0.5","0.5","","","","","0.8","0.2","0.6","0.2","","","","","","","72","H","0","img/none_selected.jpg","true","0","full_practice"
"242","","bandit","54","180034","0.0-33.0-1.0","60339174","wem/bandit_either","A26Y58YECZUZZG","either","4","","","","","","","0","1","0","","0.8","0.5","0.5","0.5","0.5","0.8","0.2","0.6","0.2","","","","","","","","","","","72","H","0","img/none_selected.jpg","true","0","full_practice"
"240","","bandit","55","181780","0.0-33.0-2.0","60339174","wem/bandit_either","A26Y58YECZUZZG","either","4","","","","","","","1","0","0","0.8","","0.5","0.5","0.5","0.5","","","","","0.8","0.2","0.6","0.2","","","","","","","72","H","0","img/none_selected.jpg","true","0","full_practice"
"252","","bandit","56","183537","0.0-33.0-3.0","60339174","wem/bandit_either","A26Y58YECZUZZG","either","4","","","","","","","1","0","0","0.8","","0.5","0.5","0.5","0.5","","","","","0.8","0.2","0.6","0.2","","","","","","","72","H","0","img/none_selected.jpg","true","0","full_practice"
"314","","bandit","57","185357","0.0-33.0-4.0","60339174","wem/bandit_either","A26Y58YECZUZZG","either","4","","","","","","","0","0","1","","0.8","0.5","0.5","0.5","0.5","0.8","0.2","0.6","0.2","","","","","","","","","","","72","H","0","img/none_selected.jpg","true","0","full_practice"
"282","","bandit","58","187144","0.0-33.0-5.0","60339174","wem/bandit_either","A26Y58YECZUZZG","either","4","","","","","","","0","1","0","","0.8","0.5","0.5","0.5","0.5","0.8","0.2","0.6","0.2","","","","","","","","","","","72","H","0","img/none_selected.jpg","true","0","full_practice"
"239","","bandit","59","188889","0.0-33.0-6.0","60339174","wem/bandit_either","A26Y58YECZUZZG","either","4","","","","","","","1","0","0","0.8","","0.5","0.5","0.5","0.5","","","","","0.8","0.2","0.6","0.2","","","","","","","72","H","0","img/none_selected.jpg","true","0","full_practice"
"332","","bandit","60","190724","0.0-33.0-7.0","60339174","wem/bandit_either","A26Y58YECZUZZG","either","4","","","","","","","1","0","0","0.2","","0.5","0.5","0.5","0.5","","","","","0.8","0.2","0.6","0.2","","","","","","","74","J","1","","true","0","full_practice"
"276","","bandit","61","192504","0.0-33.0-8.0","60339174","wem/bandit_either","A26Y58YECZUZZG","either","4","","","","","","","0","0","1","0.2","","0.5","0.5","0.5","0.5","","","","","0.8","0.2","0.6","0.2","","","","","","","74","J","1","","true","0","full_practice"
"383","","bandit","62","194392","0.0-33.0-9.0","60339174","wem/bandit_either","A26Y58YECZUZZG","either","4","","","","","","","0","0","1","","0.2","0.5","0.5","0.5","0.5","0.8","0.2","0.6","0.2","","","","","","","","","","","74","J","1","","true","0","full_practice"
"255","","bandit","63","196151","0.0-33.0-10.0","60339174","wem/bandit_either","A26Y58YECZUZZG","either","4","","","","","","","0","0","1","","0.6","0.5","0.5","0.5","0.5","0.8","0.2","0.6","0.2","","","","","","","","","","","75","K","2","","true","0","full_practice"
"251","","bandit","64","197908","0.0-33.0-11.0","60339174","wem/bandit_either","A26Y58YECZUZZG","either","4","","","","","","","1","0","0","0.6","","0.5","0.5","0.5","0.5","","","","","0.8","0.2","0.6","0.2","","","","","","","75","K","2","","true","0","full_practice"
"291","","bandit","65","199703","0.0-33.0-12.0","60339174","wem/bandit_either","A26Y58YECZUZZG","either","4","","","","","","","0","1","0","","0.6","0.5","0.5","0.5","0.5","0.8","0.2","0.6","0.2","","","","","","","","","","","75","K","2","","true","0","full_practice"
"312","","bandit","66","201521","0.0-33.0-13.0","60339174","wem/bandit_either","A26Y58YECZUZZG","either","4","","","","","","","0","1","0","","0.6","0.5","0.5","0.5","0.5","0.8","0.2","0.6","0.2","","","","","","","","","","","75","K","2","","true","0","full_practice"
"278","","bandit","67","203304","0.0-33.0-14.0","60339174","wem/bandit_either","A26Y58YECZUZZG","either","4","","","","","","","1","0","0","0.6","","0.5","0.5","0.5","0.5","","","","","0.8","0.2","0.6","0.2","","","","","","","75","K","2","","true","0","full_practice"
"158","","bandit","68","204967","0.0-33.0-15.0","60339174","wem/bandit_either","A26Y58YECZUZZG","either","4","","","","","","","0","1","0","","0.6","0.5","0.5","0.5","0.5","0.8","0.2","0.6","0.2","","","","","","","","","","","75","K","2","","true","0","full_practice"
"2553","","bandit","69","209024","0.0-33.0-16.0","60339174","wem/bandit_either","A26Y58YECZUZZG","either","4","","","","","","","0","0","1","","0.2","0.5","0.5","0.5","0.5","0.8","0.2","0.6","0.2","","","","","","","","","","","76","L","3","","true","0","full_practice"
"283","","bandit","70","210813","0.0-33.0-17.0","60339174","wem/bandit_either","A26Y58YECZUZZG","either","4","","","","","","","0","0","1","","0.2","0.5","0.5","0.5","0.5","0.8","0.2","0.6","0.2","","","","","","","","","","","76","L","3","","true","0","full_practice"
"284","","bandit","71","212602","0.0-33.0-18.0","60339174","wem/bandit_either","A26Y58YECZUZZG","either","4","","","","","","","0","0","1","","0.6","0.5","0.5","0.5","0.5","0.8","0.2","0.6","0.2","","","","","","","","","","","75","K","2","","true","0","full_practice"
"335","","bandit","72","214442","0.0-33.0-19.0","60339174","wem/bandit_either","A26Y58YECZUZZG","either","4","","","","","","","0","0","1","0.6","","0.5","0.5","0.5","0.5","","","","","0.8","0.2","0.6","0.2","","","","","","","75","K","2","","true","0","full_practice"
"1619","","text","73","216066","0.0-34.0","60339174","wem/bandit_either","A26Y58YECZUZZG","either","4","32","","","","","","","","","","","","","","","","","","","","","","","","","","","","","","","","","","",""
"3185","","text","74","220252","0.0-35.0","60339174","wem/bandit_either","A26Y58YECZUZZG","either","4","32","","","","","","","","","","","","","","","","","","","","","","","","","","","","","","","","","","",""
"6131","","text","75","226385","0.0-36.0","60339174","wem/bandit_either","A26Y58YECZUZZG","either","4","32","","","","","","","","","","","","","","","","","","","","","","","","","","","","","","","","","","",""
"3375","","text","76","229762","0.0-37.0","60339174","wem/bandit_either","A26Y58YECZUZZG","either","4","32","","","","","","","","","","","","","","","","","","","","","","","","","","","","","","","","","","",""
"1543","","text","77","231308","0.0-38.0","60339174","wem/bandit_either","A26Y58YECZUZZG","either","4","32","","","","","","","","","","","","","","","","","","","","","","","","","","","","","","","","","","",""
"3699","","text","78","235008","0.0-39.0","60339174","wem/bandit_either","A26Y58YECZUZZG","either","4","32","","","","","","","","","","","","","","","","","","","","","","","","","","","","","","","","","","",""
"638","","bandit","79","237151","0.0-40.0-0.0","60339174","wem/bandit_either","A26Y58YECZUZZG","either","4","","","","","","","0","0","1","0.3242650943","","0.8","0.2","0.4","0.6","","","","","0.3242650943","0.3525715257","0.2771551185","0.3894728165","","","","","","","72","H","0","img/none_selected.jpg","","1","main_expt"
"338","","bandit","80","238992","0.0-41.0-0.0","60339174","wem/bandit_either","A26Y58YECZUZZG","either","4","","","","","","","0","1","0","","0.390153736","0.8","0.2","0.4","0.6","0.3296228245","0.390153736","0.3030893157","0.363660736","","","","","","","","","","","74","J","1","","","2","main_expt"
"238","","bandit","81","240736","0.0-42.0-0.0","60339174","wem/bandit_either","A26Y58YECZUZZG","either","4","","","","","","","0","0","1","","0.3725447061","0.8","0.2","0.4","0.6","0.3102780753","0.3725447061","0.3211059343","0.3842171554","","","","","","","","","","","74","J","1","","","3","main_expt"
"313","","bandit","82","242554","0.0-43.0-0.0","60339174","wem/bandit_either","A26Y58YECZUZZG","either","4","","","","","","","0","0","1","0.3431524481","","0.8","0.2","0.4","0.6","","","","","0.2749892112","0.3431524481","0.2804386453","0.3831963053","","","","","","","74","J","1","","","4","main_expt"
"233","","bandit","83","244291","0.0-44.0-0.0","60339174","wem/bandit_either","A26Y58YECZUZZG","either","4","","","","","","","0","1","0","","0.2609559086","0.8","0.2","0.4","0.6","0.3037824898","0.3448007793","0.2609559086","0.4056596471","","","","","","","","","","","75","K","2","","","5","main_expt"
"205","","bandit","84","246000","0.0-45.0-0.0","60339174","wem/bandit_either","A26Y58YECZUZZG","either","4","","","","","","","0","0","1","","0.2259287768","0.8","0.2","0.4","0.6","0.3217417103","0.3980888019","0.2259287768","0.4409946319","","","","","","","","","","","75","K","2","","","6","main_expt"
"175","","bandit","85","247680","0.0-46.0-0.0","60339174","wem/bandit_either","A26Y58YECZUZZG","either","4","","","","","","","0","0","1","","0.2433618728","0.8","0.2","0.4","0.6","0.3018715163","0.3693121862","0.2433618728","0.3821747998","","","","","","","","","","","75","K","2","","","7","main_expt"
"218","","bandit","86","249404","0.0-47.0-0.0","60339174","wem/bandit_either","A26Y58YECZUZZG","either","4","","","","","","","0","1","0","","0.3841844813","0.8","0.2","0.4","0.6","0.3643645816","0.2933697555","0.2025356769","0.3841844813","","","","","","","","","","","76","L","3","","","8","main_expt"
"378","","bandit","87","251287","0.0-48.0-0.0","60339174","wem/bandit_either","A26Y58YECZUZZG","either","4","","","","","","","0","1","0","","0.3412237964","0.8","0.2","0.4","0.6","0.3418610374","0.3036212831","0.1441028094","0.3412237964","","","","","","","","","","","76","L","3","","","9","main_expt"
"219","","bandit","88","253012","0.0-49.0-0.0","60339174","wem/bandit_either","A26Y58YECZUZZG","either","4","","","","","","","1","0","0","0.3256420777","","0.8","0.2","0.4","0.6","","","","","0.3190157878","0.308020301","0.1736005971","0.3256420777","","","","","","","76","L","3","","","10","main_expt"
"163","","bandit","89","254679","0.0-50.0-0.0","60339174","wem/bandit_either","A26Y58YECZUZZG","either","4","","","","","","","0","0","1","0.3514007431","","0.8","0.2","0.4","0.6","","","","","0.2998731478","0.3065973113","0.1836365694","0.3514007431","","","","","","","76","L","3","","","11","main_expt"
"236","","bandit","90","256419","0.0-51.0-0.0","60339174","wem/bandit_either","A26Y58YECZUZZG","either","4","","","","","","","0","1","0","","0.3722032088","0.8","0.2","0.4","0.6","0.2942822571","0.3271859636","0.2143869662","0.3722032088","","","","","","","","","","","76","L","3","","","12","main_expt"
"222","","bandit","91","258147","0.0-52.0-0.0","60339174","wem/bandit_either","A26Y58YECZUZZG","either","4","","","","","","","1","0","0","0.3681707299","","0.8","0.2","0.4","0.6","","","","","0.3009212619","0.2761076709","0.1637139448","0.3681707299","","","","","","","76","L","3","","","13","main_expt"
"215","","bandit","92","259866","0.0-53.0-0.0","60339174","wem/bandit_either","A26Y58YECZUZZG","either","4","","","","","","","0","0","1","","0.3528222564","0.8","0.2","0.4","0.6","0.3227424667","0.2311164494","0.1488535162","0.3528222564","","","","","","","","","","","76","L","3","","","14","main_expt"
"269","","bandit","93","261641","0.0-54.0-0.0","60339174","wem/bandit_either","A26Y58YECZUZZG","either","4","","","","","","","0","0","1","","0.3738838661","0.8","0.2","0.4","0.6","0.3547546862","0.2905977425","0.1332411271","0.3738838661","","","","","","","","","","","76","L","3","","","15","main_expt"
"251","","bandit","94","263397","0.0-55.0-0.0","60339174","wem/bandit_either","A26Y58YECZUZZG","either","4","","","","","","","1","0","0","0.3241157583","","0.8","0.2","0.4","0.6","","","","","0.3241157583","0.2924554969","0.09882415698","0.3385239332","","","","","","","72","H","0","img/none_selected.jpg","","16","main_expt"
"93","","bandit","95","264996","0.0-56.0-0.0","60339174","wem/bandit_either","A26Y58YECZUZZG","either","4","","","","","","","1","0","0","0.3363410386","","0.8","0.2","0.4","0.6","","","","","0.3363410386","0.3114836302","0.1069157009","0.3111355138","","","","","","","72","H","0","img/none_selected.jpg","","17","main_expt"
"227","","bandit","96","266728","0.0-57.0-0.0","60339174","wem/bandit_either","A26Y58YECZUZZG","either","4","","","","","","","0","0","1","","0.3880947854","0.8","0.2","0.4","0.6","0.3880947854","0.3215333475","0.134958137","0.3487767647","","","","","","","","","","","72","H","0","img/none_selected.jpg","","18","main_expt"
"221","","bandit","97","268455","0.0-58.0-0.0","60339174","wem/bandit_either","A26Y58YECZUZZG","either","4","","","","","","","1","0","0","0.4116912081","","0.8","0.2","0.4","0.6","","","","","0.4116912081","0.2733398822","0.1230418706","0.3010303499","","","","","","","72","H","0","img/none_selected.jpg","","19","main_expt"
"245","","bandit","98","270206","0.0-59.0-0.0","60339174","wem/bandit_either","A26Y58YECZUZZG","either","4","","","","","","","1","0","0","0.3973894305","","0.8","0.2","0.4","0.6","","","","","0.3973894305","0.2351410235","0.09866604889","0.2907203997","","","","","","","72","H","0","img/none_selected.jpg","","20","main_expt"
"177","","bandit","99","271888","0.0-60.0-0.0","60339174","wem/bandit_either","A26Y58YECZUZZG","either","4","","","","","","","1","0","0","0.369037109","","0.8","0.2","0.4","0.6","","","","","0.369037109","0.2257810982","0.1021222834","0.3088108907","","","","","","","72","H","0","img/none_selected.jpg","","21","main_expt"
"147","","bandit","100","273540","0.0-61.0-0.0","60339174","wem/bandit_either","A26Y58YECZUZZG","either","4","","","","","","","1","0","0","0.4179468344","","0.8","0.2","0.4","0.6","","","","","0.4179468344","0.2221856846","0.1234138809","0.349202701","","","","","","","72","H","0","img/none_selected.jpg","","22","main_expt"
"227","","bandit","101","275273","0.0-62.0-0.0","60339174","wem/bandit_either","A26Y58YECZUZZG","either","4","","","","","","","1","0","0","0.4276062926","","0.8","0.2","0.4","0.6","","","","","0.4276062926","0.2127124712","0.1030640584","0.3785068464","","","","","","","72","H","0","img/none_selected.jpg","","23","main_expt"
"273","","bandit","102","277051","0.0-63.0-0.0","60339174","wem/bandit_either","A26Y58YECZUZZG","either","4","","","","","","","0","0","1","0.4078122208","","0.8","0.2","0.4","0.6","","","","","0.4078122208","0.1882566648","0.1261035851","0.4012919653","","","","","","","72","H","0","img/none_selected.jpg","","24","main_expt"
"103","","bandit","103","278659","0.0-64.0-0.0","60339174","wem/bandit_either","A26Y58YECZUZZG","either","4","","","","","","","1","0","0","0.3950411191","","0.8","0.2","0.4","0.6","","","","","0.3950411191","0.1273223766","0.1796705612","0.400899794","","","","","","","72","H","0","img/none_selected.jpg","","25","main_expt"
"229","","bandit","104","280394","0.0-65.0-0.0","60339174","wem/bandit_either","A26Y58YECZUZZG","either","4","","","","","","","1","0","0","0.4322303329","","0.8","0.2","0.4","0.6","","","","","0.4322303329","0.15747458","0.2414651519","0.4126274585","","","","","","","72","H","0","img/none_selected.jpg","","26","main_expt"
"190","","bandit","105","282090","0.0-66.0-0.0","60339174","wem/bandit_either","A26Y58YECZUZZG","either","4","","","","","","","0","0","1","0.4353643722","","0.8","0.2","0.4","0.6","","","","","0.4353643722","0.1442684908","0.2005374927","0.3992263875","","","","","","","72","H","0","img/none_selected.jpg","","27","main_expt"
"178","","bandit","106","283772","0.0-67.0-0.0","60339174","wem/bandit_either","A26Y58YECZUZZG","either","4","","","","","","","0","0","1","0.4464017809","","0.8","0.2","0.4","0.6","","","","","0.4464017809","0.2255404594","0.3197257227","0.3846584236","","","","","","","72","H","0","img/none_selected.jpg","","28","main_expt"
"322","","bandit","107","285600","0.0-68.0-0.0","60339174","wem/bandit_either","A26Y58YECZUZZG","either","4","","","","","","","0","0","1","0.4417109462","","0.8","0.2","0.4","0.6","","","","","0.4417109462","0.2730951691","0.3141869899","0.3561298134","","","","","","","72","H","0","img/none_selected.jpg","","29","main_expt"
"226","","bandit","108","287331","0.0-69.0-0.0","60339174","wem/bandit_either","A26Y58YECZUZZG","either","4","","","","","","","0","1","0","","0.2890412698","0.8","0.2","0.4","0.6","0.4065908859","0.2890412698","0.3445991012","0.3101363315","","","","","","","","","","","74","J","1","","","30","main_expt"
"62","","bandit","109","288899","0.0-70.0-0.0","60339174","wem/bandit_either","A26Y58YECZUZZG","either","4","","","","","","","0","0","1","","0.3309226042","0.8","0.2","0.4","0.6","0.3954582793","0.3309226042","0.3456655029","0.3322219809","","","","","","","","","","","74","J","1","","","31","main_expt"
"111","","bandit","110","290519","0.0-71.0-0.0","60339174","wem/bandit_either","A26Y58YECZUZZG","either","4","","","","","","","0","0","1","0.3519301717","","0.8","0.2","0.4","0.6","","","","","0.3716723047","0.3519301717","0.3826172224","0.3516269472","","","","","","","74","J","1","","","32","main_expt"
"176","","bandit","111","292200","0.0-72.0-0.0","60339174","wem/bandit_either","A26Y58YECZUZZG","either","4","","","","","","","0","0","1","","0.3804083149","0.8","0.2","0.4","0.6","0.3799724366","0.3414953842","0.3804083149","0.3852085553","","","","","","","","","","","75","K","2","","","33","main_expt"
"137","","bandit","112","293844","0.0-73.0-0.0","60339174","wem/bandit_either","A26Y58YECZUZZG","either","4","","","","","","","1","0","0","0.4196644934","","0.8","0.2","0.4","0.6","","","","","0.409480615","0.2938412915","0.3808178469","0.4196644934","","","","","","","76","L","3","","","34","main_expt"
"42","","bandit","113","295391","0.0-74.0-0.0","60339174","wem/bandit_either","A26Y58YECZUZZG","either","4","","","","","","","0","0","1","0.420891004","","0.8","0.2","0.4","0.6","","","","","0.3869649509","0.2256616696","0.376129724","0.420891004","","","","","","","76","L","3","","","35","main_expt"
"56","","bandit","114","296952","0.0-75.0-0.0","60339174","wem/bandit_either","A26Y58YECZUZZG","either","4","","","","","","","0","0","1","0.3808881167","","0.8","0.2","0.4","0.6","","","","","0.3045389962","0.2525957923","0.4027809904","0.3808881167","","","","","","","76","L","3","","","36","main_expt"
"406","","bandit","115","298863","0.0-76.0-0.0","60339174","wem/bandit_either","A26Y58YECZUZZG","either","4","","","","","","","1","0","0","0.3715556026","","0.8","0.2","0.4","0.6","","","","","0.2954217214","0.2333373749","0.3715556026","0.3634360393","","","","","","","75","K","2","","","37","main_expt"
"57","","bandit","116","300424","0.0-77.0-0.0","60339174","wem/bandit_either","A26Y58YECZUZZG","either","4","","","","","","","0","0","1","0.354842885","","0.8","0.2","0.4","0.6","","","","","0.2749906923","0.2126884676","0.354842885","0.3432691328","","","","","","","75","K","2","","","38","main_expt"
"226","","bandit","117","302156","0.0-78.0-0.0","60339174","wem/bandit_either","A26Y58YECZUZZG","either","4","","","","","","","0","1","0","","0.3066825603","0.8","0.2","0.4","0.6","0.2911873598","0.212498526","0.3066825603","0.3113322025","","","","","","","","","","","75","K","2","","","39","main_expt"
"118","","bandit","118","303779","0.0-79.0-0.0","60339174","wem/bandit_either","A26Y58YECZUZZG","either","4","","","","","","","0","0","1","","0.3208648015","0.8","0.2","0.4","0.6","0.3066149412","0.2031275136","0.3208648015","0.3298138996","","","","","","","","","","","75","K","2","","","40","main_expt"
"23","","bandit","119","305307","0.0-80.0-0.0","60339174","wem/bandit_either","A26Y58YECZUZZG","either","4","","","","","","","1","0","0","0.2774570704","","0.8","0.2","0.4","0.6","","","","","0.2612722093","0.2409224204","0.2774570704","0.3590557929","","","","","","","75","K","2","","","41","main_expt"
"184","","bandit","120","306997","0.0-81.0-0.0","60339174","wem/bandit_either","A26Y58YECZUZZG","either","4","","","","","","","0","0","1","0.3092882543","","0.8","0.2","0.4","0.6","","","","","0.2579482203","0.2166695961","0.3092882543","0.3455434044","","","","","","","75","K","2","","","42","main_expt"
"157","","bandit","121","308659","0.0-82.0-0.0","60339174","wem/bandit_either","A26Y58YECZUZZG","either","4","","","","","","","0","0","1","","0.2314197793","0.8","0.2","0.4","0.6","0.2232302517","0.2314197793","0.3161251671","0.4020043176","","","","","","","","","","","74","J","1","","","43","main_expt"
"209","","bandit","122","310375","0.0-83.0-0.0","60339174","wem/bandit_either","A26Y58YECZUZZG","either","4","","","","","","","0","0","1","0.2435669349","","0.8","0.2","0.4","0.6","","","","","0.2435669349","0.1889371852","0.3032549762","0.4088695108","","","","","","","72","H","0","img/none_selected.jpg","","44","main_expt"
"91","","bandit","123","311972","0.0-84.0-0.0","60339174","wem/bandit_either","A26Y58YECZUZZG","either","4","","","","","","","0","0","1","0.3012359134","","0.8","0.2","0.4","0.6","","","","","0.1885724617","0.2152104473","0.3012359134","0.3914045207","","","","","","","75","K","2","","","45","main_expt"
"404","","bandit","124","313882","0.0-85.0-0.0","60339174","wem/bandit_either","A26Y58YECZUZZG","either","4","","","","","","","0","0","1","","0.3682142312","0.8","0.2","0.4","0.6","0.104230756","0.2260726972","0.2994346937","0.3682142312","","","","","","","","","","","76","L","3","","","46","main_expt"
"111","","bandit","125","315498","0.0-86.0-0.0","60339174","wem/bandit_either","A26Y58YECZUZZG","either","4","","","","","","","0","0","1","","0.2330399618","0.8","0.2","0.4","0.6","0.09013225529","0.2330399618","0.3169549043","0.3462276735","","","","","","","","","","","74","J","1","","","47","main_expt"
"19","","bandit","126","317023","0.0-87.0-0.0","60339174","wem/bandit_either","A26Y58YECZUZZG","either","4","","","","","","","0","0","1","0.3137179834","","0.8","0.2","0.4","0.6","","","","","0.1066227192","0.2769685944","0.3137179834","0.3501405617","","","","","","","75","K","2","","","48","main_expt"
"38","","bandit","127","318566","0.0-88.0-0.0","60339174","wem/bandit_either","A26Y58YECZUZZG","either","4","","","","","","","0","0","1","","0.3026837323","0.8","0.2","0.4","0.6","0.1273062614","0.2954986192","0.3026837323","0.3607669766","","","","","","","","","","","75","K","2","","","49","main_expt"
"63","","bandit","128","320135","0.0-89.0-0.0","60339174","wem/bandit_either","A26Y58YECZUZZG","either","4","","","","","","","0","0","1","0.2730110453","","0.8","0.2","0.4","0.6","","","","","0.08158159543","0.2730110453","0.2690248343","0.3776327681","","","","","","","74","J","1","","","50","main_expt"
"167","","bandit","129","321809","0.0-90.0-0.0","60339174","wem/bandit_either","A26Y58YECZUZZG","either","4","","","","","","","0","1","0","","0.2672659715","0.8","0.2","0.4","0.6","0.08035098666","0.2672659715","0.2407215714","0.3922012959","","","","","","","","","","","74","J","1","","","51","main_expt"
"132","","bandit","130","323447","0.0-91.0-0.0","60339174","wem/bandit_either","A26Y58YECZUZZG","either","4","","","","","","","0","0","1","","0.2552972095","0.8","0.2","0.4","0.6","0.1007468434","0.2552972095","0.2758158767","0.3532085343","","","","","","","","","","","74","J","1","","","52","main_expt"
"74","","bandit","131","325027","0.0-92.0-0.0","60339174","wem/bandit_either","A26Y58YECZUZZG","either","4","","","","","","","0","0","1","0.1479770317","","0.8","0.2","0.4","0.6","","","","","0.1479770317","0.1954439593","0.2661511239","0.3597378762","","","","","","","72","H","0","img/none_selected.jpg","","53","main_expt"
"397","","bandit","132","326929","0.0-93.0-0.0","60339174","wem/bandit_either","A26Y58YECZUZZG","either","4","","","","","","","0","0","1","0.3553644404","","0.8","0.2","0.4","0.6","","","","","0.1450389045","0.1250298759","0.250303373","0.3553644404","","","","","","","76","L","3","","","54","main_expt"
"224","","bandit","133","328659","0.0-94.0-0.0","60339174","wem/bandit_either","A26Y58YECZUZZG","either","4","","","","","","","0","0","1","0.3427354451","","0.8","0.2","0.4","0.6","","","","","0.1678096349","0.1224949652","0.1850572083","0.3427354451","","","","","","","76","L","3","","","55","main_expt"
"22","","bandit","134","330186","0.0-95.0-0.0","60339174","wem/bandit_either","A26Y58YECZUZZG","either","4","","","","","","","0","1","0","","0.1312048923","0.8","0.2","0.4","0.6","0.1748395718","0.1312048923","0.2410157884","0.3158877586","","","","","","","","","","","74","J","1","","","56","main_expt"
"72","","bandit","135","331765","0.0-96.0-0.0","60339174","wem/bandit_either","A26Y58YECZUZZG","either","4","","","","","","","0","0","1","0.14452077","","0.8","0.2","0.4","0.6","","","","","0.146986137","0.14452077","0.2657224069","0.3224611445","","","","","","","74","J","1","","","57","main_expt"
"79","","bandit","136","333349","0.0-97.0-0.0","60339174","wem/bandit_either","A26Y58YECZUZZG","either","4","","","","","","","0","0","1","","0.1198415177","0.8","0.2","0.4","0.6","0.1316135006","0.1198415177","0.2361308133","0.3378672788","","","","","","","","","","","74","J","1","","","58","main_expt"
"124","","bandit","137","334979","0.0-98.0-0.0","60339174","wem/bandit_either","A26Y58YECZUZZG","either","4","","","","","","","0","1","0","","0.2078360154","0.8","0.2","0.4","0.6","0.1776120447","0.1674914914","0.2078360154","0.3438075972","","","","","","","","","","","75","K","2","","","59","main_expt"
"1","","bandit","138","336485","0.0-99.0-0.0","60339174","wem/bandit_either","A26Y58YECZUZZG","either","4","","","","","","","0","0","1","","0.2256957235","0.8","0.2","0.4","0.6","0.2034864675","0.147959707","0.2256957235","0.2950987239","","","","","","","","","","","75","K","2","","","60","main_expt"
"94","","bandit","139","338086","0.0-100.0-0.0","60339174","wem/bandit_either","A26Y58YECZUZZG","either","4","","","","","","","0","0","1","0.1325668513","","0.8","0.2","0.4","0.6","","","","","0.1325668513","0.1217284172","0.2713547376","0.2939622289","","","","","","","72","H","0","img/none_selected.jpg","","61","main_expt"
"535","","bandit","140","340126","0.0-101.0-0.0","60339174","wem/bandit_either","A26Y58YECZUZZG","either","4","","","","","","","0","0","1","0.125492747","","0.8","0.2","0.4","0.6","","","","","0.125492747","0.1392905859","0.2800078023","0.2907096119","","","","","","","72","H","0","img/none_selected.jpg","","62","main_expt"
"261","","bandit","141","341894","0.0-102.0-0.0","60339174","wem/bandit_either","A26Y58YECZUZZG","either","4","","","","","","","0","0","1","0.1081989139","","0.8","0.2","0.4","0.6","","","","","0.1081989139","0.1953314019","0.362183352","0.2696382907","","","","","","","72","H","0","img/none_selected.jpg","","63","main_expt"
"125","","bandit","142","343525","0.0-103.0-0.0","60339174","wem/bandit_either","A26Y58YECZUZZG","either","4","","","","","","","0","0","1","0.2618523415","","0.8","0.2","0.4","0.6","","","","","0.09104284411","0.2618523415","0.3354395381","0.2496415039","","","","","","","74","J","1","","","64","main_expt"
"137","","bandit","143","345170","0.0-104.0-0.0","60339174","wem/bandit_either","A26Y58YECZUZZG","either","4","","","","","","","0","1","0","","0.2686672798","0.8","0.2","0.4","0.6","0.1264903162","0.2686672798","0.2893845237","0.2364994079","","","","","","","","","","","74","J","1","","","65","main_expt"
"114","","bandit","144","346789","0.0-105.0-0.0","60339174","wem/bandit_either","A26Y58YECZUZZG","either","4","","","","","","","0","0","1","0.2451656397","","0.8","0.2","0.4","0.6","","","","","0.1665937301","0.2451656397","0.2355717356","0.2541683514","","","","","","","74","J","1","","","66","main_expt"
"50","","bandit","145","348347","0.0-106.0-0.0","60339174","wem/bandit_either","A26Y58YECZUZZG","either","4","","","","","","","1","0","0","0.2848755716","","0.8","0.2","0.4","0.6","","","","","0.1740025863","0.2445320338","0.2848755716","0.2985471382","","","","","","","75","K","2","","","67","main_expt"
"21","","bandit","146","349872","0.0-107.0-0.0","60339174","wem/bandit_either","A26Y58YECZUZZG","either","4","","","","","","","0","0","1","0.3341158043","","0.8","0.2","0.4","0.6","","","","","0.2300011382","0.2261158315","0.3341158043","0.3391290389","","","","","","","75","K","2","","","68","main_expt"
"131","","bandit","147","351510","0.0-108.0-0.0","60339174","wem/bandit_either","A26Y58YECZUZZG","either","4","","","","","","","0","0","1","","0.1627286519","0.8","0.2","0.4","0.6","0.1768594062","0.1627286519","0.3253412689","0.3114764975","","","","","","","","","","","74","J","1","","","69","main_expt"
"367","","bandit","148","353382","0.0-109.0-0.0","60339174","wem/bandit_either","A26Y58YECZUZZG","either","4","","","","","","","0","0","1","","0.3056328376","0.8","0.2","0.4","0.6","0.1906145184","0.1301009224","0.3280915152","0.3056328376","","","","","","","","","","","76","L","3","","","70","main_expt"
"175","","bandit","149","355064","0.0-110.0-0.0","60339174","wem/bandit_either","A26Y58YECZUZZG","either","4","","","","","","","0","0","1","0.1356707761","","0.8","0.2","0.4","0.6","","","","","0.1451664327","0.1356707761","0.3772643828","0.3445325487","","","","","","","74","J","1","","","71","main_expt"
"339","","bandit","150","356909","0.0-111.0-0.0","60339174","wem/bandit_either","A26Y58YECZUZZG","either","4","","","","","","","0","1","0","","0.4074174212","0.8","0.2","0.4","0.6","0.1091447996","0.1045412551","0.4074174212","0.364612409","","","","","","","","","","","75","K","2","","","72","main_expt"
"167","","bandit","151","358583","0.0-112.0-0.0","60339174","wem/bandit_either","A26Y58YECZUZZG","either","4","","","","","","","0","0","1","0.3736299767","","0.8","0.2","0.4","0.6","","","","","0.1248737042","0.0867882282","0.3736299767","0.4454774056","","","","","","","75","K","2","","","73","main_expt"
"40","","bandit","152","360130","0.0-113.0-0.0","60339174","wem/bandit_either","A26Y58YECZUZZG","either","4","","","","","","","0","0","1","0.383211712","","0.8","0.2","0.4","0.6","","","","","0.1073746888","0.1018359722","0.383211712","0.4492830973","","","","","","","75","K","2","","","74","main_expt"
"230","","bandit","153","361867","0.0-114.0-0.0","60339174","wem/bandit_either","A26Y58YECZUZZG","either","4","","","","","","","0","0","1","0.3681962321","","0.8","0.2","0.4","0.6","","","","","0.1051395745","0.09443707336","0.3681962321","0.449321966","","","","","","","75","K","2","","","75","main_expt"
"235","","bandit","154","363607","0.0-115.0-0.0","60339174","wem/bandit_either","A26Y58YECZUZZG","either","4","","","","","","","0","1","0","","0.4299726132","0.8","0.2","0.4","0.6","0.09171451076","0.08768691443","0.3574328021","0.4299726132","","","","","","","","","","","76","L","3","","","76","main_expt"
"129","","bandit","155","365242","0.0-116.0-0.0","60339174","wem/bandit_either","A26Y58YECZUZZG","either","4","","","","","","","1","0","0","0.4349340462","","0.8","0.2","0.4","0.6","","","","","0.1256070833","0.07744448812","0.4041720962","0.4349340462","","","","","","","76","L","3","","","77","main_expt"
"55","","bandit","156","366802","0.0-117.0-0.0","60339174","wem/bandit_either","A26Y58YECZUZZG","either","4","","","","","","","0","1","0","","0.4112950215","0.8","0.2","0.4","0.6","0.1398604905","0.05712631425","0.4000946746","0.4112950215","","","","","","","","","","","76","L","3","","","78","main_expt"
"153","","bandit","157","368461","0.0-118.0-0.0","60339174","wem/bandit_either","A26Y58YECZUZZG","either","4","","","","","","","1","0","0","0.4123046053","","0.8","0.2","0.4","0.6","","","","","0.1303191282","0.03981704588","0.425248604","0.4123046053","","","","","","","76","L","3","","","79","main_expt"
"136","","bandit","158","370104","0.0-119.0-0.0","60339174","wem/bandit_either","A26Y58YECZUZZG","either","4","","","","","","","1","0","0","0.4345430878","","0.8","0.2","0.4","0.6","","","","","0.1491340647","0.02961196177","0.4263383456","0.4345430878","","","","","","","76","L","3","","","80","main_expt"
"63","","bandit","159","371672","0.0-120.0-0.0","60339174","wem/bandit_either","A26Y58YECZUZZG","either","4","","","","","","","1","0","0","0.4255274095","","0.8","0.2","0.4","0.6","","","","","0.1484119081","0.0408206899","0.4377411966","0.4255274095","","","","","","","76","L","3","","","81","main_expt"
"227","","bandit","160","373407","0.0-121.0-0.0","60339174","wem/bandit_either","A26Y58YECZUZZG","either","4","","","","","","","0","0","1","","0.4266934287","0.8","0.2","0.4","0.6","0.135460029","0.03491361241","0.4263216968","0.4266934287","","","","","","","","","","","76","L","3","","","82","main_expt"
"159","","bandit","161","375076","0.0-122.0-0.0","60339174","wem/bandit_either","A26Y58YECZUZZG","either","4","","","","","","","0","0","1","0.4321646522","","0.8","0.2","0.4","0.6","","","","","0.09497461961","0.01881925386","0.4536492548","0.4321646522","","","","","","","76","L","3","","","83","main_expt"
"188","","bandit","162","376772","0.0-123.0-0.0","60339174","wem/bandit_either","A26Y58YECZUZZG","either","4","","","","","","","0","0","1","0.43129245","","0.8","0.2","0.4","0.6","","","","","0.0956585677","0.03441768066","0.4344769981","0.43129245","","","","","","","76","L","3","","","84","main_expt"
"227","","bandit","163","378504","0.0-124.0-0.0","60339174","wem/bandit_either","A26Y58YECZUZZG","either","4","","","","","","","0","0","1","","0.04015732792","0.8","0.2","0.4","0.6","0.08427930603","0.04015732792","0.4167097255","0.4307495417","","","","","","","","","","","74","J","1","","","85","main_expt"
"1","","bandit","164","380012","0.0-125.0-0.0","60339174","wem/bandit_either","A26Y58YECZUZZG","either","4","","","","","","","0","0","1","","0.4215971904","0.8","0.2","0.4","0.6","0.09540141202","0.0462821445","0.4215971904","0.4327415212","","","","","","","","","","","75","K","2","","","86","main_expt"
"331","","bandit","165","381849","0.0-126.0-0.0","60339174","wem/bandit_either","A26Y58YECZUZZG","either","4","","","","","","","0","0","1","0.06504543429","","0.8","0.2","0.4","0.6","","","","","0.06504543429","0.07236867375","0.3962725568","0.4507305815","","","","","","","72","H","0","img/none_selected.jpg","","87","main_expt"
"110","","bandit","166","383466","0.0-127.0-0.0","60339174","wem/bandit_either","A26Y58YECZUZZG","either","4","","","","","","","0","0","1","0.1132918069","","0.8","0.2","0.4","0.6","","","","","0.05894337134","0.1132918069","0.4038430626","0.4571393315","","","","","","","74","J","1","","","88","main_expt"
"150","","bandit","167","385122","0.0-128.0-0.0","60339174","wem/bandit_either","A26Y58YECZUZZG","either","4","","","","","","","0","0","1","0.4247877058","","0.8","0.2","0.4","0.6","","","","","0.06803635399","0.1466354559","0.4247877058","0.4639779763","","","","","","","75","K","2","","","89","main_expt"
"194","","bandit","168","386824","0.0-129.0-0.0","60339174","wem/bandit_either","A26Y58YECZUZZG","either","4","","","","","","","0","0","1","","0.4620017245","0.8","0.2","0.4","0.6","0.09657856289","0.1746819083","0.4196700557","0.4620017245","","","","","","","","","","","76","L","3","","","90","main_expt"
"256","","bandit","169","388585","0.0-130.0-0.0","60339174","wem/bandit_either","A26Y58YECZUZZG","either","4","","","","","","","0","1","0","","0.4492963398","0.8","0.2","0.4","0.6","0.08522031428","0.1864657318","0.401758082","0.4492963398","","","","","","","","","","","76","L","3","","","91","main_expt"
"235","","bandit","170","390328","0.0-131.0-0.0","60339174","wem/bandit_either","A26Y58YECZUZZG","either","4","","","","","","","1","0","0","0.462009279","","0.8","0.2","0.4","0.6","","","","","0.07078380504","0.2124622091","0.3422099147","0.462009279","","","","","","","76","L","3","","","92","main_expt"
"187","","bandit","171","392022","0.0-132.0-0.0","60339174","wem/bandit_either","A26Y58YECZUZZG","either","4","","","","","","","1","0","0","0.4363090379","","0.8","0.2","0.4","0.6","","","","","0.0564278809","0.245786276","0.3279059742","0.4363090379","","","","","","","76","L","3","","","93","main_expt"
"157","","bandit","172","393685","0.0-133.0-0.0","60339174","wem/bandit_either","A26Y58YECZUZZG","either","4","","","","","","","0","1","0","","0.4457519602","0.8","0.2","0.4","0.6","0.06067733924","0.2316759231","0.3155724737","0.4457519602","","","","","","","","","","","76","L","3","","","94","main_expt"
"143","","bandit","173","395336","0.0-134.0-0.0","60339174","wem/bandit_either","A26Y58YECZUZZG","either","4","","","","","","","0","0","1","0.4231248902","","0.8","0.2","0.4","0.6","","","","","0.08632751489","0.2231756969","0.3519625041","0.4231248902","","","","","","","76","L","3","","","95","main_expt"
"27","","bandit","174","396869","0.0-135.0-0.0","60339174","wem/bandit_either","A26Y58YECZUZZG","either","4","","","","","","","0","0","1","","0.4210676831","0.8","0.2","0.4","0.6","0.08481729553","0.1957128212","0.3661455107","0.4210676831","","","","","","","","","","","76","L","3","","","96","main_expt"
"227","","bandit","175","398603","0.0-136.0-0.0","60339174","wem/bandit_either","A26Y58YECZUZZG","either","4","","","","","","","1","0","0","0.4022895305","","0.8","0.2","0.4","0.6","","","","","0.08386440452","0.1638116915","0.3558031673","0.4022895305","","","","","","","76","L","3","","","97","main_expt"
"231","","bandit","176","400339","0.0-137.0-0.0","60339174","wem/bandit_either","A26Y58YECZUZZG","either","4","","","","","","","0","0","1","","0.4187351015","0.8","0.2","0.4","0.6","0.0940701929","0.1405816365","0.3558230887","0.4187351015","","","","","","","","","","","76","L","3","","","98","main_expt"
"60","","bandit","177","401904","0.0-138.0-0.0","60339174","wem/bandit_either","A26Y58YECZUZZG","either","4","","","","","","","0","1","0","","0.3981340028","0.8","0.2","0.4","0.6","0.1285058524","0.1435678602","0.3064708089","0.3981340028","","","","","","","","","","","76","L","3","","","99","main_expt"
"89","","bandit","178","403500","0.0-139.0-0.0","60339174","wem/bandit_either","A26Y58YECZUZZG","either","4","","","","","","","1","0","0","0.3520446815","","0.8","0.2","0.4","0.6","","","","","0.065882019","0.1478754355","0.352498313","0.3520446815","","","","","","","76","L","3","","","100","main_expt"
"72","","bandit","179","405077","0.0-140.0-0.0","60339174","wem/bandit_either","A26Y58YECZUZZG","either","4","","","","","","","1","0","0","0.3715523215","","0.8","0.2","0.4","0.6","","","","","0.05692140794","0.1532559328","0.3511810171","0.3715523215","","","","","","","76","L","3","","","101","main_expt"
"27","","bandit","180","406611","0.0-141.0-0.0","60339174","wem/bandit_either","A26Y58YECZUZZG","either","4","","","","","","","0","0","1","","0.3966955113","0.8","0.2","0.4","0.6","0.04322280369","0.15857411","0.3246867477","0.3966955113","","","","","","","","","","","76","L","3","","","102","main_expt"
"232","","bandit","181","408349","0.0-142.0-0.0","60339174","wem/bandit_either","A26Y58YECZUZZG","either","4","","","","","","","1","0","0","0.3865714765","","0.8","0.2","0.4","0.6","","","","","0.05121437093","0.1552377357","0.2827689756","0.3865714765","","","","","","","76","L","3","","","103","main_expt"
"342","","bandit","182","410197","0.0-143.0-0.0","60339174","wem/bandit_either","A26Y58YECZUZZG","either","4","","","","","","","0","0","1","0.3440646931","","0.8","0.2","0.4","0.6","","","","","0.06548077564","0.1584193753","0.3307995119","0.3440646931","","","","","","","76","L","3","","","104","main_expt"
"140","","bandit","183","411844","0.0-144.0-0.0","60339174","wem/bandit_either","A26Y58YECZUZZG","either","4","","","","","","","0","0","1","","0.330981063","0.8","0.2","0.4","0.6","0.07577357845","0.192058402","0.3078297571","0.330981063","","","","","","","","","","","76","L","3","","","105","main_expt"
"20","","bandit","184","413370","0.0-145.0-0.0","60339174","wem/bandit_either","A26Y58YECZUZZG","either","4","","","","","","","1","0","0","0.3317280627","","0.8","0.2","0.4","0.6","","","","","0.09041352565","0.1562344916","0.3202685942","0.3317280627","","","","","","","76","L","3","","","106","main_expt"
"228","","bandit","185","415105","0.0-146.0-0.0","60339174","wem/bandit_either","A26Y58YECZUZZG","either","4","","","","","","","0","0","1","0.2760665195","","0.8","0.2","0.4","0.6","","","","","0.1184921167","0.1493116313","0.3163418234","0.2760665195","","","","","","","76","L","3","","","107","main_expt"
"216","","bandit","186","416828","0.0-147.0-0.0","60339174","wem/bandit_either","A26Y58YECZUZZG","either","4","","","","","","","0","0","1","0.2826301941","","0.8","0.2","0.4","0.6","","","","","0.1057615429","0.1357435498","0.3425943818","0.2826301941","","","","","","","76","L","3","","","108","main_expt"
"557","","bandit","187","418893","0.0-148.0-0.0","60339174","wem/bandit_either","A26Y58YECZUZZG","either","4","","","","","","","0","0","1","0.2852030557","","0.8","0.2","0.4","0.6","","","","","0.1464484126","0.1164074326","0.2852030557","0.318117281","","","","","","","75","K","2","","","109","main_expt"
"197","","bandit","188","420596","0.0-149.0-0.0","60339174","wem/bandit_either","A26Y58YECZUZZG","either","4","","","","","","","0","1","0","","0.3392406975","0.8","0.2","0.4","0.6","0.1641354829","0.1444451916","0.3392406975","0.3358587519","","","","","","","","","","","75","K","2","","","110","main_expt"
"182","","bandit","189","422285","0.0-150.0-0.0","60339174","wem/bandit_either","A26Y58YECZUZZG","either","4","","","","","","","0","0","1","","0.3023411017","0.8","0.2","0.4","0.6","0.1386891192","0.09905323685","0.3023411017","0.3031660534","","","","","","","","","","","75","K","2","","","111","main_expt"
"186","","bandit","190","423978","0.0-151.0-0.0","60339174","wem/bandit_either","A26Y58YECZUZZG","either","4","","","","","","","0","0","1","0.296849772","","0.8","0.2","0.4","0.6","","","","","0.1847512065","0.09652445584","0.296849772","0.2773548355","","","","","","","75","K","2","","","112","main_expt"
"98","","bandit","191","425583","0.0-152.0-0.0","60339174","wem/bandit_either","A26Y58YECZUZZG","either","4","","","","","","","0","0","1","","0.09961189632","0.8","0.2","0.4","0.6","0.1304555333","0.09961189632","0.2673419259","0.2370758425","","","","","","","","","","","74","J","1","","","113","main_expt"
"29","","bandit","192","427119","0.0-153.0-0.0","60339174","wem/bandit_either","A26Y58YECZUZZG","either","4","","","","","","","0","0","1","","0.1036139638","0.8","0.2","0.4","0.6","0.1770102637","0.1036139638","0.2670531803","0.1821928837","","","","","","","","","","","74","J","1","","","114","main_expt"
"81","","bandit","193","428705","0.0-154.0-0.0","60339174","wem/bandit_either","A26Y58YECZUZZG","either","4","","","","","","","0","0","1","0.1564651975","","0.8","0.2","0.4","0.6","","","","","0.1564651975","0.0968506792","0.2825009356","0.1315453283","","","","","","","72","H","0","img/none_selected.jpg","","115","main_expt"
"227","","bandit","194","430439","0.0-155.0-0.0","60339174","wem/bandit_either","A26Y58YECZUZZG","either","4","","","","","","","0","1","0","","0.1665702367","0.8","0.2","0.4","0.6","0.1665702367","0.08782875681","0.3237719372","0.1102777544","","","","","","","","","","","72","H","0","img/none_selected.jpg","","116","main_expt"
"86","","bandit","195","432033","0.0-156.0-0.0","60339174","wem/bandit_either","A26Y58YECZUZZG","either","4","","","","","","","0","0","1","0.1530687496","","0.8","0.2","0.4","0.6","","","","","0.1530687496","0.06031800864","0.3154846423","0.1101610351","","","","","","","72","H","0","img/none_selected.jpg","","117","main_expt"
"72","","bandit","196","433613","0.0-157.0-0.0","60339174","wem/bandit_either","A26Y58YECZUZZG","either","4","","","","","","","0","0","1","0.1674206906","","0.8","0.2","0.4","0.6","","","","","0.1674206906","0.05633053331","0.2584508078","0.122460482","","","","","","","72","H","0","img/none_selected.jpg","","118","main_expt"
"61","","bandit","197","435180","0.0-158.0-0.0","60339174","wem/bandit_either","A26Y58YECZUZZG","either","4","","","","","","","0","0","1","0.1451868924","","0.8","0.2","0.4","0.6","","","","","0.1990215448","0.07530514027","0.2141905193","0.1451868924","","","","","","","76","L","3","","","119","main_expt"
"69","","bandit","198","436756","0.0-159.0-0.0","60339174","wem/bandit_either","A26Y58YECZUZZG","either","4","","","","","","","0","0","1","","0.09092593383","0.8","0.2","0.4","0.6","0.2208640619","0.09639595661","0.2341954374","0.09092593383","","","","","","","","","","","76","L","3","","","120","main_expt"
"233","","bandit","199","438497","0.0-160.0-0.0","60339174","wem/bandit_either","A26Y58YECZUZZG","either","4","","","","","","","0","0","1","","0.1886372651","0.8","0.2","0.4","0.6","0.2602917539","0.1421799471","0.1886372651","0.1080456108","","","","","","","","","","","75","K","2","","","121","main_expt"
"208","","bandit","200","440213","0.0-161.0-0.0","60339174","wem/bandit_either","A26Y58YECZUZZG","either","4","","","","","","","0","0","1","","0.1624760489","0.8","0.2","0.4","0.6","0.2512498235","0.1624760489","0.1597592322","0.1169053248","","","","","","","","","","","74","J","1","","","122","main_expt"
"235","","bandit","201","441955","0.0-162.0-0.0","60339174","wem/bandit_either","A26Y58YECZUZZG","either","4","","","","","","","0","0","1","0.1571594809","","0.8","0.2","0.4","0.6","","","","","0.2266242761","0.1640214383","0.1895266442","0.1571594809","","","","","","","76","L","3","","","123","main_expt"
"33","","bandit","202","443499","0.0-163.0-0.0","60339174","wem/bandit_either","A26Y58YECZUZZG","either","4","","","","","","","1","0","0","0.2373824638","","0.8","0.2","0.4","0.6","","","","","0.2373824638","0.2014340991","0.2042850732","0.2231804049","","","","","","","72","H","0","img/none_selected.jpg","","124","main_expt"
"111","","bandit","203","445117","0.0-164.0-0.0","60339174","wem/bandit_either","A26Y58YECZUZZG","either","4","","","","","","","0","0","1","0.2538727107","","0.8","0.2","0.4","0.6","","","","","0.2538727107","0.2229229076","0.1812515389","0.2232794356","","","","","","","72","H","0","img/none_selected.jpg","","125","main_expt"
"126","","bandit","204","446750","0.0-165.0-0.0","60339174","wem/bandit_either","A26Y58YECZUZZG","either","4","","","","","","","0","0","1","0.290219491","","0.8","0.2","0.4","0.6","","","","","0.290219491","0.2324712723","0.1694736183","0.2316903634","","","","","","","72","H","0","img/none_selected.jpg","","126","main_expt"
"225","","bandit","205","448483","0.0-166.0-0.0","60339174","wem/bandit_either","A26Y58YECZUZZG","either","4","","","","","","","0","0","1","0.2542505169","","0.8","0.2","0.4","0.6","","","","","0.2542505169","0.2628391623","0.1624528765","0.2337524142","","","","","","","72","H","0","img/none_selected.jpg","","127","main_expt"
"246","","bandit","206","450235","0.0-167.0-0.0","60339174","wem/bandit_either","A26Y58YECZUZZG","either","4","","","","","","","0","1","0","","0.2654356302","0.8","0.2","0.4","0.6","0.2582316027","0.2654356302","0.1632982916","0.2198210178","","","","","","","","","","","74","J","1","","","128","main_expt"
"233","","bandit","207","451975","0.0-168.0-0.0","60339174","wem/bandit_either","A26Y58YECZUZZG","either","4","","","","","","","0","1","0","","0.2070569149","0.8","0.2","0.4","0.6","0.3267566011","0.2070569149","0.2264598068","0.2280168395","","","","","","","","","","","74","J","1","","","129","main_expt"
"312","","bandit","208","453793","0.0-169.0-0.0","60339174","wem/bandit_either","A26Y58YECZUZZG","either","4","","","","","","","0","0","1","","0.2579182239","0.8","0.2","0.4","0.6","0.3323271388","0.2579182239","0.202760285","0.243895296","","","","","","","","","","","74","J","1","","","130","main_expt"
"131","","bandit","209","455430","0.0-170.0-0.0","60339174","wem/bandit_either","A26Y58YECZUZZG","either","4","","","","","","","0","0","1","","0.2329110821","0.8","0.2","0.4","0.6","0.2666668646","0.2329110821","0.1585094705","0.2164454501","","","","","","","","","","","74","J","1","","","131","main_expt"
"451","","bandit","210","457389","0.0-171.0-0.0","60339174","wem/bandit_either","A26Y58YECZUZZG","either","4","","","","","","","0","1","0","","0.2400232435","0.8","0.2","0.4","0.6","0.2359119393","0.2400232435","0.1304261544","0.200468731","","","","","","","","","","","74","J","1","","","132","main_expt"
"31","","bandit","211","458926","0.0-172.0-0.0","60339174","wem/bandit_either","A26Y58YECZUZZG","either","4","","","","","","","0","0","1","","0.2084798617","0.8","0.2","0.4","0.6","0.2540740643","0.2084798617","0.09339990826","0.2038597077","","","","","","","","","","","74","J","1","","","133","main_expt"
"191","","bandit","212","460625","0.0-173.0-0.0","60339174","wem/bandit_either","A26Y58YECZUZZG","either","4","","","","","","","0","0","1","","0.2034544","0.8","0.2","0.4","0.6","0.2414927735","0.2034544","0.08524612959","0.2263269307","","","","","","","","","","","74","J","1","","","134","main_expt"
"211","","bandit","213","462343","0.0-174.0-0.0","60339174","wem/bandit_either","A26Y58YECZUZZG","either","4","","","","","","","0","0","1","","0.2088958693","0.8","0.2","0.4","0.6","0.2632369982","0.2088958693","0.0622033461","0.2686469146","","","","","","","","","","","74","J","1","","","135","main_expt"
"207","","bandit","214","464058","0.0-175.0-0.0","60339174","wem/bandit_either","A26Y58YECZUZZG","either","4","","","","","","","0","0","1","","0.2573758916","0.8","0.2","0.4","0.6","0.3032623762","0.2573758916","0.05632890875","0.3170393738","","","","","","","","","","","74","J","1","","","136","main_expt"
"8","","bandit","215","465572","0.0-176.0-0.0","60339174","wem/bandit_either","A26Y58YECZUZZG","either","4","","","","","","","0","1","0","","0.2467438462","0.8","0.2","0.4","0.6","0.2984046037","0.2467438462","0.06052980877","0.338962466","","","","","","","","","","","74","J","1","","","137","main_expt"
"242","","bandit","216","467322","0.0-177.0-0.0","60339174","wem/bandit_either","A26Y58YECZUZZG","either","4","","","","","","","0","0","1","","0.2221944767","0.8","0.2","0.4","0.6","0.3110629865","0.2221944767","0.1038497792","0.3586643031","","","","","","","","","","","74","J","1","","","138","main_expt"
"50","","bandit","217","468878","0.0-178.0-0.0","60339174","wem/bandit_either","A26Y58YECZUZZG","either","4","","","","","","","0","0","1","0.08561062373","","0.8","0.2","0.4","0.6","","","","","0.3048373826","0.2750517365","0.08561062373","0.3430902759","","","","","","","75","K","2","","","139","main_expt"
"180","","bandit","218","470564","0.0-179.0-0.0","60339174","wem/bandit_either","A26Y58YECZUZZG","either","4","","","","","","","0","1","0","","0.3777112835","0.8","0.2","0.4","0.6","0.3163642845","0.277474309","0.08025295029","0.3777112835","","","","","","","","","","","76","L","3","","","140","main_expt"
"203","","bandit","219","472274","0.0-180.0-0.0","60339174","wem/bandit_either","A26Y58YECZUZZG","either","4","","","","","","","0","0","1","","0.4276051364","0.8","0.2","0.4","0.6","0.2213861514","0.2932007391","0.09309891757","0.4276051364","","","","","","","","","","","76","L","3","","","141","main_expt"
"251","","bandit","220","474031","0.0-181.0-0.0","60339174","wem/bandit_either","A26Y58YECZUZZG","either","4","","","","","","","0","1","0","","0.4312347149","0.8","0.2","0.4","0.6","0.2492613222","0.3001807938","0.1107976638","0.4312347149","","","","","","","","","","","76","L","3","","","142","main_expt"
"213","","bandit","221","475749","0.0-182.0-0.0","60339174","wem/bandit_either","A26Y58YECZUZZG","either","4","","","","","","","0","0","1","0.386657586","","0.8","0.2","0.4","0.6","","","","","0.2645663874","0.3640878437","0.09575525052","0.386657586","","","","","","","76","L","3","","","143","main_expt"
"309","","bandit","222","477565","0.0-183.0-0.0","60339174","wem/bandit_either","A26Y58YECZUZZG","either","4","","","","","","","0","0","1","0.2706796495","","0.8","0.2","0.4","0.6","","","","","0.2928215939","0.2706796495","0.07222794989","0.3409851627","","","","","","","74","J","1","","","144","main_expt"
"97","","bandit","223","479169","0.0-184.0-0.0","60339174","wem/bandit_either","A26Y58YECZUZZG","either","4","","","","","","","0","1","0","","0.3538709708","0.8","0.2","0.4","0.6","0.3178979655","0.2359726437","0.03203798906","0.3538709708","","","","","","","","","","","76","L","3","","","145","main_expt"
"192","","bandit","224","480867","0.0-185.0-0.0","60339174","wem/bandit_either","A26Y58YECZUZZG","either","4","","","","","","","0","1","0","","0.2745956728","0.8","0.2","0.4","0.6","0.2850957273","0.2200332621","0.03073079809","0.2745956728","","","","","","","","","","","76","L","3","","","146","main_expt"
"84","","bandit","225","482459","0.0-186.0-0.0","60339174","wem/bandit_either","A26Y58YECZUZZG","either","4","","","","","","","0","0","1","0.2375793476","","0.8","0.2","0.4","0.6","","","","","0.2483519338","0.1957794229","0.05105424151","0.2375793476","","","","","","","76","L","3","","","147","main_expt"
"157","","bandit","226","484121","0.0-187.0-0.0","60339174","wem/bandit_either","A26Y58YECZUZZG","either","4","","","","","","","0","0","1","0.2954602587","","0.8","0.2","0.4","0.6","","","","","0.2309770791","0.1790722045","0.04045355104","0.2954602587","","","","","","","76","L","3","","","148","main_expt"
"110","","bandit","227","485737","0.0-188.0-0.0","60339174","wem/bandit_either","A26Y58YECZUZZG","either","4","","","","","","","0","0","1","0.3435099865","","0.8","0.2","0.4","0.6","","","","","0.1759049641","0.2189150546","0.06416506337","0.3435099865","","","","","","","76","L","3","","","149","main_expt"
"16","","bandit","228","487261","0.0-189.0-0.0","60339174","wem/bandit_either","A26Y58YECZUZZG","either","4","","","","","","","0","0","1","","0.07819388902","0.8","0.2","0.4","0.6","0.1910702346","0.2119229637","0.07819388902","0.268900415","","","","","","","","","","","75","K","2","","","150","main_expt"
"240","","bandit","229","489008","0.0-190.0-0.0","60339174","wem/bandit_either","A26Y58YECZUZZG","either","4","","","","","","","0","0","1","","0.1186979887","0.8","0.2","0.4","0.6","0.1799178466","0.2472398003","0.1186979887","0.2326488896","","","","","","","","","","","75","K","2","","","151","main_expt"
"222","","bandit","230","490738","0.0-191.0-0.0","60339174","wem/bandit_either","A26Y58YECZUZZG","either","4","","","","","","","0","0","1","0.1084773402","","0.8","0.2","0.4","0.6","","","","","0.1826140084","0.2148428051","0.1084773402","0.2768057641","","","","","","","75","K","2","","","152","main_expt"
"137","","bandit","231","492381","0.0-192.0-0.0","60339174","wem/bandit_either","A26Y58YECZUZZG","either","4","","","","","","","0","0","1","","0.1598057249","0.8","0.2","0.4","0.6","0.147924298","0.1598057249","0.1314289417","0.2997660112","","","","","","","","","","","74","J","1","","","153","main_expt"
"187","","bandit","232","494075","0.0-193.0-0.0","60339174","wem/bandit_either","A26Y58YECZUZZG","either","4","","","","","","","0","0","1","0.1489099923","","0.8","0.2","0.4","0.6","","","","","0.1388357139","0.1489099923","0.1354051011","0.3196464983","","","","","","","74","J","1","","","154","main_expt"
"217","","bandit","233","495799","0.0-194.0-0.0","60339174","wem/bandit_either","A26Y58YECZUZZG","either","4","","","","","","","0","0","1","","0.1502541116","0.8","0.2","0.4","0.6","0.1658398244","0.1502541116","0.1085215933","0.3141654429","","","","","","","","","","","74","J","1","","","155","main_expt"
"193","","bandit","234","497499","0.0-195.0-0.0","60339174","wem/bandit_either","A26Y58YECZUZZG","either","4","","","","","","","0","0","1","0.1104921729","","0.8","0.2","0.4","0.6","","","","","0.1104921729","0.1605084188","0.1383379057","0.2667217688","","","","","","","72","H","0","img/none_selected.jpg","","156","main_expt"
"159","","bandit","235","499164","0.0-196.0-0.0","60339174","wem/bandit_either","A26Y58YECZUZZG","either","4","","","","","","","0","0","1","0.09530810267","","0.8","0.2","0.4","0.6","","","","","0.09530810267","0.1684101418","0.1428990181","0.2867075714","","","","","","","72","H","0","img/none_selected.jpg","","157","main_expt"
"310","","bandit","236","500980","0.0-197.0-0.0","60339174","wem/bandit_either","A26Y58YECZUZZG","either","4","","","","","","","0","0","1","0.1211627972","","0.8","0.2","0.4","0.6","","","","","0.1211627972","0.1807688322","0.07455979893","0.2788639118","","","","","","","72","H","0","img/none_selected.jpg","","158","main_expt"
"345","","bandit","237","502832","0.0-198.0-0.0","60339174","wem/bandit_either","A26Y58YECZUZZG","either","4","","","","","","","0","0","1","0.3020710819","","0.8","0.2","0.4","0.6","","","","","0.1012897464","0.1516426412","0.1009372764","0.3020710819","","","","","","","76","L","3","","","159","main_expt"
"232","","bandit","238","504572","0.0-199.0-0.0","60339174","wem/bandit_either","A26Y58YECZUZZG","either","4","","","","","","","1","0","0","0.3404227007","","0.8","0.2","0.4","0.6","","","","","0.1188035868","0.1638698877","0.05118862797","0.3404227007","","","","","","","76","L","3","","","160","main_expt"
"232","","bandit","239","506310","0.0-200.0-0.0","60339174","wem/bandit_either","A26Y58YECZUZZG","either","4","","","","","","","0","1","0","","0.2876249865","0.8","0.2","0.4","0.6","0.1606836622","0.1645359983","0.05265847637","0.2876249865","","","","","","","","","","","76","L","3","","","161","main_expt"
"81","","bandit","240","507899","0.0-201.0-0.0","60339174","wem/bandit_either","A26Y58YECZUZZG","either","4","","","","","","","0","0","1","0.2401308511","","0.8","0.2","0.4","0.6","","","","","0.1859884171","0.2509918509","0.07938684611","0.2401308511","","","","","","","76","L","3","","","162","main_expt"
"191","","bandit","241","509595","0.0-202.0-0.0","60339174","wem/bandit_either","A26Y58YECZUZZG","either","4","","","","","","","0","0","1","","0.2486605046","0.8","0.2","0.4","0.6","0.2528258464","0.1883685458","0.0970900163","0.2486605046","","","","","","","","","","","76","L","3","","","163","main_expt"
"131","","bandit","242","511234","0.0-203.0-0.0","60339174","wem/bandit_either","A26Y58YECZUZZG","either","4","","","","","","","0","0","1","","0.22675384","0.8","0.2","0.4","0.6","0.2515292425","0.2179532334","0.07401968201","0.22675384","","","","","","","","","","","76","L","3","","","164","main_expt"
"290","","bandit","243","513030","0.0-204.0-0.0","60339174","wem/bandit_either","A26Y58YECZUZZG","either","4","","","","","","","0","0","1","","0.2841151948","0.8","0.2","0.4","0.6","0.2068970429","0.2143704678","0.06633104104","0.2841151948","","","","","","","","","","","76","L","3","","","165","main_expt"
"127","","bandit","244","514664","0.0-205.0-0.0","60339174","wem/bandit_either","A26Y58YECZUZZG","either","4","","","","","","","0","0","1","","0.05309652092","0.8","0.2","0.4","0.6","0.1413778631","0.2175899085","0.05309652092","0.2842980464","","","","","","","","","","","75","K","2","","","166","main_expt"
"197","","bandit","245","516368","0.0-206.0-0.0","60339174","wem/bandit_either","A26Y58YECZUZZG","either","4","","","","","","","0","0","1","","0.07357446968","0.8","0.2","0.4","0.6","0.1999497975","0.2137120923","0.07357446968","0.3007590714","","","","","","","","","","","75","K","2","","","167","main_expt"
"169","","bandit","246","518046","0.0-207.0-0.0","60339174","wem/bandit_either","A26Y58YECZUZZG","either","4","","","","","","","0","0","1","0.1054325378","","0.8","0.2","0.4","0.6","","","","","0.1696145944","0.2331560811","0.1054325378","0.2884936601","","","","","","","75","K","2","","","168","main_expt"
"35","","bandit","247","519588","0.0-208.0-0.0","60339174","wem/bandit_either","A26Y58YECZUZZG","either","4","","","","","","","0","0","1","0.08536867429","","0.8","0.2","0.4","0.6","","","","","0.1338518967","0.2367963754","0.08536867429","0.2803439438","","","","","","","75","K","2","","","169","main_expt"
"55","","bandit","248","521151","0.0-209.0-0.0","60339174","wem/bandit_either","A26Y58YECZUZZG","either","4","","","","","","","0","0","1","","0.2378050175","0.8","0.2","0.4","0.6","0.1307598277","0.2378050175","0.1083432756","0.3010437192","","","","","","","","","","","74","J","1","","","170","main_expt"
"657","","bandit","249","523314","0.0-210.0-0.0","60339174","wem/bandit_either","A26Y58YECZUZZG","either","4","","","","","","","0","0","1","","0.2253696972","0.8","0.2","0.4","0.6","0.1200375331","0.2253696972","0.09185370626","0.3243802095","","","","","","","","","","","74","J","1","","","171","main_expt"
"152","","bandit","250","524974","0.0-211.0-0.0","60339174","wem/bandit_either","A26Y58YECZUZZG","either","4","","","","","","","0","0","1","0.07514546963","","0.8","0.2","0.4","0.6","","","","","0.07514546963","0.2903394368","0.09458096772","0.3140094691","","","","","","","72","H","0","img/none_selected.jpg","","172","main_expt"
"114","","bandit","251","526594","0.0-212.0-0.0","60339174","wem/bandit_either","A26Y58YECZUZZG","either","4","","","","","","","0","0","1","0.07704486673","","0.8","0.2","0.4","0.6","","","","","0.07704486673","0.2384828248","0.1016296913","0.2433770114","","","","","","","72","H","0","img/none_selected.jpg","","173","main_expt"
"141","","bandit","252","528243","0.0-213.0-0.0","60339174","wem/bandit_either","A26Y58YECZUZZG","either","4","","","","","","","0","0","1","0.04061738922","","0.8","0.2","0.4","0.6","","","","","0.04061738922","0.2823111034","0.117107939","0.2080779891","","","","","","","72","H","0","img/none_selected.jpg","","174","main_expt"
"165","","bandit","253","529914","0.0-214.0-0.0","60339174","wem/bandit_either","A26Y58YECZUZZG","either","4","","","","","","","0","0","1","0.2211365803","","0.8","0.2","0.4","0.6","","","","","0.02968316822","0.292147578","0.1254773658","0.2211365803","","","","","","","76","L","3","","","175","main_expt"
"56","","bandit","254","531478","0.0-215.0-0.0","60339174","wem/bandit_either","A26Y58YECZUZZG","either","4","","","","","","","0","0","1","0.231280906","","0.8","0.2","0.4","0.6","","","","","0.04419366322","0.2928295457","0.1518856622","0.231280906","","","","","","","76","L","3","","","176","main_expt"
"144","","bandit","255","533128","0.0-216.0-0.0","60339174","wem/bandit_either","A26Y58YECZUZZG","either","4","","","","","","","0","1","0","","0.1689881391","0.8","0.2","0.4","0.6","0.04140429262","0.297241693","0.1502483312","0.1689881391","","","","","","","","","","","76","L","3","","","177","main_expt"
"28","","bandit","256","534668","0.0-217.0-0.0","60339174","wem/bandit_either","A26Y58YECZUZZG","either","4","","","","","","","0","0","1","0.1699404395","","0.8","0.2","0.4","0.6","","","","","0.06103489621","0.276241128","0.2073149786","0.1699404395","","","","","","","76","L","3","","","178","main_expt"
"162","","bandit","257","536337","0.0-218.0-0.0","60339174","wem/bandit_either","A26Y58YECZUZZG","either","4","","","","","","","0","0","1","0.1571972967","","0.8","0.2","0.4","0.6","","","","","0.053608248","0.2405339857","0.1928578162","0.1571972967","","","","","","","76","L","3","","","179","main_expt"
"206","","bandit","258","538051","0.0-219.0-0.0","60339174","wem/bandit_either","A26Y58YECZUZZG","either","4","","","","","","","0","0","1","0.1567782565","","0.8","0.2","0.4","0.6","","","","","0.06289379635","0.233428307","0.1412953234","0.1567782565","","","","","","","76","L","3","","","180","main_expt"
"320","","bandit","259","539878","0.0-220.0-0.0","60339174","wem/bandit_either","A26Y58YECZUZZG","either","4","","","","","","","0","0","1","","0.1258774719","0.8","0.2","0.4","0.6","0.07748386732","0.1459310114","0.1258774719","0.1492691696","","","","","","","","","","","75","K","2","","","181","main_expt"
"66","","bandit","260","541452","0.0-221.0-0.0","60339174","wem/bandit_either","A26Y58YECZUZZG","either","4","","","","","","","0","0","1","","0.1121960069","0.8","0.2","0.4","0.6","0.096714051","0.1796360657","0.1121960069","0.1609613705","","","","","","","","","","","75","K","2","","","182","main_expt"
"56","","bandit","261","543014","0.0-222.0-0.0","60339174","wem/bandit_either","A26Y58YECZUZZG","either","4","","","","","","","0","0","1","0.08335286121","","0.8","0.2","0.4","0.6","","","","","0.05351369794","0.1907874973","0.08335286121","0.1982891881","","","","","","","75","K","2","","","183","main_expt"
"137","","bandit","262","544659","0.0-223.0-0.0","60339174","wem/bandit_either","A26Y58YECZUZZG","either","4","","","","","","","0","0","1","","0.1451627339","0.8","0.2","0.4","0.6","0.08854511538","0.1451627339","0.1085923678","0.1703318442","","","","","","","","","","","74","J","1","","","184","main_expt"
"142","","bandit","263","546308","0.0-224.0-0.0","60339174","wem/bandit_either","A26Y58YECZUZZG","either","4","","","","","","","0","1","0","","0.1692531577","0.8","0.2","0.4","0.6","0.136385666","0.1692531577","0.1113654269","0.09566746086","","","","","","","","","","","74","J","1","","","185","main_expt"
"0","","bandit","264","547816","0.0-225.0-0.0","60339174","wem/bandit_either","A26Y58YECZUZZG","either","4","","","","","","","0","0","1","","0.1885113298","0.8","0.2","0.4","0.6","0.1848043888","0.1885113298","0.1383531569","0.1254261761","","","","","","","","","","","74","J","1","","","186","main_expt"
"238","","bandit","265","549562","0.0-226.0-0.0","60339174","wem/bandit_either","A26Y58YECZUZZG","either","4","","","","","","","0","0","1","","0.2088125345","0.8","0.2","0.4","0.6","0.1640989128","0.2088125345","0.1739713275","0.1081798115","","","","","","","","","","","74","J","1","","","187","main_expt"
"67","","bandit","266","551137","0.0-227.0-0.0","60339174","wem/bandit_either","A26Y58YECZUZZG","either","4","","","","","","","0","0","1","","0.2228369986","0.8","0.2","0.4","0.6","0.1301402021","0.2228369986","0.1926366302","0.08529062399","","","","","","","","","","","74","J","1","","","188","main_expt"
"289","","bandit","267","552932","0.0-228.0-0.0","60339174","wem/bandit_either","A26Y58YECZUZZG","either","4","","","","","","","0","0","1","0.1980942663","","0.8","0.2","0.4","0.6","","","","","0.1980942663","0.2567428292","0.2499935398","0.07250281893","","","","","","","72","H","0","img/none_selected.jpg","","189","main_expt"
"44","","bandit","268","554484","0.0-229.0-0.0","60339174","wem/bandit_either","A26Y58YECZUZZG","either","4","","","","","","","0","0","1","0.1842725295","","0.8","0.2","0.4","0.6","","","","","0.1842725295","0.3177850294","0.2367317824","0.07895395147","","","","","","","72","H","0","img/none_selected.jpg","","190","main_expt"
"97","","bandit","269","556087","0.0-230.0-0.0","60339174","wem/bandit_either","A26Y58YECZUZZG","either","4","","","","","","","1","0","0","0.2087081259","","0.8","0.2","0.4","0.6","","","","","0.2087081259","0.2876912335","0.2515026666","0.06204701637","","","","","","","72","H","0","img/none_selected.jpg","","191","main_expt"
"1","","bandit","270","557597","0.0-231.0-0.0","60339174","wem/bandit_either","A26Y58YECZUZZG","either","4","","","","","","","0","0","1","0.1800110976","","0.8","0.2","0.4","0.6","","","","","0.1800110976","0.2383873749","0.2451916405","0.064067899","","","","","","","72","H","0","img/none_selected.jpg","","192","main_expt"
"73","","bandit","271","559177","0.0-232.0-0.0","60339174","wem/bandit_either","A26Y58YECZUZZG","either","4","","","","","","","0","0","1","0.1519186298","","0.8","0.2","0.4","0.6","","","","","0.1519186298","0.24690957","0.2353451433","0.1286650472","","","","","","","72","H","0","img/none_selected.jpg","","193","main_expt"
"90","","bandit","272","560775","0.0-233.0-0.0","60339174","wem/bandit_either","A26Y58YECZUZZG","either","4","","","","","","","1","0","0","0.1746490116","","0.8","0.2","0.4","0.6","","","","","0.1431656489","0.2728455101","0.307075739","0.1746490116","","","","","","","76","L","3","","","194","main_expt"
"128","","bandit","273","562410","0.0-234.0-0.0","60339174","wem/bandit_either","A26Y58YECZUZZG","either","4","","","","","","","0","0","1","0.129035247","","0.8","0.2","0.4","0.6","","","","","0.1868251083","0.2421292151","0.3011001907","0.129035247","","","","","","","76","L","3","","","195","main_expt"
"166","","bandit","274","564085","0.0-235.0-0.0","60339174","wem/bandit_either","A26Y58YECZUZZG","either","4","","","","","","","1","0","0","0.09052040682","","0.8","0.2","0.4","0.6","","","","","0.176624335","0.2598052724","0.2861216794","0.09052040682","","","","","","","76","L","3","","","196","main_expt"
"21","","bandit","275","565614","0.0-236.0-0.0","60339174","wem/bandit_either","A26Y58YECZUZZG","either","4","","","","","","","0","0","1","0.08675464884","","0.8","0.2","0.4","0.6","","","","","0.2383323772","0.2540930088","0.2121549007","0.08675464884","","","","","","","76","L","3","","","197","main_expt"
"181","","bandit","276","567303","0.0-237.0-0.0","60339174","wem/bandit_either","A26Y58YECZUZZG","either","4","","","","","","","1","0","0","0.09429549835","","0.8","0.2","0.4","0.6","","","","","0.260618614","0.2460150375","0.260340052","0.09429549835","","","","","","","76","L","3","","","198","main_expt"
"123","","bandit","277","568933","0.0-238.0-0.0","60339174","wem/bandit_either","A26Y58YECZUZZG","either","4","","","","","","","0","0","1","","0.09303778716","0.8","0.2","0.4","0.6","0.2935067364","0.2217343644","0.3009562829","0.09303778716","","","","","","","","","","","76","L","3","","","199","main_expt"
"180","","bandit","278","570621","0.0-239.0-0.0","60339174","wem/bandit_either","A26Y58YECZUZZG","either","4","","","","","","","0","0","1","0.07354084322","","0.8","0.2","0.4","0.6","","","","","0.362920627","0.2830302048","0.3430896668","0.07354084322","","","","","","","76","L","3","","","200","main_expt"
"42","","bandit","279","572170","0.0-240.0-0.0","60339174","wem/bandit_either","A26Y58YECZUZZG","either","4","","","","","","","0","0","1","0.08115367452","","0.8","0.2","0.4","0.6","","","","","0.3119044903","0.3175621279","0.2973668079","0.08115367452","","","","","","","76","L","3","","","201","main_expt"
"200","","bandit","280","573878","0.0-241.0-0.0","60339174","wem/bandit_either","A26Y58YECZUZZG","either","4","","","","","","","0","0","1","","0.3219337599","0.8","0.2","0.4","0.6","0.3095695708","0.3049471546","0.3219337599","0.0774842685","","","","","","","","","","","75","K","2","","","202","main_expt"
"69","","bandit","281","575453","0.0-242.0-0.0","60339174","wem/bandit_either","A26Y58YECZUZZG","either","4","","","","","","","0","1","0","","0.3229991028","0.8","0.2","0.4","0.6","0.3005459379","0.2975042969","0.3229991028","0.09704724367","","","","","","","","","","","75","K","2","","","203","main_expt"
"88","","bandit","282","577050","0.0-243.0-0.0","60339174","wem/bandit_either","A26Y58YECZUZZG","either","4","","","","","","","0","1","0","","0.3077995671","0.8","0.2","0.4","0.6","0.3116824409","0.2268457719","0.3077995671","0.1224111047","","","","","","","","","","","75","K","2","","","204","main_expt"
"1","","bandit","283","578558","0.0-244.0-0.0","60339174","wem/bandit_either","A26Y58YECZUZZG","either","4","","","","","","","0","0","1","","0.3070199156","0.8","0.2","0.4","0.6","0.3291635812","0.2582085449","0.3070199156","0.1627664319","","","","","","","","","","","75","K","2","","","205","main_expt"
"23","","bandit","284","580089","0.0-245.0-0.0","60339174","wem/bandit_either","A26Y58YECZUZZG","either","4","","","","","","","0","0","1","","0.3109683939","0.8","0.2","0.4","0.6","0.4008790519","0.2841247045","0.3109683939","0.1604236747","","","","","","","","","","","75","K","2","","","206","main_expt"
"122","","bandit","285","581717","0.0-246.0-0.0","60339174","wem/bandit_either","A26Y58YECZUZZG","either","4","","","","","","","0","0","1","","0.2845075958","0.8","0.2","0.4","0.6","0.4202180382","0.3333225396","0.2845075958","0.126388554","","","","","","","","","","","75","K","2","","","207","main_expt"
"28","","bandit","286","583253","0.0-247.0-0.0","60339174","wem/bandit_either","A26Y58YECZUZZG","either","4","","","","","","","0","0","1","0.2419557814","","0.8","0.2","0.4","0.6","","","","","0.4168586074","0.290219871","0.2419557814","0.1602309633","","","","","","","75","K","2","","","208","main_expt"
"162","","bandit","287","584922","0.0-248.0-0.0","60339174","wem/bandit_either","A26Y58YECZUZZG","either","4","","","","","","","0","1","0","","0.3426384504","0.8","0.2","0.4","0.6","0.3949328033","0.3426384504","0.2449545816","0.2009997365","","","","","","","","","","","74","J","1","","","209","main_expt"
"105","","bandit","288","586535","0.0-249.0-0.0","60339174","wem/bandit_either","A26Y58YECZUZZG","either","4","","","","","","","0","0","1","","0.2932754766","0.8","0.2","0.4","0.6","0.41782505","0.2932754766","0.2176860071","0.1997114924","","","","","","","","","","","74","J","1","","","210","main_expt"
"18","","bandit","289","588061","0.0-250.0-0.0","60339174","wem/bandit_either","A26Y58YECZUZZG","either","4","","","","","","","0","0","1","0.2522206247","","0.8","0.2","0.4","0.6","","","","","0.4377941382","0.2522206247","0.2460847292","0.2631807131","","","","","","","74","J","1","","","211","main_expt"
"270","","bandit","290","589839","0.0-251.0-0.0","60339174","wem/bandit_either","A26Y58YECZUZZG","either","4","","","","","","","0","0","1","","0.2323705111","0.8","0.2","0.4","0.6","0.4619006446","0.2323705111","0.2017704833","0.2008991105","","","","","","","","","","","74","J","1","","","212","main_expt"
"5","","bandit","291","591351","0.0-252.0-0.0","60339174","wem/bandit_either","A26Y58YECZUZZG","either","4","","","","","","","1","0","0","0.4508737721","","0.8","0.2","0.4","0.6","","","","","0.4508737721","0.2815580385","0.1891715169","0.1656487101","","","","","","","72","H","0","img/none_selected.jpg","","213","main_expt"
"30","","bandit","292","592890","0.0-253.0-0.0","60339174","wem/bandit_either","A26Y58YECZUZZG","either","4","","","","","","","0","0","1","0.4639731149","","0.8","0.2","0.4","0.6","","","","","0.4639731149","0.2955812139","0.1819308411","0.213788386","","","","","","","72","H","0","img/none_selected.jpg","","214","main_expt"
"86","","bandit","293","594482","0.0-254.0-0.0","60339174","wem/bandit_either","A26Y58YECZUZZG","either","4","","","","","","","0","0","1","0.4690757113","","0.8","0.2","0.4","0.6","","","","","0.4690757113","0.2988647484","0.1406935411","0.2206736926","","","","","","","72","H","0","img/none_selected.jpg","","215","main_expt"
"58","","bandit","294","596047","0.0-255.0-0.0","60339174","wem/bandit_either","A26Y58YECZUZZG","either","4","","","","","","","0","0","1","0.4685680314","","0.8","0.2","0.4","0.6","","","","","0.4685680314","0.3361974059","0.206739756","0.2270120675","","","","","","","72","H","0","img/none_selected.jpg","","216","main_expt"
"73","","bandit","295","597630","0.0-256.0-0.0","60339174","wem/bandit_either","A26Y58YECZUZZG","either","4","","","","","","","0","0","1","","0.2561581829","0.8","0.2","0.4","0.6","0.4873952874","0.2764506131","0.178624692","0.2561581829","","","","","","","","","","","76","L","3","","","217","main_expt"
"122","","bandit","296","599259","0.0-257.0-0.0","60339174","wem/bandit_either","A26Y58YECZUZZG","either","4","","","","","","","0","0","1","","0.2785758431","0.8","0.2","0.4","0.6","0.4790671899","0.299893698","0.2021641755","0.2785758431","","","","","","","","","","","76","L","3","","","218","main_expt"
"509","","bandit","297","601274","0.0-258.0-0.0","60339174","wem/bandit_either","A26Y58YECZUZZG","either","4","","","","","","","0","1","0","","0.4769795117","0.8","0.2","0.4","0.6","0.4769795117","0.3213687962","0.2076996705","0.2707863597","","","","","","","","","","","72","H","0","img/none_selected.jpg","","219","main_expt"
"296","","bandit","298","603080","0.0-259.0-0.0","60339174","wem/bandit_either","A26Y58YECZUZZG","either","4","","","","","","","0","0","1","0.4746148145","","0.8","0.2","0.4","0.6","","","","","0.4746148145","0.3782095139","0.2479045362","0.2262269101","","","","","","","72","H","0","img/none_selected.jpg","","220","main_expt"
"321","","bandit","299","604907","0.0-260.0-0.0","60339174","wem/bandit_either","A26Y58YECZUZZG","either","4","","","","","","","1","0","0","0.4789253058","","0.8","0.2","0.4","0.6","","","","","0.4789253058","0.3572699546","0.251163546","0.2522421151","","","","","","","72","H","0","img/none_selected.jpg","","221","main_expt"
"97","","bandit","300","606513","0.0-261.0-0.0","60339174","wem/bandit_either","A26Y58YECZUZZG","either","4","","","","","","","0","1","0","","0.4765400837","0.8","0.2","0.4","0.6","0.4765400837","0.332217079","0.2653622565","0.2323100388","","","","","","","","","","","72","H","0","img/none_selected.jpg","","222","main_expt"
"187","","bandit","301","608208","0.0-262.0-0.0","60339174","wem/bandit_either","A26Y58YECZUZZG","either","4","","","","","","","1","0","0","0.4872993944","","0.8","0.2","0.4","0.6","","","","","0.4872993944","0.3327789551","0.2034578964","0.2013525365","","","","","","","72","H","0","img/none_selected.jpg","","223","main_expt"
"26","","bandit","302","609743","0.0-263.0-0.0","60339174","wem/bandit_either","A26Y58YECZUZZG","either","4","","","","","","","0","0","1","0.4864577786","","0.8","0.2","0.4","0.6","","","","","0.4864577786","0.3720138676","0.1176985371","0.2017363432","","","","","","","72","H","0","img/none_selected.jpg","","224","main_expt"
"142","","bandit","303","611393","0.0-264.0-0.0","60339174","wem/bandit_either","A26Y58YECZUZZG","either","4","","","","","","","1","0","0","0.4815865163","","0.8","0.2","0.4","0.6","","","","","0.4815865163","0.4035982493","0.08531446518","0.1608447522","","","","","","","72","H","0","img/none_selected.jpg","","225","main_expt"
"126","","bandit","304","613027","0.0-265.0-0.0","60339174","wem/bandit_either","A26Y58YECZUZZG","either","4","","","","","","","1","0","0","0.4781941344","","0.8","0.2","0.4","0.6","","","","","0.4781941344","0.3538577565","0.0901010045","0.2023183299","","","","","","","72","H","0","img/none_selected.jpg","","226","main_expt"
"82","","bandit","305","614616","0.0-266.0-0.0","60339174","wem/bandit_either","A26Y58YECZUZZG","either","4","","","","","","","1","0","0","0.4742279627","","0.8","0.2","0.4","0.6","","","","","0.4742279627","0.4205879778","0.06499555022","0.1555458008","","","","","","","72","H","0","img/none_selected.jpg","","227","main_expt"
"114","","bandit","306","616239","0.0-267.0-0.0","60339174","wem/bandit_either","A26Y58YECZUZZG","either","4","","","","","","","0","0","1","0.4597327255","","0.8","0.2","0.4","0.6","","","","","0.4597327255","0.4082381823","0.06967502077","0.1210896773","","","","","","","72","H","0","img/none_selected.jpg","","228","main_expt"
"99","","bandit","307","617847","0.0-268.0-0.0","60339174","wem/bandit_either","A26Y58YECZUZZG","either","4","","","","","","","0","1","0","","0.4733003713","0.8","0.2","0.4","0.6","0.4733003713","0.4274963613","0.07642173418","0.1206830913","","","","","","","","","","","72","H","0","img/none_selected.jpg","","229","main_expt"
"95","","bandit","308","619451","0.0-269.0-0.0","60339174","wem/bandit_either","A26Y58YECZUZZG","either","4","","","","","","","0","1","0","","0.4832022084","0.8","0.2","0.4","0.6","0.4832022084","0.4362488765","0.04973788902","0.1334008039","","","","","","","","","","","72","H","0","img/none_selected.jpg","","230","main_expt"
"122","","bandit","309","621082","0.0-270.0-0.0","60339174","wem/bandit_either","A26Y58YECZUZZG","either","4","","","","","","","0","0","1","0.4802630573","","0.8","0.2","0.4","0.6","","","","","0.4802630573","0.4420629534","0.07419495466","0.1048467088","","","","","","","72","H","0","img/none_selected.jpg","","231","main_expt"
"24","","bandit","310","622615","0.0-271.0-0.0","60339174","wem/bandit_either","A26Y58YECZUZZG","either","4","","","","","","","1","0","0","0.4739318499","","0.8","0.2","0.4","0.6","","","","","0.4739318499","0.4287414635","0.08125260149","0.1184002818","","","","","","","72","H","0","img/none_selected.jpg","","232","main_expt"
"182","","bandit","311","624306","0.0-272.0-0.0","60339174","wem/bandit_either","A26Y58YECZUZZG","either","4","","","","","","","0","1","0","","0.4709765286","0.8","0.2","0.4","0.6","0.4709765286","0.4395511981","0.06057073796","0.08533064469","","","","","","","","","","","72","H","0","img/none_selected.jpg","","233","main_expt"
"107","","bandit","312","625922","0.0-273.0-0.0","60339174","wem/bandit_either","A26Y58YECZUZZG","either","4","","","","","","","0","1","0","","0.4658145356","0.8","0.2","0.4","0.6","0.4658145356","0.4479240545","0.1037411708","0.1190123434","","","","","","","","","","","72","H","0","img/none_selected.jpg","","234","main_expt"
"183","","bandit","313","627616","0.0-274.0-0.0","60339174","wem/bandit_either","A26Y58YECZUZZG","either","4","","","","","","","1","0","0","0.4312508187","","0.8","0.2","0.4","0.6","","","","","0.4312508187","0.4476644646","0.1267441937","0.1392024459","","","","","","","72","H","0","img/none_selected.jpg","","235","main_expt"
"101","","bandit","314","629226","0.0-275.0-0.0","60339174","wem/bandit_either","A26Y58YECZUZZG","either","4","","","","","","","0","0","1","0.4323277229","","0.8","0.2","0.4","0.6","","","","","0.4323277229","0.457106966","0.1002206095","0.1076242464","","","","","","","72","H","0","img/none_selected.jpg","","236","main_expt"
"178","","bandit","315","630913","0.0-276.0-0.0","60339174","wem/bandit_either","A26Y58YECZUZZG","either","4","","","","","","","1","0","0","0.4517679415","","0.8","0.2","0.4","0.6","","","","","0.4517679415","0.4097288684","0.08353940566","0.1539911713","","","","","","","72","H","0","img/none_selected.jpg","","237","main_expt"
"200","","bandit","316","632621","0.0-277.0-0.0","60339174","wem/bandit_either","A26Y58YECZUZZG","either","4","","","","","","","1","0","0","0.4476427196","","0.8","0.2","0.4","0.6","","","","","0.4476427196","0.4530646831","0.07847158511","0.1833253983","","","","","","","72","H","0","img/none_selected.jpg","","238","main_expt"
"143","","bandit","317","634272","0.0-278.0-0.0","60339174","wem/bandit_either","A26Y58YECZUZZG","either","4","","","","","","","1","0","0","0.4421551546","","0.8","0.2","0.4","0.6","","","","","0.4421551546","0.4532148127","0.1132310855","0.185515968","","","","","","","72","H","0","img/none_selected.jpg","","239","main_expt"
"46","","bandit","318","635827","0.0-279.0-0.0","60339174","wem/bandit_either","A26Y58YECZUZZG","either","4","","","","","","","1","0","0","0.4205303603","","0.8","0.2","0.4","0.6","","","","","0.4205303603","0.4456906816","0.130249024","0.2545144829","","","","","","","72","H","0","img/none_selected.jpg","","240","main_expt"
"109","","bandit","319","637445","0.0-280.0-0.0","60339174","wem/bandit_either","A26Y58YECZUZZG","either","4","","","","","","","0","0","1","0.4304808994","","0.8","0.2","0.4","0.6","","","","","0.4304808994","0.4515134246","0.1356270161","0.1902236802","","","","","","","72","H","0","img/none_selected.jpg","","241","main_expt"
"34","","bandit","320","638987","0.0-281.0-0.0","60339174","wem/bandit_either","A26Y58YECZUZZG","either","4","","","","","","","0","0","1","0.4318168925","","0.8","0.2","0.4","0.6","","","","","0.4318168925","0.4640222466","0.1402569013","0.2196571485","","","","","","","72","H","0","img/none_selected.jpg","","242","main_expt"
"196","","bandit","321","640692","0.0-282.0-0.0","60339174","wem/bandit_either","A26Y58YECZUZZG","either","4","","","","","","","1","0","0","0.4437639365","","0.8","0.2","0.4","0.6","","","","","0.4437639365","0.4305348251","0.1851652895","0.2691755858","","","","","","","72","H","0","img/none_selected.jpg","","243","main_expt"
"166","","bandit","322","642366","0.0-283.0-0.0","60339174","wem/bandit_either","A26Y58YECZUZZG","either","4","","","","","","","1","0","0","0.4444545885","","0.8","0.2","0.4","0.6","","","","","0.4444545885","0.4444417595","0.1871667761","0.2689580194","","","","","","","72","H","0","img/none_selected.jpg","","244","main_expt"
"100","","bandit","323","643974","0.0-284.0-0.0","60339174","wem/bandit_either","A26Y58YECZUZZG","either","4","","","","","","","1","0","0","0.445216333","","0.8","0.2","0.4","0.6","","","","","0.445216333","0.4468105605","0.1881322931","0.1935089033","","","","","","","72","H","0","img/none_selected.jpg","","245","main_expt"
"123","","bandit","324","645606","0.0-285.0-0.0","60339174","wem/bandit_either","A26Y58YECZUZZG","either","4","","","","","","","0","0","1","0.4767449203","","0.8","0.2","0.4","0.6","","","","","0.4767449203","0.4453418505","0.187853128","0.1466547275","","","","","","","72","H","0","img/none_selected.jpg","","246","main_expt"
"60","","bandit","325","647175","0.0-286.0-0.0","60339174","wem/bandit_either","A26Y58YECZUZZG","either","4","","","","","","","0","0","1","0.4530054638","","0.8","0.2","0.4","0.6","","","","","0.4530054638","0.4426138654","0.1952756904","0.1275107348","","","","","","","72","H","0","img/none_selected.jpg","","247","main_expt"
"43","","bandit","326","648728","0.0-287.0-0.0","60339174","wem/bandit_either","A26Y58YECZUZZG","either","4","","","","","","","0","1","0","","0.4326938674","0.8","0.2","0.4","0.6","0.4326938674","0.464375056","0.1722543521","0.107785627","","","","","","","","","","","72","H","0","img/none_selected.jpg","","248","main_expt"
"199","","bandit","327","650435","0.0-288.0-0.0","60339174","wem/bandit_either","A26Y58YECZUZZG","either","4","","","","","","","1","0","0","0.4276367863","","0.8","0.2","0.4","0.6","","","","","0.4276367863","0.4416705694","0.1935833679","0.1169449123","","","","","","","72","H","0","img/none_selected.jpg","","249","main_expt"
"226","","bandit","328","652170","0.0-289.0-0.0","60339174","wem/bandit_either","A26Y58YECZUZZG","either","4","","","","","","","1","0","0","0.4602627553","","0.8","0.2","0.4","0.6","","","","","0.4602627553","0.4352039605","0.1783221165","0.1474950258","","","","","","","72","H","0","img/none_selected.jpg","","250","main_expt"
"175","","bandit","329","653853","0.0-290.0-0.0","60339174","wem/bandit_either","A26Y58YECZUZZG","either","4","","","","","","","0","0","1","","0.4429671406","0.8","0.2","0.4","0.6","0.4429671406","0.4625669079","0.2191654692","0.1272017844","","","","","","","","","","","72","H","0","img/none_selected.jpg","","251","main_expt"
"72","","bandit","330","655433","0.0-291.0-0.0","60339174","wem/bandit_either","A26Y58YECZUZZG","either","4","","","","","","","1","0","0","0.4423062834","","0.8","0.2","0.4","0.6","","","","","0.4423062834","0.4714010403","0.2357097141","0.1383509771","","","","","","","72","H","0","img/none_selected.jpg","","252","main_expt"
