"rt","responses","trial_type","trial_index","time_elapsed","internal_node_id","subjID","study","MID","cond","drift","key_press","expt_phase","target","like","value","connected","respCharCode","respKey","respChoiceNum","respChoice","gems","bombs","no_reward","GemPrChosen","BombPrChosen","practice","trial_counter","WinPr_0","LosePr_0","trial_label","GainOverPainPr_0","WinPr_1","GainOverPainPr_1","LosePr_1","WinPr_2","GainOverPainPr_2","WinPr_3","GainOverPainPr_3","LosePr_2","LosePr_3","Q0","Q1","Q2","gender","age","ethnicity"
"4691","{""Q0"":""AU849EHZNGV2Z""}","survey-text","0","4697","0.0-0.0","60514179","wem/bandit_either","AU849EHZNGV2Z","either","6","","","","","","","","","","","","","","","","","","","","","","","","","","","","","","","","","","","",""
"16608","","text","1","22308","0.0-1.0","60514179","wem/bandit_either","AU849EHZNGV2Z","either","6","32","","","","","","","","","","","","","","","","","","","","","","","","","","","","","","","","","","",""
"6718","","text","2","29028","0.0-2.0","60514179","wem/bandit_either","AU849EHZNGV2Z","either","6","32","","","","","","","","","","","","","","","","","","","","","","","","","","","","","","","","","","",""
"31856","","text","3","60885","0.0-3.0","60514179","wem/bandit_either","AU849EHZNGV2Z","either","6","32","","","","","","","","","","","","","","","","","","","","","","","","","","","","","","","","","","",""
"11488","","text","4","72374","0.0-4.0","60514179","wem/bandit_either","AU849EHZNGV2Z","either","6","32","","","","","","","","","","","","","","","","","","","","","","","","","","","","","","","","","","",""
"10496","","text","5","82870","0.0-5.0","60514179","wem/bandit_either","AU849EHZNGV2Z","either","6","32","","","","","","","","","","","","","","","","","","","","","","","","","","","","","","","","","","",""
"6573","","text","6","89445","0.0-6.0","60514179","wem/bandit_either","AU849EHZNGV2Z","either","6","32","","","","","","","","","","","","","","","","","","","","","","","","","","","","","","","","","","",""
"4719","","text","7","94166","0.0-7.0","60514179","wem/bandit_either","AU849EHZNGV2Z","either","6","32","","","","","","","","","","","","","","","","","","","","","","","","","","","","","","","","","","",""
"11782","","identification","8","105964","0.0-8.0-0.0","60514179","wem/bandit_either","AU849EHZNGV2Z","either","6","","identification_pre","the village of Zur","4","4","4","","","","","","","","","","","","","","","","","","","","","","","","","","","","","",""
"10548","","identification","9","117524","0.0-8.0-1.0","60514179","wem/bandit_either","AU849EHZNGV2Z","either","6","","identification_pre","the village of Nyx","1","2","1","","","","","","","","","","","","","","","","","","","","","","","","","","","","","",""
"13657","","text","10","132183","0.0-9.0","60514179","wem/bandit_either","AU849EHZNGV2Z","either","6","32","","","","","","","","","","","","","","","","","","","","","","","","","","","","","","","","","","",""
"1918","","text","11","134103","0.0-10.0","60514179","wem/bandit_either","AU849EHZNGV2Z","either","6","32","","","","","","","","","","","","","","","","","","","","","","","","","","","","","","","","","","",""
"1455","","text","12","135559","0.0-11.0","60514179","wem/bandit_either","AU849EHZNGV2Z","either","6","32","","","","","","","","","","","","","","","","","","","","","","","","","","","","","","","","","","",""
"3424","","text","13","138984","0.0-12.0","60514179","wem/bandit_either","AU849EHZNGV2Z","either","6","32","","","","","","","","","","","","","","","","","","","","","","","","","","","","","","","","","","",""
"2268","","bandit","14","142757","0.0-13.0-0.0","60514179","wem/bandit_either","AU849EHZNGV2Z","either","6","","","","","","","74","J","0","img/none_selected_demo.jpg","0","0","1","0","0","true","0","0","0","","","","","","","","","","","","","","","","",""
"2863","","bandit","15","147124","0.0-14.0-0.0","60514179","wem/bandit_either","AU849EHZNGV2Z","either","6","","","","","","","75","K","0","img/none_selected_demo.jpg","0","0","1","0","0","true","0","0","0","","","","","","","","","","","","","","","","",""
"10291","","text","16","157416","0.0-15.0","60514179","wem/bandit_either","AU849EHZNGV2Z","either","6","32","","","","","","","","","","","","","","","","","","","","","","","","","","","","","","","","","","",""
"10864","","text","17","168281","0.0-16.0","60514179","wem/bandit_either","AU849EHZNGV2Z","either","6","32","","","","","","","","","","","","","","","","","","","","","","","","","","","","","","","","","","",""
"5293","","text","18","173576","0.0-17.0","60514179","wem/bandit_either","AU849EHZNGV2Z","either","6","32","","","","","","","","","","","","","","","","","","","","","","","","","","","","","","","","","","",""
"4510","","text","19","178088","0.0-18.0","60514179","wem/bandit_either","AU849EHZNGV2Z","either","6","32","","","","","","","","","","","","","","","","","","","","","","","","","","","","","","","","","","",""
"2287","","bandit","20","181879","0.0-19.0-0.0","60514179","wem/bandit_either","AU849EHZNGV2Z","either","6","","","","","","","74","J","0","img/none_selected_demo.jpg","1","0","0","0.8","","true","0","0.8","","80_20_practice","0.5","0.2","0.5","","","","","","","","","","","","",""
"1213","","bandit","21","184597","0.0-19.0-1.0","60514179","wem/bandit_either","AU849EHZNGV2Z","either","6","","","","","","","74","J","0","img/none_selected_demo.jpg","1","0","0","0.8","","true","0","0.8","","80_20_practice","0.5","0.2","0.5","","","","","","","","","","","","",""
"993","","bandit","22","187094","0.0-19.0-2.0","60514179","wem/bandit_either","AU849EHZNGV2Z","either","6","","","","","","","74","J","0","img/none_selected_demo.jpg","1","0","0","0.8","","true","0","0.8","","80_20_practice","0.5","0.2","0.5","","","","","","","","","","","","",""
"864","","bandit","23","189462","0.0-19.0-3.0","60514179","wem/bandit_either","AU849EHZNGV2Z","either","6","","","","","","","74","J","0","img/none_selected_demo.jpg","1","0","0","0.8","","true","0","0.8","","80_20_practice","0.5","0.2","0.5","","","","","","","","","","","","",""
"800","","bandit","24","191766","0.0-19.0-4.0","60514179","wem/bandit_either","AU849EHZNGV2Z","either","6","","","","","","","74","J","0","img/none_selected_demo.jpg","0","0","1","","0.8","true","0","","0.8","80_20_practice","0.5","","0.5","0.2","","","","","","","","","","","",""
"481","","bandit","25","193751","0.0-19.0-5.0","60514179","wem/bandit_either","AU849EHZNGV2Z","either","6","","","","","","","74","J","0","img/none_selected_demo.jpg","0","0","1","0.8","","true","0","0.8","","80_20_practice","0.5","0.2","0.5","","","","","","","","","","","","",""
"447","","bandit","26","195702","0.0-19.0-6.0","60514179","wem/bandit_either","AU849EHZNGV2Z","either","6","","","","","","","74","J","0","img/none_selected_demo.jpg","1","0","0","0.8","","true","0","0.8","","80_20_practice","0.5","0.2","0.5","","","","","","","","","","","","",""
"496","","bandit","27","197702","0.0-19.0-7.0","60514179","wem/bandit_either","AU849EHZNGV2Z","either","6","","","","","","","74","J","0","img/none_selected_demo.jpg","1","0","0","0.8","","true","0","0.8","","80_20_practice","0.5","0.2","0.5","","","","","","","","","","","","",""
"544","","bandit","28","199750","0.0-19.0-8.0","60514179","wem/bandit_either","AU849EHZNGV2Z","either","6","","","","","","","74","J","0","img/none_selected_demo.jpg","1","0","0","0.8","","true","0","0.8","","80_20_practice","0.5","0.2","0.5","","","","","","","","","","","","",""
"480","","bandit","29","201734","0.0-19.0-9.0","60514179","wem/bandit_either","AU849EHZNGV2Z","either","6","","","","","","","74","J","0","img/none_selected_demo.jpg","0","0","1","0.8","","true","0","0.8","","80_20_practice","0.5","0.2","0.5","","","","","","","","","","","","",""
"385","","bandit","30","203623","0.0-19.0-10.0","60514179","wem/bandit_either","AU849EHZNGV2Z","either","6","","","","","","","74","J","0","img/none_selected_demo.jpg","0","0","1","","0.8","true","0","","0.8","80_20_practice","0.5","","0.5","0.2","","","","","","","","","","","",""
"336","","bandit","31","205464","0.0-19.0-11.0","60514179","wem/bandit_either","AU849EHZNGV2Z","either","6","","","","","","","74","J","0","img/none_selected_demo.jpg","1","0","0","0.8","","true","0","0.8","","80_20_practice","0.5","0.2","0.5","","","","","","","","","","","","",""
"334","","bandit","32","207304","0.0-19.0-12.0","60514179","wem/bandit_either","AU849EHZNGV2Z","either","6","","","","","","","74","J","0","img/none_selected_demo.jpg","0","1","0","","0.8","true","0","","0.8","80_20_practice","0.5","","0.5","0.2","","","","","","","","","","","",""
"430","","bandit","33","209239","0.0-19.0-13.0","60514179","wem/bandit_either","AU849EHZNGV2Z","either","6","","","","","","","74","J","0","img/none_selected_demo.jpg","1","0","0","0.8","","true","0","0.8","","80_20_practice","0.5","0.2","0.5","","","","","","","","","","","","",""
"287","","bandit","34","211032","0.0-19.0-14.0","60514179","wem/bandit_either","AU849EHZNGV2Z","either","6","","","","","","","74","J","0","img/none_selected_demo.jpg","0","1","0","","0.8","true","0","","0.8","80_20_practice","0.5","","0.5","0.2","","","","","","","","","","","",""
"318","","bandit","35","212855","0.0-19.0-15.0","60514179","wem/bandit_either","AU849EHZNGV2Z","either","6","","","","","","","74","J","0","img/none_selected_demo.jpg","0","0","1","0.8","","true","0","0.8","","80_20_practice","0.5","0.2","0.5","","","","","","","","","","","","",""
"351","","bandit","36","214711","0.0-19.0-16.0","60514179","wem/bandit_either","AU849EHZNGV2Z","either","6","","","","","","","74","J","0","img/none_selected_demo.jpg","0","0","1","0.8","","true","0","0.8","","80_20_practice","0.5","0.2","0.5","","","","","","","","","","","","",""
"272","","bandit","37","216487","0.0-19.0-17.0","60514179","wem/bandit_either","AU849EHZNGV2Z","either","6","","","","","","","74","J","0","img/none_selected_demo.jpg","0","1","0","","0.8","true","0","","0.8","80_20_practice","0.5","","0.5","0.2","","","","","","","","","","","",""
"239","","bandit","38","218230","0.0-19.0-18.0","60514179","wem/bandit_either","AU849EHZNGV2Z","either","6","","","","","","","74","J","0","img/none_selected_demo.jpg","0","1","0","","0.8","true","0","","0.8","80_20_practice","0.5","","0.5","0.2","","","","","","","","","","","",""
"240","","bandit","39","219975","0.0-19.0-19.0","60514179","wem/bandit_either","AU849EHZNGV2Z","either","6","","","","","","","74","J","0","img/none_selected_demo.jpg","0","1","0","","0.8","true","0","","0.8","80_20_practice","0.5","","0.5","0.2","","","","","","","","","","","",""
"6850","","text","40","226827","0.0-20.0","60514179","wem/bandit_either","AU849EHZNGV2Z","either","6","32","","","","","","","","","","","","","","","","","","","","","","","","","","","","","","","","","","",""
"1852","","bandit","41","230183","0.0-21.0-0.0","60514179","wem/bandit_either","AU849EHZNGV2Z","either","6","","","","","","","74","J","0","img/none_selected_demo.jpg","1","0","0","1","0","true","0","1","0","","","0","","1","","","","","","","","","","","",""
"4561","","text","42","234745","0.0-22.0","60514179","wem/bandit_either","AU849EHZNGV2Z","either","6","32","","","","","","","","","","","","","","","","","","","","","","","","","","","","","","","","","","",""
"2689","","text","43","237435","0.0-23.0","60514179","wem/bandit_either","AU849EHZNGV2Z","either","6","32","","","","","","","","","","","","","","","","","","","","","","","","","","","","","","","","","","",""
"2990","","text","44","240426","0.0-24.0","60514179","wem/bandit_either","AU849EHZNGV2Z","either","6","32","","","","","","","","","","","","","","","","","","","","","","","","","","","","","","","","","","",""
"3199","","text","45","243626","0.0-25.0","60514179","wem/bandit_either","AU849EHZNGV2Z","either","6","32","","","","","","","","","","","","","","","","","","","","","","","","","","","","","","","","","","",""
"9615","","text","46","253243","0.0-26.0","60514179","wem/bandit_either","AU849EHZNGV2Z","either","6","32","","","","","","","","","","","","","","","","","","","","","","","","","","","","","","","","","","",""
"3742","","text","47","256987","0.0-27.0","60514179","wem/bandit_either","AU849EHZNGV2Z","either","6","32","","","","","","","","","","","","","","","","","","","","","","","","","","","","","","","","","","",""
"5022","","text","48","262012","0.0-28.0","60514179","wem/bandit_either","AU849EHZNGV2Z","either","6","32","","","","","","","","","","","","","","","","","","","","","","","","","","","","","","","","","","",""
"5390","","text","49","267404","0.0-29.0","60514179","wem/bandit_either","AU849EHZNGV2Z","either","6","32","","","","","","","","","","","","","","","","","","","","","","","","","","","","","","","","","","",""
"5310","","text","50","272715","0.0-30.0","60514179","wem/bandit_either","AU849EHZNGV2Z","either","6","32","","","","","","","","","","","","","","","","","","","","","","","","","","","","","","","","","","",""
"1967","","text","51","274683","0.0-31.0","60514179","wem/bandit_either","AU849EHZNGV2Z","either","6","32","","","","","","","","","","","","","","","","","","","","","","","","","","","","","","","","","","",""
"9343","","text","52","284027","0.0-32.0","60514179","wem/bandit_either","AU849EHZNGV2Z","either","6","32","","","","","","","","","","","","","","","","","","","","","","","","","","","","","","","","","","",""
"1021","","bandit","53","286553","0.0-33.0-0.0","60514179","wem/bandit_either","AU849EHZNGV2Z","either","6","","","","","","","72","H","0","img/none_selected.jpg","1","0","0","0.8","","true","0","0.8","","full_practice","0.5","0.2","0.5","","0.6","0.5","0.2","0.5","","","","","","","",""
"366","","bandit","54","288426","0.0-33.0-1.0","60514179","wem/bandit_either","AU849EHZNGV2Z","either","6","","","","","","","72","H","0","img/none_selected.jpg","0","0","1","0.8","","true","0","0.8","","full_practice","0.5","0.2","0.5","","0.6","0.5","0.2","0.5","","","","","","","",""
"863","","bandit","55","290795","0.0-33.0-2.0","60514179","wem/bandit_either","AU849EHZNGV2Z","either","6","","","","","","","74","J","1","","0","0","1","","0.2","true","0","","0.8","full_practice","0.5","","0.5","0.2","","0.5","","0.5","0.6","0.2","","","","","",""
"349","","bandit","56","292651","0.0-33.0-3.0","60514179","wem/bandit_either","AU849EHZNGV2Z","either","6","","","","","","","75","K","2","","0","0","1","0.6","","true","0","0.8","","full_practice","0.5","0.2","0.5","","0.6","0.5","0.2","0.5","","","","","","","",""
"335","","bandit","57","294491","0.0-33.0-4.0","60514179","wem/bandit_either","AU849EHZNGV2Z","either","6","","","","","","","76","L","3","","1","0","0","0.2","","true","0","0.8","","full_practice","0.5","0.2","0.5","","0.6","0.5","0.2","0.5","","","","","","","",""
"304","","bandit","58","296300","0.0-33.0-5.0","60514179","wem/bandit_either","AU849EHZNGV2Z","either","6","","","","","","","76","L","3","","0","1","0","","0.2","true","0","","0.8","full_practice","0.5","","0.5","0.2","","0.5","","0.5","0.6","0.2","","","","","",""
"302","","bandit","59","298107","0.0-33.0-6.0","60514179","wem/bandit_either","AU849EHZNGV2Z","either","6","","","","","","","76","L","3","","0","0","1","0.2","","true","0","0.8","","full_practice","0.5","0.2","0.5","","0.6","0.5","0.2","0.5","","","","","","","",""
"351","","bandit","60","299962","0.0-33.0-7.0","60514179","wem/bandit_either","AU849EHZNGV2Z","either","6","","","","","","","76","L","3","","0","0","1","0.2","","true","0","0.8","","full_practice","0.5","0.2","0.5","","0.6","0.5","0.2","0.5","","","","","","","",""
"287","","bandit","61","301754","0.0-33.0-8.0","60514179","wem/bandit_either","AU849EHZNGV2Z","either","6","","","","","","","72","H","0","img/none_selected.jpg","0","1","0","","0.8","true","0","","0.8","full_practice","0.5","","0.5","0.2","","0.5","","0.5","0.6","0.2","","","","","",""
"288","","bandit","62","303547","0.0-33.0-9.0","60514179","wem/bandit_either","AU849EHZNGV2Z","either","6","","","","","","","72","H","0","img/none_selected.jpg","0","1","0","","0.8","true","0","","0.8","full_practice","0.5","","0.5","0.2","","0.5","","0.5","0.6","0.2","","","","","",""
"269","","bandit","63","305322","0.0-33.0-10.0","60514179","wem/bandit_either","AU849EHZNGV2Z","either","6","","","","","","","72","H","0","img/none_selected.jpg","1","0","0","0.8","","true","0","0.8","","full_practice","0.5","0.2","0.5","","0.6","0.5","0.2","0.5","","","","","","","",""
"272","","bandit","64","307100","0.0-33.0-11.0","60514179","wem/bandit_either","AU849EHZNGV2Z","either","6","","","","","","","72","H","0","img/none_selected.jpg","0","1","0","","0.8","true","0","","0.8","full_practice","0.5","","0.5","0.2","","0.5","","0.5","0.6","0.2","","","","","",""
"254","","bandit","65","308859","0.0-33.0-12.0","60514179","wem/bandit_either","AU849EHZNGV2Z","either","6","","","","","","","72","H","0","img/none_selected.jpg","0","0","1","","0.8","true","0","","0.8","full_practice","0.5","","0.5","0.2","","0.5","","0.5","0.6","0.2","","","","","",""
"320","","bandit","66","310683","0.0-33.0-13.0","60514179","wem/bandit_either","AU849EHZNGV2Z","either","6","","","","","","","76","L","3","","0","0","1","0.2","","true","0","0.8","","full_practice","0.5","0.2","0.5","","0.6","0.5","0.2","0.5","","","","","","","",""
"256","","bandit","67","312443","0.0-33.0-14.0","60514179","wem/bandit_either","AU849EHZNGV2Z","either","6","","","","","","","74","J","1","","0","0","1","","0.2","true","0","","0.8","full_practice","0.5","","0.5","0.2","","0.5","","0.5","0.6","0.2","","","","","",""
"175","","bandit","68","314123","0.0-33.0-15.0","60514179","wem/bandit_either","AU849EHZNGV2Z","either","6","","","","","","","75","K","2","","0","0","1","","0.6","true","0","","0.8","full_practice","0.5","","0.5","0.2","","0.5","","0.5","0.6","0.2","","","","","",""
"142","","bandit","69","315771","0.0-33.0-16.0","60514179","wem/bandit_either","AU849EHZNGV2Z","either","6","","","","","","","72","H","0","img/none_selected.jpg","0","1","0","","0.8","true","0","","0.8","full_practice","0.5","","0.5","0.2","","0.5","","0.5","0.6","0.2","","","","","",""
"241","","bandit","70","317516","0.0-33.0-17.0","60514179","wem/bandit_either","AU849EHZNGV2Z","either","6","","","","","","","72","H","0","img/none_selected.jpg","1","0","0","0.8","","true","0","0.8","","full_practice","0.5","0.2","0.5","","0.6","0.5","0.2","0.5","","","","","","","",""
"287","","bandit","71","319307","0.0-33.0-18.0","60514179","wem/bandit_either","AU849EHZNGV2Z","either","6","","","","","","","72","H","0","img/none_selected.jpg","0","0","1","","0.8","true","0","","0.8","full_practice","0.5","","0.5","0.2","","0.5","","0.5","0.6","0.2","","","","","",""
"271","","bandit","72","321083","0.0-33.0-19.0","60514179","wem/bandit_either","AU849EHZNGV2Z","either","6","","","","","","","72","H","0","img/none_selected.jpg","0","0","1","","0.8","true","0","","0.8","full_practice","0.5","","0.5","0.2","","0.5","","0.5","0.6","0.2","","","","","",""
"3582","","text","73","324670","0.0-34.0","60514179","wem/bandit_either","AU849EHZNGV2Z","either","6","32","","","","","","","","","","","","","","","","","","","","","","","","","","","","","","","","","","",""
"11622","","text","74","337295","0.0-35.0","60514179","wem/bandit_either","AU849EHZNGV2Z","either","6","32","","","","","","","","","","","","","","","","","","","","","","","","","","","","","","","","","","",""
"12846","","text","75","350142","0.0-36.0","60514179","wem/bandit_either","AU849EHZNGV2Z","either","6","32","","","","","","","","","","","","","","","","","","","","","","","","","","","","","","","","","","",""
"7037","","text","76","357181","0.0-37.0","60514179","wem/bandit_either","AU849EHZNGV2Z","either","6","32","","","","","","","","","","","","","","","","","","","","","","","","","","","","","","","","","","",""
"10223","","text","77","367407","0.0-38.0","60514179","wem/bandit_either","AU849EHZNGV2Z","either","6","32","","","","","","","","","","","","","","","","","","","","","","","","","","","","","","","","","","",""
"5293","","text","78","372702","0.0-39.0","60514179","wem/bandit_either","AU849EHZNGV2Z","either","6","32","","","","","","","","","","","","","","","","","","","","","","","","","","","","","","","","","","",""
"1069","","bandit","79","375276","0.0-40.0-0.0","60514179","wem/bandit_either","AU849EHZNGV2Z","either","6","","","","","","","72","H","0","img/none_selected.jpg","1","0","0","0.1734470434","","","1","0.1734470434","","main_expt","0.4","0.4656478179","0.6","","0.06094066238","0.2","0.1720655487","0.8","","","","","","","",""
"333","","bandit","80","377117","0.0-41.0-0.0","60514179","wem/bandit_either","AU849EHZNGV2Z","either","6","","","","","","","72","H","0","img/none_selected.jpg","0","0","1","","0.1582158198","","2","","0.1582158198","main_expt","0.4","","0.6","0.4661883906","","0.2","","0.8","0.04941180107","0.1607886358","","","","","",""
"286","","bandit","81","378909","0.0-42.0-0.0","60514179","wem/bandit_either","AU849EHZNGV2Z","either","6","","","","","","","72","H","0","img/none_selected.jpg","0","0","1","","0.1264016625","","3","","0.1264016625","main_expt","0.4","","0.6","0.4608397999","","0.2","","0.8","0.09066711981","0.1825924006","","","","","",""
"318","","bandit","82","380734","0.0-43.0-0.0","60514179","wem/bandit_either","AU849EHZNGV2Z","either","6","","","","","","","74","J","1","","0","0","1","","0.4568511376","","4","","0.1212924903","main_expt","0.4","","0.6","0.4568511376","","0.2","","0.8","0.07815644495","0.1572982515","","","","","",""
"301","","bandit","83","382540","0.0-44.0-0.0","60514179","wem/bandit_either","AU849EHZNGV2Z","either","6","","","","","","","75","K","2","","0","1","0","","0.06547040057","","5","","0.1603104869","main_expt","0.4","","0.6","0.4576747282","","0.2","","0.8","0.06547040057","0.1873501432","","","","","",""
"303","","bandit","84","384348","0.0-45.0-0.0","60514179","wem/bandit_either","AU849EHZNGV2Z","either","6","","","","","","","75","K","2","","0","0","1","0.09500806419","","","6","0.1916070739","","main_expt","0.4","0.4673201091","0.6","","0.09500806419","0.2","0.1484719509","0.8","","","","","","","",""
"319","","bandit","85","386172","0.0-46.0-0.0","60514179","wem/bandit_either","AU849EHZNGV2Z","either","6","","","","","","","76","L","3","","0","0","1","","0.1368680622","","7","","0.1624213819","main_expt","0.4","","0.6","0.4671816856","","0.2","","0.8","0.1156714339","0.1368680622","","","","","",""
"271","","bandit","86","387948","0.0-47.0-0.0","60514179","wem/bandit_either","AU849EHZNGV2Z","either","6","","","","","","","72","H","0","img/none_selected.jpg","0","0","1","0.1529627983","","","8","0.1529627983","","main_expt","0.4","0.4577650209","0.6","","0.08939878806","0.2","0.1412197478","0.8","","","","","","","",""
"270","","bandit","87","389724","0.0-48.0-0.0","60514179","wem/bandit_either","AU849EHZNGV2Z","either","6","","","","","","","75","K","2","","0","0","1","","0.1379609943","","9","","0.1638779","main_expt","0.4","","0.6","0.4538037209","","0.2","","0.8","0.1379609943","0.1285241668","","","","","",""
"432","","bandit","88","391661","0.0-49.0-0.0","60514179","wem/bandit_either","AU849EHZNGV2Z","either","6","","","","","","","75","K","2","","0","0","1","","0.08892925829","","10","","0.1682184418","main_expt","0.4","","0.6","0.4567906288","","0.2","","0.8","0.08892925829","0.1137500729","","","","","",""
"286","","bandit","89","393452","0.0-50.0-0.0","60514179","wem/bandit_either","AU849EHZNGV2Z","either","6","","","","","","","72","H","0","img/none_selected.jpg","0","0","1","","0.1511948373","","11","","0.1511948373","main_expt","0.4","","0.6","0.4707556997","","0.2","","0.8","0.1053961985","0.1134058804","","","","","",""
"303","","bandit","90","395261","0.0-51.0-0.0","60514179","wem/bandit_either","AU849EHZNGV2Z","either","6","","","","","","","76","L","3","","0","0","1","0.1358134986","","","12","0.2144966391","","main_expt","0.4","0.4534589675","0.6","","0.1267534428","0.2","0.1358134986","0.8","","","","","","","",""
"286","","bandit","91","397053","0.0-52.0-0.0","60514179","wem/bandit_either","AU849EHZNGV2Z","either","6","","","","","","","74","J","1","","1","0","0","0.4474824422","","","13","0.1443049275","","main_expt","0.4","0.4474824422","0.6","","0.1179877152","0.2","0.1105925571","0.8","","","","","","","",""
"286","","bandit","92","398845","0.0-53.0-0.0","60514179","wem/bandit_either","AU849EHZNGV2Z","either","6","","","","","","","74","J","1","","0","0","1","0.4125602811","","","14","0.149160688","","main_expt","0.4","0.4125602811","0.6","","0.1300626215","0.2","0.09057326494","0.8","","","","","","","",""
"271","","bandit","93","400621","0.0-54.0-0.0","60514179","wem/bandit_either","AU849EHZNGV2Z","either","6","","","","","","","74","J","1","","0","0","1","","0.3715785473","","15","","0.1525333278","main_expt","0.4","","0.6","0.3715785473","","0.2","","0.8","0.1129073675","0.05963436345","","","","","",""
"864","","bandit","94","402990","0.0-55.0-0.0","60514179","wem/bandit_either","AU849EHZNGV2Z","either","6","","","","","","","74","J","1","","0","0","1","0.3670357029","","","16","0.1437253933","","main_expt","0.4","0.3670357029","0.6","","0.1132840383","0.2","0.03970917029","0.8","","","","","","","",""
"238","","bandit","95","404733","0.0-56.0-0.0","60514179","wem/bandit_either","AU849EHZNGV2Z","either","6","","","","","","","75","K","2","","0","0","1","0.1530786807","","","17","0.1191274054","","main_expt","0.4","0.333794799","0.6","","0.1530786807","0.2","0.03301664506","0.8","","","","","","","",""
"285","","bandit","96","406525","0.0-57.0-0.0","60514179","wem/bandit_either","AU849EHZNGV2Z","either","6","","","","","","","76","L","3","","0","0","1","0.0325619","","","18","0.1231388663","","main_expt","0.4","0.3720862831","0.6","","0.1367655081","0.2","0.0325619","0.8","","","","","","","",""
"270","","bandit","97","408302","0.0-58.0-0.0","60514179","wem/bandit_either","AU849EHZNGV2Z","either","6","","","","","","","72","H","0","img/none_selected.jpg","0","1","0","","0.1014962652","","19","","0.1014962652","main_expt","0.4","","0.6","0.3940248177","","0.2","","0.8","0.1519969922","0.05136562407","","","","","",""
"286","","bandit","98","410094","0.0-59.0-0.0","60514179","wem/bandit_either","AU849EHZNGV2Z","either","6","","","","","","","72","H","0","img/none_selected.jpg","0","0","1","","0.1184271466","","20","","0.1184271466","main_expt","0.4","","0.6","0.3980303587","","0.2","","0.8","0.2344823222","0.05620034239","","","","","",""
"734","","bandit","99","412335","0.0-60.0-0.0","60514179","wem/bandit_either","AU849EHZNGV2Z","either","6","","","","","","","72","H","0","img/none_selected.jpg","0","0","1","","0.1434190777","","21","","0.1434190777","main_expt","0.4","","0.6","0.405953395","","0.2","","0.8","0.2227593861","0.04865895453","","","","","",""
"302","","bandit","100","414144","0.0-61.0-0.0","60514179","wem/bandit_either","AU849EHZNGV2Z","either","6","","","","","","","75","K","2","","1","0","0","0.1831098024","","","22","0.1323354157","","main_expt","0.4","0.37898799","0.6","","0.1831098024","0.2","0.05276066643","0.8","","","","","","","",""
"301","","bandit","101","415951","0.0-62.0-0.0","60514179","wem/bandit_either","AU849EHZNGV2Z","either","6","","","","","","","75","K","2","","0","0","1","","0.1660310818","","23","","0.1384191998","main_expt","0.4","","0.6","0.3661255489","","0.2","","0.8","0.1660310818","0.05284133488","","","","","",""
"286","","bandit","102","417743","0.0-63.0-0.0","60514179","wem/bandit_either","AU849EHZNGV2Z","either","6","","","","","","","75","K","2","","0","0","1","","0.1400827643","","24","","0.1395593146","main_expt","0.4","","0.6","0.3576379461","","0.2","","0.8","0.1400827643","0.0333904923","","","","","",""
"286","","bandit","103","419534","0.0-64.0-0.0","60514179","wem/bandit_either","AU849EHZNGV2Z","either","6","","","","","","","74","J","1","","0","0","1","0.3346121782","","","25","0.1696236693","","main_expt","0.4","0.3346121782","0.6","","0.2022937807","0.2","0.04666446392","0.8","","","","","","","",""
"334","","bandit","104","421375","0.0-65.0-0.0","60514179","wem/bandit_either","AU849EHZNGV2Z","either","6","","","","","","","76","L","3","","0","0","1","0.04067930801","","","26","0.1754084838","","main_expt","0.4","0.3790434843","0.6","","0.1725383963","0.2","0.04067930801","0.8","","","","","","","",""
"286","","bandit","105","423167","0.0-66.0-0.0","60514179","wem/bandit_either","AU849EHZNGV2Z","either","6","","","","","","","75","K","2","","0","0","1","","0.1735642386","","27","","0.118483546","main_expt","0.4","","0.6","0.3744762435","","0.2","","0.8","0.1735642386","0.03070036018","","","","","",""
"223","","bandit","106","424896","0.0-67.0-0.0","60514179","wem/bandit_either","AU849EHZNGV2Z","either","6","","","","","","","72","H","0","img/none_selected.jpg","0","0","1","","0.1259847853","","28","","0.1259847853","main_expt","0.4","","0.6","0.3650769418","","0.2","","0.8","0.149532802","0.02292460278","","","","","",""
"269","","bandit","107","426670","0.0-68.0-0.0","60514179","wem/bandit_either","AU849EHZNGV2Z","either","6","","","","","","","74","J","1","","0","0","1","0.3299345172","","","29","0.1072727049","","main_expt","0.4","0.3299345172","0.6","","0.1597785082","0.2","0.03476379039","0.8","","","","","","","",""
"478","","bandit","108","428653","0.0-69.0-0.0","60514179","wem/bandit_either","AU849EHZNGV2Z","either","6","","","","","","","75","K","2","","0","0","1","","0.1978771271","","30","","0.07952930744","main_expt","0.4","","0.6","0.3010095271","","0.2","","0.8","0.1978771271","0.04211589453","","","","","",""
"287","","bandit","109","430446","0.0-70.0-0.0","60514179","wem/bandit_either","AU849EHZNGV2Z","either","6","","","","","","","76","L","3","","0","0","1","","0.04495483672","","31","","0.09691030242","main_expt","0.4","","0.6","0.331530841","","0.2","","0.8","0.1928768267","0.04495483672","","","","","",""
"447","","bandit","110","432400","0.0-71.0-0.0","60514179","wem/bandit_either","AU849EHZNGV2Z","either","6","","","","","","","75","K","2","","0","0","1","","0.1511047494","","32","","0.1338720944","main_expt","0.4","","0.6","0.3469043085","","0.2","","0.8","0.1511047494","0.04126869591","","","","","",""
"270","","bandit","111","434174","0.0-72.0-0.0","60514179","wem/bandit_either","AU849EHZNGV2Z","either","6","","","","","","","74","J","1","","1","0","0","0.2778139242","","","33","0.1428203538","","main_expt","0.4","0.2778139242","0.6","","0.09247049486","0.2","0.02396570111","0.8","","","","","","","",""
"271","","bandit","112","435951","0.0-73.0-0.0","60514179","wem/bandit_either","AU849EHZNGV2Z","either","6","","","","","","","74","J","1","","0","0","1","","0.236883459","","34","","0.1258169527","main_expt","0.4","","0.6","0.236883459","","0.2","","0.8","0.1127946788","0.03561151332","","","","","",""
"350","","bandit","113","437806","0.0-74.0-0.0","60514179","wem/bandit_either","AU849EHZNGV2Z","either","6","","","","","","","74","J","1","","0","0","1","0.2656196476","","","35","0.1652362889","","main_expt","0.4","0.2656196476","0.6","","0.1279928094","0.2","0.04565222073","0.8","","","","","","","",""
"303","","bandit","114","439614","0.0-75.0-0.0","60514179","wem/bandit_either","AU849EHZNGV2Z","either","6","","","","","","","75","K","2","","0","0","1","","0.09285608896","","36","","0.1472348388","main_expt","0.4","","0.6","0.2309028503","","0.2","","0.8","0.09285608896","0.05036449293","","","","","",""
"238","","bandit","115","441358","0.0-76.0-0.0","60514179","wem/bandit_either","AU849EHZNGV2Z","either","6","","","","","","","72","H","0","img/none_selected.jpg","0","0","1","0.20581188","","","37","0.20581188","","main_expt","0.4","0.1961267878","0.6","","0.1251507517","0.2","0.04764774511","0.8","","","","","","","",""
"447","","bandit","116","443310","0.0-77.0-0.0","60514179","wem/bandit_either","AU849EHZNGV2Z","either","6","","","","","","","76","L","3","","0","0","1","0.04692466818","","","38","0.2096070571","","main_expt","0.4","0.2197692452","0.6","","0.1248439258","0.2","0.04692466818","0.8","","","","","","","",""
"287","","bandit","117","445102","0.0-78.0-0.0","60514179","wem/bandit_either","AU849EHZNGV2Z","either","6","","","","","","","74","J","1","","0","0","1","0.1783178102","","","39","0.1888903691","","main_expt","0.4","0.1783178102","0.6","","0.1192858938","0.2","0.06150360576","0.8","","","","","","","",""
"224","","bandit","118","446831","0.0-79.0-0.0","60514179","wem/bandit_either","AU849EHZNGV2Z","either","6","","","","","","","75","K","2","","0","1","0","","0.1457630933","","40","","0.1769314034","main_expt","0.4","","0.6","0.1354267005","","0.2","","0.8","0.1457630933","0.1025324214","","","","","",""
"268","","bandit","119","448608","0.0-80.0-0.0","60514179","wem/bandit_either","AU849EHZNGV2Z","either","6","","","","","","","75","K","2","","0","1","0","","0.1788887836","","41","","0.1764673912","main_expt","0.4","","0.6","0.1307301687","","0.2","","0.8","0.1788887836","0.1278282258","","","","","",""
"253","","bandit","120","450367","0.0-81.0-0.0","60514179","wem/bandit_either","AU849EHZNGV2Z","either","6","","","","","","","75","K","2","","0","0","1","","0.1550439797","","42","","0.1164002711","main_expt","0.4","","0.6","0.1002459791","","0.2","","0.8","0.1550439797","0.1144783829","","","","","",""
"318","","bandit","121","452191","0.0-82.0-0.0","60514179","wem/bandit_either","AU849EHZNGV2Z","either","6","","","","","","","75","K","2","","0","0","1","","0.1624336935","","43","","0.1248357276","main_expt","0.4","","0.6","0.06131682752","","0.2","","0.8","0.1624336935","0.148274456","","","","","",""
"268","","bandit","122","453967","0.0-83.0-0.0","60514179","wem/bandit_either","AU849EHZNGV2Z","either","6","","","","","","","75","K","2","","0","0","1","","0.2610419313","","44","","0.1801883524","main_expt","0.4","","0.6","0.05757194937","","0.2","","0.8","0.2610419313","0.1733993608","","","","","",""
"126","","bandit","123","455599","0.0-84.0-0.0","60514179","wem/bandit_either","AU849EHZNGV2Z","either","6","","","","","","","72","H","0","img/none_selected.jpg","0","0","1","0.1536252234","","","45","0.1536252234","","main_expt","0.4","0.06317169253","0.6","","0.2547096211","0.2","0.1731137141","0.8","","","","","","","",""
"335","","bandit","124","457440","0.0-85.0-0.0","60514179","wem/bandit_either","AU849EHZNGV2Z","either","6","","","","","","","74","J","1","","0","0","1","0.08604650327","","","46","0.1453657368","","main_expt","0.4","0.08604650327","0.6","","0.2690630982","0.2","0.2577534017","0.8","","","","","","","",""
"91","","bandit","125","459039","0.0-86.0-0.0","60514179","wem/bandit_either","AU849EHZNGV2Z","either","6","","","","","","","75","K","2","","0","0","1","","0.2613787364","","47","","0.1163474927","main_expt","0.4","","0.6","0.07503215105","","0.2","","0.8","0.2613787364","0.2436059896","","","","","",""
"238","","bandit","126","460783","0.0-87.0-0.0","60514179","wem/bandit_either","AU849EHZNGV2Z","either","6","","","","","","","74","J","1","","0","0","1","0.09661626413","","","48","0.1187671899","","main_expt","0.4","0.09661626413","0.6","","0.2764851171","0.2","0.261356988","0.8","","","","","","","",""
"125","","bandit","127","462414","0.0-88.0-0.0","60514179","wem/bandit_either","AU849EHZNGV2Z","either","6","","","","","","","76","L","3","","1","0","0","0.2707362224","","","49","0.1321787199","","main_expt","0.4","0.141419135","0.6","","0.2628846066","0.2","0.2707362224","0.8","","","","","","","",""
"223","","bandit","128","464143","0.0-89.0-0.0","60514179","wem/bandit_either","AU849EHZNGV2Z","either","6","","","","","","","76","L","3","","0","0","1","0.2733601765","","","50","0.1310663867","","main_expt","0.4","0.1341637883","0.6","","0.3634831931","0.2","0.2733601765","0.8","","","","","","","",""
"270","","bandit","129","465919","0.0-90.0-0.0","60514179","wem/bandit_either","AU849EHZNGV2Z","either","6","","","","","","","76","L","3","","1","0","0","0.2590969561","","","51","0.1450472339","","main_expt","0.4","0.1225974466","0.6","","0.3771608335","0.2","0.2590969561","0.8","","","","","","","",""
"255","","bandit","130","467680","0.0-91.0-0.0","60514179","wem/bandit_either","AU849EHZNGV2Z","either","6","","","","","","","76","L","3","","0","0","1","0.2515646212","","","52","0.1731775471","","main_expt","0.4","0.1145468474","0.6","","0.3093307572","0.2","0.2515646212","0.8","","","","","","","",""
"269","","bandit","131","469454","0.0-92.0-0.0","60514179","wem/bandit_either","AU849EHZNGV2Z","either","6","","","","","","","76","L","3","","0","0","1","0.2257746054","","","53","0.2258016315","","main_expt","0.4","0.1059564611","0.6","","0.2990929044","0.2","0.2257746054","0.8","","","","","","","",""
"237","","bandit","132","471199","0.0-93.0-0.0","60514179","wem/bandit_either","AU849EHZNGV2Z","either","6","","","","","","","76","L","3","","0","0","1","","0.2750925763","","54","","0.2172527187","main_expt","0.4","","0.6","0.1090017536","","0.2","","0.8","0.2221679908","0.2750925763","","","","","",""
"157","","bandit","133","472862","0.0-94.0-0.0","60514179","wem/bandit_either","AU849EHZNGV2Z","either","6","","","","","","","75","K","2","","0","0","1","","0.1886471815","","55","","0.1652356872","main_expt","0.4","","0.6","0.1249444004","","0.2","","0.8","0.1886471815","0.3608357377","","","","","",""
"238","","bandit","134","474606","0.0-95.0-0.0","60514179","wem/bandit_either","AU849EHZNGV2Z","either","6","","","","","","","74","J","1","","1","0","0","0.09043885587","","","56","0.1576418272","","main_expt","0.4","0.09043885587","0.6","","0.1973213641","0.2","0.4022545085","0.8","","","","","","","",""
"302","","bandit","135","476414","0.0-96.0-0.0","60514179","wem/bandit_either","AU849EHZNGV2Z","either","6","","","","","","","74","J","1","","0","0","1","","0.07448640425","","57","","0.180776926","main_expt","0.4","","0.6","0.07448640425","","0.2","","0.8","0.2207101474","0.3867568464","","","","","",""
"320","","bandit","136","478239","0.0-97.0-0.0","60514179","wem/bandit_either","AU849EHZNGV2Z","either","6","","","","","","","74","J","1","","0","0","1","0.09808879237","","","58","0.1489081552","","main_expt","0.4","0.09808879237","0.6","","0.2480089655","0.2","0.3840355114","0.8","","","","","","","",""
"366","","bandit","137","480110","0.0-98.0-0.0","60514179","wem/bandit_either","AU849EHZNGV2Z","either","6","","","","","","","76","L","3","","1","0","0","0.3617876187","","","59","0.125555473","","main_expt","0.4","0.0721355853","0.6","","0.2667579505","0.2","0.3617876187","0.8","","","","","","","",""
"318","","bandit","138","481935","0.0-99.0-0.0","60514179","wem/bandit_either","AU849EHZNGV2Z","either","6","","","","","","","76","L","3","","1","0","0","0.3018070945","","","60","0.1228814318","","main_expt","0.4","0.08871326978","0.6","","0.2637313595","0.2","0.3018070945","0.8","","","","","","","",""
"301","","bandit","139","483743","0.0-100.0-0.0","60514179","wem/bandit_either","AU849EHZNGV2Z","either","6","","","","","","","76","L","3","","0","0","1","0.2687465691","","","61","0.195834737","","main_expt","0.4","0.1472383223","0.6","","0.2400462537","0.2","0.2687465691","0.8","","","","","","","",""
"270","","bandit","140","485519","0.0-101.0-0.0","60514179","wem/bandit_either","AU849EHZNGV2Z","either","6","","","","","","","76","L","3","","0","0","1","0.287622952","","","62","0.1952904108","","main_expt","0.4","0.1625866577","0.6","","0.2396546157","0.2","0.287622952","0.8","","","","","","","",""
"254","","bandit","141","487279","0.0-102.0-0.0","60514179","wem/bandit_either","AU849EHZNGV2Z","either","6","","","","","","","76","L","3","","0","0","1","0.2060093557","","","63","0.187392073","","main_expt","0.4","0.1196153378","0.6","","0.2558687718","0.2","0.2060093557","0.8","","","","","","","",""
"222","","bandit","142","489008","0.0-103.0-0.0","60514179","wem/bandit_either","AU849EHZNGV2Z","either","6","","","","","","","74","J","1","","0","0","1","","0.1025290435","","64","","0.1774517964","main_expt","0.4","","0.6","0.1025290435","","0.2","","0.8","0.1789331692","0.1865830226","","","","","",""
"220","","bandit","143","490735","0.0-104.0-0.0","60514179","wem/bandit_either","AU849EHZNGV2Z","either","6","","","","","","","75","K","2","","0","1","0","","0.2041721298","","65","","0.1956590225","main_expt","0.4","","0.6","0.06637487434","","0.2","","0.8","0.2041721298","0.2242960511","","","","","",""
"253","","bandit","144","492495","0.0-105.0-0.0","60514179","wem/bandit_either","AU849EHZNGV2Z","either","6","","","","","","","75","K","2","","0","0","1","","0.1083731131","","66","","0.1559932489","main_expt","0.4","","0.6","0.09888809835","","0.2","","0.8","0.1083731131","0.213739571","","","","","",""
"300","","bandit","145","494303","0.0-106.0-0.0","60514179","wem/bandit_either","AU849EHZNGV2Z","either","6","","","","","","","75","K","2","","0","0","1","","0.08148965902","","67","","0.1327283285","main_expt","0.4","","0.6","0.08542348091","","0.2","","0.8","0.08148965902","0.2463093088","","","","","",""
"253","","bandit","146","496063","0.0-107.0-0.0","60514179","wem/bandit_either","AU849EHZNGV2Z","either","6","","","","","","","76","L","3","","0","0","1","0.1863602012","","","68","0.1646421129","","main_expt","0.4","0.05648132023","0.6","","0.115871946","0.2","0.1863602012","0.8","","","","","","","",""
"61","","bandit","147","497631","0.0-108.0-0.0","60514179","wem/bandit_either","AU849EHZNGV2Z","either","6","","","","","","","72","H","0","img/none_selected.jpg","0","1","0","","0.1879918005","","69","","0.1879918005","main_expt","0.4","","0.6","0.07427448495","","0.2","","0.8","0.1049465522","0.1481768435","","","","","",""
"238","","bandit","148","499377","0.0-109.0-0.0","60514179","wem/bandit_either","AU849EHZNGV2Z","either","6","","","","","","","72","H","0","img/none_selected.jpg","0","0","1","0.1708527721","","","70","0.1708527721","","main_expt","0.4","0.1052870039","0.6","","0.1224614501","0.2","0.2062415021","0.8","","","","","","","",""
"284","","bandit","149","501168","0.0-110.0-0.0","60514179","wem/bandit_either","AU849EHZNGV2Z","either","6","","","","","","","72","H","0","img/none_selected.jpg","0","0","1","","0.1930923514","","71","","0.1930923514","main_expt","0.4","","0.6","0.1114501371","","0.2","","0.8","0.1687358413","0.2175562698","","","","","",""
"12","","bandit","150","502687","0.0-111.0-0.0","60514179","wem/bandit_either","AU849EHZNGV2Z","either","6","","","","","","","76","L","3","","0","0","1","0.2182173038","","","72","0.2289396243","","main_expt","0.4","0.1282799478","0.6","","0.1902964731","0.2","0.2182173038","0.8","","","","","","","",""
"174","","bandit","151","504368","0.0-112.0-0.0","60514179","wem/bandit_either","AU849EHZNGV2Z","either","6","","","","","","","74","J","1","","0","0","1","","0.1113050996","","73","","0.2223781067","main_expt","0.4","","0.6","0.1113050996","","0.2","","0.8","0.1764690901","0.1629952044","","","","","",""
"605","","bandit","152","506479","0.0-113.0-0.0","60514179","wem/bandit_either","AU849EHZNGV2Z","either","6","","","","","","","75","K","2","","0","0","1","0.1720288853","","","74","0.1664819569","","main_expt","0.4","0.1573287606","0.6","","0.1720288853","0.2","0.2291178652","0.8","","","","","","","",""
"237","","bandit","153","508223","0.0-114.0-0.0","60514179","wem/bandit_either","AU849EHZNGV2Z","either","6","","","","","","","76","L","3","","0","0","1","0.2087405931","","","75","0.1157276324","","main_expt","0.4","0.168318459","0.6","","0.098780463","0.2","0.2087405931","0.8","","","","","","","",""
"600","","bandit","154","510330","0.0-115.0-0.0","60514179","wem/bandit_either","AU849EHZNGV2Z","either","6","","","","","","","72","H","0","img/none_selected.jpg","0","0","1","0.06912044911","","","76","0.06912044911","","main_expt","0.4","0.131742089","0.6","","0.08192786134","0.2","0.1981976751","0.8","","","","","","","",""
"242","","bandit","155","512079","0.0-116.0-0.0","60514179","wem/bandit_either","AU849EHZNGV2Z","either","6","","","","","","","75","K","2","","0","0","1","","0.03620126105","","77","","0.06151132513","main_expt","0.4","","0.6","0.1382621175","","0.2","","0.8","0.03620126105","0.2302368041","","","","","",""
"78","","bandit","156","513663","0.0-117.0-0.0","60514179","wem/bandit_either","AU849EHZNGV2Z","either","6","","","","","","","76","L","3","","0","0","1","0.2538269909","","","78","0.08824794056","","main_expt","0.4","0.1351161864","0.6","","0.03362754592","0.2","0.2538269909","0.8","","","","","","","",""
"222","","bandit","157","515391","0.0-118.0-0.0","60514179","wem/bandit_either","AU849EHZNGV2Z","either","6","","","","","","","76","L","3","","0","0","1","0.221492582","","","79","0.08425003046","","main_expt","0.4","0.1125986002","0.6","","0.03917851348","0.2","0.221492582","0.8","","","","","","","",""
"301","","bandit","158","517200","0.0-119.0-0.0","60514179","wem/bandit_either","AU849EHZNGV2Z","either","6","","","","","","","72","H","0","img/none_selected.jpg","0","0","1","0.1059393704","","","80","0.1059393704","","main_expt","0.4","0.1071358869","0.6","","0.06916691586","0.2","0.2126184008","0.8","","","","","","","",""
"190","","bandit","159","518896","0.0-120.0-0.0","60514179","wem/bandit_either","AU849EHZNGV2Z","either","6","","","","","","","76","L","3","","1","0","0","0.1803612399","","","81","0.114990546","","main_expt","0.4","0.1410751298","0.6","","0.1110223174","0.2","0.1803612399","0.8","","","","","","","",""
"271","","bandit","160","520674","0.0-121.0-0.0","60514179","wem/bandit_either","AU849EHZNGV2Z","either","6","","","","","","","76","L","3","","0","0","1","0.1883980103","","","82","0.1246300745","","main_expt","0.4","0.1518454263","0.6","","0.08899533144","0.2","0.1883980103","0.8","","","","","","","",""
"508","","bandit","161","522688","0.0-122.0-0.0","60514179","wem/bandit_either","AU849EHZNGV2Z","either","6","","","","","","","76","L","3","","0","0","1","0.2099895667","","","83","0.1523433176","","main_expt","0.4","0.1285150734","0.6","","0.1383499545","0.2","0.2099895667","0.8","","","","","","","",""
"238","","bandit","162","524432","0.0-123.0-0.0","60514179","wem/bandit_either","AU849EHZNGV2Z","either","6","","","","","","","74","J","1","","0","0","1","0.1083679187","","","84","0.1230513595","","main_expt","0.4","0.1083679187","0.6","","0.1815119679","0.2","0.1760666055","0.8","","","","","","","",""
"221","","bandit","163","526160","0.0-124.0-0.0","60514179","wem/bandit_either","AU849EHZNGV2Z","either","6","","","","","","","75","K","2","","1","0","0","0.2121304898","","","85","0.1460595132","","main_expt","0.4","0.08985983991","0.6","","0.2121304898","0.2","0.2077415988","0.8","","","","","","","",""
"254","","bandit","164","527920","0.0-125.0-0.0","60514179","wem/bandit_either","AU849EHZNGV2Z","either","6","","","","","","","75","K","2","","0","0","1","","0.1931166697","","86","","0.1578730034","main_expt","0.4","","0.6","0.08377758623","","0.2","","0.8","0.1931166697","0.1940704576","","","","","",""
"285","","bandit","165","529712","0.0-126.0-0.0","60514179","wem/bandit_either","AU849EHZNGV2Z","either","6","","","","","","","75","K","2","","0","0","1","","0.1908876969","","87","","0.1329566931","main_expt","0.4","","0.6","0.08340742779","","0.2","","0.8","0.1908876969","0.1920524506","","","","","",""
"301","","bandit","166","531521","0.0-127.0-0.0","60514179","wem/bandit_either","AU849EHZNGV2Z","either","6","","","","","","","76","L","3","","1","0","0","0.2525081946","","","88","0.1156353122","","main_expt","0.4","0.06937011617","0.6","","0.1727332377","0.2","0.2525081946","0.8","","","","","","","",""
"284","","bandit","167","533312","0.0-128.0-0.0","60514179","wem/bandit_either","AU849EHZNGV2Z","either","6","","","","","","","76","L","3","","0","0","1","","0.2476280913","","89","","0.1169245856","main_expt","0.4","","0.6","0.08556693901","","0.2","","0.8","0.1747664758","0.2476280913","","","","","",""
"315","","bandit","168","535137","0.0-129.0-0.0","60514179","wem/bandit_either","AU849EHZNGV2Z","either","6","","","","","","","76","L","3","","0","0","1","0.2476417222","","","90","0.1276927611","","main_expt","0.4","0.1013294801","0.6","","0.1302891894","0.2","0.2476417222","0.8","","","","","","","",""
"125","","bandit","169","536769","0.0-130.0-0.0","60514179","wem/bandit_either","AU849EHZNGV2Z","either","6","","","","","","","75","K","2","","0","0","1","0.1143331172","","","91","0.1633868825","","main_expt","0.4","0.1567130635","0.6","","0.1143331172","0.2","0.1875867431","0.8","","","","","","","",""
"173","","bandit","170","538449","0.0-131.0-0.0","60514179","wem/bandit_either","AU849EHZNGV2Z","either","6","","","","","","","76","L","3","","0","0","1","0.1804963823","","","92","0.2172033847","","main_expt","0.4","0.1214255195","0.6","","0.1674068059","0.2","0.1804963823","0.8","","","","","","","",""
"427","","bandit","171","540385","0.0-132.0-0.0","60514179","wem/bandit_either","AU849EHZNGV2Z","either","6","","","","","","","74","J","1","","0","0","1","0.1317465968","","","93","0.2178255547","","main_expt","0.4","0.1317465968","0.6","","0.1405005834","0.2","0.1468121695","0.8","","","","","","","",""
"30","","bandit","172","541922","0.0-133.0-0.0","60514179","wem/bandit_either","AU849EHZNGV2Z","either","6","","","","","","","72","H","0","img/none_selected.jpg","1","0","0","0.2058786334","","","94","0.2058786334","","main_expt","0.4","0.1810196293","0.6","","0.1338278818","0.2","0.1270151289","0.8","","","","","","","",""
"251","","bandit","173","543679","0.0-134.0-0.0","60514179","wem/bandit_either","AU849EHZNGV2Z","either","6","","","","","","","72","H","0","img/none_selected.jpg","0","0","1","","0.2009860572","","95","","0.2009860572","main_expt","0.4","","0.6","0.1537803575","","0.2","","0.8","0.16416917","0.1049494322","","","","","",""
"254","","bandit","174","545439","0.0-135.0-0.0","60514179","wem/bandit_either","AU849EHZNGV2Z","either","6","","","","","","","72","H","0","img/none_selected.jpg","0","0","1","","0.2792576191","","96","","0.2792576191","main_expt","0.4","","0.6","0.2255368078","","0.2","","0.8","0.1075549125","0.1242023773","","","","","",""
"284","","bandit","175","547231","0.0-136.0-0.0","60514179","wem/bandit_either","AU849EHZNGV2Z","either","6","","","","","","","76","L","3","","1","0","0","0.101802889","","","97","0.291042229","","main_expt","0.4","0.1881791955","0.6","","0.07285617598","0.2","0.101802889","0.8","","","","","","","",""
"270","","bandit","176","549008","0.0-137.0-0.0","60514179","wem/bandit_either","AU849EHZNGV2Z","either","6","","","","","","","76","L","3","","0","0","1","0.08559904752","","","98","0.2919937097","","main_expt","0.4","0.1722186849","0.6","","0.1128802937","0.2","0.08559904752","0.8","","","","","","","",""
"316","","bandit","177","550831","0.0-138.0-0.0","60514179","wem/bandit_either","AU849EHZNGV2Z","either","6","","","","","","","76","L","3","","0","0","1","0.04480153982","","","99","0.338066437","","main_expt","0.4","0.2581810796","0.6","","0.07338875894","0.2","0.04480153982","0.8","","","","","","","",""
"190","","bandit","178","552529","0.0-139.0-0.0","60514179","wem/bandit_either","AU849EHZNGV2Z","either","6","","","","","","","72","H","0","img/none_selected.jpg","0","0","1","0.3466775547","","","100","0.3466775547","","main_expt","0.4","0.3094702251","0.6","","0.06256672301","0.2","0.03694367041","0.8","","","","","","","",""
"173","","bandit","179","554208","0.0-140.0-0.0","60514179","wem/bandit_either","AU849EHZNGV2Z","either","6","","","","","","","75","K","2","","0","0","1","","0.06765033746","","101","","0.3776837944","main_expt","0.4","","0.6","0.3217449289","","0.2","","0.8","0.06765033746","0.02534596886","","","","","",""
"62","","bandit","180","555776","0.0-141.0-0.0","60514179","wem/bandit_either","AU849EHZNGV2Z","either","6","","","","","","","76","L","3","","0","0","1","0.03456503798","","","102","0.3988278911","","main_expt","0.4","0.3656493725","0.6","","0.08460413752","0.2","0.03456503798","0.8","","","","","","","",""
"45","","bandit","181","557328","0.0-142.0-0.0","60514179","wem/bandit_either","AU849EHZNGV2Z","either","6","","","","","","","74","J","1","","0","0","1","0.4097417878","","","103","0.3642388176","","main_expt","0.4","0.4097417878","0.6","","0.1149622558","0.2","0.03116272615","0.8","","","","","","","",""
"206","","bandit","182","559040","0.0-143.0-0.0","60514179","wem/bandit_either","AU849EHZNGV2Z","either","6","","","","","","","76","L","3","","0","0","1","0.04034009898","","","104","0.3059376685","","main_expt","0.4","0.4005896235","0.6","","0.1223821921","0.2","0.04034009898","0.8","","","","","","","",""
"221","","bandit","183","560768","0.0-144.0-0.0","60514179","wem/bandit_either","AU849EHZNGV2Z","either","6","","","","","","","76","L","3","","0","0","1","","0.06132200156","","105","","0.2658022239","main_expt","0.4","","0.6","0.3967946647","","0.2","","0.8","0.1302837569","0.06132200156","","","","","",""
"126","","bandit","184","562400","0.0-145.0-0.0","60514179","wem/bandit_either","AU849EHZNGV2Z","either","6","","","","","","","72","H","0","img/none_selected.jpg","0","0","1","","0.2583534607","","106","","0.2583534607","main_expt","0.4","","0.6","0.3920329447","","0.2","","0.8","0.1405927316","0.03171667797","","","","","",""
"125","","bandit","185","564033","0.0-146.0-0.0","60514179","wem/bandit_either","AU849EHZNGV2Z","either","6","","","","","","","75","K","2","","0","0","1","","0.1835021143","","107","","0.2402432731","main_expt","0.4","","0.6","0.3973329777","","0.2","","0.8","0.1835021143","0.06603394544","","","","","",""
"205","","bandit","186","565744","0.0-147.0-0.0","60514179","wem/bandit_either","AU849EHZNGV2Z","either","6","","","","","","","76","L","3","","1","0","0","0.08137973005","","","108","0.2364509509","","main_expt","0.4","0.3839010997","0.6","","0.2124513917","0.2","0.08137973005","0.8","","","","","","","",""
"205","","bandit","187","567456","0.0-148.0-0.0","60514179","wem/bandit_either","AU849EHZNGV2Z","either","6","","","","","","","76","L","3","","0","0","1","0.04765661509","","","109","0.2164051194","","main_expt","0.4","0.3879107289","0.6","","0.218007314","0.2","0.04765661509","0.8","","","","","","","",""
"269","","bandit","188","569232","0.0-149.0-0.0","60514179","wem/bandit_either","AU849EHZNGV2Z","either","6","","","","","","","76","L","3","","0","0","1","0.06789381979","","","110","0.1611838666","","main_expt","0.4","0.3989855113","0.6","","0.229469423","0.2","0.06789381979","0.8","","","","","","","",""
"238","","bandit","189","570977","0.0-150.0-0.0","60514179","wem/bandit_either","AU849EHZNGV2Z","either","6","","","","","","","72","H","0","img/none_selected.jpg","0","0","1","","0.2042622235","","111","","0.2042622235","main_expt","0.4","","0.6","0.3959495959","","0.2","","0.8","0.2923436213","0.08972795074","","","","","",""
"91","","bandit","190","572577","0.0-151.0-0.0","60514179","wem/bandit_either","AU849EHZNGV2Z","either","6","","","","","","","76","L","3","","0","1","0","","0.1176683061","","112","","0.2113733305","main_expt","0.4","","0.6","0.335596647","","0.2","","0.8","0.2778802509","0.1176683061","","","","","",""
"253","","bandit","191","574338","0.0-152.0-0.0","60514179","wem/bandit_either","AU849EHZNGV2Z","either","6","","","","","","","76","L","3","","0","0","1","","0.1973953549","","113","","0.220236308","main_expt","0.4","","0.6","0.2876347753","","0.2","","0.8","0.2852166322","0.1973953549","","","","","",""
"300","","bandit","192","576145","0.0-153.0-0.0","60514179","wem/bandit_either","AU849EHZNGV2Z","either","6","","","","","","","76","L","3","","0","0","1","0.200840576","","","114","0.2453392608","","main_expt","0.4","0.2811359795","0.6","","0.3222351196","0.2","0.200840576","0.8","","","","","","","",""
"204","","bandit","193","577857","0.0-154.0-0.0","60514179","wem/bandit_either","AU849EHZNGV2Z","either","6","","","","","","","76","L","3","","0","0","1","0.2544006126","","","115","0.2311931225","","main_expt","0.4","0.2056035349","0.6","","0.2865303103","0.2","0.2544006126","0.8","","","","","","","",""
"140","","bandit","194","579505","0.0-155.0-0.0","60514179","wem/bandit_either","AU849EHZNGV2Z","either","6","","","","","","","74","J","1","","0","0","1","0.2435386161","","","116","0.2290532582","","main_expt","0.4","0.2435386161","0.6","","0.1901772154","0.2","0.2264812366","0.8","","","","","","","",""
"125","","bandit","195","581137","0.0-156.0-0.0","60514179","wem/bandit_either","AU849EHZNGV2Z","either","6","","","","","","","75","K","2","","0","0","1","","0.1854727963","","117","","0.2610634121","main_expt","0.4","","0.6","0.2523066444","","0.2","","0.8","0.1854727963","0.2535822563","","","","","",""
"204","","bandit","196","582848","0.0-157.0-0.0","60514179","wem/bandit_either","AU849EHZNGV2Z","either","6","","","","","","","76","L","3","","0","0","1","","0.288462609","","118","","0.2915584027","main_expt","0.4","","0.6","0.258758296","","0.2","","0.8","0.223078523","0.288462609","","","","","",""
"62","","bandit","197","584417","0.0-158.0-0.0","60514179","wem/bandit_either","AU849EHZNGV2Z","either","6","","","","","","","72","H","0","img/none_selected.jpg","0","0","1","","0.3240034744","","119","","0.3240034744","main_expt","0.4","","0.6","0.2513882557","","0.2","","0.8","0.2157898803","0.3077733757","","","","","",""
"251","","bandit","198","586176","0.0-159.0-0.0","60514179","wem/bandit_either","AU849EHZNGV2Z","either","6","","","","","","","76","L","3","","1","0","0","0.3470363664","","","120","0.3584552205","","main_expt","0.4","0.2178230887","0.6","","0.2055853597","0.2","0.3470363664","0.8","","","","","","","",""
"253","","bandit","199","587937","0.0-160.0-0.0","60514179","wem/bandit_either","AU849EHZNGV2Z","either","6","","","","","","","76","L","3","","1","0","0","0.36369082","","","121","0.3392259721","","main_expt","0.4","0.2249913612","0.6","","0.2308362602","0.2","0.36369082","0.8","","","","","","","",""
"300","","bandit","200","589745","0.0-161.0-0.0","60514179","wem/bandit_either","AU849EHZNGV2Z","either","6","","","","","","","76","L","3","","0","0","1","0.3740977319","","","122","0.3211990091","","main_expt","0.4","0.2135386538","0.6","","0.1858821776","0.2","0.3740977319","0.8","","","","","","","",""
"333","","bandit","201","591585","0.0-162.0-0.0","60514179","wem/bandit_either","AU849EHZNGV2Z","either","6","","","","","","","76","L","3","","1","0","0","0.3617230251","","","123","0.3082515077","","main_expt","0.4","0.2742148462","0.6","","0.1948645322","0.2","0.3617230251","0.8","","","","","","","",""
"332","","bandit","202","593425","0.0-163.0-0.0","60514179","wem/bandit_either","AU849EHZNGV2Z","either","6","","","","","","","76","L","3","","0","0","1","0.3189133642","","","124","0.3337980485","","main_expt","0.4","0.3092488957","0.6","","0.1875433284","0.2","0.3189133642","0.8","","","","","","","",""
"270","","bandit","203","595202","0.0-164.0-0.0","60514179","wem/bandit_either","AU849EHZNGV2Z","either","6","","","","","","","76","L","3","","0","0","1","0.3134342975","","","125","0.2815584253","","main_expt","0.4","0.2832498899","0.6","","0.1805360773","0.2","0.3134342975","0.8","","","","","","","",""
"299","","bandit","204","597009","0.0-165.0-0.0","60514179","wem/bandit_either","AU849EHZNGV2Z","either","6","","","","","","","76","L","3","","1","0","0","0.2889117865","","","126","0.2544389989","","main_expt","0.4","0.321902755","0.6","","0.2199741614","0.2","0.2889117865","0.8","","","","","","","",""
"253","","bandit","205","598769","0.0-166.0-0.0","60514179","wem/bandit_either","AU849EHZNGV2Z","either","6","","","","","","","76","L","3","","0","0","1","","0.3101500906","","127","","0.217883989","main_expt","0.4","","0.6","0.3163630435","","0.2","","0.8","0.212963778","0.3101500906","","","","","",""
"300","","bandit","206","600577","0.0-167.0-0.0","60514179","wem/bandit_either","AU849EHZNGV2Z","either","6","","","","","","","76","L","3","","0","0","1","0.3257933697","","","128","0.1941215274","","main_expt","0.4","0.3242789072","0.6","","0.1853882534","0.2","0.3257933697","0.8","","","","","","","",""
"205","","bandit","207","602289","0.0-168.0-0.0","60514179","wem/bandit_either","AU849EHZNGV2Z","either","6","","","","","","","76","L","3","","0","0","1","0.2767822115","","","129","0.2093197904","","main_expt","0.4","0.3430844202","0.6","","0.1486900389","0.2","0.2767822115","0.8","","","","","","","",""
"317","","bandit","208","604113","0.0-169.0-0.0","60514179","wem/bandit_either","AU849EHZNGV2Z","either","6","","","","","","","72","H","0","img/none_selected.jpg","0","0","1","","0.2325895014","","130","","0.2325895014","main_expt","0.4","","0.6","0.3487272729","","0.2","","0.8","0.1581202816","0.3389859305","","","","","",""
"142","","bandit","209","605763","0.0-170.0-0.0","60514179","wem/bandit_either","AU849EHZNGV2Z","either","6","","","","","","","75","K","2","","0","1","0","","0.1189605486","","131","","0.2680880231","main_expt","0.4","","0.6","0.3850752379","","0.2","","0.8","0.1189605486","0.2807576759","","","","","",""
"252","","bandit","210","607522","0.0-171.0-0.0","60514179","wem/bandit_either","AU849EHZNGV2Z","either","6","","","","","","","75","K","2","","0","0","1","","0.08638656351","","132","","0.2053564998","main_expt","0.4","","0.6","0.3547422913","","0.2","","0.8","0.08638656351","0.2044414959","","","","","",""
"284","","bandit","211","609314","0.0-172.0-0.0","60514179","wem/bandit_either","AU849EHZNGV2Z","either","6","","","","","","","75","K","2","","0","0","1","","0.104542274","","133","","0.2102644512","main_expt","0.4","","0.6","0.3256782816","","0.2","","0.8","0.104542274","0.2352631215","","","","","",""
"235","","bandit","212","611058","0.0-173.0-0.0","60514179","wem/bandit_either","AU849EHZNGV2Z","either","6","","","","","","","74","J","1","","0","0","1","","0.2479378245","","134","","0.2028105977","main_expt","0.4","","0.6","0.2479378245","","0.2","","0.8","0.1401790922","0.2808822736","","","","","",""
"172","","bandit","213","612738","0.0-174.0-0.0","60514179","wem/bandit_either","AU849EHZNGV2Z","either","6","","","","","","","76","L","3","","1","0","0","0.3053704558","","","135","0.1556880781","","main_expt","0.4","0.24301602","0.6","","0.1818128853","0.2","0.3053704558","0.8","","","","","","","",""
"220","","bandit","214","614466","0.0-175.0-0.0","60514179","wem/bandit_either","AU849EHZNGV2Z","either","6","","","","","","","76","L","3","","0","0","1","","0.3140058771","","136","","0.1428421262","main_expt","0.4","","0.6","0.2630427063","","0.2","","0.8","0.1583738081","0.3140058771","","","","","",""
"252","","bandit","215","616227","0.0-176.0-0.0","60514179","wem/bandit_either","AU849EHZNGV2Z","either","6","","","","","","","76","L","3","","0","0","1","","0.323699752","","137","","0.1039390038","main_expt","0.4","","0.6","0.3053425806","","0.2","","0.8","0.1497920091","0.323699752","","","","","",""
"219","","bandit","216","617954","0.0-177.0-0.0","60514179","wem/bandit_either","AU849EHZNGV2Z","either","6","","","","","","","75","K","2","","0","0","1","","0.1128601551","","138","","0.07132433681","main_expt","0.4","","0.6","0.3588623722","","0.2","","0.8","0.1128601551","0.3435108126","","","","","",""
"236","","bandit","217","619698","0.0-178.0-0.0","60514179","wem/bandit_either","AU849EHZNGV2Z","either","6","","","","","","","76","L","3","","0","0","1","","0.3505637202","","139","","0.1047165976","main_expt","0.4","","0.6","0.2762704672","","0.2","","0.8","0.1073604677","0.3505637202","","","","","",""
"107","","bandit","218","621314","0.0-179.0-0.0","60514179","wem/bandit_either","AU849EHZNGV2Z","either","6","","","","","","","72","H","0","img/none_selected.jpg","0","0","1","","0.09043849554","","140","","0.09043849554","main_expt","0.4","","0.6","0.2475753012","","0.2","","0.8","0.1376710563","0.4185251601","","","","","",""
"124","","bandit","219","622947","0.0-180.0-0.0","60514179","wem/bandit_either","AU849EHZNGV2Z","either","6","","","","","","","76","L","3","","0","0","1","0.4225289085","","","141","0.05096505815","","main_expt","0.4","0.2436306075","0.6","","0.1412662962","0.2","0.4225289085","0.8","","","","","","","",""
"124","","bandit","220","624578","0.0-181.0-0.0","60514179","wem/bandit_either","AU849EHZNGV2Z","either","6","","","","","","","74","J","1","","0","0","1","","0.1998899021","","142","","0.02973759478","main_expt","0.4","","0.6","0.1998899021","","0.2","","0.8","0.1543424817","0.455259632","","","","","",""
"44","","bandit","221","626130","0.0-182.0-0.0","60514179","wem/bandit_either","AU849EHZNGV2Z","either","6","","","","","","","75","K","2","","0","0","1","","0.1552636118","","143","","0.04457260366","main_expt","0.4","","0.6","0.2568100034","","0.2","","0.8","0.1552636118","0.4287003803","","","","","",""
"46","","bandit","222","627683","0.0-183.0-0.0","60514179","wem/bandit_either","AU849EHZNGV2Z","either","6","","","","","","","76","L","3","","1","0","0","0.4260506414","","","144","0.04060115041","","main_expt","0.4","0.2859833531","0.6","","0.2241753426","0.2","0.4260506414","0.8","","","","","","","",""
"220","","bandit","223","629410","0.0-184.0-0.0","60514179","wem/bandit_either","AU849EHZNGV2Z","either","6","","","","","","","76","L","3","","0","0","1","0.4202170594","","","145","0.06712401514","","main_expt","0.4","0.2080640158","0.6","","0.2484131349","0.2","0.4202170594","0.8","","","","","","","",""
"189","","bandit","224","631106","0.0-185.0-0.0","60514179","wem/bandit_either","AU849EHZNGV2Z","either","6","","","","","","","76","L","3","","1","0","0","0.4333226383","","","146","0.08780921534","","main_expt","0.4","0.2469639643","0.6","","0.2905032103","0.2","0.4333226383","0.8","","","","","","","",""
"317","","bandit","225","632930","0.0-186.0-0.0","60514179","wem/bandit_either","AU849EHZNGV2Z","either","6","","","","","","","76","L","3","","0","1","0","","0.4340954059","","147","","0.1333368233","main_expt","0.4","","0.6","0.2169279296","","0.2","","0.8","0.2846703457","0.4340954059","","","","","",""
"301","","bandit","226","634738","0.0-187.0-0.0","60514179","wem/bandit_either","AU849EHZNGV2Z","either","6","","","","","","","76","L","3","","0","0","1","0.3903754431","","","148","0.09264147873","","main_expt","0.4","0.1248284812","0.6","","0.3010433131","0.2","0.3903754431","0.8","","","","","","","",""
"285","","bandit","227","636530","0.0-188.0-0.0","60514179","wem/bandit_either","AU849EHZNGV2Z","either","6","","","","","","","76","L","3","","0","0","1","0.4161192262","","","149","0.123708687","","main_expt","0.4","0.1498862571","0.6","","0.3421268102","0.2","0.4161192262","0.8","","","","","","","",""
"302","","bandit","228","638339","0.0-189.0-0.0","60514179","wem/bandit_either","AU849EHZNGV2Z","either","6","","","","","","","75","K","2","","0","1","0","","0.3382865341","","150","","0.1087811601","main_expt","0.4","","0.6","0.2044632824","","0.2","","0.8","0.3382865341","0.4545257836","","","","","",""
"284","","bandit","229","640131","0.0-190.0-0.0","60514179","wem/bandit_either","AU849EHZNGV2Z","either","6","","","","","","","75","K","2","","0","0","1","","0.3031951358","","151","","0.1640336927","main_expt","0.4","","0.6","0.1630699797","","0.2","","0.8","0.3031951358","0.4553704948","","","","","",""
"349","","bandit","230","641987","0.0-191.0-0.0","60514179","wem/bandit_either","AU849EHZNGV2Z","either","6","","","","","","","75","K","2","","0","0","1","","0.3163498213","","152","","0.1474195158","main_expt","0.4","","0.6","0.1534962237","","0.2","","0.8","0.3163498213","0.4692720684","","","","","",""
"140","","bandit","231","643635","0.0-192.0-0.0","60514179","wem/bandit_either","AU849EHZNGV2Z","either","6","","","","","","","76","L","3","","1","0","0","0.4794448159","","","153","0.1200421148","","main_expt","0.4","0.1506701345","0.6","","0.3205280093","0.2","0.4794448159","0.8","","","","","","","",""
"381","","bandit","232","645523","0.0-193.0-0.0","60514179","wem/bandit_either","AU849EHZNGV2Z","either","6","","","","","","","76","L","3","","1","0","0","0.4762011242","","","154","0.1295208369","","main_expt","0.4","0.1810992197","0.6","","0.2780981807","0.2","0.4762011242","0.8","","","","","","","",""
"364","","bandit","233","647395","0.0-194.0-0.0","60514179","wem/bandit_either","AU849EHZNGV2Z","either","6","","","","","","","76","L","3","","1","0","0","0.4797315341","","","155","0.1189574303","","main_expt","0.4","0.2574031695","0.6","","0.2543788853","0.2","0.4797315341","0.8","","","","","","","",""
"332","","bandit","234","649236","0.0-195.0-0.0","60514179","wem/bandit_either","AU849EHZNGV2Z","either","6","","","","","","","76","L","3","","1","0","0","0.4815153028","","","156","0.1511338071","","main_expt","0.4","0.1838662476","0.6","","0.2601772157","0.2","0.4815153028","0.8","","","","","","","",""
"283","","bandit","235","651027","0.0-196.0-0.0","60514179","wem/bandit_either","AU849EHZNGV2Z","either","6","","","","","","","76","L","3","","0","0","1","0.4769669351","","","157","0.1494559257","","main_expt","0.4","0.1951262555","0.6","","0.27050514","0.2","0.4769669351","0.8","","","","","","","",""
"252","","bandit","236","652787","0.0-197.0-0.0","60514179","wem/bandit_either","AU849EHZNGV2Z","either","6","","","","","","","76","L","3","","1","0","0","0.4819637572","","","158","0.1398300683","","main_expt","0.4","0.1711173681","0.6","","0.2912044809","0.2","0.4819637572","0.8","","","","","","","",""
"236","","bandit","237","654531","0.0-198.0-0.0","60514179","wem/bandit_either","AU849EHZNGV2Z","either","6","","","","","","","76","L","3","","0","0","1","","0.4802617926","","159","","0.1482700517","main_expt","0.4","","0.6","0.1262927185","","0.2","","0.8","0.2863852675","0.4802617926","","","","","",""
"604","","bandit","238","656643","0.0-199.0-0.0","60514179","wem/bandit_either","AU849EHZNGV2Z","either","6","","","","","","","76","L","3","","1","0","0","0.4834703177","","","160","0.1327856751","","main_expt","0.4","0.1289005464","0.6","","0.3188379944","0.2","0.4834703177","0.8","","","","","","","",""
"299","","bandit","239","658452","0.0-200.0-0.0","60514179","wem/bandit_either","AU849EHZNGV2Z","either","6","","","","","","","76","L","3","","1","0","0","0.4783639554","","","161","0.1936248495","","main_expt","0.4","0.07062595825","0.6","","0.3918259889","0.2","0.4783639554","0.8","","","","","","","",""
"332","","bandit","240","660293","0.0-201.0-0.0","60514179","wem/bandit_either","AU849EHZNGV2Z","either","6","","","","","","","76","L","3","","1","0","0","0.4702379588","","","162","0.1917288119","","main_expt","0.4","0.08554885259","0.6","","0.3825352776","0.2","0.4702379588","0.8","","","","","","","",""
"299","","bandit","241","662100","0.0-202.0-0.0","60514179","wem/bandit_either","AU849EHZNGV2Z","either","6","","","","","","","76","L","3","","0","0","1","","0.4761999765","","163","","0.2410074379","main_expt","0.4","","0.6","0.05790820845","","0.2","","0.8","0.3500114378","0.4761999765","","","","","",""
"395","","bandit","242","664004","0.0-203.0-0.0","60514179","wem/bandit_either","AU849EHZNGV2Z","either","6","","","","","","","76","L","3","","1","0","0","0.4683988395","","","164","0.2717164652","","main_expt","0.4","0.04744410613","0.6","","0.3138306729","0.2","0.4683988395","0.8","","","","","","","",""
"284","","bandit","243","665796","0.0-204.0-0.0","60514179","wem/bandit_either","AU849EHZNGV2Z","either","6","","","","","","","76","L","3","","0","0","1","0.4594806004","","","165","0.3360488911","","main_expt","0.4","0.07721988326","0.6","","0.3066591237","0.2","0.4594806004","0.8","","","","","","","",""
"236","","bandit","244","667539","0.0-205.0-0.0","60514179","wem/bandit_either","AU849EHZNGV2Z","either","6","","","","","","","76","L","3","","0","0","1","","0.4769271284","","166","","0.3288768439","main_expt","0.4","","0.6","0.09276645858","","0.2","","0.8","0.359337808","0.4769271284","","","","","",""
"285","","bandit","245","669331","0.0-206.0-0.0","60514179","wem/bandit_either","AU849EHZNGV2Z","either","6","","","","","","","76","L","3","","0","0","1","0.4824675089","","","167","0.341079324","","main_expt","0.4","0.1092251717","0.6","","0.3888119778","0.2","0.4824675089","0.8","","","","","","","",""
"190","","bandit","246","671028","0.0-207.0-0.0","60514179","wem/bandit_either","AU849EHZNGV2Z","either","6","","","","","","","75","K","2","","0","0","1","","0.3188253523","","168","","0.2972081376","main_expt","0.4","","0.6","0.09704797424","","0.2","","0.8","0.3188253523","0.4731218304","","","","","",""
"170","","bandit","247","672707","0.0-208.0-0.0","60514179","wem/bandit_either","AU849EHZNGV2Z","either","6","","","","","","","72","H","0","img/none_selected.jpg","0","0","1","","0.2716537329","","169","","0.2716537329","main_expt","0.4","","0.6","0.1131958007","","0.2","","0.8","0.3035082617","0.4558692975","","","","","",""
"173","","bandit","248","674388","0.0-209.0-0.0","60514179","wem/bandit_either","AU849EHZNGV2Z","either","6","","","","","","","74","J","1","","0","0","1","","0.1636150477","","170","","0.3705489528","main_expt","0.4","","0.6","0.1636150477","","0.2","","0.8","0.3540810543","0.424927817","","","","","",""
"108","","bandit","249","676005","0.0-210.0-0.0","60514179","wem/bandit_either","AU849EHZNGV2Z","either","6","","","","","","","76","L","3","","1","0","0","0.4254050478","","","171","0.3259531709","","main_expt","0.4","0.1889182236","0.6","","0.2912941695","0.2","0.4254050478","0.8","","","","","","","",""
"204","","bandit","250","677716","0.0-211.0-0.0","60514179","wem/bandit_either","AU849EHZNGV2Z","either","6","","","","","","","76","L","3","","0","0","1","0.4319935488","","","172","0.3253578443","","main_expt","0.4","0.1494540944","0.6","","0.2964718019","0.2","0.4319935488","0.8","","","","","","","",""
"268","","bandit","251","679492","0.0-212.0-0.0","60514179","wem/bandit_either","AU849EHZNGV2Z","either","6","","","","","","","76","L","3","","0","0","1","0.4157756128","","","173","0.3133285256","","main_expt","0.4","0.1700291406","0.6","","0.2411205861","0.2","0.4157756128","0.8","","","","","","","",""
"205","","bandit","252","681206","0.0-213.0-0.0","60514179","wem/bandit_either","AU849EHZNGV2Z","either","6","","","","","","","72","H","0","img/none_selected.jpg","0","0","1","","0.3470844982","","174","","0.3470844982","main_expt","0.4","","0.6","0.2007600912","","0.2","","0.8","0.2132737127","0.3650518631","","","","","",""
"330","","bandit","253","683044","0.0-214.0-0.0","60514179","wem/bandit_either","AU849EHZNGV2Z","either","6","","","","","","","75","K","2","","1","0","0","0.2722172758","","","175","0.3615725976","","main_expt","0.4","0.1613291475","0.6","","0.2722172758","0.2","0.3583375904","0.8","","","","","","","",""
"219","","bandit","254","684772","0.0-215.0-0.0","60514179","wem/bandit_either","AU849EHZNGV2Z","either","6","","","","","","","75","K","2","","0","1","0","","0.3158297255","","176","","0.3592449917","main_expt","0.4","","0.6","0.1618540135","","0.2","","0.8","0.3158297255","0.3849487833","","","","","",""
"188","","bandit","255","686468","0.0-216.0-0.0","60514179","wem/bandit_either","AU849EHZNGV2Z","either","6","","","","","","","75","K","2","","0","0","1","0.3033070912","","","177","0.3614776984","","main_expt","0.4","0.1337509382","0.6","","0.3033070912","0.2","0.3741193846","0.8","","","","","","","",""
"284","","bandit","256","688260","0.0-217.0-0.0","60514179","wem/bandit_either","AU849EHZNGV2Z","either","6","","","","","","","75","K","2","","0","0","1","","0.3070990366","","178","","0.4042649322","main_expt","0.4","","0.6","0.172909152","","0.2","","0.8","0.3070990366","0.3704436283","","","","","",""
"140","","bandit","257","689908","0.0-218.0-0.0","60514179","wem/bandit_either","AU849EHZNGV2Z","either","6","","","","","","","76","L","3","","0","0","1","","0.3718647044","","179","","0.3626499081","main_expt","0.4","","0.6","0.2306318455","","0.2","","0.8","0.349206168","0.3718647044","","","","","",""
"1","","bandit","258","691416","0.0-219.0-0.0","60514179","wem/bandit_either","AU849EHZNGV2Z","either","6","","","","","","","75","K","2","","0","0","1","","0.3533593609","","180","","0.365831292","main_expt","0.4","","0.6","0.2531752843","","0.2","","0.8","0.3533593609","0.3144845341","","","","","",""
"22","","bandit","259","692948","0.0-220.0-0.0","60514179","wem/bandit_either","AU849EHZNGV2Z","either","6","","","","","","","74","J","1","","0","0","1","","0.2995137733","","181","","0.3720079561","main_expt","0.4","","0.6","0.2995137733","","0.2","","0.8","0.3792633926","0.3328992573","","","","","",""
"427","","bandit","260","694884","0.0-221.0-0.0","60514179","wem/bandit_either","AU849EHZNGV2Z","either","6","","","","","","","75","K","2","","0","1","0","","0.4170401524","","182","","0.3747751333","main_expt","0.4","","0.6","0.2818604164","","0.2","","0.8","0.4170401524","0.3443004049","","","","","",""
"235","","bandit","261","696628","0.0-222.0-0.0","60514179","wem/bandit_either","AU849EHZNGV2Z","either","6","","","","","","","75","K","2","","0","1","0","","0.4349898381","","183","","0.3772869326","main_expt","0.4","","0.6","0.2706787236","","0.2","","0.8","0.4349898381","0.3572445505","","","","","",""
"251","","bandit","262","698388","0.0-223.0-0.0","60514179","wem/bandit_either","AU849EHZNGV2Z","either","6","","","","","","","75","K","2","","1","0","0","0.4355724899","","","184","0.3719200221","","main_expt","0.4","0.2788381055","0.6","","0.4355724899","0.2","0.358140682","0.8","","","","","","","",""
"218","","bandit","263","700116","0.0-224.0-0.0","60514179","wem/bandit_either","AU849EHZNGV2Z","either","6","","","","","","","75","K","2","","0","0","1","","0.443517249","","185","","0.3759280431","main_expt","0.4","","0.6","0.2591604306","","0.2","","0.8","0.443517249","0.2938856532","","","","","",""
"156","","bandit","264","701781","0.0-225.0-0.0","60514179","wem/bandit_either","AU849EHZNGV2Z","either","6","","","","","","","75","K","2","","0","1","0","","0.4185550765","","186","","0.3686405037","main_expt","0.4","","0.6","0.1717283936","","0.2","","0.8","0.4185550765","0.2570442146","","","","","",""
"170","","bandit","265","703460","0.0-226.0-0.0","60514179","wem/bandit_either","AU849EHZNGV2Z","either","6","","","","","","","75","K","2","","0","0","1","","0.4582246802","","187","","0.3693778387","main_expt","0.4","","0.6","0.1399016055","","0.2","","0.8","0.4582246802","0.2781151114","","","","","",""
"202","","bandit","266","705171","0.0-227.0-0.0","60514179","wem/bandit_either","AU849EHZNGV2Z","either","6","","","","","","","75","K","2","","0","0","1","","0.4499637214","","188","","0.3858781765","main_expt","0.4","","0.6","0.116743447","","0.2","","0.8","0.4499637214","0.2510368257","","","","","",""
"220","","bandit","267","706899","0.0-228.0-0.0","60514179","wem/bandit_either","AU849EHZNGV2Z","either","6","","","","","","","76","L","3","","0","0","1","0.2299291889","","","189","0.353665234","","main_expt","0.4","0.09810356538","0.6","","0.4681283031","0.2","0.2299291889","0.8","","","","","","","",""
"428","","bandit","268","708836","0.0-229.0-0.0","60514179","wem/bandit_either","AU849EHZNGV2Z","either","6","","","","","","","75","K","2","","1","0","0","0.4672384316","","","190","0.3702546744","","main_expt","0.4","0.1333212727","0.6","","0.4672384316","0.2","0.2957770397","0.8","","","","","","","",""
"220","","bandit","269","710565","0.0-230.0-0.0","60514179","wem/bandit_either","AU849EHZNGV2Z","either","6","","","","","","","75","K","2","","0","1","0","","0.4633056668","","191","","0.3373283559","main_expt","0.4","","0.6","0.07289491444","","0.2","","0.8","0.4633056668","0.2806998676","","","","","",""
"285","","bandit","270","712359","0.0-231.0-0.0","60514179","wem/bandit_either","AU849EHZNGV2Z","either","6","","","","","","","75","K","2","","0","1","0","","0.4701423021","","192","","0.3717228864","main_expt","0.4","","0.6","0.09060717316","","0.2","","0.8","0.4701423021","0.2578649702","","","","","",""
"298","","bandit","271","714165","0.0-232.0-0.0","60514179","wem/bandit_either","AU849EHZNGV2Z","either","6","","","","","","","75","K","2","","0","0","1","0.4625827917","","","193","0.3861484819","","main_expt","0.4","0.1038106097","0.6","","0.4625827917","0.2","0.3019093773","0.8","","","","","","","",""
"237","","bandit","272","715910","0.0-233.0-0.0","60514179","wem/bandit_either","AU849EHZNGV2Z","either","6","","","","","","","75","K","2","","0","0","1","","0.4480064119","","194","","0.3884838939","main_expt","0.4","","0.6","0.1222204007","","0.2","","0.8","0.4480064119","0.3028603149","","","","","",""
"282","","bandit","273","717701","0.0-234.0-0.0","60514179","wem/bandit_either","AU849EHZNGV2Z","either","6","","","","","","","75","K","2","","0","0","1","0.4263193963","","","195","0.4058549971","","main_expt","0.4","0.1230179676","0.6","","0.4263193963","0.2","0.2933095063","0.8","","","","","","","",""
"252","","bandit","274","719461","0.0-235.0-0.0","60514179","wem/bandit_either","AU849EHZNGV2Z","either","6","","","","","","","75","K","2","","0","0","1","","0.4399191733","","196","","0.3894648227","main_expt","0.4","","0.6","0.1972068901","","0.2","","0.8","0.4399191733","0.3333663608","","","","","",""
"172","","bandit","275","721141","0.0-236.0-0.0","60514179","wem/bandit_either","AU849EHZNGV2Z","either","6","","","","","","","76","L","3","","0","0","1","0.3472763543","","","197","0.3452919481","","main_expt","0.4","0.2091218652","0.6","","0.4303685687","0.2","0.3472763543","0.8","","","","","","","",""
"237","","bandit","276","722886","0.0-237.0-0.0","60514179","wem/bandit_either","AU849EHZNGV2Z","either","6","","","","","","","74","J","1","","0","0","1","0.2316117542","","","198","0.3571156804","","main_expt","0.4","0.2316117542","0.6","","0.4166638701","0.2","0.3420385624","0.8","","","","","","","",""
"155","","bandit","277","724549","0.0-238.0-0.0","60514179","wem/bandit_either","AU849EHZNGV2Z","either","6","","","","","","","72","H","0","img/none_selected.jpg","0","0","1","","0.3761278261","","199","","0.3761278261","main_expt","0.4","","0.6","0.1983173389","","0.2","","0.8","0.4166192342","0.3009927129","","","","","",""
"251","","bandit","278","726309","0.0-239.0-0.0","60514179","wem/bandit_either","AU849EHZNGV2Z","either","6","","","","","","","75","K","2","","0","0","1","","0.4065109498","","200","","0.3623939384","main_expt","0.4","","0.6","0.2275108597","","0.2","","0.8","0.4065109498","0.2834367318","","","","","",""
"284","","bandit","279","728102","0.0-240.0-0.0","60514179","wem/bandit_either","AU849EHZNGV2Z","either","6","","","","","","","76","L","3","","0","0","1","0.2305195973","","","201","0.3470966653","","main_expt","0.4","0.2753755663","0.6","","0.4210367682","0.2","0.2305195973","0.8","","","","","","","",""
"139","","bandit","280","729750","0.0-241.0-0.0","60514179","wem/bandit_either","AU849EHZNGV2Z","either","6","","","","","","","75","K","2","","0","0","1","","0.4059774394","","202","","0.3738670455","main_expt","0.4","","0.6","0.2867984519","","0.2","","0.8","0.4059774394","0.236439039","","","","","",""
"251","","bandit","281","731510","0.0-242.0-0.0","60514179","wem/bandit_either","AU849EHZNGV2Z","either","6","","","","","","","76","L","3","","0","0","1","0.207292508","","","203","0.4434414113","","main_expt","0.4","0.227681123","0.6","","0.4217634448","0.2","0.207292508","0.8","","","","","","","",""
"220","","bandit","282","733239","0.0-243.0-0.0","60514179","wem/bandit_either","AU849EHZNGV2Z","either","6","","","","","","","74","J","1","","0","0","1","0.2421814767","","","204","0.4363530878","","main_expt","0.4","0.2421814767","0.6","","0.417590799","0.2","0.2706274655","0.8","","","","","","","",""
"218","","bandit","283","734966","0.0-244.0-0.0","60514179","wem/bandit_either","AU849EHZNGV2Z","either","6","","","","","","","72","H","0","img/none_selected.jpg","0","1","0","","0.4390009565","","205","","0.4390009565","main_expt","0.4","","0.6","0.2250127273","","0.2","","0.8","0.3892328218","0.2688171721","","","","","",""
"251","","bandit","284","736726","0.0-245.0-0.0","60514179","wem/bandit_either","AU849EHZNGV2Z","either","6","","","","","","","72","H","0","img/none_selected.jpg","0","0","1","","0.4606838579","","206","","0.4606838579","main_expt","0.4","","0.6","0.2148063869","","0.2","","0.8","0.3877758809","0.2774640617","","","","","",""
"251","","bandit","285","738486","0.0-246.0-0.0","60514179","wem/bandit_either","AU849EHZNGV2Z","either","6","","","","","","","72","H","0","img/none_selected.jpg","1","0","0","0.4679198071","","","207","0.4679198071","","main_expt","0.4","0.2370073307","0.6","","0.3344078408","0.2","0.31303597","0.8","","","","","","","",""
"267","","bandit","286","740262","0.0-247.0-0.0","60514179","wem/bandit_either","AU849EHZNGV2Z","either","6","","","","","","","72","H","0","img/none_selected.jpg","0","0","1","0.4731710197","","","208","0.4731710197","","main_expt","0.4","0.1736764344","0.6","","0.3285414067","0.2","0.3187850143","0.8","","","","","","","",""
"203","","bandit","287","741974","0.0-248.0-0.0","60514179","wem/bandit_either","AU849EHZNGV2Z","either","6","","","","","","","72","H","0","img/none_selected.jpg","1","0","0","0.472507437","","","209","0.472507437","","main_expt","0.4","0.2033963155","0.6","","0.337659841","0.2","0.3031297305","0.8","","","","","","","",""
"268","","bandit","288","743751","0.0-249.0-0.0","60514179","wem/bandit_either","AU849EHZNGV2Z","either","6","","","","","","","72","H","0","img/none_selected.jpg","0","0","1","","0.4759946166","","210","","0.4759946166","main_expt","0.4","","0.6","0.1849029676","","0.2","","0.8","0.322880172","0.3593083662","","","","","",""
"234","","bandit","289","745494","0.0-250.0-0.0","60514179","wem/bandit_either","AU849EHZNGV2Z","either","6","","","","","","","72","H","0","img/none_selected.jpg","0","0","1","0.4838002785","","","211","0.4838002785","","main_expt","0.4","0.08033524441","0.6","","0.3440981268","0.2","0.3758292662","0.8","","","","","","","",""
"252","","bandit","290","747254","0.0-251.0-0.0","60514179","wem/bandit_either","AU849EHZNGV2Z","either","6","","","","","","","72","H","0","img/none_selected.jpg","0","1","0","","0.4871609062","","212","","0.4871609062","main_expt","0.4","","0.6","0.1024936548","","0.2","","0.8","0.3135232579","0.3771764803","","","","","",""
"252","","bandit","291","749014","0.0-252.0-0.0","60514179","wem/bandit_either","AU849EHZNGV2Z","either","6","","","","","","","72","H","0","img/none_selected.jpg","0","0","1","","0.4829725273","","213","","0.4829725273","main_expt","0.4","","0.6","0.1380366818","","0.2","","0.8","0.328558382","0.3935517348","","","","","",""
"252","","bandit","292","750774","0.0-253.0-0.0","60514179","wem/bandit_either","AU849EHZNGV2Z","either","6","","","","","","","72","H","0","img/none_selected.jpg","0","0","1","0.4742933803","","","214","0.4742933803","","main_expt","0.4","0.1206441992","0.6","","0.3024402918","0.2","0.3792377037","0.8","","","","","","","",""
"236","","bandit","293","752518","0.0-254.0-0.0","60514179","wem/bandit_either","AU849EHZNGV2Z","either","6","","","","","","","72","H","0","img/none_selected.jpg","0","0","1","","0.4754417465","","215","","0.4754417465","main_expt","0.4","","0.6","0.1320715796","","0.2","","0.8","0.3024001881","0.3364308411","","","","","",""
"253","","bandit","294","754279","0.0-255.0-0.0","60514179","wem/bandit_either","AU849EHZNGV2Z","either","6","","","","","","","74","J","1","","0","0","1","0.1152906885","","","216","0.4764866221","","main_expt","0.4","0.1152906885","0.6","","0.2975117226","0.2","0.3348871659","0.8","","","","","","","",""
"458","","bandit","295","756246","0.0-256.0-0.0","60514179","wem/bandit_either","AU849EHZNGV2Z","either","6","","","","","","","75","K","2","","0","1","0","","0.3331298207","","217","","0.4727866334","main_expt","0.4","","0.6","0.1191406027","","0.2","","0.8","0.3331298207","0.321293363","","","","","",""
"219","","bandit","296","757974","0.0-257.0-0.0","60514179","wem/bandit_either","AU849EHZNGV2Z","either","6","","","","","","","75","K","2","","0","1","0","","0.2905667849","","218","","0.4664653133","main_expt","0.4","","0.6","0.1177717736","","0.2","","0.8","0.2905667849","0.3530973922","","","","","",""
"268","","bandit","297","759750","0.0-258.0-0.0","60514179","wem/bandit_either","AU849EHZNGV2Z","either","6","","","","","","","75","K","2","","0","0","1","","0.2701708387","","219","","0.4636837267","main_expt","0.4","","0.6","0.1178729669","","0.2","","0.8","0.2701708387","0.3837093308","","","","","",""
"251","","bandit","298","761510","0.0-259.0-0.0","60514179","wem/bandit_either","AU849EHZNGV2Z","either","6","","","","","","","75","K","2","","0","0","1","","0.2395453957","","220","","0.4599900571","main_expt","0.4","","0.6","0.1284790336","","0.2","","0.8","0.2395453957","0.3651541458","","","","","",""
"189","","bandit","299","763207","0.0-260.0-0.0","60514179","wem/bandit_either","AU849EHZNGV2Z","either","6","","","","","","","72","H","0","img/none_selected.jpg","0","1","0","","0.4490722186","","221","","0.4490722186","main_expt","0.4","","0.6","0.147465279","","0.2","","0.8","0.2770622605","0.254085412","","","","","",""
"221","","bandit","300","764936","0.0-261.0-0.0","60514179","wem/bandit_either","AU849EHZNGV2Z","either","6","","","","","","","72","H","0","img/none_selected.jpg","0","0","1","0.4253353094","","","222","0.4253353094","","main_expt","0.4","0.1441925756","0.6","","0.3390746663","0.2","0.2590796483","0.8","","","","","","","",""
"298","","bandit","301","766743","0.0-262.0-0.0","60514179","wem/bandit_either","AU849EHZNGV2Z","either","6","","","","","","","76","L","3","","0","0","1","0.2640852941","","","223","0.4559825987","","main_expt","0.4","0.1731110736","0.6","","0.384843876","0.2","0.2640852941","0.8","","","","","","","",""
"124","","bandit","302","768375","0.0-263.0-0.0","60514179","wem/bandit_either","AU849EHZNGV2Z","either","6","","","","","","","75","K","2","","0","0","1","","0.4367619307","","224","","0.464560515","main_expt","0.4","","0.6","0.1124600034","","0.2","","0.8","0.4367619307","0.2636590797","","","","","",""
"187","","bandit","303","770070","0.0-264.0-0.0","60514179","wem/bandit_either","AU849EHZNGV2Z","either","6","","","","","","","72","H","0","img/none_selected.jpg","0","0","1","","0.4528378766","","225","","0.4528378766","main_expt","0.4","","0.6","0.1174510337","","0.2","","0.8","0.42055701","0.3110444069","","","","","",""
"267","","bandit","304","771846","0.0-265.0-0.0","60514179","wem/bandit_either","AU849EHZNGV2Z","either","6","","","","","","","72","H","0","img/none_selected.jpg","0","0","1","","0.4585160156","","226","","0.4585160156","main_expt","0.4","","0.6","0.1494320736","","0.2","","0.8","0.4282593698","0.3268768972","","","","","",""
"91","","bandit","305","773446","0.0-266.0-0.0","60514179","wem/bandit_either","AU849EHZNGV2Z","either","6","","","","","","","75","K","2","","0","0","1","","0.4213985596","","227","","0.4525914875","main_expt","0.4","","0.6","0.1655037845","","0.2","","0.8","0.4213985596","0.3112991039","","","","","",""
"92","","bandit","306","775047","0.0-267.0-0.0","60514179","wem/bandit_either","AU849EHZNGV2Z","either","6","","","","","","","74","J","1","","0","0","1","0.1595877114","","","228","0.4618810074","","main_expt","0.4","0.1595877114","0.6","","0.4115599459","0.2","0.3481066565","0.8","","","","","","","",""
"122","","bandit","307","776678","0.0-268.0-0.0","60514179","wem/bandit_either","AU849EHZNGV2Z","either","6","","","","","","","75","K","2","","0","0","1","","0.375967734","","229","","0.4661541784","main_expt","0.4","","0.6","0.1811982871","","0.2","","0.8","0.375967734","0.3267856819","","","","","",""
"202","","bandit","308","778390","0.0-269.0-0.0","60514179","wem/bandit_either","AU849EHZNGV2Z","either","6","","","","","","","72","H","0","img/none_selected.jpg","1","0","0","0.4681373403","","","230","0.4681373403","","main_expt","0.4","0.2088208598","0.6","","0.4172813036","0.2","0.3043034776","0.8","","","","","","","",""
"266","","bandit","309","780167","0.0-270.0-0.0","60514179","wem/bandit_either","AU849EHZNGV2Z","either","6","","","","","","","72","H","0","img/none_selected.jpg","0","0","1","0.4733838814","","","231","0.4733838814","","main_expt","0.4","0.2062946352","0.6","","0.3871641603","0.2","0.3127123154","0.8","","","","","","","",""
"187","","bandit","310","781863","0.0-271.0-0.0","60514179","wem/bandit_either","AU849EHZNGV2Z","either","6","","","","","","","72","H","0","img/none_selected.jpg","0","0","1","0.455942125","","","232","0.455942125","","main_expt","0.4","0.1448621505","0.6","","0.3381606844","0.2","0.3039198066","0.8","","","","","","","",""
"251","","bandit","311","783622","0.0-272.0-0.0","60514179","wem/bandit_either","AU849EHZNGV2Z","either","6","","","","","","","72","H","0","img/none_selected.jpg","0","0","1","0.4523014459","","","233","0.4523014459","","main_expt","0.4","0.1096360744","0.6","","0.2918198365","0.2","0.2846072758","0.8","","","","","","","",""
"204","","bandit","312","785335","0.0-273.0-0.0","60514179","wem/bandit_either","AU849EHZNGV2Z","either","6","","","","","","","76","L","3","","0","0","1","0.2430061478","","","234","0.4715877437","","main_expt","0.4","0.1102272527","0.6","","0.3016980071","0.2","0.2430061478","0.8","","","","","","","",""
"106","","bandit","313","786950","0.0-274.0-0.0","60514179","wem/bandit_either","AU849EHZNGV2Z","either","6","","","","","","","74","J","1","","0","0","1","","0.1428859574","","235","","0.4667146267","main_expt","0.4","","0.6","0.1428859574","","0.2","","0.8","0.2940059945","0.263037213","","","","","",""
"171","","bandit","314","788630","0.0-275.0-0.0","60514179","wem/bandit_either","AU849EHZNGV2Z","either","6","","","","","","","72","H","0","img/none_selected.jpg","0","0","1","","0.4638430617","","236","","0.4638430617","main_expt","0.4","","0.6","0.1659437887","","0.2","","0.8","0.2926833733","0.2976510001","","","","","",""
"186","","bandit","315","790326","0.0-276.0-0.0","60514179","wem/bandit_either","AU849EHZNGV2Z","either","6","","","","","","","75","K","2","","0","0","1","","0.278351659","","237","","0.4584702359","main_expt","0.4","","0.6","0.1948695303","","0.2","","0.8","0.278351659","0.2789990486","","","","","",""
"59","","bandit","316","791894","0.0-277.0-0.0","60514179","wem/bandit_either","AU849EHZNGV2Z","either","6","","","","","","","72","H","0","img/none_selected.jpg","0","1","0","","0.4297714473","","238","","0.4297714473","main_expt","0.4","","0.6","0.2231382717","","0.2","","0.8","0.2475781625","0.2760904485","","","","","",""
"187","","bandit","317","793590","0.0-278.0-0.0","60514179","wem/bandit_either","AU849EHZNGV2Z","either","6","","","","","","","72","H","0","img/none_selected.jpg","1","0","0","0.4225482751","","","239","0.4225482751","","main_expt","0.4","0.2118273477","0.6","","0.2476463542","0.2","0.2679201555","0.8","","","","","","","",""
"203","","bandit","318","795302","0.0-279.0-0.0","60514179","wem/bandit_either","AU849EHZNGV2Z","either","6","","","","","","","72","H","0","img/none_selected.jpg","0","0","1","0.3911766626","","","240","0.3911766626","","main_expt","0.4","0.175879666","0.6","","0.2691810592","0.2","0.1815101208","0.8","","","","","","","",""
"284","","bandit","319","797096","0.0-280.0-0.0","60514179","wem/bandit_either","AU849EHZNGV2Z","either","6","","","","","","","72","H","0","img/none_selected.jpg","0","0","1","","0.3576719612","","241","","0.3576719612","main_expt","0.4","","0.6","0.2619723004","","0.2","","0.8","0.2600118225","0.2107278188","","","","","",""
"313","","bandit","320","798919","0.0-281.0-0.0","60514179","wem/bandit_either","AU849EHZNGV2Z","either","6","","","","","","","72","H","0","img/none_selected.jpg","0","0","1","0.3649942216","","","242","0.3649942216","","main_expt","0.4","0.253357122","0.6","","0.2585740571","0.2","0.1890457695","0.8","","","","","","","",""
"299","","bandit","321","800727","0.0-282.0-0.0","60514179","wem/bandit_either","AU849EHZNGV2Z","either","6","","","","","","","72","H","0","img/none_selected.jpg","0","0","1","0.3462843793","","","243","0.3462843793","","main_expt","0.4","0.2937411872","0.6","","0.1943885749","0.2","0.1983598585","0.8","","","","","","","",""
"267","","bandit","322","802503","0.0-283.0-0.0","60514179","wem/bandit_either","AU849EHZNGV2Z","either","6","","","","","","","75","K","2","","0","0","1","","0.1861062248","","244","","0.3520149162","main_expt","0.4","","0.6","0.2743784529","","0.2","","0.8","0.1861062248","0.2165838592","","","","","",""
"731","","bandit","323","804743","0.0-284.0-0.0","60514179","wem/bandit_either","AU849EHZNGV2Z","either","6","","","","","","","76","L","3","","0","0","1","0.1823109088","","","245","0.3483485742","","main_expt","0.4","0.2734657034","0.6","","0.1398782291","0.2","0.1823109088","0.8","","","","","","","",""
"202","","bandit","324","806455","0.0-285.0-0.0","60514179","wem/bandit_either","AU849EHZNGV2Z","either","6","","","","","","","74","J","1","","0","0","1","0.2285423815","","","246","0.3814570076","","main_expt","0.4","0.2285423815","0.6","","0.1392076576","0.2","0.172760958","0.8","","","","","","","",""
"140","","bandit","325","808104","0.0-286.0-0.0","60514179","wem/bandit_either","AU849EHZNGV2Z","either","6","","","","","","","72","H","0","img/none_selected.jpg","0","0","1","","0.3871035364","","247","","0.3871035364","main_expt","0.4","","0.6","0.269943793","","0.2","","0.8","0.2028121248","0.1955602127","","","","","",""
"202","","bandit","326","809815","0.0-287.0-0.0","60514179","wem/bandit_either","AU849EHZNGV2Z","either","6","","","","","","","72","H","0","img/none_selected.jpg","0","0","1","","0.3746835134","","248","","0.3746835134","main_expt","0.4","","0.6","0.2974302923","","0.2","","0.8","0.2522392451","0.1770790361","","","","","",""
"378","","bandit","327","811703","0.0-288.0-0.0","60514179","wem/bandit_either","AU849EHZNGV2Z","either","6","","","","","","","75","K","2","","0","0","1","","0.234975876","","249","","0.3787028279","main_expt","0.4","","0.6","0.2667415426","","0.2","","0.8","0.234975876","0.1884848562","","","","","",""
"265","","bandit","328","813479","0.0-289.0-0.0","60514179","wem/bandit_either","AU849EHZNGV2Z","either","6","","","","","","","75","K","2","","0","1","0","","0.2388523745","","250","","0.3475116331","main_expt","0.4","","0.6","0.3302420342","","0.2","","0.8","0.2388523745","0.2314514176","","","","","",""
"282","","bandit","329","815272","0.0-290.0-0.0","60514179","wem/bandit_either","AU849EHZNGV2Z","either","6","","","","","","","75","K","2","","0","0","1","","0.2412642198","","251","","0.3297368302","main_expt","0.4","","0.6","0.3080318139","","0.2","","0.8","0.2412642198","0.2028544779","","","","","",""
"234","","bandit","330","817016","0.0-291.0-0.0","60514179","wem/bandit_either","AU849EHZNGV2Z","either","6","","","","","","","75","K","2","","0","0","1","","0.2662386667","","252","","0.2830962297","main_expt","0.4","","0.6","0.2931646133","","0.2","","0.8","0.2662386667","0.2296758881","","","","","",""
"602","","bandit","331","819129","0.0-292.0-0.0","60514179","wem/bandit_either","AU849EHZNGV2Z","either","6","","","","","","","72","H","0","img/none_selected.jpg","0","0","1","0.2360872172","","","253","0.2360872172","","main_expt","0.4","0.3315577467","0.6","","0.288812178","0.2","0.1527325802","0.8","","","","","","","",""
"217","","bandit","332","820856","0.0-293.0-0.0","60514179","wem/bandit_either","AU849EHZNGV2Z","either","6","","","","","","","75","K","2","","0","0","1","","0.2411004805","","254","","0.2413611774","main_expt","0.4","","0.6","0.3042928979","","0.2","","0.8","0.2411004805","0.1248180068","","","","","",""
