"rt","responses","trial_type","trial_index","time_elapsed","internal_node_id","subjID","study","MID","cond","drift","key_press","expt_phase","target","like","value","connected","gems","bombs","no_reward","GemPrChosen","BombPrChosen","GainOverPainPr_0","GainOverPainPr_1","GainOverPainPr_2","GainOverPainPr_3","LosePr_0","LosePr_1","LosePr_2","LosePr_3","WinPr_0","WinPr_1","WinPr_2","WinPr_3","Q0","Q1","Q2","gender","age","ethnicity","respCharCode","respKey","respChoiceNum","respChoice","practice","trial_counter","trial_label"
"5490","{""Q0"":""A1YIH5JUVIML4S""}","survey-text","0","5514","0.0-0.0","60620268","wem/bandit_either","A1YIH5JUVIML4S","either","1","","","","","","","","","","","","","","","","","","","","","","","","","","","","","","","","","","","",""
"8680","","text","1","15204","0.0-1.0","60620268","wem/bandit_either","A1YIH5JUVIML4S","either","1","32","","","","","","","","","","","","","","","","","","","","","","","","","","","","","","","","","","",""
"4668","","text","2","19874","0.0-2.0","60620268","wem/bandit_either","A1YIH5JUVIML4S","either","1","32","","","","","","","","","","","","","","","","","","","","","","","","","","","","","","","","","","",""
"12039","","text","3","31916","0.0-3.0","60620268","wem/bandit_either","A1YIH5JUVIML4S","either","1","32","","","","","","","","","","","","","","","","","","","","","","","","","","","","","","","","","","",""
"9276","","text","4","41194","0.0-4.0","60620268","wem/bandit_either","A1YIH5JUVIML4S","either","1","32","","","","","","","","","","","","","","","","","","","","","","","","","","","","","","","","","","",""
"19103","","text","5","60300","0.0-5.0","60620268","wem/bandit_either","A1YIH5JUVIML4S","either","1","32","","","","","","","","","","","","","","","","","","","","","","","","","","","","","","","","","","",""
"3183","","text","6","63487","0.0-6.0","60620268","wem/bandit_either","A1YIH5JUVIML4S","either","1","32","","","","","","","","","","","","","","","","","","","","","","","","","","","","","","","","","","",""
"3987","","text","7","67476","0.0-7.0","60620268","wem/bandit_either","A1YIH5JUVIML4S","either","1","32","","","","","","","","","","","","","","","","","","","","","","","","","","","","","","","","","","",""
"6197","","identification","8","73712","0.0-8.0-0.0","60620268","wem/bandit_either","A1YIH5JUVIML4S","either","1","","identification_pre","the village of Zur","","","","","","","","","","","","","","","","","","","","","","","","","","","","","","","","",""
"7311","","identification","9","82047","0.0-8.0-1.0","60620268","wem/bandit_either","A1YIH5JUVIML4S","either","1","","identification_pre","the village of Nyx","","","","","","","","","","","","","","","","","","","","","","","","","","","","","","","","",""
"5213","","text","10","88264","0.0-9.0","60620268","wem/bandit_either","A1YIH5JUVIML4S","either","1","32","","","","","","","","","","","","","","","","","","","","","","","","","","","","","","","","","","",""
"1769","","text","11","90036","0.0-10.0","60620268","wem/bandit_either","A1YIH5JUVIML4S","either","1","32","","","","","","","","","","","","","","","","","","","","","","","","","","","","","","","","","","",""
"1347","","text","12","91387","0.0-11.0","60620268","wem/bandit_either","A1YIH5JUVIML4S","either","1","32","","","","","","","","","","","","","","","","","","","","","","","","","","","","","","","","","","",""
"3808","","text","13","95199","0.0-12.0","60620268","wem/bandit_either","A1YIH5JUVIML4S","either","1","32","","","","","","","","","","","","","","","","","","","","","","","","","","","","","","","","","","",""
"2961","","bandit","14","99673","0.0-13.0-0.0","60620268","wem/bandit_either","A1YIH5JUVIML4S","either","1","","","","","","","0","0","1","0","0","","","","","0","","","","0","","","","","","","","","","74","J","0","img/none_selected_demo.jpg","true","0",""
"2069","","bandit","15","103253","0.0-14.0-0.0","60620268","wem/bandit_either","A1YIH5JUVIML4S","either","1","","","","","","","0","0","1","0","0","","","","","0","","","","0","","","","","","","","","","75","K","0","img/none_selected_demo.jpg","true","0",""
"3934","","text","16","107190","0.0-15.0","60620268","wem/bandit_either","A1YIH5JUVIML4S","either","1","32","","","","","","","","","","","","","","","","","","","","","","","","","","","","","","","","","","",""
"8848","","text","17","116040","0.0-16.0","60620268","wem/bandit_either","A1YIH5JUVIML4S","either","1","32","","","","","","","","","","","","","","","","","","","","","","","","","","","","","","","","","","",""
"3462","","text","18","119505","0.0-17.0","60620268","wem/bandit_either","A1YIH5JUVIML4S","either","1","32","","","","","","","","","","","","","","","","","","","","","","","","","","","","","","","","","","",""
"2092","","text","19","121601","0.0-18.0","60620268","wem/bandit_either","A1YIH5JUVIML4S","either","1","32","","","","","","","","","","","","","","","","","","","","","","","","","","","","","","","","","","",""
"2080","","bandit","20","125208","0.0-19.0-0.0","60620268","wem/bandit_either","A1YIH5JUVIML4S","either","1","","","","","","","0","0","1","","0.8","0.5","0.5","","","0.8","0.2","","","","","","","","","","","","","74","J","0","img/none_selected_demo.jpg","true","0","80_20_practice"
"750","","bandit","21","127472","0.0-19.0-1.0","60620268","wem/bandit_either","A1YIH5JUVIML4S","either","1","","","","","","","0","0","1","","0.2","0.5","0.5","","","0.8","0.2","","","","","","","","","","","","","75","K","1","","true","0","80_20_practice"
"903","","bandit","22","129884","0.0-19.0-2.0","60620268","wem/bandit_either","A1YIH5JUVIML4S","either","1","","","","","","","0","0","1","","0.2","0.5","0.5","","","0.8","0.2","","","","","","","","","","","","","75","K","1","","true","0","80_20_practice"
"533","","bandit","23","131958","0.0-19.0-3.0","60620268","wem/bandit_either","A1YIH5JUVIML4S","either","1","","","","","","","0","0","1","","0.8","0.5","0.5","","","0.8","0.2","","","","","","","","","","","","","74","J","0","img/none_selected_demo.jpg","true","0","80_20_practice"
"574","","bandit","24","134062","0.0-19.0-4.0","60620268","wem/bandit_either","A1YIH5JUVIML4S","either","1","","","","","","","1","0","0","0.8","","0.5","0.5","","","","","","","0.8","0.2","","","","","","","","","74","J","0","img/none_selected_demo.jpg","true","0","80_20_practice"
"585","","bandit","25","136170","0.0-19.0-5.0","60620268","wem/bandit_either","A1YIH5JUVIML4S","either","1","","","","","","","0","0","1","","0.8","0.5","0.5","","","0.8","0.2","","","","","","","","","","","","","74","J","0","img/none_selected_demo.jpg","true","0","80_20_practice"
"434","","bandit","26","138134","0.0-19.0-6.0","60620268","wem/bandit_either","A1YIH5JUVIML4S","either","1","","","","","","","0","0","1","","0.2","0.5","0.5","","","0.8","0.2","","","","","","","","","","","","","75","K","1","","true","0","80_20_practice"
"377","","bandit","27","140054","0.0-19.0-7.0","60620268","wem/bandit_either","A1YIH5JUVIML4S","either","1","","","","","","","0","0","1","0.2","","0.5","0.5","","","","","","","0.8","0.2","","","","","","","","","75","K","1","","true","0","80_20_practice"
"354","","bandit","28","141941","0.0-19.0-8.0","60620268","wem/bandit_either","A1YIH5JUVIML4S","either","1","","","","","","","0","1","0","","0.8","0.5","0.5","","","0.8","0.2","","","","","","","","","","","","","74","J","0","img/none_selected_demo.jpg","true","0","80_20_practice"
"474","","bandit","29","143941","0.0-19.0-9.0","60620268","wem/bandit_either","A1YIH5JUVIML4S","either","1","","","","","","","0","0","1","","0.8","0.5","0.5","","","0.8","0.2","","","","","","","","","","","","","74","J","0","img/none_selected_demo.jpg","true","0","80_20_practice"
"323","","bandit","30","145778","0.0-19.0-10.0","60620268","wem/bandit_either","A1YIH5JUVIML4S","either","1","","","","","","","0","1","0","","0.8","0.5","0.5","","","0.8","0.2","","","","","","","","","","","","","74","J","0","img/none_selected_demo.jpg","true","0","80_20_practice"
"385","","bandit","31","147676","0.0-19.0-11.0","60620268","wem/bandit_either","A1YIH5JUVIML4S","either","1","","","","","","","1","0","0","0.8","","0.5","0.5","","","","","","","0.8","0.2","","","","","","","","","74","J","0","img/none_selected_demo.jpg","true","0","80_20_practice"
"304","","bandit","32","149492","0.0-19.0-12.0","60620268","wem/bandit_either","A1YIH5JUVIML4S","either","1","","","","","","","0","0","1","","0.8","0.5","0.5","","","0.8","0.2","","","","","","","","","","","","","74","J","0","img/none_selected_demo.jpg","true","0","80_20_practice"
"194","","bandit","33","151207","0.0-19.0-13.0","60620268","wem/bandit_either","A1YIH5JUVIML4S","either","1","","","","","","","0","1","0","","0.8","0.5","0.5","","","0.8","0.2","","","","","","","","","","","","","74","J","0","img/none_selected_demo.jpg","true","0","80_20_practice"
"326","","bandit","34","153063","0.0-19.0-14.0","60620268","wem/bandit_either","A1YIH5JUVIML4S","either","1","","","","","","","0","0","1","0.8","","0.5","0.5","","","","","","","0.8","0.2","","","","","","","","","74","J","0","img/none_selected_demo.jpg","true","0","80_20_practice"
"327","","bandit","35","154904","0.0-19.0-15.0","60620268","wem/bandit_either","A1YIH5JUVIML4S","either","1","","","","","","","1","0","0","0.8","","0.5","0.5","","","","","","","0.8","0.2","","","","","","","","","74","J","0","img/none_selected_demo.jpg","true","0","80_20_practice"
"378","","bandit","36","156794","0.0-19.0-16.0","60620268","wem/bandit_either","A1YIH5JUVIML4S","either","1","","","","","","","0","1","0","","0.8","0.5","0.5","","","0.8","0.2","","","","","","","","","","","","","74","J","0","img/none_selected_demo.jpg","true","0","80_20_practice"
"300","","bandit","37","158603","0.0-19.0-17.0","60620268","wem/bandit_either","A1YIH5JUVIML4S","either","1","","","","","","","0","1","0","","0.8","0.5","0.5","","","0.8","0.2","","","","","","","","","","","","","74","J","0","img/none_selected_demo.jpg","true","0","80_20_practice"
"428","","bandit","38","160540","0.0-19.0-18.0","60620268","wem/bandit_either","A1YIH5JUVIML4S","either","1","","","","","","","0","1","0","","0.8","0.5","0.5","","","0.8","0.2","","","","","","","","","","","","","74","J","0","img/none_selected_demo.jpg","true","0","80_20_practice"
"345","","bandit","39","162427","0.0-19.0-19.0","60620268","wem/bandit_either","A1YIH5JUVIML4S","either","1","","","","","","","0","0","1","","0.8","0.5","0.5","","","0.8","0.2","","","","","","","","","","","","","74","J","0","img/none_selected_demo.jpg","true","0","80_20_practice"
"4073","","text","40","166503","0.0-20.0","60620268","wem/bandit_either","A1YIH5JUVIML4S","either","1","32","","","","","","","","","","","","","","","","","","","","","","","","","","","","","","","","","","",""
"1434","","bandit","41","169467","0.0-21.0-0.0","60620268","wem/bandit_either","A1YIH5JUVIML4S","either","1","","","","","","","1","0","0","1","0","","","","","0","1","","","1","0","","","","","","","","","74","J","0","img/none_selected_demo.jpg","true","0",""
"5476","","text","42","174949","0.0-22.0","60620268","wem/bandit_either","A1YIH5JUVIML4S","either","1","32","","","","","","","","","","","","","","","","","","","","","","","","","","","","","","","","","","",""
"2423","","text","43","177378","0.0-23.0","60620268","wem/bandit_either","A1YIH5JUVIML4S","either","1","32","","","","","","","","","","","","","","","","","","","","","","","","","","","","","","","","","","",""
"1545","","text","44","178928","0.0-24.0","60620268","wem/bandit_either","A1YIH5JUVIML4S","either","1","32","","","","","","","","","","","","","","","","","","","","","","","","","","","","","","","","","","",""
"2034","","text","45","180965","0.0-25.0","60620268","wem/bandit_either","A1YIH5JUVIML4S","either","1","32","","","","","","","","","","","","","","","","","","","","","","","","","","","","","","","","","","",""
"2916","","text","46","183884","0.0-26.0","60620268","wem/bandit_either","A1YIH5JUVIML4S","either","1","32","","","","","","","","","","","","","","","","","","","","","","","","","","","","","","","","","","",""
"1121","","text","47","185011","0.0-27.0","60620268","wem/bandit_either","A1YIH5JUVIML4S","either","1","32","","","","","","","","","","","","","","","","","","","","","","","","","","","","","","","","","","",""
"1363","","text","48","186381","0.0-28.0","60620268","wem/bandit_either","A1YIH5JUVIML4S","either","1","32","","","","","","","","","","","","","","","","","","","","","","","","","","","","","","","","","","",""
"3365","","text","49","189749","0.0-29.0","60620268","wem/bandit_either","A1YIH5JUVIML4S","either","1","32","","","","","","","","","","","","","","","","","","","","","","","","","","","","","","","","","","",""
"3749","","text","50","193501","0.0-30.0","60620268","wem/bandit_either","A1YIH5JUVIML4S","either","1","32","","","","","","","","","","","","","","","","","","","","","","","","","","","","","","","","","","",""
"1734","","text","51","195239","0.0-31.0","60620268","wem/bandit_either","A1YIH5JUVIML4S","either","1","32","","","","","","","","","","","","","","","","","","","","","","","","","","","","","","","","","","",""
"10064","","text","52","205306","0.0-32.0","60620268","wem/bandit_either","A1YIH5JUVIML4S","either","1","32","","","","","","","","","","","","","","","","","","","","","","","","","","","","","","","","","","",""
"1538","","bandit","53","208354","0.0-33.0-0.0","60620268","wem/bandit_either","A1YIH5JUVIML4S","either","1","","","","","","","1","0","0","0.6","","0.5","0.5","0.5","0.5","","","","","0.8","0.2","0.6","0.2","","","","","","","75","K","2","","true","0","full_practice"
"382","","bandit","54","210279","0.0-33.0-1.0","60620268","wem/bandit_either","A1YIH5JUVIML4S","either","1","","","","","","","0","0","1","","0.6","0.5","0.5","0.5","0.5","0.8","0.2","0.6","0.2","","","","","","","","","","","75","K","2","","true","0","full_practice"
"492","","bandit","55","212289","0.0-33.0-2.0","60620268","wem/bandit_either","A1YIH5JUVIML4S","either","1","","","","","","","1","0","0","0.6","","0.5","0.5","0.5","0.5","","","","","0.8","0.2","0.6","0.2","","","","","","","75","K","2","","true","0","full_practice"
"452","","bandit","56","214262","0.0-33.0-3.0","60620268","wem/bandit_either","A1YIH5JUVIML4S","either","1","","","","","","","1","0","0","0.6","","0.5","0.5","0.5","0.5","","","","","0.8","0.2","0.6","0.2","","","","","","","75","K","2","","true","0","full_practice"
"386","","bandit","57","216183","0.0-33.0-4.0","60620268","wem/bandit_either","A1YIH5JUVIML4S","either","1","","","","","","","0","0","1","0.6","","0.5","0.5","0.5","0.5","","","","","0.8","0.2","0.6","0.2","","","","","","","75","K","2","","true","0","full_practice"
"400","","bandit","58","218092","0.0-33.0-5.0","60620268","wem/bandit_either","A1YIH5JUVIML4S","either","1","","","","","","","0","1","0","","0.6","0.5","0.5","0.5","0.5","0.8","0.2","0.6","0.2","","","","","","","","","","","75","K","2","","true","0","full_practice"
"9","","bandit","59","219615","0.0-33.0-6.0","60620268","wem/bandit_either","A1YIH5JUVIML4S","either","1","","","","","","","0","1","0","","0.6","0.5","0.5","0.5","0.5","0.8","0.2","0.6","0.2","","","","","","","","","","","75","K","2","","true","0","full_practice"
"492","","bandit","60","221645","0.0-33.0-7.0","60620268","wem/bandit_either","A1YIH5JUVIML4S","either","1","","","","","","","0","0","1","","0.6","0.5","0.5","0.5","0.5","0.8","0.2","0.6","0.2","","","","","","","","","","","75","K","2","","true","0","full_practice"
"382","","bandit","61","223536","0.0-33.0-8.0","60620268","wem/bandit_either","A1YIH5JUVIML4S","either","1","","","","","","","1","0","0","0.6","","0.5","0.5","0.5","0.5","","","","","0.8","0.2","0.6","0.2","","","","","","","75","K","2","","true","0","full_practice"
"285","","bandit","62","225334","0.0-33.0-9.0","60620268","wem/bandit_either","A1YIH5JUVIML4S","either","1","","","","","","","0","1","0","","0.6","0.5","0.5","0.5","0.5","0.8","0.2","0.6","0.2","","","","","","","","","","","75","K","2","","true","0","full_practice"
"388","","bandit","63","227244","0.0-33.0-10.0","60620268","wem/bandit_either","A1YIH5JUVIML4S","either","1","","","","","","","0","0","1","0.6","","0.5","0.5","0.5","0.5","","","","","0.8","0.2","0.6","0.2","","","","","","","75","K","2","","true","0","full_practice"
"390","","bandit","64","229167","0.0-33.0-11.0","60620268","wem/bandit_either","A1YIH5JUVIML4S","either","1","","","","","","","0","1","0","","0.6","0.5","0.5","0.5","0.5","0.8","0.2","0.6","0.2","","","","","","","","","","","75","K","2","","true","0","full_practice"
"352","","bandit","65","231047","0.0-33.0-12.0","60620268","wem/bandit_either","A1YIH5JUVIML4S","either","1","","","","","","","1","0","0","0.6","","0.5","0.5","0.5","0.5","","","","","0.8","0.2","0.6","0.2","","","","","","","75","K","2","","true","0","full_practice"
"71","","bandit","66","232631","0.0-33.0-13.0","60620268","wem/bandit_either","A1YIH5JUVIML4S","either","1","","","","","","","0","0","1","","0.6","0.5","0.5","0.5","0.5","0.8","0.2","0.6","0.2","","","","","","","","","","","75","K","2","","true","0","full_practice"
"452","","bandit","67","234598","0.0-33.0-14.0","60620268","wem/bandit_either","A1YIH5JUVIML4S","either","1","","","","","","","0","0","1","","0.6","0.5","0.5","0.5","0.5","0.8","0.2","0.6","0.2","","","","","","","","","","","75","K","2","","true","0","full_practice"
"419","","bandit","68","236531","0.0-33.0-15.0","60620268","wem/bandit_either","A1YIH5JUVIML4S","either","1","","","","","","","0","0","1","0.2","","0.5","0.5","0.5","0.5","","","","","0.8","0.2","0.6","0.2","","","","","","","74","J","1","","true","0","full_practice"
"444","","bandit","69","238488","0.0-33.0-16.0","60620268","wem/bandit_either","A1YIH5JUVIML4S","either","1","","","","","","","0","1","0","","0.8","0.5","0.5","0.5","0.5","0.8","0.2","0.6","0.2","","","","","","","","","","","72","H","0","img/none_selected.jpg","true","0","full_practice"
"451","","bandit","70","240467","0.0-33.0-17.0","60620268","wem/bandit_either","A1YIH5JUVIML4S","either","1","","","","","","","1","0","0","0.8","","0.5","0.5","0.5","0.5","","","","","0.8","0.2","0.6","0.2","","","","","","","72","H","0","img/none_selected.jpg","true","0","full_practice"
"469","","bandit","71","242471","0.0-33.0-18.0","60620268","wem/bandit_either","A1YIH5JUVIML4S","either","1","","","","","","","0","1","0","","0.8","0.5","0.5","0.5","0.5","0.8","0.2","0.6","0.2","","","","","","","","","","","72","H","0","img/none_selected.jpg","true","0","full_practice"
"360","","bandit","72","244359","0.0-33.0-19.0","60620268","wem/bandit_either","A1YIH5JUVIML4S","either","1","","","","","","","0","1","0","","0.8","0.5","0.5","0.5","0.5","0.8","0.2","0.6","0.2","","","","","","","","","","","72","H","0","img/none_selected.jpg","true","0","full_practice"
"3622","","text","73","247993","0.0-34.0","60620268","wem/bandit_either","A1YIH5JUVIML4S","either","1","32","","","","","","","","","","","","","","","","","","","","","","","","","","","","","","","","","","",""
"4940","","text","74","253949","0.0-35.0","60620268","wem/bandit_either","A1YIH5JUVIML4S","either","1","32","","","","","","","","","","","","","","","","","","","","","","","","","","","","","","","","","","",""
"2920","","text","75","256873","0.0-36.0","60620268","wem/bandit_either","A1YIH5JUVIML4S","either","1","32","","","","","","","","","","","","","","","","","","","","","","","","","","","","","","","","","","",""
"1126","","text","76","258004","0.0-37.0","60620268","wem/bandit_either","A1YIH5JUVIML4S","either","1","32","","","","","","","","","","","","","","","","","","","","","","","","","","","","","","","","","","",""
"935","","text","77","258945","0.0-38.0","60620268","wem/bandit_either","A1YIH5JUVIML4S","either","1","32","","","","","","","","","","","","","","","","","","","","","","","","","","","","","","","","","","",""
"852","","text","78","259801","0.0-39.0","60620268","wem/bandit_either","A1YIH5JUVIML4S","either","1","32","","","","","","","","","","","","","","","","","","","","","","","","","","","","","","","","","","",""
"1396","","bandit","79","262721","0.0-40.0-0.0","60620268","wem/bandit_either","A1YIH5JUVIML4S","either","1","","","","","","","1","0","0","0.3592836462","","0.4","0.6","0.2","0.8","","","","","0.3592836462","0.4269289603","0.02943109976","0.0798457429","","","","","","","72","H","0","img/none_selected.jpg","","1","main_expt"
"378","","bandit","80","264625","0.0-41.0-0.0","60620268","wem/bandit_either","A1YIH5JUVIML4S","either","1","","","","","","","0","0","1","","0.3454903542","0.4","0.6","0.2","0.8","0.3454903542","0.4660243271","0.06336112212","0.07621336767","","","","","","","","","","","72","H","0","img/none_selected.jpg","","2","main_expt"
"538","","bandit","81","266696","0.0-42.0-0.0","60620268","wem/bandit_either","A1YIH5JUVIML4S","either","1","","","","","","","0","0","1","","0.2941512374","0.4","0.6","0.2","0.8","0.2941512374","0.4738503749","0.07335687118","0.07476295528","","","","","","","","","","","72","H","0","img/none_selected.jpg","","3","main_expt"
"494","","bandit","82","268701","0.0-43.0-0.0","60620268","wem/bandit_either","A1YIH5JUVIML4S","either","1","","","","","","","0","0","1","","0.4618500418","0.4","0.6","0.2","0.8","0.2851241965","0.4618500418","0.06156305515","0.06526985361","","","","","","","","","","","74","J","1","","","4","main_expt"
"407","","bandit","83","270634","0.0-44.0-0.0","60620268","wem/bandit_either","A1YIH5JUVIML4S","either","1","","","","","","","0","0","1","","0.08141194251","0.4","0.6","0.2","0.8","0.3172925843","0.4488935273","0.08141194251","0.05487735528","","","","","","","","","","","75","K","2","","","5","main_expt"
"399","","bandit","84","272558","0.0-45.0-0.0","60620268","wem/bandit_either","A1YIH5JUVIML4S","either","1","","","","","","","0","0","1","","0.04340015571","0.4","0.6","0.2","0.8","0.3319153021","0.4437832297","0.1104821702","0.04340015571","","","","","","","","","","","76","L","3","","","6","main_expt"
"494","","bandit","85","274577","0.0-46.0-0.0","60620268","wem/bandit_either","A1YIH5JUVIML4S","either","1","","","","","","","0","0","1","0.04575060371","","0.4","0.6","0.2","0.8","","","","","0.3553039772","0.4310077805","0.1191408541","0.04575060371","","","","","","","76","L","3","","","7","main_expt"
"369","","bandit","86","276473","0.0-47.0-0.0","60620268","wem/bandit_either","A1YIH5JUVIML4S","either","1","","","","","","","0","0","1","0.1517570037","","0.4","0.6","0.2","0.8","","","","","0.3868093767","0.4480386191","0.1517570037","0.06112087539","","","","","","","75","K","2","","","8","main_expt"
"509","","bandit","87","278501","0.0-48.0-0.0","60620268","wem/bandit_either","A1YIH5JUVIML4S","either","1","","","","","","","0","1","0","","0.4460224538","0.4","0.6","0.2","0.8","0.3754406694","0.4460224538","0.1738087075","0.07854191076","","","","","","","","","","","74","J","1","","","9","main_expt"
"458","","bandit","88","280484","0.0-49.0-0.0","60620268","wem/bandit_either","A1YIH5JUVIML4S","either","1","","","","","","","0","0","1","0.3954493452","","0.4","0.6","0.2","0.8","","","","","0.3537433427","0.3954493452","0.2033535465","0.06865483858","","","","","","","74","J","1","","","10","main_expt"
"413","","bandit","89","282436","0.0-50.0-0.0","60620268","wem/bandit_either","A1YIH5JUVIML4S","either","1","","","","","","","0","0","1","0.4064238371","","0.4","0.6","0.2","0.8","","","","","0.3793358735","0.4064238371","0.1751631116","0.05083805298","","","","","","","74","J","1","","","11","main_expt"
"390","","bandit","90","284337","0.0-51.0-0.0","60620268","wem/bandit_either","A1YIH5JUVIML4S","either","1","","","","","","","0","0","1","","0.3800428212","0.4","0.6","0.2","0.8","0.3800428212","0.3800839449","0.1787487179","0.1038792476","","","","","","","","","","","72","H","0","img/none_selected.jpg","","12","main_expt"
"400","","bandit","91","286248","0.0-52.0-0.0","60620268","wem/bandit_either","A1YIH5JUVIML4S","either","1","","","","","","","0","1","0","","0.3647981021","0.4","0.6","0.2","0.8","0.3647981021","0.3866628193","0.1794712961","0.1197284353","","","","","","","","","","","72","H","0","img/none_selected.jpg","","13","main_expt"
"453","","bandit","92","288212","0.0-53.0-0.0","60620268","wem/bandit_either","A1YIH5JUVIML4S","either","1","","","","","","","0","0","1","","0.3646471907","0.4","0.6","0.2","0.8","0.3646471907","0.326509825","0.2482140722","0.135681701","","","","","","","","","","","72","H","0","img/none_selected.jpg","","14","main_expt"
"513","","bandit","93","290245","0.0-54.0-0.0","60620268","wem/bandit_either","A1YIH5JUVIML4S","either","1","","","","","","","0","1","0","","0.2428529647","0.4","0.6","0.2","0.8","0.3549291363","0.2428529647","0.2859415589","0.125153919","","","","","","","","","","","74","J","1","","","15","main_expt"
"461","","bandit","94","292220","0.0-55.0-0.0","60620268","wem/bandit_either","A1YIH5JUVIML4S","either","1","","","","","","","0","0","1","","0.3727350689","0.4","0.6","0.2","0.8","0.3727350689","0.2332962783","0.26587149","0.1096891688","","","","","","","","","","","72","H","0","img/none_selected.jpg","","16","main_expt"
"433","","bandit","95","294179","0.0-56.0-0.0","60620268","wem/bandit_either","A1YIH5JUVIML4S","either","1","","","","","","","0","0","1","0.3112083829","","0.4","0.6","0.2","0.8","","","","","0.3112083829","0.2271032234","0.2776265896","0.1051581447","","","","","","","72","H","0","img/none_selected.jpg","","17","main_expt"
"392","","bandit","96","296118","0.0-57.0-0.0","60620268","wem/bandit_either","A1YIH5JUVIML4S","either","1","","","","","","","0","0","1","0.1701710303","","0.4","0.6","0.2","0.8","","","","","0.2403081055","0.1701710303","0.3223387563","0.1437943492","","","","","","","74","J","1","","","18","main_expt"
"399","","bandit","97","298031","0.0-58.0-0.0","60620268","wem/bandit_either","A1YIH5JUVIML4S","either","1","","","","","","","0","1","0","","0.3192918255","0.4","0.6","0.2","0.8","0.2377482675","0.2070198111","0.3192918255","0.1405615485","","","","","","","","","","","75","K","2","","","19","main_expt"
"486","","bandit","98","300042","0.0-59.0-0.0","60620268","wem/bandit_either","A1YIH5JUVIML4S","either","1","","","","","","","1","0","0","0.2739159796","","0.4","0.6","0.2","0.8","","","","","0.2607530295","0.2412547966","0.2739159796","0.1063334751","","","","","","","75","K","2","","","20","main_expt"
"613","","bandit","99","302183","0.0-60.0-0.0","60620268","wem/bandit_either","A1YIH5JUVIML4S","either","1","","","","","","","0","0","1","","0.2454385858","0.4","0.6","0.2","0.8","0.2919400674","0.2184758186","0.2454385858","0.07848250716","","","","","","","","","","","75","K","2","","","21","main_expt"
"285","","bandit","100","303982","0.0-61.0-0.0","60620268","wem/bandit_either","A1YIH5JUVIML4S","either","1","","","","","","","0","0","1","","0.2340842041","0.4","0.6","0.2","0.8","0.2995681058","0.1849325376","0.2340842041","0.1005082742","","","","","","","","","","","75","K","2","","","22","main_expt"
"393","","bandit","101","305898","0.0-62.0-0.0","60620268","wem/bandit_either","A1YIH5JUVIML4S","either","1","","","","","","","0","1","0","","0.1840173947","0.4","0.6","0.2","0.8","0.292554742","0.1521197653","0.1840173947","0.0792694407","","","","","","","","","","","75","K","2","","","23","main_expt"
"433","","bandit","102","307843","0.0-63.0-0.0","60620268","wem/bandit_either","A1YIH5JUVIML4S","either","1","","","","","","","1","0","0","0.1745529383","","0.4","0.6","0.2","0.8","","","","","0.3616894364","0.1759403195","0.1745529383","0.07358699385","","","","","","","75","K","2","","","24","main_expt"
"557","","bandit","103","309936","0.0-64.0-0.0","60620268","wem/bandit_either","A1YIH5JUVIML4S","either","1","","","","","","","0","0","1","","0.1756582033","0.4","0.6","0.2","0.8","0.3575757263","0.09479311865","0.1756582033","0.142208116","","","","","","","","","","","75","K","2","","","25","main_expt"
"404","","bandit","104","311851","0.0-65.0-0.0","60620268","wem/bandit_either","A1YIH5JUVIML4S","either","1","","","","","","","0","0","1","","0.2086365416","0.4","0.6","0.2","0.8","0.3635346368","0.08156123497","0.2086365416","0.1245113583","","","","","","","","","","","75","K","2","","","26","main_expt"
"484","","bandit","105","313864","0.0-66.0-0.0","60620268","wem/bandit_either","A1YIH5JUVIML4S","either","1","","","","","","","0","0","1","0.2139763749","","0.4","0.6","0.2","0.8","","","","","0.4109801844","0.1102307873","0.2139763749","0.118364605","","","","","","","75","K","2","","","27","main_expt"
"402","","bandit","106","315776","0.0-67.0-0.0","60620268","wem/bandit_either","A1YIH5JUVIML4S","either","1","","","","","","","0","0","1","","0.1613483267","0.4","0.6","0.2","0.8","0.3772962545","0.08274430796","0.1613483267","0.1105930361","","","","","","","","","","","75","K","2","","","28","main_expt"
"553","","bandit","107","317847","0.0-68.0-0.0","60620268","wem/bandit_either","A1YIH5JUVIML4S","either","1","","","","","","","0","0","1","","0.1118713044","0.4","0.6","0.2","0.8","0.3875745016","0.1086911099","0.1712488152","0.1118713044","","","","","","","","","","","76","L","3","","","29","main_expt"
"796","","bandit","108","320151","0.0-69.0-0.0","60620268","wem/bandit_either","A1YIH5JUVIML4S","either","1","","","","","","","0","0","1","0.1116575632","","0.4","0.6","0.2","0.8","","","","","0.3780019893","0.1116575632","0.1675524316","0.1914750456","","","","","","","74","J","1","","","30","main_expt"
"692","","bandit","109","322374","0.0-70.0-0.0","60620268","wem/bandit_either","A1YIH5JUVIML4S","either","1","","","","","","","0","0","1","0.2367730164","","0.4","0.6","0.2","0.8","","","","","0.416860241","0.07828091442","0.140325158","0.2367730164","","","","","","","76","L","3","","","31","main_expt"
"447","","bandit","110","324361","0.0-71.0-0.0","60620268","wem/bandit_either","A1YIH5JUVIML4S","either","1","","","","","","","0","0","1","0.4242573056","","0.4","0.6","0.2","0.8","","","","","0.4242573056","0.07550395781","0.1553940025","0.2109574779","","","","","","","72","H","0","img/none_selected.jpg","","32","main_expt"
"446","","bandit","111","326347","0.0-72.0-0.0","60620268","wem/bandit_either","A1YIH5JUVIML4S","either","1","","","","","","","0","0","1","","0.4185546122","0.4","0.6","0.2","0.8","0.4185546122","0.1445529326","0.1925614924","0.2005542758","","","","","","","","","","","72","H","0","img/none_selected.jpg","","33","main_expt"
"465","","bandit","112","328335","0.0-73.0-0.0","60620268","wem/bandit_either","A1YIH5JUVIML4S","either","1","","","","","","","0","1","0","","0.2150530123","0.4","0.6","0.2","0.8","0.4268308419","0.1091775744","0.2150530123","0.180377021","","","","","","","","","","","75","K","2","","","34","main_expt"
"537","","bandit","113","330392","0.0-74.0-0.0","60620268","wem/bandit_either","A1YIH5JUVIML4S","either","1","","","","","","","0","0","1","","0.2688968874","0.4","0.6","0.2","0.8","0.4265642185","0.1297995116","0.2688968874","0.2111187229","","","","","","","","","","","75","K","2","","","35","main_expt"
"634","","bandit","114","332540","0.0-75.0-0.0","60620268","wem/bandit_either","A1YIH5JUVIML4S","either","1","","","","","","","0","0","1","","0.09468550628","0.4","0.6","0.2","0.8","0.4066287969","0.09468550628","0.2977459964","0.2119332756","","","","","","","","","","","74","J","1","","","36","main_expt"
"591","","bandit","115","334648","0.0-76.0-0.0","60620268","wem/bandit_either","A1YIH5JUVIML4S","either","1","","","","","","","0","0","1","0.2684429955","","0.4","0.6","0.2","0.8","","","","","0.4611471687","0.09396978408","0.2684429955","0.2256131965","","","","","","","75","K","2","","","37","main_expt"
"528","","bandit","116","336695","0.0-77.0-0.0","60620268","wem/bandit_either","A1YIH5JUVIML4S","either","1","","","","","","","0","0","1","0.1975147253","","0.4","0.6","0.2","0.8","","","","","0.4482708269","0.1062257399","0.2490186117","0.1975147253","","","","","","","76","L","3","","","38","main_expt"
"515","","bandit","117","338731","0.0-78.0-0.0","60620268","wem/bandit_either","A1YIH5JUVIML4S","either","1","","","","","","","0","0","1","","0.1595648847","0.4","0.6","0.2","0.8","0.4402774387","0.09676453159","0.2548033483","0.1595648847","","","","","","","","","","","76","L","3","","","39","main_expt"
"419","","bandit","118","340675","0.0-79.0-0.0","60620268","wem/bandit_either","A1YIH5JUVIML4S","either","1","","","","","","","0","0","1","","0.4385128538","0.4","0.6","0.2","0.8","0.4385128538","0.08197179495","0.2688720753","0.1626610004","","","","","","","","","","","72","H","0","img/none_selected.jpg","","40","main_expt"
"484","","bandit","119","342679","0.0-80.0-0.0","60620268","wem/bandit_either","A1YIH5JUVIML4S","either","1","","","","","","","0","0","1","","0.297778532","0.4","0.6","0.2","0.8","0.4380640779","0.14416382","0.297778532","0.1982402655","","","","","","","","","","","75","K","2","","","41","main_expt"
"378","","bandit","120","344576","0.0-81.0-0.0","60620268","wem/bandit_either","A1YIH5JUVIML4S","either","1","","","","","","","0","0","1","0.1070927036","","0.4","0.6","0.2","0.8","","","","","0.4265224768","0.1070927036","0.2449207522","0.1863610343","","","","","","","74","J","1","","","42","main_expt"
"405","","bandit","121","346497","0.0-82.0-0.0","60620268","wem/bandit_either","A1YIH5JUVIML4S","either","1","","","","","","","0","0","1","0.2418389683","","0.4","0.6","0.2","0.8","","","","","0.435880106","0.1214526226","0.2457567503","0.2418389683","","","","","","","76","L","3","","","43","main_expt"
"392","","bandit","122","348413","0.0-83.0-0.0","60620268","wem/bandit_either","A1YIH5JUVIML4S","either","1","","","","","","","0","0","1","","0.2432732657","0.4","0.6","0.2","0.8","0.4450576882","0.1450738833","0.2432732657","0.1943491227","","","","","","","","","","","75","K","2","","","44","main_expt"
"408","","bandit","123","350358","0.0-84.0-0.0","60620268","wem/bandit_either","A1YIH5JUVIML4S","either","1","","","","","","","0","0","1","","0.09632230927","0.4","0.6","0.2","0.8","0.4382030275","0.09632230927","0.2656772236","0.1543250971","","","","","","","","","","","74","J","1","","","45","main_expt"
"345","","bandit","124","352214","0.0-85.0-0.0","60620268","wem/bandit_either","A1YIH5JUVIML4S","either","1","","","","","","","0","0","1","","0.4412369426","0.4","0.6","0.2","0.8","0.4412369426","0.103211431","0.2432112423","0.09719433791","","","","","","","","","","","72","H","0","img/none_selected.jpg","","46","main_expt"
"419","","bandit","125","354170","0.0-86.0-0.0","60620268","wem/bandit_either","A1YIH5JUVIML4S","either","1","","","","","","","0","0","1","0.2992745976","","0.4","0.6","0.2","0.8","","","","","0.4588863431","0.09916324924","0.2992745976","0.1228880329","","","","","","","75","K","2","","","47","main_expt"
"421","","bandit","126","356117","0.0-87.0-0.0","60620268","wem/bandit_either","A1YIH5JUVIML4S","either","1","","","","","","","0","1","0","","0.4408788818","0.4","0.6","0.2","0.8","0.4408788818","0.1090242341","0.2594611615","0.1068532567","","","","","","","","","","","72","H","0","img/none_selected.jpg","","48","main_expt"
"441","","bandit","127","358099","0.0-88.0-0.0","60620268","wem/bandit_either","A1YIH5JUVIML4S","either","1","","","","","","","0","0","1","","0.4232064109","0.4","0.6","0.2","0.8","0.4232064109","0.1265186769","0.2767916858","0.1044048509","","","","","","","","","","","72","H","0","img/none_selected.jpg","","49","main_expt"
"399","","bandit","128","360037","0.0-89.0-0.0","60620268","wem/bandit_either","A1YIH5JUVIML4S","either","1","","","","","","","0","0","1","","0.4210883962","0.4","0.6","0.2","0.8","0.4210883962","0.1397440907","0.2762534014","0.1072026782","","","","","","","","","","","72","H","0","img/none_selected.jpg","","50","main_expt"
"383","","bandit","129","361934","0.0-90.0-0.0","60620268","wem/bandit_either","A1YIH5JUVIML4S","either","1","","","","","","","0","0","1","","0.153600331","0.4","0.6","0.2","0.8","0.4225635581","0.153600331","0.3379376541","0.1287882573","","","","","","","","","","","74","J","1","","","51","main_expt"
"393","","bandit","130","363851","0.0-91.0-0.0","60620268","wem/bandit_either","A1YIH5JUVIML4S","either","1","","","","","","","0","0","1","","0.1298059469","0.4","0.6","0.2","0.8","0.4146237098","0.1718407591","0.3395267946","0.1298059469","","","","","","","","","","","76","L","3","","","52","main_expt"
"432","","bandit","131","365794","0.0-92.0-0.0","60620268","wem/bandit_either","A1YIH5JUVIML4S","either","1","","","","","","","0","0","1","0.07423060895","","0.4","0.6","0.2","0.8","","","","","0.3763623321","0.1945727614","0.29674647","0.07423060895","","","","","","","76","L","3","","","53","main_expt"
"369","","bandit","132","367683","0.0-93.0-0.0","60620268","wem/bandit_either","A1YIH5JUVIML4S","either","1","","","","","","","0","0","1","","0.3372955831","0.4","0.6","0.2","0.8","0.3289081181","0.2450542523","0.3372955831","0.08562383645","","","","","","","","","","","75","K","2","","","54","main_expt"
"353","","bandit","133","369568","0.0-94.0-0.0","60620268","wem/bandit_either","A1YIH5JUVIML4S","either","1","","","","","","","1","0","0","0.2547241938","","0.4","0.6","0.2","0.8","","","","","0.3025984711","0.2547241938","0.3506099842","0.0757818623","","","","","","","74","J","1","","","55","main_expt"
"552","","bandit","134","371648","0.0-95.0-0.0","60620268","wem/bandit_either","A1YIH5JUVIML4S","either","1","","","","","","","0","0","1","","0.2595112895","0.4","0.6","0.2","0.8","0.2921333137","0.2595112895","0.3418029788","0.09897923035","","","","","","","","","","","74","J","1","","","56","main_expt"
"540","","bandit","135","373709","0.0-96.0-0.0","60620268","wem/bandit_either","A1YIH5JUVIML4S","either","1","","","","","","","0","0","1","","0.2610276213","0.4","0.6","0.2","0.8","0.3317177772","0.2610276213","0.3162475816","0.1160875525","","","","","","","","","","","74","J","1","","","57","main_expt"
"479","","bandit","136","375717","0.0-97.0-0.0","60620268","wem/bandit_either","A1YIH5JUVIML4S","either","1","","","","","","","0","0","1","","0.2354201416","0.4","0.6","0.2","0.8","0.3240244649","0.2354201416","0.3269881105","0.1134641846","","","","","","","","","","","74","J","1","","","58","main_expt"
"458","","bandit","137","377696","0.0-98.0-0.0","60620268","wem/bandit_either","A1YIH5JUVIML4S","either","1","","","","","","","0","0","1","","0.2346370837","0.4","0.6","0.2","0.8","0.2988076671","0.2346370837","0.2901324944","0.1177083384","","","","","","","","","","","74","J","1","","","59","main_expt"
"527","","bandit","138","379755","0.0-99.0-0.0","60620268","wem/bandit_either","A1YIH5JUVIML4S","either","1","","","","","","","0","1","0","","0.3096792726","0.4","0.6","0.2","0.8","0.3096792726","0.2315637733","0.289588464","0.1125723432","","","","","","","","","","","72","H","0","img/none_selected.jpg","","60","main_expt"
"477","","bandit","139","381753","0.0-100.0-0.0","60620268","wem/bandit_either","A1YIH5JUVIML4S","either","1","","","","","","","0","0","1","0.2821336973","","0.4","0.6","0.2","0.8","","","","","0.2821336973","0.2599537756","0.2782845563","0.09911093426","","","","","","","72","H","0","img/none_selected.jpg","","61","main_expt"
"731","","bandit","140","384004","0.0-101.0-0.0","60620268","wem/bandit_either","A1YIH5JUVIML4S","either","1","","","","","","","0","0","1","","0.2414244345","0.4","0.6","0.2","0.8","0.2414244345","0.2594941563","0.3165490401","0.09440438105","","","","","","","","","","","72","H","0","img/none_selected.jpg","","62","main_expt"
"701","","bandit","141","386218","0.0-102.0-0.0","60620268","wem/bandit_either","A1YIH5JUVIML4S","either","1","","","","","","","0","0","1","","0.213639373","0.4","0.6","0.2","0.8","0.213639373","0.2660839385","0.3034564924","0.1015409351","","","","","","","","","","","72","H","0","img/none_selected.jpg","","63","main_expt"
"440","","bandit","142","388175","0.0-103.0-0.0","60620268","wem/bandit_either","A1YIH5JUVIML4S","either","1","","","","","","","0","0","1","","0.1876308072","0.4","0.6","0.2","0.8","0.1876308072","0.2426585031","0.2506654962","0.07049798599","","","","","","","","","","","72","H","0","img/none_selected.jpg","","64","main_expt"
"414","","bandit","143","390103","0.0-104.0-0.0","60620268","wem/bandit_either","A1YIH5JUVIML4S","either","1","","","","","","","0","1","0","","0.05735603507","0.4","0.6","0.2","0.8","0.1841803182","0.2581047566","0.253414466","0.05735603507","","","","","","","","","","","76","L","3","","","65","main_expt"
"882","","bandit","144","392500","0.0-105.0-0.0","60620268","wem/bandit_either","A1YIH5JUVIML4S","either","1","","","","","","","0","0","1","","0.2836500186","0.4","0.6","0.2","0.8","0.187417598","0.2872127433","0.2836500186","0.0621258055","","","","","","","","","","","75","K","2","","","66","main_expt"
"801","","bandit","145","394816","0.0-106.0-0.0","60620268","wem/bandit_either","A1YIH5JUVIML4S","either","1","","","","","","","0","1","0","","0.3232337643","0.4","0.6","0.2","0.8","0.1395950637","0.3232337643","0.3217852231","0.06966106928","","","","","","","","","","","74","J","1","","","67","main_expt"
"510","","bandit","146","396842","0.0-107.0-0.0","60620268","wem/bandit_either","A1YIH5JUVIML4S","either","1","","","","","","","1","0","0","0.3376006622","","0.4","0.6","0.2","0.8","","","","","0.1363519197","0.3376006622","0.3574581916","0.09965709916","","","","","","","74","J","1","","","68","main_expt"
"2283","","bandit","147","400648","0.0-108.0-0.0","60620268","wem/bandit_either","A1YIH5JUVIML4S","either","1","","","","","","","0","0","1","0.2917609244","","0.4","0.6","0.2","0.8","","","","","0.1117144852","0.2917609244","0.3884563005","0.1428217854","","","","","","","74","J","1","","","69","main_expt"
"392","","bandit","148","402559","0.0-109.0-0.0","60620268","wem/bandit_either","A1YIH5JUVIML4S","either","1","","","","","","","0","0","1","0.1866845388","","0.4","0.6","0.2","0.8","","","","","0.09667493602","0.2218665627","0.3920047773","0.1866845388","","","","","","","76","L","3","","","70","main_expt"
"370","","bandit","149","404459","0.0-110.0-0.0","60620268","wem/bandit_either","A1YIH5JUVIML4S","either","1","","","","","","","0","0","1","0.2409383839","","0.4","0.6","0.2","0.8","","","","","0.09186933139","0.2409383839","0.4066376731","0.1702545286","","","","","","","74","J","1","","","71","main_expt"
"413","","bandit","150","406396","0.0-111.0-0.0","60620268","wem/bandit_either","A1YIH5JUVIML4S","either","1","","","","","","","0","0","1","","0.09472009463","0.4","0.6","0.2","0.8","0.09472009463","0.1920783453","0.3443789926","0.1836279043","","","","","","","","","","","72","H","0","img/none_selected.jpg","","72","main_expt"
"393","","bandit","151","408310","0.0-112.0-0.0","60620268","wem/bandit_either","A1YIH5JUVIML4S","either","1","","","","","","","0","0","1","0.3227553012","","0.4","0.6","0.2","0.8","","","","","0.1167805336","0.1905254877","0.3227553012","0.1644348242","","","","","","","75","K","2","","","73","main_expt"
"351","","bandit","152","410178","0.0-113.0-0.0","60620268","wem/bandit_either","A1YIH5JUVIML4S","either","1","","","","","","","1","0","0","0.184198213","","0.4","0.6","0.2","0.8","","","","","0.1465151254","0.184198213","0.3336652139","0.1833421201","","","","","","","74","J","1","","","74","main_expt"
"546","","bandit","153","412247","0.0-114.0-0.0","60620268","wem/bandit_either","A1YIH5JUVIML4S","either","1","","","","","","","0","0","1","0.1881920243","","0.4","0.6","0.2","0.8","","","","","0.123285719","0.1881920243","0.2890150868","0.1519653276","","","","","","","74","J","1","","","75","main_expt"
"307","","bandit","154","414081","0.0-115.0-0.0","60620268","wem/bandit_either","A1YIH5JUVIML4S","either","1","","","","","","","0","0","1","","0.1988930589","0.4","0.6","0.2","0.8","0.1392606081","0.1988930589","0.2673490463","0.1506622639","","","","","","","","","","","74","J","1","","","76","main_expt"
"300","","bandit","155","415914","0.0-116.0-0.0","60620268","wem/bandit_either","A1YIH5JUVIML4S","either","1","","","","","","","0","0","1","","0.2255968657","0.4","0.6","0.2","0.8","0.099337717","0.2255968657","0.2858541315","0.1860897766","","","","","","","","","","","74","J","1","","","77","main_expt"
"415","","bandit","156","417848","0.0-117.0-0.0","60620268","wem/bandit_either","A1YIH5JUVIML4S","either","1","","","","","","","0","0","1","0.1618556875","","0.4","0.6","0.2","0.8","","","","","0.09666605973","0.1917014014","0.2639968829","0.1618556875","","","","","","","76","L","3","","","78","main_expt"
"385","","bandit","157","419766","0.0-118.0-0.0","60620268","wem/bandit_either","A1YIH5JUVIML4S","either","1","","","","","","","0","1","0","","0.1976853889","0.4","0.6","0.2","0.8","0.09639353985","0.2092129429","0.2304888896","0.1976853889","","","","","","","","","","","76","L","3","","","79","main_expt"
"376","","bandit","158","421663","0.0-119.0-0.0","60620268","wem/bandit_either","A1YIH5JUVIML4S","either","1","","","","","","","1","0","0","0.2198838985","","0.4","0.6","0.2","0.8","","","","","0.09566996791","0.1974306726","0.1991809665","0.2198838985","","","","","","","76","L","3","","","80","main_expt"
"393","","bandit","159","423581","0.0-120.0-0.0","60620268","wem/bandit_either","A1YIH5JUVIML4S","either","1","","","","","","","1","0","0","0.2167005254","","0.4","0.6","0.2","0.8","","","","","0.07958501382","0.1414754506","0.1627434897","0.2167005254","","","","","","","76","L","3","","","81","main_expt"
"560","","bandit","160","425659","0.0-121.0-0.0","60620268","wem/bandit_either","A1YIH5JUVIML4S","either","1","","","","","","","0","1","0","","0.2527486409","0.4","0.6","0.2","0.8","0.08833774835","0.1422587364","0.1624637972","0.2527486409","","","","","","","","","","","76","L","3","","","82","main_expt"
"432","","bandit","161","427626","0.0-122.0-0.0","60620268","wem/bandit_either","A1YIH5JUVIML4S","either","1","","","","","","","0","0","1","0.2569721607","","0.4","0.6","0.2","0.8","","","","","0.09109006352","0.1079415531","0.1900332","0.2569721607","","","","","","","76","L","3","","","83","main_expt"
"341","","bandit","162","429493","0.0-123.0-0.0","60620268","wem/bandit_either","A1YIH5JUVIML4S","either","1","","","","","","","1","0","0","0.2535394321","","0.4","0.6","0.2","0.8","","","","","0.05321730921","0.07696487024","0.1705646391","0.2535394321","","","","","","","76","L","3","","","84","main_expt"
"363","","bandit","163","431397","0.0-124.0-0.0","60620268","wem/bandit_either","A1YIH5JUVIML4S","either","1","","","","","","","0","0","1","0.2255799186","","0.4","0.6","0.2","0.8","","","","","0.03321009489","0.08313016423","0.2053302659","0.2255799186","","","","","","","76","L","3","","","85","main_expt"
"338","","bandit","164","433261","0.0-125.0-0.0","60620268","wem/bandit_either","A1YIH5JUVIML4S","either","1","","","","","","","0","0","1","0.2197080914","","0.4","0.6","0.2","0.8","","","","","0.04864990798","0.102083396","0.2128685413","0.2197080914","","","","","","","76","L","3","","","86","main_expt"
"309","","bandit","165","435091","0.0-126.0-0.0","60620268","wem/bandit_either","A1YIH5JUVIML4S","either","1","","","","","","","0","1","0","","0.213778815","0.4","0.6","0.2","0.8","0.07919268752","0.09067070718","0.213778815","0.2230338057","","","","","","","","","","","75","K","2","","","87","main_expt"
"332","","bandit","166","436951","0.0-127.0-0.0","60620268","wem/bandit_either","A1YIH5JUVIML4S","either","1","","","","","","","0","1","0","","0.2102340809","0.4","0.6","0.2","0.8","0.05835116993","0.1421970704","0.2102340809","0.2484269739","","","","","","","","","","","75","K","2","","","88","main_expt"
"364","","bandit","167","438853","0.0-128.0-0.0","60620268","wem/bandit_either","A1YIH5JUVIML4S","either","1","","","","","","","0","0","1","","0.1809358483","0.4","0.6","0.2","0.8","0.05115519592","0.219142046","0.1809358483","0.2733562597","","","","","","","","","","","75","K","2","","","89","main_expt"
"604","","bandit","168","440974","0.0-129.0-0.0","60620268","wem/bandit_either","A1YIH5JUVIML4S","either","1","","","","","","","0","0","1","","0.1293356972","0.4","0.6","0.2","0.8","0.07819273649","0.2806923657","0.1293356972","0.2973868449","","","","","","","","","","","75","K","2","","","90","main_expt"
"353","","bandit","169","442852","0.0-130.0-0.0","60620268","wem/bandit_either","A1YIH5JUVIML4S","either","1","","","","","","","0","0","1","","0.05564661524","0.4","0.6","0.2","0.8","0.05564661524","0.2819660137","0.1136224352","0.3067689268","","","","","","","","","","","72","H","0","img/none_selected.jpg","","91","main_expt"
"405","","bandit","170","444785","0.0-131.0-0.0","60620268","wem/bandit_either","A1YIH5JUVIML4S","either","1","","","","","","","0","0","1","","0.05914103421","0.4","0.6","0.2","0.8","0.05914103421","0.3370305887","0.07539152519","0.2719776188","","","","","","","","","","","72","H","0","img/none_selected.jpg","","92","main_expt"
"388","","bandit","171","446687","0.0-132.0-0.0","60620268","wem/bandit_either","A1YIH5JUVIML4S","either","1","","","","","","","0","0","1","0.3722719914","","0.4","0.6","0.2","0.8","","","","","0.03944324463","0.3722719914","0.08243558305","0.3081791896","","","","","","","74","J","1","","","93","main_expt"
"336","","bandit","172","448555","0.0-133.0-0.0","60620268","wem/bandit_either","A1YIH5JUVIML4S","either","1","","","","","","","0","0","1","0.3840030774","","0.4","0.6","0.2","0.8","","","","","0.05023017475","0.3840030774","0.09807673793","0.356667856","","","","","","","74","J","1","","","94","main_expt"
"472","","bandit","173","450549","0.0-134.0-0.0","60620268","wem/bandit_either","A1YIH5JUVIML4S","either","1","","","","","","","1","0","0","0.3300765204","","0.4","0.6","0.2","0.8","","","","","0.07311956304","0.4050844552","0.09746204728","0.3300765204","","","","","","","76","L","3","","","95","main_expt"
"405","","bandit","174","452479","0.0-135.0-0.0","60620268","wem/bandit_either","A1YIH5JUVIML4S","either","1","","","","","","","0","0","1","","0.3642735905","0.4","0.6","0.2","0.8","0.09573717159","0.4081076376","0.08559835745","0.3642735905","","","","","","","","","","","76","L","3","","","96","main_expt"
"389","","bandit","175","454408","0.0-136.0-0.0","60620268","wem/bandit_either","A1YIH5JUVIML4S","either","1","","","","","","","0","0","1","0.3885664579","","0.4","0.6","0.2","0.8","","","","","0.1235519285","0.4142780263","0.0732645996","0.3885664579","","","","","","","76","L","3","","","97","main_expt"
"272","","bandit","176","456213","0.0-137.0-0.0","60620268","wem/bandit_either","A1YIH5JUVIML4S","either","1","","","","","","","0","1","0","","0.4162912028","0.4","0.6","0.2","0.8","0.1274282425","0.4131193208","0.05343209845","0.4162912028","","","","","","","","","","","76","L","3","","","98","main_expt"
"343","","bandit","177","458086","0.0-138.0-0.0","60620268","wem/bandit_either","A1YIH5JUVIML4S","either","1","","","","","","","1","0","0","0.4074153657","","0.4","0.6","0.2","0.8","","","","","0.1457321849","0.428944851","0.05144299931","0.4074153657","","","","","","","76","L","3","","","99","main_expt"
"303","","bandit","178","459922","0.0-139.0-0.0","60620268","wem/bandit_either","A1YIH5JUVIML4S","either","1","","","","","","","0","0","1","","0.3349137267","0.4","0.6","0.2","0.8","0.1492128348","0.4279797645","0.03934302155","0.3349137267","","","","","","","","","","","76","L","3","","","100","main_expt"
"360","","bandit","179","461799","0.0-140.0-0.0","60620268","wem/bandit_either","A1YIH5JUVIML4S","either","1","","","","","","","0","0","1","0.2732947861","","0.4","0.6","0.2","0.8","","","","","0.125019219","0.4189249443","0.05783306622","0.2732947861","","","","","","","76","L","3","","","101","main_expt"
"166","","bandit","180","463483","0.0-141.0-0.0","60620268","wem/bandit_either","A1YIH5JUVIML4S","either","1","","","","","","","1","0","0","0.2584454073","","0.4","0.6","0.2","0.8","","","","","0.1008510245","0.4279241466","0.06484492547","0.2584454073","","","","","","","76","L","3","","","102","main_expt"
"599","","bandit","181","465615","0.0-142.0-0.0","60620268","wem/bandit_either","A1YIH5JUVIML4S","either","1","","","","","","","0","0","1","0.2143891894","","0.4","0.6","0.2","0.8","","","","","0.1087281004","0.419390052","0.0701259157","0.2143891894","","","","","","","76","L","3","","","103","main_expt"
"397","","bandit","182","467538","0.0-143.0-0.0","60620268","wem/bandit_either","A1YIH5JUVIML4S","either","1","","","","","","","0","0","1","0.1354346047","","0.4","0.6","0.2","0.8","","","","","0.143855427","0.3761202226","0.06922647753","0.1354346047","","","","","","","76","L","3","","","104","main_expt"
"506","","bandit","183","469571","0.0-144.0-0.0","60620268","wem/bandit_either","A1YIH5JUVIML4S","either","1","","","","","","","0","0","1","0.1615963473","","0.4","0.6","0.2","0.8","","","","","0.1606853024","0.4229881466","0.07802312096","0.1615963473","","","","","","","76","L","3","","","105","main_expt"
"490","","bandit","184","471575","0.0-145.0-0.0","60620268","wem/bandit_either","A1YIH5JUVIML4S","either","1","","","","","","","0","0","1","","0.08930313369","0.4","0.6","0.2","0.8","0.1612939645","0.4110558218","0.08930313369","0.1738621023","","","","","","","","","","","75","K","2","","","106","main_expt"
"256","","bandit","185","473348","0.0-146.0-0.0","60620268","wem/bandit_either","A1YIH5JUVIML4S","either","1","","","","","","","0","0","1","0.1397733654","","0.4","0.6","0.2","0.8","","","","","0.1778053335","0.4176599015","0.1397733654","0.1799671425","","","","","","","75","K","2","","","107","main_expt"
"548","","bandit","186","475421","0.0-147.0-0.0","60620268","wem/bandit_either","A1YIH5JUVIML4S","either","1","","","","","","","0","1","0","","0.4210396584","0.4","0.6","0.2","0.8","0.1826465361","0.4210396584","0.1505899732","0.1844274074","","","","","","","","","","","74","J","1","","","108","main_expt"
"1239","","bandit","187","478176","0.0-148.0-0.0","60620268","wem/bandit_either","A1YIH5JUVIML4S","either","1","","","","","","","1","0","0","0.4328015469","","0.4","0.6","0.2","0.8","","","","","0.1737022726","0.4328015469","0.1162436109","0.1702708828","","","","","","","74","J","1","","","109","main_expt"
"1380","","bandit","188","481085","0.0-149.0-0.0","60620268","wem/bandit_either","A1YIH5JUVIML4S","either","1","","","","","","","0","0","1","0.4495585744","","0.4","0.6","0.2","0.8","","","","","0.1658344406","0.4495585744","0.08267976014","0.1964407335","","","","","","","74","J","1","","","110","main_expt"
"124","","bandit","189","482725","0.0-150.0-0.0","60620268","wem/bandit_either","A1YIH5JUVIML4S","either","1","","","","","","","1","0","0","0.4237631325","","0.4","0.6","0.2","0.8","","","","","0.240619448","0.4237631325","0.09389793805","0.1777579569","","","","","","","74","J","1","","","111","main_expt"
"397","","bandit","190","484640","0.0-151.0-0.0","60620268","wem/bandit_either","A1YIH5JUVIML4S","either","1","","","","","","","0","0","1","","0.4521571561","0.4","0.6","0.2","0.8","0.1927397719","0.4521571561","0.07903418564","0.1395994444","","","","","","","","","","","74","J","1","","","112","main_expt"
"117","","bandit","191","486301","0.0-152.0-0.0","60620268","wem/bandit_either","A1YIH5JUVIML4S","either","1","","","","","","","0","1","0","","0.4350762846","0.4","0.6","0.2","0.8","0.234725565","0.4350762846","0.05501139052","0.1205999431","","","","","","","","","","","74","J","1","","","113","main_expt"
"450","","bandit","192","488302","0.0-153.0-0.0","60620268","wem/bandit_either","A1YIH5JUVIML4S","either","1","","","","","","","1","0","0","0.4315824664","","0.4","0.6","0.2","0.8","","","","","0.1950215869","0.4315824664","0.07627702456","0.09123355482","","","","","","","74","J","1","","","114","main_expt"
"436","","bandit","193","490272","0.0-154.0-0.0","60620268","wem/bandit_either","A1YIH5JUVIML4S","either","1","","","","","","","0","0","1","0.4127349624","","0.4","0.6","0.2","0.8","","","","","0.2575833325","0.4127349624","0.03985247356","0.09554471192","","","","","","","74","J","1","","","115","main_expt"
"1431","","bandit","194","493236","0.0-155.0-0.0","60620268","wem/bandit_either","A1YIH5JUVIML4S","either","1","","","","","","","0","0","1","0.4468356006","","0.4","0.6","0.2","0.8","","","","","0.2296468005","0.4468356006","0.0683792979","0.1942182492","","","","","","","74","J","1","","","116","main_expt"
"380","","bandit","195","495149","0.0-156.0-0.0","60620268","wem/bandit_either","A1YIH5JUVIML4S","either","1","","","","","","","0","1","0","","0.2816483341","0.4","0.6","0.2","0.8","0.2816483341","0.4458703805","0.03956212276","0.2208250117","","","","","","","","","","","72","H","0","img/none_selected.jpg","","117","main_expt"
"523","","bandit","196","497201","0.0-157.0-0.0","60620268","wem/bandit_either","A1YIH5JUVIML4S","either","1","","","","","","","0","0","1","","0.2626769985","0.4","0.6","0.2","0.8","0.2626769985","0.4500370674","0.04459229253","0.1687975443","","","","","","","","","","","72","H","0","img/none_selected.jpg","","118","main_expt"
"471","","bandit","197","499201","0.0-158.0-0.0","60620268","wem/bandit_either","A1YIH5JUVIML4S","either","1","","","","","","","0","0","1","","0.2418090277","0.4","0.6","0.2","0.8","0.2418090277","0.4704359259","0.03386957434","0.1546105485","","","","","","","","","","","72","H","0","img/none_selected.jpg","","119","main_expt"
"534","","bandit","198","501276","0.0-159.0-0.0","60620268","wem/bandit_either","A1YIH5JUVIML4S","either","1","","","","","","","0","0","1","","0.2603236095","0.4","0.6","0.2","0.8","0.2603236095","0.4578798539","0.03305427522","0.143668411","","","","","","","","","","","72","H","0","img/none_selected.jpg","","120","main_expt"
"356","","bandit","199","503167","0.0-160.0-0.0","60620268","wem/bandit_either","A1YIH5JUVIML4S","either","1","","","","","","","0","1","0","","0.03146098963","0.4","0.6","0.2","0.8","0.2381785671","0.4591190262","0.03146098963","0.1098317425","","","","","","","","","","","75","K","2","","","121","main_expt"
"380","","bandit","200","505074","0.0-161.0-0.0","60620268","wem/bandit_either","A1YIH5JUVIML4S","either","1","","","","","","","0","0","1","","0.02311797033","0.4","0.6","0.2","0.8","0.2388462554","0.4643737298","0.02311797033","0.1097832873","","","","","","","","","","","75","K","2","","","122","main_expt"
"424","","bandit","201","507031","0.0-162.0-0.0","60620268","wem/bandit_either","A1YIH5JUVIML4S","either","1","","","","","","","0","0","1","","0.0171261738","0.4","0.6","0.2","0.8","0.2079929623","0.451586091","0.0171261738","0.1145900252","","","","","","","","","","","75","K","2","","","123","main_expt"
"320","","bandit","202","508866","0.0-163.0-0.0","60620268","wem/bandit_either","A1YIH5JUVIML4S","either","1","","","","","","","0","0","1","0.1137783892","","0.4","0.6","0.2","0.8","","","","","0.2148400852","0.4456906556","0.03468299263","0.1137783892","","","","","","","76","L","3","","","124","main_expt"
"247","","bandit","203","510635","0.0-164.0-0.0","60620268","wem/bandit_either","A1YIH5JUVIML4S","either","1","","","","","","","0","0","1","0.145605256","","0.4","0.6","0.2","0.8","","","","","0.2185056602","0.4240876494","0.02544516396","0.145605256","","","","","","","76","L","3","","","125","main_expt"
"104","","bandit","204","512256","0.0-165.0-0.0","60620268","wem/bandit_either","A1YIH5JUVIML4S","either","1","","","","","","","1","0","0","0.4008501573","","0.4","0.6","0.2","0.8","","","","","0.2152323899","0.4008501573","0.03059506073","0.1443839055","","","","","","","74","J","1","","","126","main_expt"
"464","","bandit","205","514244","0.0-166.0-0.0","60620268","wem/bandit_either","A1YIH5JUVIML4S","either","1","","","","","","","0","1","0","","0.4066073101","0.4","0.6","0.2","0.8","0.1699446714","0.4066073101","0.0339638967","0.1434222382","","","","","","","","","","","74","J","1","","","127","main_expt"
"413","","bandit","206","516199","0.0-167.0-0.0","60620268","wem/bandit_either","A1YIH5JUVIML4S","either","1","","","","","","","0","0","1","","0.4270302575","0.4","0.6","0.2","0.8","0.1299446217","0.4270302575","0.02632978063","0.1412168693","","","","","","","","","","","74","J","1","","","128","main_expt"
"383","","bandit","207","518102","0.0-168.0-0.0","60620268","wem/bandit_either","A1YIH5JUVIML4S","either","1","","","","","","","0","1","0","","0.4401824822","0.4","0.6","0.2","0.8","0.1299487573","0.4401824822","0.02640977482","0.1086871361","","","","","","","","","","","74","J","1","","","129","main_expt"
"1402","","bandit","208","521054","0.0-169.0-0.0","60620268","wem/bandit_either","A1YIH5JUVIML4S","either","1","","","","","","","0","0","1","","0.4160959849","0.4","0.6","0.2","0.8","0.1172580566","0.4160959849","0.03646961518","0.1672766288","","","","","","","","","","","74","J","1","","","130","main_expt"
"391","","bandit","209","522973","0.0-170.0-0.0","60620268","wem/bandit_either","A1YIH5JUVIML4S","either","1","","","","","","","0","1","0","","0.4374535298","0.4","0.6","0.2","0.8","0.1289979545","0.4374535298","0.02171712127","0.157110596","","","","","","","","","","","74","J","1","","","131","main_expt"
"770","","bandit","210","525277","0.0-171.0-0.0","60620268","wem/bandit_either","A1YIH5JUVIML4S","either","1","","","","","","","0","0","1","","0.4382483821","0.4","0.6","0.2","0.8","0.1243754988","0.4382483821","0.01004766493","0.1338697581","","","","","","","","","","","74","J","1","","","132","main_expt"
"567","","bandit","211","527370","0.0-172.0-0.0","60620268","wem/bandit_either","A1YIH5JUVIML4S","either","1","","","","","","","0","1","0","","0.3913946914","0.4","0.6","0.2","0.8","0.1189203389","0.3913946914","0.005153708139","0.1101669797","","","","","","","","","","","74","J","1","","","133","main_expt"
"1029","","bandit","212","529926","0.0-173.0-0.0","60620268","wem/bandit_either","A1YIH5JUVIML4S","either","1","","","","","","","0","0","1","0.4280120537","","0.4","0.6","0.2","0.8","","","","","0.07075860378","0.4280120537","0.01308543257","0.060775537","","","","","","","74","J","1","","","134","main_expt"
"1042","","bandit","213","532501","0.0-174.0-0.0","60620268","wem/bandit_either","A1YIH5JUVIML4S","either","1","","","","","","","1","0","0","0.4385213509","","0.4","0.6","0.2","0.8","","","","","0.1073185777","0.4385213509","0.02634180281","0.0714416082","","","","","","","74","J","1","","","135","main_expt"
"1965","","bandit","214","536002","0.0-175.0-0.0","60620268","wem/bandit_either","A1YIH5JUVIML4S","either","1","","","","","","","0","0","1","0.4605212521","","0.4","0.6","0.2","0.8","","","","","0.1001442491","0.4605212521","0.04122629063","0.1115096907","","","","","","","74","J","1","","","136","main_expt"
"517","","bandit","215","538040","0.0-176.0-0.0","60620268","wem/bandit_either","A1YIH5JUVIML4S","either","1","","","","","","","1","0","0","0.4729500637","","0.4","0.6","0.2","0.8","","","","","0.1736681681","0.4729500637","0.05517648788","0.1307091067","","","","","","","74","J","1","","","137","main_expt"
"736","","bandit","216","540297","0.0-177.0-0.0","60620268","wem/bandit_either","A1YIH5JUVIML4S","either","1","","","","","","","0","0","1","","0.4705425907","0.4","0.6","0.2","0.8","0.1839908368","0.4705425907","0.05929415862","0.1289533412","","","","","","","","","","","74","J","1","","","138","main_expt"
"598","","bandit","217","542413","0.0-178.0-0.0","60620268","wem/bandit_either","A1YIH5JUVIML4S","either","1","","","","","","","0","0","1","0.465423541","","0.4","0.6","0.2","0.8","","","","","0.1500833973","0.465423541","0.05470710098","0.1215972271","","","","","","","74","J","1","","","139","main_expt"
"605","","bandit","218","544535","0.0-179.0-0.0","60620268","wem/bandit_either","A1YIH5JUVIML4S","either","1","","","","","","","0","0","1","","0.4486857012","0.4","0.6","0.2","0.8","0.1718879457","0.4486857012","0.06062538604","0.1158179575","","","","","","","","","","","74","J","1","","","140","main_expt"
"522","","bandit","219","546575","0.0-180.0-0.0","60620268","wem/bandit_either","A1YIH5JUVIML4S","either","1","","","","","","","1","0","0","0.4053061298","","0.4","0.6","0.2","0.8","","","","","0.2025036279","0.4053061298","0.05819772386","0.08691297649","","","","","","","74","J","1","","","141","main_expt"
"459","","bandit","220","548554","0.0-181.0-0.0","60620268","wem/bandit_either","A1YIH5JUVIML4S","either","1","","","","","","","0","0","1","","0.3989731656","0.4","0.6","0.2","0.8","0.1872564568","0.3989731656","0.05329701838","0.1425267255","","","","","","","","","","","74","J","1","","","142","main_expt"
"356","","bandit","221","550454","0.0-182.0-0.0","60620268","wem/bandit_either","A1YIH5JUVIML4S","either","1","","","","","","","0","0","1","","0.3783570596","0.4","0.6","0.2","0.8","0.1676641842","0.3783570596","0.06209903385","0.1425141192","","","","","","","","","","","74","J","1","","","143","main_expt"
"434","","bandit","222","552413","0.0-183.0-0.0","60620268","wem/bandit_either","A1YIH5JUVIML4S","either","1","","","","","","","0","0","1","","0.06954729647","0.4","0.6","0.2","0.8","0.1502987652","0.3485663762","0.06954729647","0.1362652721","","","","","","","","","","","75","K","2","","","144","main_expt"
"324","","bandit","223","554259","0.0-184.0-0.0","60620268","wem/bandit_either","A1YIH5JUVIML4S","either","1","","","","","","","0","0","1","0.1050568962","","0.4","0.6","0.2","0.8","","","","","0.1050568962","0.3534190037","0.062760129","0.1335650053","","","","","","","72","H","0","img/none_selected.jpg","","145","main_expt"
"81","","bandit","224","555858","0.0-185.0-0.0","60620268","wem/bandit_either","A1YIH5JUVIML4S","either","1","","","","","","","1","0","0","0.1266784727","","0.4","0.6","0.2","0.8","","","","","0.1266784727","0.342282706","0.05014677947","0.1392461982","","","","","","","72","H","0","img/none_selected.jpg","","146","main_expt"
"452","","bandit","225","557849","0.0-186.0-0.0","60620268","wem/bandit_either","A1YIH5JUVIML4S","either","1","","","","","","","0","0","1","","0.1121887101","0.4","0.6","0.2","0.8","0.1121887101","0.3497384939","0.04801868921","0.1060810453","","","","","","","","","","","72","H","0","img/none_selected.jpg","","147","main_expt"
"331","","bandit","226","559725","0.0-187.0-0.0","60620268","wem/bandit_either","A1YIH5JUVIML4S","either","1","","","","","","","0","0","1","0.1050077765","","0.4","0.6","0.2","0.8","","","","","0.1050077765","0.3507348305","0.05298179562","0.1076054289","","","","","","","72","H","0","img/none_selected.jpg","","148","main_expt"
"470","","bandit","227","561709","0.0-188.0-0.0","60620268","wem/bandit_either","A1YIH5JUVIML4S","either","1","","","","","","","1","0","0","0.09143227578","","0.4","0.6","0.2","0.8","","","","","0.08725679698","0.306786392","0.05271587927","0.09143227578","","","","","","","76","L","3","","","149","main_expt"
"375","","bandit","228","563621","0.0-189.0-0.0","60620268","wem/bandit_either","A1YIH5JUVIML4S","either","1","","","","","","","0","0","1","0.08361181256","","0.4","0.6","0.2","0.8","","","","","0.04813781364","0.3289077467","0.06153260368","0.08361181256","","","","","","","76","L","3","","","150","main_expt"
"361","","bandit","229","565513","0.0-190.0-0.0","60620268","wem/bandit_either","A1YIH5JUVIML4S","either","1","","","","","","","0","0","1","0.1038450747","","0.4","0.6","0.2","0.8","","","","","0.04690393958","0.2844912386","0.07716317934","0.1038450747","","","","","","","76","L","3","","","151","main_expt"
"549","","bandit","230","567584","0.0-191.0-0.0","60620268","wem/bandit_either","A1YIH5JUVIML4S","either","1","","","","","","","0","0","1","","0.1311897928","0.4","0.6","0.2","0.8","0.05051779207","0.3221551402","0.08370894892","0.1311897928","","","","","","","","","","","76","L","3","","","152","main_expt"
"13","","bandit","231","569125","0.0-192.0-0.0","60620268","wem/bandit_either","A1YIH5JUVIML4S","either","1","","","","","","","0","0","1","","0.06235129306","0.4","0.6","0.2","0.8","0.0417019452","0.288581716","0.06235129306","0.1106636196","","","","","","","","","","","75","K","2","","","153","main_expt"
"373","","bandit","232","571018","0.0-193.0-0.0","60620268","wem/bandit_either","A1YIH5JUVIML4S","either","1","","","","","","","0","0","1","0.3674714493","","0.4","0.6","0.2","0.8","","","","","0.04565059468","0.3674714493","0.08808261531","0.08044616817","","","","","","","74","J","1","","","154","main_expt"
"492","","bandit","233","573039","0.0-194.0-0.0","60620268","wem/bandit_either","A1YIH5JUVIML4S","either","1","","","","","","","0","0","1","0.0249337719","","0.4","0.6","0.2","0.8","","","","","0.0249337719","0.3836765626","0.08415746701","0.09849608375","","","","","","","72","H","0","img/none_selected.jpg","","155","main_expt"
"395","","bandit","234","574951","0.0-195.0-0.0","60620268","wem/bandit_either","A1YIH5JUVIML4S","either","1","","","","","","","0","0","1","","0.0207568711","0.4","0.6","0.2","0.8","0.0207568711","0.3499766022","0.1363215429","0.0679626842","","","","","","","","","","","72","H","0","img/none_selected.jpg","","156","main_expt"
"378","","bandit","235","576853","0.0-196.0-0.0","60620268","wem/bandit_either","A1YIH5JUVIML4S","either","1","","","","","","","1","0","0","0.3083455354","","0.4","0.6","0.2","0.8","","","","","0.01044871803","0.3083455354","0.176329139","0.06316877849","","","","","","","74","J","1","","","157","main_expt"
"428","","bandit","236","578804","0.0-197.0-0.0","60620268","wem/bandit_either","A1YIH5JUVIML4S","either","1","","","","","","","1","0","0","0.2780985587","","0.4","0.6","0.2","0.8","","","","","0.008486032171","0.2780985587","0.2239815039","0.06381796224","","","","","","","74","J","1","","","158","main_expt"
"606","","bandit","237","580938","0.0-198.0-0.0","60620268","wem/bandit_either","A1YIH5JUVIML4S","either","1","","","","","","","1","0","0","0.2721424699","","0.4","0.6","0.2","0.8","","","","","0.006770001311","0.2721424699","0.1754735631","0.09986374221","","","","","","","74","J","1","","","159","main_expt"
"592","","bandit","238","583065","0.0-199.0-0.0","60620268","wem/bandit_either","A1YIH5JUVIML4S","either","1","","","","","","","0","0","1","0.3005636977","","0.4","0.6","0.2","0.8","","","","","0.005009972043","0.3005636977","0.1820859676","0.08334790929","","","","","","","74","J","1","","","160","main_expt"
"1308","","bandit","239","585914","0.0-200.0-0.0","60620268","wem/bandit_either","A1YIH5JUVIML4S","either","1","","","","","","","1","0","0","0.2481613967","","0.4","0.6","0.2","0.8","","","","","0.003825417776","0.2481613967","0.1771527669","0.1094566723","","","","","","","74","J","1","","","161","main_expt"
"1367","","bandit","240","588812","0.0-201.0-0.0","60620268","wem/bandit_either","A1YIH5JUVIML4S","either","1","","","","","","","0","0","1","","0.2040880477","0.4","0.6","0.2","0.8","0.006458278423","0.2040880477","0.209245514","0.1287108975","","","","","","","","","","","74","J","1","","","162","main_expt"
"433","","bandit","241","590764","0.0-202.0-0.0","60620268","wem/bandit_either","A1YIH5JUVIML4S","either","1","","","","","","","0","0","1","0.256608811","","0.4","0.6","0.2","0.8","","","","","0.01344146107","0.256608811","0.1864252411","0.1811808859","","","","","","","74","J","1","","","163","main_expt"
"373","","bandit","242","592657","0.0-203.0-0.0","60620268","wem/bandit_either","A1YIH5JUVIML4S","either","1","","","","","","","0","0","1","0.1662237337","","0.4","0.6","0.2","0.8","","","","","0.004940614731","0.2798468236","0.1662237337","0.1374611454","","","","","","","75","K","2","","","164","main_expt"
"376","","bandit","243","594574","0.0-204.0-0.0","60620268","wem/bandit_either","A1YIH5JUVIML4S","either","1","","","","","","","0","1","0","","0.1375661656","0.4","0.6","0.2","0.8","0.007349038951","0.2689568899","0.1375661656","0.1640313333","","","","","","","","","","","75","K","2","","","165","main_expt"
"517","","bandit","244","596621","0.0-205.0-0.0","60620268","wem/bandit_either","A1YIH5JUVIML4S","either","1","","","","","","","0","0","1","0.1416727521","","0.4","0.6","0.2","0.8","","","","","0.005679103294","0.2786045926","0.1416727521","0.20052236","","","","","","","75","K","2","","","166","main_expt"
"1485","","bandit","245","599638","0.0-206.0-0.0","60620268","wem/bandit_either","A1YIH5JUVIML4S","either","1","","","","","","","0","0","1","","0.1497541138","0.4","0.6","0.2","0.8","0.004037182679","0.2507583434","0.1497541138","0.1945206589","","","","","","","","","","","75","K","2","","","167","main_expt"
"806","","bandit","246","601967","0.0-207.0-0.0","60620268","wem/bandit_either","A1YIH5JUVIML4S","either","1","","","","","","","0","0","1","","0.1827624484","0.4","0.6","0.2","0.8","0.007111326723","0.1827624484","0.1761460581","0.1902154162","","","","","","","","","","","74","J","1","","","168","main_expt"
"1398","","bandit","247","604888","0.0-208.0-0.0","60620268","wem/bandit_either","A1YIH5JUVIML4S","either","1","","","","","","","1","0","0","0.1558723634","","0.4","0.6","0.2","0.8","","","","","0.01708305062","0.1558723634","0.2248215173","0.1931964682","","","","","","","74","J","1","","","169","main_expt"
"2642","","bandit","248","609072","0.0-209.0-0.0","60620268","wem/bandit_either","A1YIH5JUVIML4S","either","1","","","","","","","0","0","1","","0.1757164868","0.4","0.6","0.2","0.8","0.02105388628","0.1757164868","0.2503105048","0.236179436","","","","","","","","","","","74","J","1","","","170","main_expt"
"1605","","bandit","249","612223","0.0-210.0-0.0","60620268","wem/bandit_either","A1YIH5JUVIML4S","either","1","","","","","","","0","0","1","0.1985597056","","0.4","0.6","0.2","0.8","","","","","0.01477187034","0.1985597056","0.2515708499","0.2229285478","","","","","","","74","J","1","","","171","main_expt"
"564","","bandit","250","614314","0.0-211.0-0.0","60620268","wem/bandit_either","A1YIH5JUVIML4S","either","1","","","","","","","0","0","1","","0.00639283578","0.4","0.6","0.2","0.8","0.00639283578","0.1725269859","0.2601117771","0.1805811295","","","","","","","","","","","72","H","0","img/none_selected.jpg","","172","main_expt"
"444","","bandit","251","616289","0.0-212.0-0.0","60620268","wem/bandit_either","A1YIH5JUVIML4S","either","1","","","","","","","1","0","0","0.2203049146","","0.4","0.6","0.2","0.8","","","","","0.008503536177","0.1955807132","0.2277859889","0.2203049146","","","","","","","76","L","3","","","173","main_expt"
"539","","bandit","252","618360","0.0-213.0-0.0","60620268","wem/bandit_either","A1YIH5JUVIML4S","either","1","","","","","","","0","0","1","0.2079245196","","0.4","0.6","0.2","0.8","","","","","0.01512836446","0.1712969398","0.204090619","0.2079245196","","","","","","","76","L","3","","","174","main_expt"
"451","","bandit","253","620356","0.0-214.0-0.0","60620268","wem/bandit_either","A1YIH5JUVIML4S","either","1","","","","","","","0","0","1","0.1904909119","","0.4","0.6","0.2","0.8","","","","","0.034550241","0.2145566876","0.2264282848","0.1904909119","","","","","","","76","L","3","","","175","main_expt"
"4","","bandit","254","621889","0.0-215.0-0.0","60620268","wem/bandit_either","A1YIH5JUVIML4S","either","1","","","","","","","1","0","0","0.1611975006","","0.4","0.6","0.2","0.8","","","","","0.01969997198","0.1987050603","0.2263436383","0.1611975006","","","","","","","76","L","3","","","176","main_expt"
"514","","bandit","255","623924","0.0-216.0-0.0","60620268","wem/bandit_either","A1YIH5JUVIML4S","either","1","","","","","","","0","0","1","0.1747210449","","0.4","0.6","0.2","0.8","","","","","0.02558747067","0.2161967517","0.2449632337","0.1747210449","","","","","","","76","L","3","","","177","main_expt"
"301","","bandit","256","625741","0.0-217.0-0.0","60620268","wem/bandit_either","A1YIH5JUVIML4S","either","1","","","","","","","0","0","1","0.1667690144","","0.4","0.6","0.2","0.8","","","","","0.02865462312","0.1790488899","0.1923885174","0.1667690144","","","","","","","76","L","3","","","178","main_expt"
"20","","bandit","257","627295","0.0-218.0-0.0","60620268","wem/bandit_either","A1YIH5JUVIML4S","either","1","","","","","","","0","1","0","","0.248539666","0.4","0.6","0.2","0.8","0.05873937836","0.1254539317","0.1791230597","0.248539666","","","","","","","","","","","76","L","3","","","179","main_expt"
"433","","bandit","258","629267","0.0-219.0-0.0","60620268","wem/bandit_either","A1YIH5JUVIML4S","either","1","","","","","","","0","0","1","0.2393284063","","0.4","0.6","0.2","0.8","","","","","0.04996702027","0.1761702366","0.1641305094","0.2393284063","","","","","","","76","L","3","","","180","main_expt"
"480","","bandit","259","631293","0.0-220.0-0.0","60620268","wem/bandit_either","A1YIH5JUVIML4S","either","1","","","","","","","0","0","1","","0.1567194189","0.4","0.6","0.2","0.8","0.06192223509","0.2307221343","0.1567194189","0.2450765022","","","","","","","","","","","75","K","2","","","181","main_expt"
"565","","bandit","260","633393","0.0-221.0-0.0","60620268","wem/bandit_either","A1YIH5JUVIML4S","either","1","","","","","","","0","1","0","","0.1656926355","0.4","0.6","0.2","0.8","0.07865608963","0.1656926355","0.1805899487","0.2898963007","","","","","","","","","","","74","J","1","","","182","main_expt"
"605","","bandit","261","635543","0.0-222.0-0.0","60620268","wem/bandit_either","A1YIH5JUVIML4S","either","1","","","","","","","0","0","1","0.1997223474","","0.4","0.6","0.2","0.8","","","","","0.0695036973","0.1997223474","0.1381226487","0.337419987","","","","","","","74","J","1","","","183","main_expt"
"434","","bandit","262","637528","0.0-223.0-0.0","60620268","wem/bandit_either","A1YIH5JUVIML4S","either","1","","","","","","","0","0","1","","0.1936006223","0.4","0.6","0.2","0.8","0.09883674892","0.1936006223","0.1157029232","0.3334404967","","","","","","","","","","","74","J","1","","","184","main_expt"
"411","","bandit","263","639498","0.0-224.0-0.0","60620268","wem/bandit_either","A1YIH5JUVIML4S","either","1","","","","","","","0","0","1","0.1344132801","","0.4","0.6","0.2","0.8","","","","","0.1344132801","0.1794548994","0.09007466759","0.3049781316","","","","","","","72","H","0","img/none_selected.jpg","","185","main_expt"
"418","","bandit","264","641472","0.0-225.0-0.0","60620268","wem/bandit_either","A1YIH5JUVIML4S","either","1","","","","","","","0","0","1","","0.322039184","0.4","0.6","0.2","0.8","0.1194183803","0.1679588243","0.07784091677","0.322039184","","","","","","","","","","","76","L","3","","","186","main_expt"
"464","","bandit","265","643496","0.0-226.0-0.0","60620268","wem/bandit_either","A1YIH5JUVIML4S","either","1","","","","","","","0","0","1","0.1692259204","","0.4","0.6","0.2","0.8","","","","","0.1456002269","0.1692259204","0.1332261693","0.2898485093","","","","","","","74","J","1","","","187","main_expt"
"405","","bandit","266","645449","0.0-227.0-0.0","60620268","wem/bandit_either","A1YIH5JUVIML4S","either","1","","","","","","","0","0","1","0.1302169342","","0.4","0.6","0.2","0.8","","","","","0.1008589119","0.1796926114","0.1302169342","0.3046836684","","","","","","","75","K","2","","","188","main_expt"
"445","","bandit","267","647420","0.0-228.0-0.0","60620268","wem/bandit_either","A1YIH5JUVIML4S","either","1","","","","","","","1","0","0","0.09109327247","","0.4","0.6","0.2","0.8","","","","","0.09109327247","0.1463090895","0.1459867673","0.3437642557","","","","","","","72","H","0","img/none_selected.jpg","","189","main_expt"
"518","","bandit","268","649462","0.0-229.0-0.0","60620268","wem/bandit_either","A1YIH5JUVIML4S","either","1","","","","","","","0","0","1","","0.133333279","0.4","0.6","0.2","0.8","0.133333279","0.1670442817","0.1930387326","0.3685715368","","","","","","","","","","","72","H","0","img/none_selected.jpg","","190","main_expt"
"1226","","bandit","269","652228","0.0-230.0-0.0","60620268","wem/bandit_either","A1YIH5JUVIML4S","either","1","","","","","","","0","0","1","","0.1253338948","0.4","0.6","0.2","0.8","0.1253338948","0.2148667481","0.1447045196","0.4063368095","","","","","","","","","","","72","H","0","img/none_selected.jpg","","191","main_expt"
"696","","bandit","270","654443","0.0-231.0-0.0","60620268","wem/bandit_either","A1YIH5JUVIML4S","either","1","","","","","","","0","0","1","0.4194789623","","0.4","0.6","0.2","0.8","","","","","0.1371372983","0.1891029698","0.1521301445","0.4194789623","","","","","","","76","L","3","","","192","main_expt"
"412","","bandit","271","656384","0.0-232.0-0.0","60620268","wem/bandit_either","A1YIH5JUVIML4S","either","1","","","","","","","0","0","1","","0.1818436489","0.4","0.6","0.2","0.8","0.1269519223","0.1818436489","0.1216552598","0.3914453041","","","","","","","","","","","74","J","1","","","193","main_expt"
"739","","bandit","272","658644","0.0-233.0-0.0","60620268","wem/bandit_either","A1YIH5JUVIML4S","either","1","","","","","","","0","0","1","","0.1253972088","0.4","0.6","0.2","0.8","0.1253972088","0.2036833838","0.07681554104","0.3988429791","","","","","","","","","","","72","H","0","img/none_selected.jpg","","194","main_expt"
"432","","bandit","273","660605","0.0-234.0-0.0","60620268","wem/bandit_either","A1YIH5JUVIML4S","either","1","","","","","","","0","0","1","","0.07468822185","0.4","0.6","0.2","0.8","0.1231557279","0.2189502041","0.07468822185","0.4212514022","","","","","","","","","","","75","K","2","","","195","main_expt"
"428","","bandit","274","662566","0.0-235.0-0.0","60620268","wem/bandit_either","A1YIH5JUVIML4S","either","1","","","","","","","0","0","1","0.2011136523","","0.4","0.6","0.2","0.8","","","","","0.2304226507","0.2011136523","0.07634526252","0.4128950903","","","","","","","74","J","1","","","196","main_expt"
"666","","bandit","275","664766","0.0-236.0-0.0","60620268","wem/bandit_either","A1YIH5JUVIML4S","either","1","","","","","","","0","0","1","","0.3102822931","0.4","0.6","0.2","0.8","0.3102822931","0.2295646827","0.06680697181","0.3979973083","","","","","","","","","","","72","H","0","img/none_selected.jpg","","197","main_expt"
"403","","bandit","276","666706","0.0-237.0-0.0","60620268","wem/bandit_either","A1YIH5JUVIML4S","either","1","","","","","","","0","0","1","0.3153467244","","0.4","0.6","0.2","0.8","","","","","0.3222054514","0.2570874699","0.05107679344","0.3153467244","","","","","","","76","L","3","","","198","main_expt"
"863","","bandit","277","669111","0.0-238.0-0.0","60620268","wem/bandit_either","A1YIH5JUVIML4S","either","1","","","","","","","0","0","1","0.06140804873","","0.4","0.6","0.2","0.8","","","","","0.3416159467","0.2215013189","0.06140804873","0.3121882746","","","","","","","75","K","2","","","199","main_expt"
"2426","","bandit","278","673070","0.0-239.0-0.0","60620268","wem/bandit_either","A1YIH5JUVIML4S","either","1","","","","","","","0","0","1","","0.1681318695","0.4","0.6","0.2","0.8","0.3826655938","0.1681318695","0.05697288244","0.3789620948","","","","","","","","","","","74","J","1","","","200","main_expt"
"392","","bandit","279","675009","0.0-240.0-0.0","60620268","wem/bandit_either","A1YIH5JUVIML4S","either","1","","","","","","","0","0","1","","0.4117435103","0.4","0.6","0.2","0.8","0.4117435103","0.1787039029","0.04802221103","0.3575696279","","","","","","","","","","","72","H","0","img/none_selected.jpg","","201","main_expt"
"399","","bandit","280","676959","0.0-241.0-0.0","60620268","wem/bandit_either","A1YIH5JUVIML4S","either","1","","","","","","","0","0","1","0.3937046418","","0.4","0.6","0.2","0.8","","","","","0.4023622846","0.2180442152","0.04583536071","0.3937046418","","","","","","","76","L","3","","","202","main_expt"
"236","","bandit","281","678728","0.0-242.0-0.0","60620268","wem/bandit_either","A1YIH5JUVIML4S","either","1","","","","","","","0","0","1","","0.4225273878","0.4","0.6","0.2","0.8","0.4225273878","0.262784421","0.03655969434","0.3901943722","","","","","","","","","","","72","H","0","img/none_selected.jpg","","203","main_expt"
"267","","bandit","282","680537","0.0-243.0-0.0","60620268","wem/bandit_either","A1YIH5JUVIML4S","either","1","","","","","","","0","0","1","","0.05773518339","0.4","0.6","0.2","0.8","0.4151046429","0.2843732649","0.05773518339","0.4099131859","","","","","","","","","","","75","K","2","","","204","main_expt"
"365","","bandit","283","682455","0.0-244.0-0.0","60620268","wem/bandit_either","A1YIH5JUVIML4S","either","1","","","","","","","0","0","1","0.2549063301","","0.4","0.6","0.2","0.8","","","","","0.4288165897","0.2549063301","0.06616346658","0.4238238901","","","","","","","74","J","1","","","205","main_expt"
"460","","bandit","284","684479","0.0-245.0-0.0","60620268","wem/bandit_either","A1YIH5JUVIML4S","either","1","","","","","","","0","0","1","","0.436745712","0.4","0.6","0.2","0.8","0.436745712","0.2982701688","0.09055598832","0.4139837541","","","","","","","","","","","72","H","0","img/none_selected.jpg","","206","main_expt"
"362","","bandit","285","686373","0.0-246.0-0.0","60620268","wem/bandit_either","A1YIH5JUVIML4S","either","1","","","","","","","0","0","1","0.3544894801","","0.4","0.6","0.2","0.8","","","","","0.4484652972","0.3423773839","0.07583085731","0.3544894801","","","","","","","76","L","3","","","207","main_expt"
"527","","bandit","286","688437","0.0-247.0-0.0","60620268","wem/bandit_either","A1YIH5JUVIML4S","either","1","","","","","","","0","0","1","","0.09768014643","0.4","0.6","0.2","0.8","0.4516947584","0.3321535101","0.09768014643","0.3703609936","","","","","","","","","","","75","K","2","","","208","main_expt"
"439","","bandit","287","690427","0.0-248.0-0.0","60620268","wem/bandit_either","A1YIH5JUVIML4S","either","1","","","","","","","0","1","0","","0.3467721984","0.4","0.6","0.2","0.8","0.4590139285","0.3467721984","0.08389795445","0.3590511704","","","","","","","","","","","74","J","1","","","209","main_expt"
"535","","bandit","288","692515","0.0-249.0-0.0","60620268","wem/bandit_either","A1YIH5JUVIML4S","either","1","","","","","","","0","0","1","","0.3513447539","0.4","0.6","0.2","0.8","0.4378910613","0.3513447539","0.07846525543","0.3781523972","","","","","","","","","","","74","J","1","","","210","main_expt"
"768","","bandit","289","694811","0.0-250.0-0.0","60620268","wem/bandit_either","A1YIH5JUVIML4S","either","1","","","","","","","0","0","1","0.4003692624","","0.4","0.6","0.2","0.8","","","","","0.4139384991","0.4003692624","0.05906932722","0.3895188655","","","","","","","74","J","1","","","211","main_expt"
"378","","bandit","290","696713","0.0-251.0-0.0","60620268","wem/bandit_either","A1YIH5JUVIML4S","either","1","","","","","","","0","1","0","","0.3659234609","0.4","0.6","0.2","0.8","0.3659234609","0.3949660502","0.04754192311","0.4075098947","","","","","","","","","","","72","H","0","img/none_selected.jpg","","212","main_expt"
"365","","bandit","291","698612","0.0-252.0-0.0","60620268","wem/bandit_either","A1YIH5JUVIML4S","either","1","","","","","","","0","0","1","0.3180572988","","0.4","0.6","0.2","0.8","","","","","0.3180572988","0.4233479157","0.05481920189","0.4191075236","","","","","","","72","H","0","img/none_selected.jpg","","213","main_expt"
"437","","bandit","292","700594","0.0-253.0-0.0","60620268","wem/bandit_either","A1YIH5JUVIML4S","either","1","","","","","","","0","0","1","0.2611162072","","0.4","0.6","0.2","0.8","","","","","0.2611162072","0.4182751871","0.07954578011","0.3799529118","","","","","","","72","H","0","img/none_selected.jpg","","214","main_expt"
"347","","bandit","293","702462","0.0-254.0-0.0","60620268","wem/bandit_either","A1YIH5JUVIML4S","either","1","","","","","","","0","0","1","","0.3745823719","0.4","0.6","0.2","0.8","0.2331309726","0.3745823719","0.1078137614","0.3924699069","","","","","","","","","","","74","J","1","","","215","main_expt"
"439","","bandit","294","704440","0.0-255.0-0.0","60620268","wem/bandit_either","A1YIH5JUVIML4S","either","1","","","","","","","1","0","0","0.3809837923","","0.4","0.6","0.2","0.8","","","","","0.2428402293","0.3809837923","0.1269525553","0.3556657658","","","","","","","74","J","1","","","216","main_expt"
"414","","bandit","295","706376","0.0-256.0-0.0","60620268","wem/bandit_either","A1YIH5JUVIML4S","either","1","","","","","","","0","0","1","0.4144294186","","0.4","0.6","0.2","0.8","","","","","0.2317762644","0.4144294186","0.1849794572","0.3870416945","","","","","","","74","J","1","","","217","main_expt"
"357","","bandit","296","708263","0.0-257.0-0.0","60620268","wem/bandit_either","A1YIH5JUVIML4S","either","1","","","","","","","0","0","1","0.4090742927","","0.4","0.6","0.2","0.8","","","","","0.204309912","0.4090742927","0.1903787706","0.3944581396","","","","","","","74","J","1","","","218","main_expt"
"431","","bandit","297","710223","0.0-258.0-0.0","60620268","wem/bandit_either","A1YIH5JUVIML4S","either","1","","","","","","","0","0","1","0.3869695378","","0.4","0.6","0.2","0.8","","","","","0.1685596251","0.3869695378","0.1768508397","0.4256173987","","","","","","","74","J","1","","","219","main_expt"
"370","","bandit","298","712132","0.0-259.0-0.0","60620268","wem/bandit_either","A1YIH5JUVIML4S","either","1","","","","","","","1","0","0","0.3814250035","","0.4","0.6","0.2","0.8","","","","","0.2488487331","0.3814250035","0.2176561852","0.4240862242","","","","","","","74","J","1","","","220","main_expt"
"496","","bandit","299","714152","0.0-260.0-0.0","60620268","wem/bandit_either","A1YIH5JUVIML4S","either","1","","","","","","","0","0","1","0.3560431311","","0.4","0.6","0.2","0.8","","","","","0.2789816034","0.3560431311","0.2075488201","0.4364702466","","","","","","","74","J","1","","","221","main_expt"
"426","","bandit","300","716102","0.0-261.0-0.0","60620268","wem/bandit_either","A1YIH5JUVIML4S","either","1","","","","","","","0","0","1","0.242729834","","0.4","0.6","0.2","0.8","","","","","0.242729834","0.3424215647","0.2260831429","0.4512924842","","","","","","","72","H","0","img/none_selected.jpg","","222","main_expt"
"651","","bandit","301","718303","0.0-262.0-0.0","60620268","wem/bandit_either","A1YIH5JUVIML4S","either","1","","","","","","","1","0","0","0.3118962833","","0.4","0.6","0.2","0.8","","","","","0.196538567","0.3118962833","0.2512075751","0.4649948574","","","","","","","74","J","1","","","223","main_expt"
"415","","bandit","302","720291","0.0-263.0-0.0","60620268","wem/bandit_either","A1YIH5JUVIML4S","either","1","","","","","","","0","0","1","","0.2189223785","0.4","0.6","0.2","0.8","0.2189223785","0.261290028","0.3072691987","0.4692106987","","","","","","","","","","","72","H","0","img/none_selected.jpg","","224","main_expt"
"365","","bandit","303","722182","0.0-264.0-0.0","60620268","wem/bandit_either","A1YIH5JUVIML4S","either","1","","","","","","","0","0","1","","0.2748104332","0.4","0.6","0.2","0.8","0.2131207899","0.2748104332","0.3358063032","0.4772226815","","","","","","","","","","","74","J","1","","","225","main_expt"
"605","","bandit","304","724337","0.0-265.0-0.0","60620268","wem/bandit_either","A1YIH5JUVIML4S","either","1","","","","","","","0","0","1","0.2112523614","","0.4","0.6","0.2","0.8","","","","","0.187439681","0.2112523614","0.2994610032","0.4828013869","","","","","","","74","J","1","","","226","main_expt"
"429","","bandit","305","726311","0.0-266.0-0.0","60620268","wem/bandit_either","A1YIH5JUVIML4S","either","1","","","","","","","0","0","1","","0.2719992041","0.4","0.6","0.2","0.8","0.1522087394","0.1879164098","0.2719992041","0.4805292857","","","","","","","","","","","75","K","2","","","227","main_expt"
"650","","bandit","306","728497","0.0-267.0-0.0","60620268","wem/bandit_either","A1YIH5JUVIML4S","either","1","","","","","","","0","0","1","","0.4770879938","0.4","0.6","0.2","0.8","0.1975586059","0.1857646906","0.2601066631","0.4770879938","","","","","","","","","","","76","L","3","","","228","main_expt"
"727","","bandit","307","730749","0.0-268.0-0.0","60620268","wem/bandit_either","A1YIH5JUVIML4S","either","1","","","","","","","0","1","0","","0.2333982712","0.4","0.6","0.2","0.8","0.2280604414","0.1608888173","0.2333982712","0.4830225504","","","","","","","","","","","75","K","2","","","229","main_expt"
"384","","bandit","308","732660","0.0-269.0-0.0","60620268","wem/bandit_either","A1YIH5JUVIML4S","either","1","","","","","","","1","0","0","0.2179366985","","0.4","0.6","0.2","0.8","","","","","0.2120359748","0.1139945837","0.2179366985","0.4827210916","","","","","","","75","K","2","","","230","main_expt"
"618","","bandit","309","734815","0.0-270.0-0.0","60620268","wem/bandit_either","A1YIH5JUVIML4S","either","1","","","","","","","0","0","1","","0.210335649","0.4","0.6","0.2","0.8","0.2260377558","0.1071229599","0.210335649","0.4764813513","","","","","","","","","","","75","K","2","","","231","main_expt"
"382","","bandit","310","736729","0.0-271.0-0.0","60620268","wem/bandit_either","A1YIH5JUVIML4S","either","1","","","","","","","0","0","1","","0.2154905401","0.4","0.6","0.2","0.8","0.2810037348","0.1250262501","0.2154905401","0.4794978353","","","","","","","","","","","75","K","2","","","232","main_expt"
"627","","bandit","311","738891","0.0-272.0-0.0","60620268","wem/bandit_either","A1YIH5JUVIML4S","either","1","","","","","","","0","0","1","","0.2199054097","0.4","0.6","0.2","0.8","0.3371590923","0.1262657767","0.2199054097","0.4717583679","","","","","","","","","","","75","K","2","","","233","main_expt"
"360","","bandit","312","740776","0.0-273.0-0.0","60620268","wem/bandit_either","A1YIH5JUVIML4S","either","1","","","","","","","0","0","1","","0.2116885818","0.4","0.6","0.2","0.8","0.2614597929","0.1436583916","0.2116885818","0.4801470087","","","","","","","","","","","75","K","2","","","234","main_expt"
"405","","bandit","313","742745","0.0-274.0-0.0","60620268","wem/bandit_either","A1YIH5JUVIML4S","either","1","","","","","","","0","0","1","","0.2037112673","0.4","0.6","0.2","0.8","0.2855471023","0.1776605917","0.2037112673","0.4698449305","","","","","","","","","","","75","K","2","","","235","main_expt"
"482","","bandit","314","744762","0.0-275.0-0.0","60620268","wem/bandit_either","A1YIH5JUVIML4S","either","1","","","","","","","0","1","0","","0.2295670059","0.4","0.6","0.2","0.8","0.2806831757","0.2039581082","0.2295670059","0.4750890902","","","","","","","","","","","75","K","2","","","236","main_expt"
"489","","bandit","315","746771","0.0-276.0-0.0","60620268","wem/bandit_either","A1YIH5JUVIML4S","either","1","","","","","","","0","0","1","","0.2602584061","0.4","0.6","0.2","0.8","0.3314479917","0.1898025468","0.2602584061","0.490873849","","","","","","","","","","","75","K","2","","","237","main_expt"
"488","","bandit","316","748788","0.0-277.0-0.0","60620268","wem/bandit_either","A1YIH5JUVIML4S","either","1","","","","","","","0","1","0","","0.2505035884","0.4","0.6","0.2","0.8","0.3495093658","0.20274426","0.2505035884","0.4658125052","","","","","","","","","","","75","K","2","","","238","main_expt"
"420","","bandit","317","750764","0.0-278.0-0.0","60620268","wem/bandit_either","A1YIH5JUVIML4S","either","1","","","","","","","0","0","1","","0.209031891","0.4","0.6","0.2","0.8","0.3413466471","0.2051086292","0.209031891","0.4717810478","","","","","","","","","","","75","K","2","","","239","main_expt"
"606","","bandit","318","752913","0.0-279.0-0.0","60620268","wem/bandit_either","A1YIH5JUVIML4S","either","1","","","","","","","0","1","0","","0.2203826704","0.4","0.6","0.2","0.8","0.3848911707","0.1823871945","0.2203826704","0.4751676635","","","","","","","","","","","75","K","2","","","240","main_expt"
"405","","bandit","319","754866","0.0-280.0-0.0","60620268","wem/bandit_either","A1YIH5JUVIML4S","either","1","","","","","","","0","1","0","","0.2502218434","0.4","0.6","0.2","0.8","0.3352713547","0.2206124516","0.2502218434","0.4782176083","","","","","","","","","","","75","K","2","","","241","main_expt"
"1377","","bandit","320","757782","0.0-281.0-0.0","60620268","wem/bandit_either","A1YIH5JUVIML4S","either","1","","","","","","","0","1","0","","0.2465850657","0.4","0.6","0.2","0.8","0.3898112853","0.1822231347","0.2465850657","0.4842593171","","","","","","","","","","","75","K","2","","","242","main_expt"
"867","","bandit","321","760168","0.0-282.0-0.0","60620268","wem/bandit_either","A1YIH5JUVIML4S","either","1","","","","","","","0","0","1","","0.2768687636","0.4","0.6","0.2","0.8","0.3746092993","0.1782216913","0.2768687636","0.4877308522","","","","","","","","","","","75","K","2","","","243","main_expt"
"569","","bandit","322","762286","0.0-283.0-0.0","60620268","wem/bandit_either","A1YIH5JUVIML4S","either","1","","","","","","","0","0","1","","0.3318130554","0.4","0.6","0.2","0.8","0.3551642001","0.1683297066","0.3318130554","0.4867000748","","","","","","","","","","","75","K","2","","","244","main_expt"
"419","","bandit","323","764235","0.0-284.0-0.0","60620268","wem/bandit_either","A1YIH5JUVIML4S","either","1","","","","","","","0","0","1","0.2394915997","","0.4","0.6","0.2","0.8","","","","","0.3556023966","0.2394915997","0.3549389872","0.4779689664","","","","","","","74","J","1","","","245","main_expt"
"287","","bandit","324","766062","0.0-285.0-0.0","60620268","wem/bandit_either","A1YIH5JUVIML4S","either","1","","","","","","","0","0","1","0.2279590519","","0.4","0.6","0.2","0.8","","","","","0.3265039954","0.2279590519","0.333301522","0.4691428495","","","","","","","74","J","1","","","246","main_expt"
"386","","bandit","325","768001","0.0-286.0-0.0","60620268","wem/bandit_either","A1YIH5JUVIML4S","either","1","","","","","","","0","0","1","","0.2868106963","0.4","0.6","0.2","0.8","0.2868106963","0.2464238951","0.3514606933","0.4726686318","","","","","","","","","","","72","H","0","img/none_selected.jpg","","247","main_expt"
"409","","bandit","326","769940","0.0-287.0-0.0","60620268","wem/bandit_either","A1YIH5JUVIML4S","either","1","","","","","","","0","0","1","","0.3185934195","0.4","0.6","0.2","0.8","0.3185934195","0.2743013104","0.3714826816","0.4803067915","","","","","","","","","","","72","H","0","img/none_selected.jpg","","248","main_expt"
"383","","bandit","327","771852","0.0-288.0-0.0","60620268","wem/bandit_either","A1YIH5JUVIML4S","either","1","","","","","","","1","0","0","0.4711679289","","0.4","0.6","0.2","0.8","","","","","0.358181829","0.265015958","0.386783615","0.4711679289","","","","","","","76","L","3","","","249","main_expt"
"480","","bandit","328","773854","0.0-289.0-0.0","60620268","wem/bandit_either","A1YIH5JUVIML4S","either","1","","","","","","","0","0","1","0.4353456883","","0.4","0.6","0.2","0.8","","","","","0.3548152509","0.2414596854","0.401921917","0.4353456883","","","","","","","76","L","3","","","250","main_expt"
"475","","bandit","329","775863","0.0-290.0-0.0","60620268","wem/bandit_either","A1YIH5JUVIML4S","either","1","","","","","","","1","0","0","0.4224206017","","0.4","0.6","0.2","0.8","","","","","0.3481631732","0.2747351927","0.4214807698","0.4224206017","","","","","","","76","L","3","","","251","main_expt"
"511","","bandit","330","777905","0.0-291.0-0.0","60620268","wem/bandit_either","A1YIH5JUVIML4S","either","1","","","","","","","1","0","0","0.4171240554","","0.4","0.6","0.2","0.8","","","","","0.3357984296","0.2814651432","0.3562017588","0.4171240554","","","","","","","76","L","3","","","252","main_expt"
"505","","bandit","331","779950","0.0-292.0-0.0","60620268","wem/bandit_either","A1YIH5JUVIML4S","either","1","","","","","","","0","0","1","0.4255780754","","0.4","0.6","0.2","0.8","","","","","0.2585495719","0.2185424791","0.2749590952","0.4255780754","","","","","","","76","L","3","","","253","main_expt"
"318","","bandit","332","781788","0.0-293.0-0.0","60620268","wem/bandit_either","A1YIH5JUVIML4S","either","1","","","","","","","0","1","0","","0.4183488494","0.4","0.6","0.2","0.8","0.2503838878","0.1714714561","0.2898909049","0.4183488494","","","","","","","","","","","76","L","3","","","254","main_expt"
