"rt","responses","trial_type","trial_index","time_elapsed","internal_node_id","subjID","study","MID","cond","drift","key_press","expt_phase","target","like","value","connected","gems","bombs","no_reward","GemPrChosen","BombPrChosen","GainOverPainPr_0","GainOverPainPr_1","GainOverPainPr_2","GainOverPainPr_3","LosePr_0","LosePr_1","LosePr_2","LosePr_3","WinPr_0","WinPr_1","WinPr_2","WinPr_3","Q0","Q1","Q2","gender","age","ethnicity","respCharCode","respKey","respChoiceNum","respChoice","practice","trial_counter","trial_label"
"3685","{""Q0"":""AZZA3J049G7R5""}","survey-text","0","3691","0.0-0.0","60905151","wem/bandit_either","AZZA3J049G7R5","either","4","","","","","","","","","","","","","","","","","","","","","","","","","","","","","","","","","","","",""
"14777","","text","1","19479","0.0-1.0","60905151","wem/bandit_either","AZZA3J049G7R5","either","4","32","","","","","","","","","","","","","","","","","","","","","","","","","","","","","","","","","","",""
"6698","","text","2","26178","0.0-2.0","60905151","wem/bandit_either","AZZA3J049G7R5","either","4","32","","","","","","","","","","","","","","","","","","","","","","","","","","","","","","","","","","",""
"26071","","text","3","52250","0.0-3.0","60905151","wem/bandit_either","AZZA3J049G7R5","either","4","32","","","","","","","","","","","","","","","","","","","","","","","","","","","","","","","","","","",""
"13003","","text","4","65254","0.0-4.0","60905151","wem/bandit_either","AZZA3J049G7R5","either","4","32","","","","","","","","","","","","","","","","","","","","","","","","","","","","","","","","","","",""
"46455","","text","5","111711","0.0-5.0","60905151","wem/bandit_either","AZZA3J049G7R5","either","4","32","","","","","","","","","","","","","","","","","","","","","","","","","","","","","","","","","","",""
"7457","","text","6","119172","0.0-6.0","60905151","wem/bandit_either","AZZA3J049G7R5","either","4","32","","","","","","","","","","","","","","","","","","","","","","","","","","","","","","","","","","",""
"3798","","text","7","122972","0.0-7.0","60905151","wem/bandit_either","AZZA3J049G7R5","either","4","32","","","","","","","","","","","","","","","","","","","","","","","","","","","","","","","","","","",""
"9218","","identification","8","132203","0.0-8.0-0.0","60905151","wem/bandit_either","AZZA3J049G7R5","either","4","","identification_pre","the village of Zur","","","","","","","","","","","","","","","","","","","","","","","","","","","","","","","","",""
"3122","","identification","9","136342","0.0-8.0-1.0","60905151","wem/bandit_either","AZZA3J049G7R5","either","4","","identification_pre","the village of Nyx","","","","","","","","","","","","","","","","","","","","","","","","","","","","","","","","",""
"5066","","text","10","142418","0.0-9.0","60905151","wem/bandit_either","AZZA3J049G7R5","either","4","32","","","","","","","","","","","","","","","","","","","","","","","","","","","","","","","","","","",""
"3590","","text","11","146010","0.0-10.0","60905151","wem/bandit_either","AZZA3J049G7R5","either","4","32","","","","","","","","","","","","","","","","","","","","","","","","","","","","","","","","","","",""
"2073","","text","12","148084","0.0-11.0","60905151","wem/bandit_either","AZZA3J049G7R5","either","4","32","","","","","","","","","","","","","","","","","","","","","","","","","","","","","","","","","","",""
"7203","","text","13","155289","0.0-12.0","60905151","wem/bandit_either","AZZA3J049G7R5","either","4","32","","","","","","","","","","","","","","","","","","","","","","","","","","","","","","","","","","",""
"1756","","bandit","14","158573","0.0-13.0-0.0","60905151","wem/bandit_either","AZZA3J049G7R5","either","4","","","","","","","0","0","1","0","0","","","","","0","","","","0","","","","","","","","","","74","J","0","img/none_selected_demo.jpg","true","0",""
"2036","","bandit","15","162117","0.0-14.0-0.0","60905151","wem/bandit_either","AZZA3J049G7R5","either","4","","","","","","","0","0","1","0","0","","","","","0","","","","0","","","","","","","","","","75","K","0","img/none_selected_demo.jpg","true","0",""
"9651","","text","16","171770","0.0-15.0","60905151","wem/bandit_either","AZZA3J049G7R5","either","4","32","","","","","","","","","","","","","","","","","","","","","","","","","","","","","","","","","","",""
"12190","","text","17","183961","0.0-16.0","60905151","wem/bandit_either","AZZA3J049G7R5","either","4","32","","","","","","","","","","","","","","","","","","","","","","","","","","","","","","","","","","",""
"6434","","text","18","190397","0.0-17.0","60905151","wem/bandit_either","AZZA3J049G7R5","either","4","32","","","","","","","","","","","","","","","","","","","","","","","","","","","","","","","","","","",""
"2458","","text","19","192856","0.0-18.0","60905151","wem/bandit_either","AZZA3J049G7R5","either","4","32","","","","","","","","","","","","","","","","","","","","","","","","","","","","","","","","","","",""
"1599","","bandit","20","195969","0.0-19.0-0.0","60905151","wem/bandit_either","AZZA3J049G7R5","either","4","","","","","","","0","0","1","0.8","","0.5","0.5","","","","","","","0.8","0.2","","","","","","","","","74","J","0","img/none_selected_demo.jpg","true","0","80_20_practice"
"427","","bandit","21","197912","0.0-19.0-1.0","60905151","wem/bandit_either","AZZA3J049G7R5","either","4","","","","","","","0","0","1","","0.2","0.5","0.5","","","0.8","0.2","","","","","","","","","","","","","75","K","1","","true","0","80_20_practice"
"284","","bandit","22","199713","0.0-19.0-2.0","60905151","wem/bandit_either","AZZA3J049G7R5","either","4","","","","","","","0","0","1","0.2","","0.5","0.5","","","","","","","0.8","0.2","","","","","","","","","75","K","1","","true","0","80_20_practice"
"892","","bandit","23","202126","0.0-19.0-3.0","60905151","wem/bandit_either","AZZA3J049G7R5","either","4","","","","","","","0","1","0","","0.8","0.5","0.5","","","0.8","0.2","","","","","","","","","","","","","74","J","0","img/none_selected_demo.jpg","true","0","80_20_practice"
"54","","bandit","24","203698","0.0-19.0-4.0","60905151","wem/bandit_either","AZZA3J049G7R5","either","4","","","","","","","0","0","1","","0.8","0.5","0.5","","","0.8","0.2","","","","","","","","","","","","","74","J","0","img/none_selected_demo.jpg","true","0","80_20_practice"
"229","","bandit","25","205450","0.0-19.0-5.0","60905151","wem/bandit_either","AZZA3J049G7R5","either","4","","","","","","","0","1","0","","0.8","0.5","0.5","","","0.8","0.2","","","","","","","","","","","","","74","J","0","img/none_selected_demo.jpg","true","0","80_20_practice"
"232","","bandit","26","207193","0.0-19.0-6.0","60905151","wem/bandit_either","AZZA3J049G7R5","either","4","","","","","","","1","0","0","0.8","","0.5","0.5","","","","","","","0.8","0.2","","","","","","","","","74","J","0","img/none_selected_demo.jpg","true","0","80_20_practice"
"107","","bandit","27","208804","0.0-19.0-7.0","60905151","wem/bandit_either","AZZA3J049G7R5","either","4","","","","","","","0","0","1","","0.8","0.5","0.5","","","0.8","0.2","","","","","","","","","","","","","74","J","0","img/none_selected_demo.jpg","true","0","80_20_practice"
"292","","bandit","28","210604","0.0-19.0-8.0","60905151","wem/bandit_either","AZZA3J049G7R5","either","4","","","","","","","0","1","0","","0.8","0.5","0.5","","","0.8","0.2","","","","","","","","","","","","","74","J","0","img/none_selected_demo.jpg","true","0","80_20_practice"
"233","","bandit","29","212366","0.0-19.0-9.0","60905151","wem/bandit_either","AZZA3J049G7R5","either","4","","","","","","","0","1","0","","0.8","0.5","0.5","","","0.8","0.2","","","","","","","","","","","","","74","J","0","img/none_selected_demo.jpg","true","0","80_20_practice"
"176","","bandit","30","214063","0.0-19.0-10.0","60905151","wem/bandit_either","AZZA3J049G7R5","either","4","","","","","","","1","0","0","0.8","","0.5","0.5","","","","","","","0.8","0.2","","","","","","","","","74","J","0","img/none_selected_demo.jpg","true","0","80_20_practice"
"139","","bandit","31","215730","0.0-19.0-11.0","60905151","wem/bandit_either","AZZA3J049G7R5","either","4","","","","","","","0","0","1","0.8","","0.5","0.5","","","","","","","0.8","0.2","","","","","","","","","74","J","0","img/none_selected_demo.jpg","true","0","80_20_practice"
"336","","bandit","32","217590","0.0-19.0-12.0","60905151","wem/bandit_either","AZZA3J049G7R5","either","4","","","","","","","0","1","0","","0.8","0.5","0.5","","","0.8","0.2","","","","","","","","","","","","","74","J","0","img/none_selected_demo.jpg","true","0","80_20_practice"
"722","","bandit","33","219833","0.0-19.0-13.0","60905151","wem/bandit_either","AZZA3J049G7R5","either","4","","","","","","","1","0","0","0.8","","0.5","0.5","","","","","","","0.8","0.2","","","","","","","","","74","J","0","img/none_selected_demo.jpg","true","0","80_20_practice"
"50","","bandit","34","221401","0.0-19.0-14.0","60905151","wem/bandit_either","AZZA3J049G7R5","either","4","","","","","","","1","0","0","0.8","","0.5","0.5","","","","","","","0.8","0.2","","","","","","","","","74","J","0","img/none_selected_demo.jpg","true","0","80_20_practice"
"245","","bandit","35","223154","0.0-19.0-15.0","60905151","wem/bandit_either","AZZA3J049G7R5","either","4","","","","","","","0","1","0","","0.8","0.5","0.5","","","0.8","0.2","","","","","","","","","","","","","74","J","0","img/none_selected_demo.jpg","true","0","80_20_practice"
"69","","bandit","36","224739","0.0-19.0-16.0","60905151","wem/bandit_either","AZZA3J049G7R5","either","4","","","","","","","1","0","0","0.8","","0.5","0.5","","","","","","","0.8","0.2","","","","","","","","","74","J","0","img/none_selected_demo.jpg","true","0","80_20_practice"
"117","","bandit","37","226367","0.0-19.0-17.0","60905151","wem/bandit_either","AZZA3J049G7R5","either","4","","","","","","","0","0","1","","0.8","0.5","0.5","","","0.8","0.2","","","","","","","","","","","","","74","J","0","img/none_selected_demo.jpg","true","0","80_20_practice"
"27","","bandit","38","227903","0.0-19.0-18.0","60905151","wem/bandit_either","AZZA3J049G7R5","either","4","","","","","","","0","1","0","","0.8","0.5","0.5","","","0.8","0.2","","","","","","","","","","","","","74","J","0","img/none_selected_demo.jpg","true","0","80_20_practice"
"646","","bandit","39","230070","0.0-19.0-19.0","60905151","wem/bandit_either","AZZA3J049G7R5","either","4","","","","","","","1","0","0","0.8","","0.5","0.5","","","","","","","0.8","0.2","","","","","","","","","74","J","0","img/none_selected_demo.jpg","true","0","80_20_practice"
"4627","","text","40","234698","0.0-20.0","60905151","wem/bandit_either","AZZA3J049G7R5","either","4","32","","","","","","","","","","","","","","","","","","","","","","","","","","","","","","","","","","",""
"968","","bandit","41","237189","0.0-21.0-0.0","60905151","wem/bandit_either","AZZA3J049G7R5","either","4","","","","","","","1","0","0","1","0","","","","","0","1","","","1","0","","","","","","","","","74","J","0","img/none_selected_demo.jpg","true","0",""
"8010","","text","42","245201","0.0-22.0","60905151","wem/bandit_either","AZZA3J049G7R5","either","4","74","","","","","","","","","","","","","","","","","","","","","","","","","","","","","","","","","","",""
"5393","","text","43","250596","0.0-23.0","60905151","wem/bandit_either","AZZA3J049G7R5","either","4","32","","","","","","","","","","","","","","","","","","","","","","","","","","","","","","","","","","",""
"3186","","text","44","253784","0.0-24.0","60905151","wem/bandit_either","AZZA3J049G7R5","either","4","32","","","","","","","","","","","","","","","","","","","","","","","","","","","","","","","","","","",""
"4216","","text","45","258002","0.0-25.0","60905151","wem/bandit_either","AZZA3J049G7R5","either","4","32","","","","","","","","","","","","","","","","","","","","","","","","","","","","","","","","","","",""
"10612","","text","46","268616","0.0-26.0","60905151","wem/bandit_either","AZZA3J049G7R5","either","4","32","","","","","","","","","","","","","","","","","","","","","","","","","","","","","","","","","","",""
"2966","","text","47","271584","0.0-27.0","60905151","wem/bandit_either","AZZA3J049G7R5","either","4","32","","","","","","","","","","","","","","","","","","","","","","","","","","","","","","","","","","",""
"4047","","text","48","275635","0.0-28.0","60905151","wem/bandit_either","AZZA3J049G7R5","either","4","32","","","","","","","","","","","","","","","","","","","","","","","","","","","","","","","","","","",""
"4338","","text","49","279975","0.0-29.0","60905151","wem/bandit_either","AZZA3J049G7R5","either","4","32","","","","","","","","","","","","","","","","","","","","","","","","","","","","","","","","","","",""
"5190","","text","50","285167","0.0-30.0","60905151","wem/bandit_either","AZZA3J049G7R5","either","4","32","","","","","","","","","","","","","","","","","","","","","","","","","","","","","","","","","","",""
"1152","","text","51","286320","0.0-31.0","60905151","wem/bandit_either","AZZA3J049G7R5","either","4","32","","","","","","","","","","","","","","","","","","","","","","","","","","","","","","","","","","",""
"1861","","text","52","288183","0.0-32.0","60905151","wem/bandit_either","AZZA3J049G7R5","either","4","32","","","","","","","","","","","","","","","","","","","","","","","","","","","","","","","","","","",""
"1671","","bandit","53","291366","0.0-33.0-0.0","60905151","wem/bandit_either","AZZA3J049G7R5","either","4","","","","","","","0","1","0","","0.8","0.5","0.5","0.5","0.5","0.8","0.2","0.6","0.2","","","","","","","","","","","72","H","0","img/none_selected.jpg","true","0","full_practice"
"218","","bandit","54","293105","0.0-33.0-1.0","60905151","wem/bandit_either","AZZA3J049G7R5","either","4","","","","","","","1","0","0","0.8","","0.5","0.5","0.5","0.5","","","","","0.8","0.2","0.6","0.2","","","","","","","72","H","0","img/none_selected.jpg","true","0","full_practice"
"228","","bandit","55","294853","0.0-33.0-2.0","60905151","wem/bandit_either","AZZA3J049G7R5","either","4","","","","","","","1","0","0","0.8","","0.5","0.5","0.5","0.5","","","","","0.8","0.2","0.6","0.2","","","","","","","72","H","0","img/none_selected.jpg","true","0","full_practice"
"261","","bandit","56","296643","0.0-33.0-3.0","60905151","wem/bandit_either","AZZA3J049G7R5","either","4","","","","","","","0","1","0","","0.8","0.5","0.5","0.5","0.5","0.8","0.2","0.6","0.2","","","","","","","","","","","72","H","0","img/none_selected.jpg","true","0","full_practice"
"178","","bandit","57","298334","0.0-33.0-4.0","60905151","wem/bandit_either","AZZA3J049G7R5","either","4","","","","","","","0","0","1","","0.8","0.5","0.5","0.5","0.5","0.8","0.2","0.6","0.2","","","","","","","","","","","72","H","0","img/none_selected.jpg","true","0","full_practice"
"865","","bandit","58","300719","0.0-33.0-5.0","60905151","wem/bandit_either","AZZA3J049G7R5","either","4","","","","","","","0","0","1","","0.6","0.5","0.5","0.5","0.5","0.8","0.2","0.6","0.2","","","","","","","","","","","75","K","2","","true","0","full_practice"
"507","","bandit","59","302735","0.0-33.0-6.0","60905151","wem/bandit_either","AZZA3J049G7R5","either","4","","","","","","","1","0","0","0.6","","0.5","0.5","0.5","0.5","","","","","0.8","0.2","0.6","0.2","","","","","","","75","K","2","","true","0","full_practice"
"267","","bandit","60","304516","0.0-33.0-7.0","60905151","wem/bandit_either","AZZA3J049G7R5","either","4","","","","","","","1","0","0","0.6","","0.5","0.5","0.5","0.5","","","","","0.8","0.2","0.6","0.2","","","","","","","75","K","2","","true","0","full_practice"
"261","","bandit","61","306288","0.0-33.0-8.0","60905151","wem/bandit_either","AZZA3J049G7R5","either","4","","","","","","","0","0","1","","0.6","0.5","0.5","0.5","0.5","0.8","0.2","0.6","0.2","","","","","","","","","","","75","K","2","","true","0","full_practice"
"342","","bandit","62","308149","0.0-33.0-9.0","60905151","wem/bandit_either","AZZA3J049G7R5","either","4","","","","","","","0","0","1","0.2","","0.5","0.5","0.5","0.5","","","","","0.8","0.2","0.6","0.2","","","","","","","74","J","1","","true","0","full_practice"
"232","","bandit","63","309911","0.0-33.0-10.0","60905151","wem/bandit_either","AZZA3J049G7R5","either","4","","","","","","","0","0","1","","0.2","0.5","0.5","0.5","0.5","0.8","0.2","0.6","0.2","","","","","","","","","","","74","J","1","","true","0","full_practice"
"285","","bandit","64","311718","0.0-33.0-11.0","60905151","wem/bandit_either","AZZA3J049G7R5","either","4","","","","","","","1","0","0","0.2","","0.5","0.5","0.5","0.5","","","","","0.8","0.2","0.6","0.2","","","","","","","76","L","3","","true","0","full_practice"
"259","","bandit","65","313502","0.0-33.0-12.0","60905151","wem/bandit_either","AZZA3J049G7R5","either","4","","","","","","","0","0","1","","0.2","0.5","0.5","0.5","0.5","0.8","0.2","0.6","0.2","","","","","","","","","","","76","L","3","","true","0","full_practice"
"263","","bandit","66","315294","0.0-33.0-13.0","60905151","wem/bandit_either","AZZA3J049G7R5","either","4","","","","","","","0","0","1","","0.2","0.5","0.5","0.5","0.5","0.8","0.2","0.6","0.2","","","","","","","","","","","76","L","3","","true","0","full_practice"
"310","","bandit","67","317112","0.0-33.0-14.0","60905151","wem/bandit_either","AZZA3J049G7R5","either","4","","","","","","","0","0","1","0.2","","0.5","0.5","0.5","0.5","","","","","0.8","0.2","0.6","0.2","","","","","","","74","J","1","","true","0","full_practice"
"749","","bandit","68","319377","0.0-33.0-15.0","60905151","wem/bandit_either","AZZA3J049G7R5","either","4","","","","","","","0","0","1","0.2","","0.5","0.5","0.5","0.5","","","","","0.8","0.2","0.6","0.2","","","","","","","74","J","1","","true","0","full_practice"
"1369","","bandit","69","322269","0.0-33.0-16.0","60905151","wem/bandit_either","AZZA3J049G7R5","either","4","","","","","","","0","0","1","0.2","","0.5","0.5","0.5","0.5","","","","","0.8","0.2","0.6","0.2","","","","","","","76","L","3","","true","0","full_practice"
"112","","bandit","70","323915","0.0-33.0-17.0","60905151","wem/bandit_either","AZZA3J049G7R5","either","4","","","","","","","1","0","0","0.8","","0.5","0.5","0.5","0.5","","","","","0.8","0.2","0.6","0.2","","","","","","","72","H","0","img/none_selected.jpg","true","0","full_practice"
"172","","bandit","71","325619","0.0-33.0-18.0","60905151","wem/bandit_either","AZZA3J049G7R5","either","4","","","","","","","0","1","0","","0.8","0.5","0.5","0.5","0.5","0.8","0.2","0.6","0.2","","","","","","","","","","","72","H","0","img/none_selected.jpg","true","0","full_practice"
"217","","bandit","72","327346","0.0-33.0-19.0","60905151","wem/bandit_either","AZZA3J049G7R5","either","4","","","","","","","0","0","1","0.8","","0.5","0.5","0.5","0.5","","","","","0.8","0.2","0.6","0.2","","","","","","","72","H","0","img/none_selected.jpg","true","0","full_practice"
"3465","","text","73","330817","0.0-34.0","60905151","wem/bandit_either","AZZA3J049G7R5","either","4","32","","","","","","","","","","","","","","","","","","","","","","","","","","","","","","","","","","",""
"8912","","text","74","340734","0.0-35.0","60905151","wem/bandit_either","AZZA3J049G7R5","either","4","32","","","","","","","","","","","","","","","","","","","","","","","","","","","","","","","","","","",""
"11214","","text","75","351950","0.0-36.0","60905151","wem/bandit_either","AZZA3J049G7R5","either","4","32","","","","","","","","","","","","","","","","","","","","","","","","","","","","","","","","","","",""
"6345","","text","76","358297","0.0-37.0","60905151","wem/bandit_either","AZZA3J049G7R5","either","4","32","","","","","","","","","","","","","","","","","","","","","","","","","","","","","","","","","","",""
"6723","","text","77","365021","0.0-38.0","60905151","wem/bandit_either","AZZA3J049G7R5","either","4","32","","","","","","","","","","","","","","","","","","","","","","","","","","","","","","","","","","",""
"4745","","text","78","369768","0.0-39.0","60905151","wem/bandit_either","AZZA3J049G7R5","either","4","32","","","","","","","","","","","","","","","","","","","","","","","","","","","","","","","","","","",""
"1050","","bandit","79","372331","0.0-40.0-0.0","60905151","wem/bandit_either","AZZA3J049G7R5","either","4","","","","","","","0","0","1","0.3525715257","","0.6","0.8","0.2","0.4","","","","","0.3525715257","0.3894728165","0.2771551185","0.3242650943","","","","","","","72","H","0","img/none_selected.jpg","","1","main_expt"
"275","","bandit","80","374118","0.0-41.0-0.0","60905151","wem/bandit_either","AZZA3J049G7R5","either","4","","","","","","","1","0","0","0.363660736","","0.6","0.8","0.2","0.4","","","","","0.390153736","0.363660736","0.3030893157","0.3296228245","","","","","","","74","J","1","","","2","main_expt"
"238","","bandit","81","375882","0.0-42.0-0.0","60905151","wem/bandit_either","AZZA3J049G7R5","either","4","","","","","","","0","0","1","","0.3842171554","0.6","0.8","0.2","0.4","0.3725447061","0.3842171554","0.3211059343","0.3102780753","","","","","","","","","","","74","J","1","","","3","main_expt"
"206","","bandit","82","377613","0.0-43.0-0.0","60905151","wem/bandit_either","AZZA3J049G7R5","either","4","","","","","","","0","0","1","0.3831963053","","0.6","0.8","0.2","0.4","","","","","0.3431524481","0.3831963053","0.2804386453","0.2749892112","","","","","","","74","J","1","","","4","main_expt"
"236","","bandit","83","379367","0.0-44.0-0.0","60905151","wem/bandit_either","AZZA3J049G7R5","either","4","","","","","","","0","1","0","","0.4056596471","0.6","0.8","0.2","0.4","0.3448007793","0.4056596471","0.2609559086","0.3037824898","","","","","","","","","","","74","J","1","","","5","main_expt"
"304","","bandit","84","381189","0.0-45.0-0.0","60905151","wem/bandit_either","AZZA3J049G7R5","either","4","","","","","","","0","0","1","0.4409946319","","0.6","0.8","0.2","0.4","","","","","0.3980888019","0.4409946319","0.2259287768","0.3217417103","","","","","","","74","J","1","","","6","main_expt"
"399","","bandit","85","383112","0.0-46.0-0.0","60905151","wem/bandit_either","AZZA3J049G7R5","either","4","","","","","","","0","0","1","0.3821747998","","0.6","0.8","0.2","0.4","","","","","0.3693121862","0.3821747998","0.2433618728","0.3018715163","","","","","","","74","J","1","","","7","main_expt"
"317","","bandit","86","384942","0.0-47.0-0.0","60905151","wem/bandit_either","AZZA3J049G7R5","either","4","","","","","","","0","0","1","","0.2025356769","0.6","0.8","0.2","0.4","0.2933697555","0.3841844813","0.2025356769","0.3643645816","","","","","","","","","","","75","K","2","","","8","main_expt"
"410","","bandit","87","386872","0.0-48.0-0.0","60905151","wem/bandit_either","AZZA3J049G7R5","either","4","","","","","","","0","0","1","","0.3418610374","0.6","0.8","0.2","0.4","0.3036212831","0.3412237964","0.1441028094","0.3418610374","","","","","","","","","","","76","L","3","","","9","main_expt"
"82","","bandit","88","388468","0.0-49.0-0.0","60905151","wem/bandit_either","AZZA3J049G7R5","either","4","","","","","","","0","0","1","0.308020301","","0.6","0.8","0.2","0.4","","","","","0.308020301","0.3256420777","0.1736005971","0.3190157878","","","","","","","72","H","0","img/none_selected.jpg","","10","main_expt"
"401","","bandit","89","390388","0.0-50.0-0.0","60905151","wem/bandit_either","AZZA3J049G7R5","either","4","","","","","","","0","0","1","0.2998731478","","0.6","0.8","0.2","0.4","","","","","0.3065973113","0.3514007431","0.1836365694","0.2998731478","","","","","","","76","L","3","","","11","main_expt"
"198","","bandit","90","392109","0.0-51.0-0.0","60905151","wem/bandit_either","AZZA3J049G7R5","either","4","","","","","","","0","1","0","","0.2143869662","0.6","0.8","0.2","0.4","0.3271859636","0.3722032088","0.2143869662","0.2942822571","","","","","","","","","","","75","K","2","","","12","main_expt"
"273","","bandit","91","393897","0.0-52.0-0.0","60905151","wem/bandit_either","AZZA3J049G7R5","either","4","","","","","","","0","0","1","","0.1637139448","0.6","0.8","0.2","0.4","0.2761076709","0.3681707299","0.1637139448","0.3009212619","","","","","","","","","","","75","K","2","","","13","main_expt"
"146","","bandit","92","395562","0.0-53.0-0.0","60905151","wem/bandit_either","AZZA3J049G7R5","either","4","","","","","","","0","0","1","","0.1488535162","0.6","0.8","0.2","0.4","0.2311164494","0.3528222564","0.1488535162","0.3227424667","","","","","","","","","","","75","K","2","","","14","main_expt"
"560","","bandit","93","397641","0.0-54.0-0.0","60905151","wem/bandit_either","AZZA3J049G7R5","either","4","","","","","","","0","0","1","","0.1332411271","0.6","0.8","0.2","0.4","0.2905977425","0.3738838661","0.1332411271","0.3547546862","","","","","","","","","","","75","K","2","","","15","main_expt"
"480","","bandit","94","399641","0.0-55.0-0.0","60905151","wem/bandit_either","AZZA3J049G7R5","either","4","","","","","","","0","0","1","","0.3385239332","0.6","0.8","0.2","0.4","0.2924554969","0.3385239332","0.09882415698","0.3241157583","","","","","","","","","","","74","J","1","","","16","main_expt"
"29","","bandit","95","401188","0.0-56.0-0.0","60905151","wem/bandit_either","AZZA3J049G7R5","either","4","","","","","","","0","0","1","0.3111355138","","0.6","0.8","0.2","0.4","","","","","0.3114836302","0.3111355138","0.1069157009","0.3363410386","","","","","","","74","J","1","","","17","main_expt"
"45","","bandit","96","402739","0.0-57.0-0.0","60905151","wem/bandit_either","AZZA3J049G7R5","either","4","","","","","","","0","0","1","0.3880947854","","0.6","0.8","0.2","0.4","","","","","0.3215333475","0.3487767647","0.134958137","0.3880947854","","","","","","","76","L","3","","","18","main_expt"
"292","","bandit","97","404551","0.0-58.0-0.0","60905151","wem/bandit_either","AZZA3J049G7R5","either","4","","","","","","","0","0","1","","0.2733398822","0.6","0.8","0.2","0.4","0.2733398822","0.3010303499","0.1230418706","0.4116912081","","","","","","","","","","","72","H","0","img/none_selected.jpg","","19","main_expt"
"207","","bandit","98","406279","0.0-59.0-0.0","60905151","wem/bandit_either","AZZA3J049G7R5","either","4","","","","","","","0","0","1","","0.2351410235","0.6","0.8","0.2","0.4","0.2351410235","0.2907203997","0.09866604889","0.3973894305","","","","","","","","","","","72","H","0","img/none_selected.jpg","","20","main_expt"
"31","","bandit","99","407820","0.0-60.0-0.0","60905151","wem/bandit_either","AZZA3J049G7R5","either","4","","","","","","","0","0","1","","0.1021222834","0.6","0.8","0.2","0.4","0.2257810982","0.3088108907","0.1021222834","0.369037109","","","","","","","","","","","75","K","2","","","21","main_expt"
"81","","bandit","100","409412","0.0-61.0-0.0","60905151","wem/bandit_either","AZZA3J049G7R5","either","4","","","","","","","0","0","1","","0.349202701","0.6","0.8","0.2","0.4","0.2221856846","0.349202701","0.1234138809","0.4179468344","","","","","","","","","","","74","J","1","","","22","main_expt"
"434","","bandit","101","411369","0.0-62.0-0.0","60905151","wem/bandit_either","AZZA3J049G7R5","either","4","","","","","","","0","0","1","","0.2127124712","0.6","0.8","0.2","0.4","0.2127124712","0.3785068464","0.1030640584","0.4276062926","","","","","","","","","","","72","H","0","img/none_selected.jpg","","23","main_expt"
"293","","bandit","102","413190","0.0-63.0-0.0","60905151","wem/bandit_either","AZZA3J049G7R5","either","4","","","","","","","0","1","0","","0.4078122208","0.6","0.8","0.2","0.4","0.1882566648","0.4012919653","0.1261035851","0.4078122208","","","","","","","","","","","76","L","3","","","24","main_expt"
"281","","bandit","103","414979","0.0-64.0-0.0","60905151","wem/bandit_either","AZZA3J049G7R5","either","4","","","","","","","0","1","0","","0.3950411191","0.6","0.8","0.2","0.4","0.1273223766","0.400899794","0.1796705612","0.3950411191","","","","","","","","","","","76","L","3","","","25","main_expt"
"181","","bandit","104","416685","0.0-65.0-0.0","60905151","wem/bandit_either","AZZA3J049G7R5","either","4","","","","","","","0","0","1","","0.4322303329","0.6","0.8","0.2","0.4","0.15747458","0.4126274585","0.2414651519","0.4322303329","","","","","","","","","","","76","L","3","","","26","main_expt"
"159","","bandit","105","418362","0.0-66.0-0.0","60905151","wem/bandit_either","AZZA3J049G7R5","either","4","","","","","","","0","1","0","","0.4353643722","0.6","0.8","0.2","0.4","0.1442684908","0.3992263875","0.2005374927","0.4353643722","","","","","","","","","","","76","L","3","","","27","main_expt"
"129","","bandit","106","420020","0.0-67.0-0.0","60905151","wem/bandit_either","AZZA3J049G7R5","either","4","","","","","","","0","0","1","","0.4464017809","0.6","0.8","0.2","0.4","0.2255404594","0.3846584236","0.3197257227","0.4464017809","","","","","","","","","","","76","L","3","","","28","main_expt"
"60","","bandit","107","421604","0.0-68.0-0.0","60905151","wem/bandit_either","AZZA3J049G7R5","either","4","","","","","","","0","1","0","","0.4417109462","0.6","0.8","0.2","0.4","0.2730951691","0.3561298134","0.3141869899","0.4417109462","","","","","","","","","","","76","L","3","","","29","main_expt"
"80","","bandit","108","423208","0.0-69.0-0.0","60905151","wem/bandit_either","AZZA3J049G7R5","either","4","","","","","","","1","0","0","0.4065908859","","0.6","0.8","0.2","0.4","","","","","0.2890412698","0.3101363315","0.3445991012","0.4065908859","","","","","","","76","L","3","","","30","main_expt"
"224","","bandit","109","424951","0.0-70.0-0.0","60905151","wem/bandit_either","AZZA3J049G7R5","either","4","","","","","","","0","0","1","0.3954582793","","0.6","0.8","0.2","0.4","","","","","0.3309226042","0.3322219809","0.3456655029","0.3954582793","","","","","","","76","L","3","","","31","main_expt"
"57","","bandit","110","426520","0.0-71.0-0.0","60905151","wem/bandit_either","AZZA3J049G7R5","either","4","","","","","","","0","0","1","0.3716723047","","0.6","0.8","0.2","0.4","","","","","0.3519301717","0.3516269472","0.3826172224","0.3716723047","","","","","","","76","L","3","","","32","main_expt"
"258","","bandit","111","428293","0.0-72.0-0.0","60905151","wem/bandit_either","AZZA3J049G7R5","either","4","","","","","","","0","0","1","0.3799724366","","0.6","0.8","0.2","0.4","","","","","0.3414953842","0.3852085553","0.3804083149","0.3799724366","","","","","","","76","L","3","","","33","main_expt"
"218","","bandit","112","430018","0.0-73.0-0.0","60905151","wem/bandit_either","AZZA3J049G7R5","either","4","","","","","","","0","1","0","","0.3808178469","0.6","0.8","0.2","0.4","0.2938412915","0.4196644934","0.3808178469","0.409480615","","","","","","","","","","","75","K","2","","","34","main_expt"
"245","","bandit","113","431776","0.0-74.0-0.0","60905151","wem/bandit_either","AZZA3J049G7R5","either","4","","","","","","","0","0","1","","0.376129724","0.6","0.8","0.2","0.4","0.2256616696","0.420891004","0.376129724","0.3869649509","","","","","","","","","","","75","K","2","","","35","main_expt"
"729","","bandit","114","434018","0.0-75.0-0.0","60905151","wem/bandit_either","AZZA3J049G7R5","either","4","","","","","","","1","0","0","0.4027809904","","0.6","0.8","0.2","0.4","","","","","0.2525957923","0.3808881167","0.4027809904","0.3045389962","","","","","","","75","K","2","","","36","main_expt"
"275","","bandit","115","435799","0.0-76.0-0.0","60905151","wem/bandit_either","AZZA3J049G7R5","either","4","","","","","","","0","0","1","0.3715556026","","0.6","0.8","0.2","0.4","","","","","0.2333373749","0.3634360393","0.3715556026","0.2954217214","","","","","","","75","K","2","","","37","main_expt"
"139","","bandit","116","437457","0.0-77.0-0.0","60905151","wem/bandit_either","AZZA3J049G7R5","either","4","","","","","","","1","0","0","0.354842885","","0.6","0.8","0.2","0.4","","","","","0.2126884676","0.3432691328","0.354842885","0.2749906923","","","","","","","75","K","2","","","38","main_expt"
"198","","bandit","117","439175","0.0-78.0-0.0","60905151","wem/bandit_either","AZZA3J049G7R5","either","4","","","","","","","0","0","1","","0.3066825603","0.6","0.8","0.2","0.4","0.212498526","0.3113322025","0.3066825603","0.2911873598","","","","","","","","","","","75","K","2","","","39","main_expt"
"505","","bandit","118","441206","0.0-79.0-0.0","60905151","wem/bandit_either","AZZA3J049G7R5","either","4","","","","","","","0","1","0","","0.3208648015","0.6","0.8","0.2","0.4","0.2031275136","0.3298138996","0.3208648015","0.3066149412","","","","","","","","","","","75","K","2","","","40","main_expt"
"225","","bandit","119","442946","0.0-80.0-0.0","60905151","wem/bandit_either","AZZA3J049G7R5","either","4","","","","","","","0","0","1","0.2774570704","","0.6","0.8","0.2","0.4","","","","","0.2409224204","0.3590557929","0.2774570704","0.2612722093","","","","","","","75","K","2","","","41","main_expt"
"570","","bandit","120","445041","0.0-81.0-0.0","60905151","wem/bandit_either","AZZA3J049G7R5","either","4","","","","","","","0","0","1","0.3092882543","","0.6","0.8","0.2","0.4","","","","","0.2166695961","0.3455434044","0.3092882543","0.2579482203","","","","","","","75","K","2","","","42","main_expt"
"199","","bandit","121","446755","0.0-82.0-0.0","60905151","wem/bandit_either","AZZA3J049G7R5","either","4","","","","","","","1","0","0","0.4020043176","","0.6","0.8","0.2","0.4","","","","","0.2314197793","0.4020043176","0.3161251671","0.2232302517","","","","","","","74","J","1","","","43","main_expt"
"171","","bandit","122","448441","0.0-83.0-0.0","60905151","wem/bandit_either","AZZA3J049G7R5","either","4","","","","","","","1","0","0","0.4088695108","","0.6","0.8","0.2","0.4","","","","","0.1889371852","0.4088695108","0.3032549762","0.2435669349","","","","","","","74","J","1","","","44","main_expt"
"124","","bandit","123","450092","0.0-84.0-0.0","60905151","wem/bandit_either","AZZA3J049G7R5","either","4","","","","","","","1","0","0","0.3914045207","","0.6","0.8","0.2","0.4","","","","","0.2152104473","0.3914045207","0.3012359134","0.1885724617","","","","","","","74","J","1","","","45","main_expt"
"133","","bandit","124","451748","0.0-85.0-0.0","60905151","wem/bandit_either","AZZA3J049G7R5","either","4","","","","","","","0","0","1","0.3682142312","","0.6","0.8","0.2","0.4","","","","","0.2260726972","0.3682142312","0.2994346937","0.104230756","","","","","","","74","J","1","","","46","main_expt"
"186","","bandit","125","453455","0.0-86.0-0.0","60905151","wem/bandit_either","AZZA3J049G7R5","either","4","","","","","","","0","0","1","","0.3462276735","0.6","0.8","0.2","0.4","0.2330399618","0.3462276735","0.3169549043","0.09013225529","","","","","","","","","","","74","J","1","","","47","main_expt"
"1","","bandit","126","454980","0.0-87.0-0.0","60905151","wem/bandit_either","AZZA3J049G7R5","either","4","","","","","","","0","0","1","0.3501405617","","0.6","0.8","0.2","0.4","","","","","0.2769685944","0.3501405617","0.3137179834","0.1066227192","","","","","","","74","J","1","","","48","main_expt"
"270","","bandit","127","456766","0.0-88.0-0.0","60905151","wem/bandit_either","AZZA3J049G7R5","either","4","","","","","","","0","0","1","","0.3607669766","0.6","0.8","0.2","0.4","0.2954986192","0.3607669766","0.3026837323","0.1273062614","","","","","","","","","","","74","J","1","","","49","main_expt"
"284","","bandit","128","458562","0.0-89.0-0.0","60905151","wem/bandit_either","AZZA3J049G7R5","either","4","","","","","","","0","0","1","0.2730110453","","0.6","0.8","0.2","0.4","","","","","0.2730110453","0.3776327681","0.2690248343","0.08158159543","","","","","","","72","H","0","img/none_selected.jpg","","50","main_expt"
"621","","bandit","129","460701","0.0-90.0-0.0","60905151","wem/bandit_either","AZZA3J049G7R5","either","4","","","","","","","0","0","1","","0.08035098666","0.6","0.8","0.2","0.4","0.2672659715","0.3922012959","0.2407215714","0.08035098666","","","","","","","","","","","76","L","3","","","51","main_expt"
"0","","bandit","130","462208","0.0-91.0-0.0","60905151","wem/bandit_either","AZZA3J049G7R5","either","4","","","","","","","0","1","0","","0.2758158767","0.6","0.8","0.2","0.4","0.2552972095","0.3532085343","0.2758158767","0.1007468434","","","","","","","","","","","75","K","2","","","52","main_expt"
"278","","bandit","131","464004","0.0-92.0-0.0","60905151","wem/bandit_either","AZZA3J049G7R5","either","4","","","","","","","0","0","1","","0.2661511239","0.6","0.8","0.2","0.4","0.1954439593","0.3597378762","0.2661511239","0.1479770317","","","","","","","","","","","75","K","2","","","53","main_expt"
"406","","bandit","132","465940","0.0-93.0-0.0","60905151","wem/bandit_either","AZZA3J049G7R5","either","4","","","","","","","0","0","1","","0.250303373","0.6","0.8","0.2","0.4","0.1250298759","0.3553644404","0.250303373","0.1450389045","","","","","","","","","","","75","K","2","","","54","main_expt"
"238","","bandit","133","467710","0.0-94.0-0.0","60905151","wem/bandit_either","AZZA3J049G7R5","either","4","","","","","","","0","0","1","0.1224949652","","0.6","0.8","0.2","0.4","","","","","0.1224949652","0.3427354451","0.1850572083","0.1678096349","","","","","","","72","H","0","img/none_selected.jpg","","55","main_expt"
"1822","","bandit","134","471056","0.0-95.0-0.0","60905151","wem/bandit_either","AZZA3J049G7R5","either","4","","","","","","","0","0","1","","0.2410157884","0.6","0.8","0.2","0.4","0.1312048923","0.3158877586","0.2410157884","0.1748395718","","","","","","","","","","","75","K","2","","","56","main_expt"
"988","","bandit","135","473569","0.0-96.0-0.0","60905151","wem/bandit_either","AZZA3J049G7R5","either","4","","","","","","","0","0","1","","0.146986137","0.6","0.8","0.2","0.4","0.14452077","0.3224611445","0.2657224069","0.146986137","","","","","","","","","","","76","L","3","","","57","main_expt"
"283","","bandit","136","475360","0.0-97.0-0.0","60905151","wem/bandit_either","AZZA3J049G7R5","either","4","","","","","","","0","0","1","0.3378672788","","0.6","0.8","0.2","0.4","","","","","0.1198415177","0.3378672788","0.2361308133","0.1316135006","","","","","","","74","J","1","","","58","main_expt"
"274","","bandit","137","477150","0.0-98.0-0.0","60905151","wem/bandit_either","AZZA3J049G7R5","either","4","","","","","","","0","0","1","","0.2078360154","0.6","0.8","0.2","0.4","0.1674914914","0.3438075972","0.2078360154","0.1776120447","","","","","","","","","","","75","K","2","","","59","main_expt"
"164","","bandit","138","478851","0.0-99.0-0.0","60905151","wem/bandit_either","AZZA3J049G7R5","either","4","","","","","","","0","0","1","","0.2034864675","0.6","0.8","0.2","0.4","0.147959707","0.2950987239","0.2256957235","0.2034864675","","","","","","","","","","","76","L","3","","","60","main_expt"
"213","","bandit","139","480580","0.0-100.0-0.0","60905151","wem/bandit_either","AZZA3J049G7R5","either","4","","","","","","","0","0","1","","0.1217284172","0.6","0.8","0.2","0.4","0.1217284172","0.2939622289","0.2713547376","0.1325668513","","","","","","","","","","","72","H","0","img/none_selected.jpg","","61","main_expt"
"69","","bandit","140","482169","0.0-101.0-0.0","60905151","wem/bandit_either","AZZA3J049G7R5","either","4","","","","","","","1","0","0","0.2907096119","","0.6","0.8","0.2","0.4","","","","","0.1392905859","0.2907096119","0.2800078023","0.125492747","","","","","","","74","J","1","","","62","main_expt"
"209","","bandit","141","483900","0.0-102.0-0.0","60905151","wem/bandit_either","AZZA3J049G7R5","either","4","","","","","","","0","0","1","","0.2696382907","0.6","0.8","0.2","0.4","0.1953314019","0.2696382907","0.362183352","0.1081989139","","","","","","","","","","","74","J","1","","","63","main_expt"
"50","","bandit","142","485469","0.0-103.0-0.0","60905151","wem/bandit_either","AZZA3J049G7R5","either","4","","","","","","","0","0","1","0.2496415039","","0.6","0.8","0.2","0.4","","","","","0.2618523415","0.2496415039","0.3354395381","0.09104284411","","","","","","","74","J","1","","","64","main_expt"
"1386","","bandit","143","488363","0.0-104.0-0.0","60905151","wem/bandit_either","AZZA3J049G7R5","either","4","","","","","","","0","0","1","","0.1264903162","0.6","0.8","0.2","0.4","0.2686672798","0.2364994079","0.2893845237","0.1264903162","","","","","","","","","","","76","L","3","","","65","main_expt"
"369","","bandit","144","490256","0.0-105.0-0.0","60905151","wem/bandit_either","AZZA3J049G7R5","either","4","","","","","","","0","0","1","","0.2541683514","0.6","0.8","0.2","0.4","0.2451656397","0.2541683514","0.2355717356","0.1665937301","","","","","","","","","","","74","J","1","","","66","main_expt"
"6765","","bandit","145","498550","0.0-106.0-0.0","60905151","wem/bandit_either","AZZA3J049G7R5","either","4","","","","","","","0","0","1","0.2445320338","","0.6","0.8","0.2","0.4","","","","","0.2445320338","0.2985471382","0.2848755716","0.1740025863","","","","","","","72","H","0","img/none_selected.jpg","","67","main_expt"
"10014","","bandit","146","510083","0.0-107.0-0.0","60905151","wem/bandit_either","AZZA3J049G7R5","either","4","","","","","","","0","0","1","0.2261158315","","0.6","0.8","0.2","0.4","","","","","0.2261158315","0.3391290389","0.3341158043","0.2300011382","","","","","","","72","H","0","img/none_selected.jpg","","68","main_expt"
"2440","","bandit","147","514049","0.0-108.0-0.0","60905151","wem/bandit_either","AZZA3J049G7R5","either","4","","","","","","","0","0","1","0.3114764975","","0.6","0.8","0.2","0.4","","","","","0.1627286519","0.3114764975","0.3253412689","0.1768594062","","","","","","","74","J","1","","","69","main_expt"
"1537","","bandit","148","517107","0.0-109.0-0.0","60905151","wem/bandit_either","AZZA3J049G7R5","either","4","","","","","","","0","0","1","","0.1906145184","0.6","0.8","0.2","0.4","0.1301009224","0.3056328376","0.3280915152","0.1906145184","","","","","","","","","","","76","L","3","","","70","main_expt"
"1574","","bandit","149","520198","0.0-110.0-0.0","60905151","wem/bandit_either","AZZA3J049G7R5","either","4","","","","","","","1","0","0","0.3445325487","","0.6","0.8","0.2","0.4","","","","","0.1356707761","0.3445325487","0.3772643828","0.1451664327","","","","","","","74","J","1","","","71","main_expt"
"224","","bandit","150","521949","0.0-111.0-0.0","60905151","wem/bandit_either","AZZA3J049G7R5","either","4","","","","","","","0","0","1","","0.364612409","0.6","0.8","0.2","0.4","0.1045412551","0.364612409","0.4074174212","0.1091447996","","","","","","","","","","","74","J","1","","","72","main_expt"
"742","","bandit","151","524216","0.0-112.0-0.0","60905151","wem/bandit_either","AZZA3J049G7R5","either","4","","","","","","","0","0","1","0.4454774056","","0.6","0.8","0.2","0.4","","","","","0.0867882282","0.4454774056","0.3736299767","0.1248737042","","","","","","","74","J","1","","","73","main_expt"
"977","","bandit","152","526712","0.0-113.0-0.0","60905151","wem/bandit_either","AZZA3J049G7R5","either","4","","","","","","","0","0","1","0.4492830973","","0.6","0.8","0.2","0.4","","","","","0.1018359722","0.4492830973","0.383211712","0.1073746888","","","","","","","74","J","1","","","74","main_expt"
"696","","bandit","153","528937","0.0-114.0-0.0","60905151","wem/bandit_either","AZZA3J049G7R5","either","4","","","","","","","0","0","1","0.09443707336","","0.6","0.8","0.2","0.4","","","","","0.09443707336","0.449321966","0.3681962321","0.1051395745","","","","","","","72","H","0","img/none_selected.jpg","","75","main_expt"
"429","","bandit","154","530881","0.0-115.0-0.0","60905151","wem/bandit_either","AZZA3J049G7R5","either","4","","","","","","","1","0","0","0.4299726132","","0.6","0.8","0.2","0.4","","","","","0.08768691443","0.4299726132","0.3574328021","0.09171451076","","","","","","","74","J","1","","","76","main_expt"
"257","","bandit","155","532656","0.0-116.0-0.0","60905151","wem/bandit_either","AZZA3J049G7R5","either","4","","","","","","","0","0","1","0.4349340462","","0.6","0.8","0.2","0.4","","","","","0.07744448812","0.4349340462","0.4041720962","0.1256070833","","","","","","","74","J","1","","","77","main_expt"
"104","","bandit","156","534292","0.0-117.0-0.0","60905151","wem/bandit_either","AZZA3J049G7R5","either","4","","","","","","","0","0","1","","0.4000946746","0.6","0.8","0.2","0.4","0.05712631425","0.4112950215","0.4000946746","0.1398604905","","","","","","","","","","","75","K","2","","","78","main_expt"
"600","","bandit","157","536414","0.0-118.0-0.0","60905151","wem/bandit_either","AZZA3J049G7R5","either","4","","","","","","","1","0","0","0.4123046053","","0.6","0.8","0.2","0.4","","","","","0.03981704588","0.4123046053","0.425248604","0.1303191282","","","","","","","74","J","1","","","79","main_expt"
"158","","bandit","158","538101","0.0-119.0-0.0","60905151","wem/bandit_either","AZZA3J049G7R5","either","4","","","","","","","1","0","0","0.4345430878","","0.6","0.8","0.2","0.4","","","","","0.02961196177","0.4345430878","0.4263383456","0.1491340647","","","","","","","74","J","1","","","80","main_expt"
"247","","bandit","159","539878","0.0-120.0-0.0","60905151","wem/bandit_either","AZZA3J049G7R5","either","4","","","","","","","1","0","0","0.4255274095","","0.6","0.8","0.2","0.4","","","","","0.0408206899","0.4255274095","0.4377411966","0.1484119081","","","","","","","74","J","1","","","81","main_expt"
"85","","bandit","160","541479","0.0-121.0-0.0","60905151","wem/bandit_either","AZZA3J049G7R5","either","4","","","","","","","0","0","1","0.4266934287","","0.6","0.8","0.2","0.4","","","","","0.03491361241","0.4266934287","0.4263216968","0.135460029","","","","","","","74","J","1","","","82","main_expt"
"211","","bandit","161","543220","0.0-122.0-0.0","60905151","wem/bandit_either","AZZA3J049G7R5","either","4","","","","","","","0","0","1","0.4321646522","","0.6","0.8","0.2","0.4","","","","","0.01881925386","0.4321646522","0.4536492548","0.09497461961","","","","","","","74","J","1","","","83","main_expt"
"393","","bandit","162","545128","0.0-123.0-0.0","60905151","wem/bandit_either","AZZA3J049G7R5","either","4","","","","","","","1","0","0","0.43129245","","0.6","0.8","0.2","0.4","","","","","0.03441768066","0.43129245","0.4344769981","0.0956585677","","","","","","","74","J","1","","","84","main_expt"
"172","","bandit","163","546807","0.0-124.0-0.0","60905151","wem/bandit_either","AZZA3J049G7R5","either","4","","","","","","","0","0","1","0.4307495417","","0.6","0.8","0.2","0.4","","","","","0.04015732792","0.4307495417","0.4167097255","0.08427930603","","","","","","","74","J","1","","","85","main_expt"
"204","","bandit","164","548530","0.0-125.0-0.0","60905151","wem/bandit_either","AZZA3J049G7R5","either","4","","","","","","","1","0","0","0.4327415212","","0.6","0.8","0.2","0.4","","","","","0.0462821445","0.4327415212","0.4215971904","0.09540141202","","","","","","","74","J","1","","","86","main_expt"
"239","","bandit","165","550294","0.0-126.0-0.0","60905151","wem/bandit_either","AZZA3J049G7R5","either","4","","","","","","","0","0","1","","0.4507305815","0.6","0.8","0.2","0.4","0.07236867375","0.4507305815","0.3962725568","0.06504543429","","","","","","","","","","","74","J","1","","","87","main_expt"
"1343","","bandit","166","553151","0.0-127.0-0.0","60905151","wem/bandit_either","AZZA3J049G7R5","either","4","","","","","","","0","0","1","0.4571393315","","0.6","0.8","0.2","0.4","","","","","0.1132918069","0.4571393315","0.4038430626","0.05894337134","","","","","","","74","J","1","","","88","main_expt"
"589","","bandit","167","555269","0.0-128.0-0.0","60905151","wem/bandit_either","AZZA3J049G7R5","either","4","","","","","","","0","1","0","","0.4639779763","0.6","0.8","0.2","0.4","0.1466354559","0.4639779763","0.4247877058","0.06803635399","","","","","","","","","","","74","J","1","","","89","main_expt"
"492","","bandit","168","557299","0.0-129.0-0.0","60905151","wem/bandit_either","AZZA3J049G7R5","either","4","","","","","","","0","0","1","0.4620017245","","0.6","0.8","0.2","0.4","","","","","0.1746819083","0.4620017245","0.4196700557","0.09657856289","","","","","","","74","J","1","","","90","main_expt"
"340","","bandit","169","559154","0.0-130.0-0.0","60905151","wem/bandit_either","AZZA3J049G7R5","either","4","","","","","","","1","0","0","0.4492963398","","0.6","0.8","0.2","0.4","","","","","0.1864657318","0.4492963398","0.401758082","0.08522031428","","","","","","","74","J","1","","","91","main_expt"
"892","","bandit","170","561564","0.0-131.0-0.0","60905151","wem/bandit_either","AZZA3J049G7R5","either","4","","","","","","","0","1","0","","0.462009279","0.6","0.8","0.2","0.4","0.2124622091","0.462009279","0.3422099147","0.07078380504","","","","","","","","","","","74","J","1","","","92","main_expt"
"302","","bandit","171","563394","0.0-132.0-0.0","60905151","wem/bandit_either","AZZA3J049G7R5","either","4","","","","","","","0","0","1","","0.4363090379","0.6","0.8","0.2","0.4","0.245786276","0.4363090379","0.3279059742","0.0564278809","","","","","","","","","","","74","J","1","","","93","main_expt"
"255","","bandit","172","565172","0.0-133.0-0.0","60905151","wem/bandit_either","AZZA3J049G7R5","either","4","","","","","","","1","0","0","0.4457519602","","0.6","0.8","0.2","0.4","","","","","0.2316759231","0.4457519602","0.3155724737","0.06067733924","","","","","","","74","J","1","","","94","main_expt"
"305","","bandit","173","567003","0.0-134.0-0.0","60905151","wem/bandit_either","AZZA3J049G7R5","either","4","","","","","","","0","0","1","0.4231248902","","0.6","0.8","0.2","0.4","","","","","0.2231756969","0.4231248902","0.3519625041","0.08632751489","","","","","","","74","J","1","","","95","main_expt"
"1170","","bandit","174","569709","0.0-135.0-0.0","60905151","wem/bandit_either","AZZA3J049G7R5","either","4","","","","","","","1","0","0","0.4210676831","","0.6","0.8","0.2","0.4","","","","","0.1957128212","0.4210676831","0.3661455107","0.08481729553","","","","","","","74","J","1","","","96","main_expt"
"389","","bandit","175","571610","0.0-136.0-0.0","60905151","wem/bandit_either","AZZA3J049G7R5","either","4","","","","","","","0","0","1","0.4022895305","","0.6","0.8","0.2","0.4","","","","","0.1638116915","0.4022895305","0.3558031673","0.08386440452","","","","","","","74","J","1","","","97","main_expt"
"525","","bandit","176","573672","0.0-137.0-0.0","60905151","wem/bandit_either","AZZA3J049G7R5","either","4","","","","","","","0","1","0","","0.4187351015","0.6","0.8","0.2","0.4","0.1405816365","0.4187351015","0.3558230887","0.0940701929","","","","","","","","","","","74","J","1","","","98","main_expt"
"356","","bandit","177","575560","0.0-138.0-0.0","60905151","wem/bandit_either","AZZA3J049G7R5","either","4","","","","","","","1","0","0","0.3981340028","","0.6","0.8","0.2","0.4","","","","","0.1435678602","0.3981340028","0.3064708089","0.1285058524","","","","","","","74","J","1","","","99","main_expt"
"379","","bandit","178","577460","0.0-139.0-0.0","60905151","wem/bandit_either","AZZA3J049G7R5","either","4","","","","","","","1","0","0","0.3520446815","","0.6","0.8","0.2","0.4","","","","","0.1478754355","0.3520446815","0.352498313","0.065882019","","","","","","","74","J","1","","","100","main_expt"
"313","","bandit","179","579290","0.0-140.0-0.0","60905151","wem/bandit_either","AZZA3J049G7R5","either","4","","","","","","","1","0","0","0.3715523215","","0.6","0.8","0.2","0.4","","","","","0.1532559328","0.3715523215","0.3511810171","0.05692140794","","","","","","","74","J","1","","","101","main_expt"
"315","","bandit","180","581121","0.0-141.0-0.0","60905151","wem/bandit_either","AZZA3J049G7R5","either","4","","","","","","","0","0","1","0.3966955113","","0.6","0.8","0.2","0.4","","","","","0.15857411","0.3966955113","0.3246867477","0.04322280369","","","","","","","74","J","1","","","102","main_expt"
"293","","bandit","181","582928","0.0-142.0-0.0","60905151","wem/bandit_either","AZZA3J049G7R5","either","4","","","","","","","0","0","1","0.3865714765","","0.6","0.8","0.2","0.4","","","","","0.1552377357","0.3865714765","0.2827689756","0.05121437093","","","","","","","74","J","1","","","103","main_expt"
"367","","bandit","182","584803","0.0-143.0-0.0","60905151","wem/bandit_either","AZZA3J049G7R5","either","4","","","","","","","0","0","1","0.3440646931","","0.6","0.8","0.2","0.4","","","","","0.1584193753","0.3440646931","0.3307995119","0.06548077564","","","","","","","74","J","1","","","104","main_expt"
"278","","bandit","183","586606","0.0-144.0-0.0","60905151","wem/bandit_either","AZZA3J049G7R5","either","4","","","","","","","1","0","0","0.330981063","","0.6","0.8","0.2","0.4","","","","","0.192058402","0.330981063","0.3078297571","0.07577357845","","","","","","","74","J","1","","","105","main_expt"
"694","","bandit","184","588807","0.0-145.0-0.0","60905151","wem/bandit_either","AZZA3J049G7R5","either","4","","","","","","","1","0","0","0.3317280627","","0.6","0.8","0.2","0.4","","","","","0.1562344916","0.3317280627","0.3202685942","0.09041352565","","","","","","","74","J","1","","","106","main_expt"
"1060","","bandit","185","591383","0.0-146.0-0.0","60905151","wem/bandit_either","AZZA3J049G7R5","either","4","","","","","","","0","0","1","0.2760665195","","0.6","0.8","0.2","0.4","","","","","0.1493116313","0.2760665195","0.3163418234","0.1184921167","","","","","","","74","J","1","","","107","main_expt"
"261","","bandit","186","593156","0.0-147.0-0.0","60905151","wem/bandit_either","AZZA3J049G7R5","either","4","","","","","","","0","0","1","","0.2826301941","0.6","0.8","0.2","0.4","0.1357435498","0.2826301941","0.3425943818","0.1057615429","","","","","","","","","","","74","J","1","","","108","main_expt"
"167","","bandit","187","594847","0.0-148.0-0.0","60905151","wem/bandit_either","AZZA3J049G7R5","either","4","","","","","","","0","0","1","0.318117281","","0.6","0.8","0.2","0.4","","","","","0.1164074326","0.318117281","0.2852030557","0.1464484126","","","","","","","74","J","1","","","109","main_expt"
"264","","bandit","188","596620","0.0-149.0-0.0","60905151","wem/bandit_either","AZZA3J049G7R5","either","4","","","","","","","1","0","0","0.3358587519","","0.6","0.8","0.2","0.4","","","","","0.1444451916","0.3358587519","0.3392406975","0.1641354829","","","","","","","74","J","1","","","110","main_expt"
"631","","bandit","189","598761","0.0-150.0-0.0","60905151","wem/bandit_either","AZZA3J049G7R5","either","4","","","","","","","1","0","0","0.3031660534","","0.6","0.8","0.2","0.4","","","","","0.09905323685","0.3031660534","0.3023411017","0.1386891192","","","","","","","74","J","1","","","111","main_expt"
"279","","bandit","190","600577","0.0-151.0-0.0","60905151","wem/bandit_either","AZZA3J049G7R5","either","4","","","","","","","0","0","1","","0.2773548355","0.6","0.8","0.2","0.4","0.09652445584","0.2773548355","0.296849772","0.1847512065","","","","","","","","","","","74","J","1","","","112","main_expt"
"300","","bandit","191","602400","0.0-152.0-0.0","60905151","wem/bandit_either","AZZA3J049G7R5","either","4","","","","","","","0","0","1","","0.2370758425","0.6","0.8","0.2","0.4","0.09961189632","0.2370758425","0.2673419259","0.1304555333","","","","","","","","","","","74","J","1","","","113","main_expt"
"278","","bandit","192","604206","0.0-153.0-0.0","60905151","wem/bandit_either","AZZA3J049G7R5","either","4","","","","","","","0","0","1","0.1821928837","","0.6","0.8","0.2","0.4","","","","","0.1036139638","0.1821928837","0.2670531803","0.1770102637","","","","","","","74","J","1","","","114","main_expt"
"271","","bandit","193","606003","0.0-154.0-0.0","60905151","wem/bandit_either","AZZA3J049G7R5","either","4","","","","","","","0","0","1","0.1315453283","","0.6","0.8","0.2","0.4","","","","","0.0968506792","0.1315453283","0.2825009356","0.1564651975","","","","","","","74","J","1","","","115","main_expt"
"186","","bandit","194","607710","0.0-155.0-0.0","60905151","wem/bandit_either","AZZA3J049G7R5","either","4","","","","","","","0","0","1","","0.3237719372","0.6","0.8","0.2","0.4","0.08782875681","0.1102777544","0.3237719372","0.1665702367","","","","","","","","","","","75","K","2","","","116","main_expt"
"47","","bandit","195","609287","0.0-156.0-0.0","60905151","wem/bandit_either","AZZA3J049G7R5","either","4","","","","","","","0","0","1","","0.1530687496","0.6","0.8","0.2","0.4","0.06031800864","0.1101610351","0.3154846423","0.1530687496","","","","","","","","","","","76","L","3","","","117","main_expt"
"278","","bandit","196","611072","0.0-157.0-0.0","60905151","wem/bandit_either","AZZA3J049G7R5","either","4","","","","","","","0","0","1","0.05633053331","","0.6","0.8","0.2","0.4","","","","","0.05633053331","0.122460482","0.2584508078","0.1674206906","","","","","","","72","H","0","img/none_selected.jpg","","118","main_expt"
"72","","bandit","197","612657","0.0-158.0-0.0","60905151","wem/bandit_either","AZZA3J049G7R5","either","4","","","","","","","0","0","1","0.07530514027","","0.6","0.8","0.2","0.4","","","","","0.07530514027","0.1451868924","0.2141905193","0.1990215448","","","","","","","72","H","0","img/none_selected.jpg","","119","main_expt"
"393","","bandit","198","614573","0.0-159.0-0.0","60905151","wem/bandit_either","AZZA3J049G7R5","either","4","","","","","","","0","0","1","","0.2208640619","0.6","0.8","0.2","0.4","0.09639595661","0.09092593383","0.2341954374","0.2208640619","","","","","","","","","","","76","L","3","","","120","main_expt"
"1389","","bandit","199","617481","0.0-160.0-0.0","60905151","wem/bandit_either","AZZA3J049G7R5","either","4","","","","","","","0","0","1","","0.1886372651","0.6","0.8","0.2","0.4","0.1421799471","0.1080456108","0.1886372651","0.2602917539","","","","","","","","","","","75","K","2","","","121","main_expt"
"1911","","bandit","200","620917","0.0-161.0-0.0","60905151","wem/bandit_either","AZZA3J049G7R5","either","4","","","","","","","1","0","0","0.1169053248","","0.6","0.8","0.2","0.4","","","","","0.1624760489","0.1169053248","0.1597592322","0.2512498235","","","","","","","74","J","1","","","122","main_expt"
"262","","bandit","201","622701","0.0-162.0-0.0","60905151","wem/bandit_either","AZZA3J049G7R5","either","4","","","","","","","0","0","1","","0.1571594809","0.6","0.8","0.2","0.4","0.1640214383","0.1571594809","0.1895266442","0.2266242761","","","","","","","","","","","74","J","1","","","123","main_expt"
"0","","bandit","202","624224","0.0-163.0-0.0","60905151","wem/bandit_either","AZZA3J049G7R5","either","4","","","","","","","1","0","0","0.2231804049","","0.6","0.8","0.2","0.4","","","","","0.2014340991","0.2231804049","0.2042850732","0.2373824638","","","","","","","74","J","1","","","124","main_expt"
"293","","bandit","203","626035","0.0-164.0-0.0","60905151","wem/bandit_either","AZZA3J049G7R5","either","4","","","","","","","0","0","1","0.2232794356","","0.6","0.8","0.2","0.4","","","","","0.2229229076","0.2232794356","0.1812515389","0.2538727107","","","","","","","74","J","1","","","125","main_expt"
"218","","bandit","204","627774","0.0-165.0-0.0","60905151","wem/bandit_either","AZZA3J049G7R5","either","4","","","","","","","0","0","1","0.2316903634","","0.6","0.8","0.2","0.4","","","","","0.2324712723","0.2316903634","0.1694736183","0.290219491","","","","","","","74","J","1","","","126","main_expt"
"207","","bandit","205","629504","0.0-166.0-0.0","60905151","wem/bandit_either","AZZA3J049G7R5","either","4","","","","","","","0","0","1","","0.2337524142","0.6","0.8","0.2","0.4","0.2628391623","0.2337524142","0.1624528765","0.2542505169","","","","","","","","","","","74","J","1","","","127","main_expt"
"114","","bandit","206","631132","0.0-167.0-0.0","60905151","wem/bandit_either","AZZA3J049G7R5","either","4","","","","","","","0","0","1","","0.2198210178","0.6","0.8","0.2","0.4","0.2654356302","0.2198210178","0.1632982916","0.2582316027","","","","","","","","","","","74","J","1","","","128","main_expt"
"205","","bandit","207","632866","0.0-168.0-0.0","60905151","wem/bandit_either","AZZA3J049G7R5","either","4","","","","","","","0","0","1","0.2280168395","","0.6","0.8","0.2","0.4","","","","","0.2070569149","0.2280168395","0.2264598068","0.3267566011","","","","","","","74","J","1","","","129","main_expt"
"228","","bandit","208","634627","0.0-169.0-0.0","60905151","wem/bandit_either","AZZA3J049G7R5","either","4","","","","","","","0","0","1","","0.2579182239","0.6","0.8","0.2","0.4","0.2579182239","0.243895296","0.202760285","0.3323271388","","","","","","","","","","","72","H","0","img/none_selected.jpg","","130","main_expt"
"240","","bandit","209","636396","0.0-170.0-0.0","60905151","wem/bandit_either","AZZA3J049G7R5","either","4","","","","","","","0","0","1","","0.2666668646","0.6","0.8","0.2","0.4","0.2329110821","0.2164454501","0.1585094705","0.2666668646","","","","","","","","","","","76","L","3","","","131","main_expt"
"274","","bandit","210","638197","0.0-171.0-0.0","60905151","wem/bandit_either","AZZA3J049G7R5","either","4","","","","","","","0","0","1","","0.1304261544","0.6","0.8","0.2","0.4","0.2400232435","0.200468731","0.1304261544","0.2359119393","","","","","","","","","","","75","K","2","","","132","main_expt"
"2171","","bandit","211","641899","0.0-172.0-0.0","60905151","wem/bandit_either","AZZA3J049G7R5","either","4","","","","","","","0","0","1","","0.2038597077","0.6","0.8","0.2","0.4","0.2084798617","0.2038597077","0.09339990826","0.2540740643","","","","","","","","","","","74","J","1","","","133","main_expt"
"1449","","bandit","212","644869","0.0-173.0-0.0","60905151","wem/bandit_either","AZZA3J049G7R5","either","4","","","","","","","0","0","1","","0.08524612959","0.6","0.8","0.2","0.4","0.2034544","0.2263269307","0.08524612959","0.2414927735","","","","","","","","","","","75","K","2","","","134","main_expt"
"601","","bandit","213","647004","0.0-174.0-0.0","60905151","wem/bandit_either","AZZA3J049G7R5","either","4","","","","","","","0","0","1","0.0622033461","","0.6","0.8","0.2","0.4","","","","","0.2088958693","0.2686469146","0.0622033461","0.2632369982","","","","","","","75","K","2","","","135","main_expt"
"1305","","bandit","214","649823","0.0-175.0-0.0","60905151","wem/bandit_either","AZZA3J049G7R5","either","4","","","","","","","0","0","1","0.3032623762","","0.6","0.8","0.2","0.4","","","","","0.2573758916","0.3170393738","0.05632890875","0.3032623762","","","","","","","76","L","3","","","136","main_expt"
"123","","bandit","215","651475","0.0-176.0-0.0","60905151","wem/bandit_either","AZZA3J049G7R5","either","4","","","","","","","0","1","0","","0.2467438462","0.6","0.8","0.2","0.4","0.2467438462","0.338962466","0.06052980877","0.2984046037","","","","","","","","","","","72","H","0","img/none_selected.jpg","","137","main_expt"
"284","","bandit","216","653267","0.0-177.0-0.0","60905151","wem/bandit_either","AZZA3J049G7R5","either","4","","","","","","","0","0","1","0.2221944767","","0.6","0.8","0.2","0.4","","","","","0.2221944767","0.3586643031","0.1038497792","0.3110629865","","","","","","","72","H","0","img/none_selected.jpg","","138","main_expt"
"185","","bandit","217","654974","0.0-178.0-0.0","60905151","wem/bandit_either","AZZA3J049G7R5","either","4","","","","","","","0","0","1","0.2750517365","","0.6","0.8","0.2","0.4","","","","","0.2750517365","0.3430902759","0.08561062373","0.3048373826","","","","","","","72","H","0","img/none_selected.jpg","","139","main_expt"
"37","","bandit","218","656536","0.0-179.0-0.0","60905151","wem/bandit_either","AZZA3J049G7R5","either","4","","","","","","","0","0","1","","0.277474309","0.6","0.8","0.2","0.4","0.277474309","0.3777112835","0.08025295029","0.3163642845","","","","","","","","","","","72","H","0","img/none_selected.jpg","","140","main_expt"
"1012","","bandit","219","659070","0.0-180.0-0.0","60905151","wem/bandit_either","AZZA3J049G7R5","either","4","","","","","","","0","0","1","","0.2932007391","0.6","0.8","0.2","0.4","0.2932007391","0.4276051364","0.09309891757","0.2213861514","","","","","","","","","","","72","H","0","img/none_selected.jpg","","141","main_expt"
"742","","bandit","220","661327","0.0-181.0-0.0","60905151","wem/bandit_either","AZZA3J049G7R5","either","4","","","","","","","1","0","0","0.4312347149","","0.6","0.8","0.2","0.4","","","","","0.3001807938","0.4312347149","0.1107976638","0.2492613222","","","","","","","74","J","1","","","142","main_expt"
"314","","bandit","221","663169","0.0-182.0-0.0","60905151","wem/bandit_either","AZZA3J049G7R5","either","4","","","","","","","0","0","1","0.386657586","","0.6","0.8","0.2","0.4","","","","","0.3640878437","0.386657586","0.09575525052","0.2645663874","","","","","","","74","J","1","","","143","main_expt"
"89","","bandit","222","664785","0.0-183.0-0.0","60905151","wem/bandit_either","AZZA3J049G7R5","either","4","","","","","","","1","0","0","0.3409851627","","0.6","0.8","0.2","0.4","","","","","0.2706796495","0.3409851627","0.07222794989","0.2928215939","","","","","","","74","J","1","","","144","main_expt"
"66","","bandit","223","666366","0.0-184.0-0.0","60905151","wem/bandit_either","AZZA3J049G7R5","either","4","","","","","","","0","0","1","0.3538709708","","0.6","0.8","0.2","0.4","","","","","0.2359726437","0.3538709708","0.03203798906","0.3178979655","","","","","","","74","J","1","","","145","main_expt"
"1091","","bandit","224","668984","0.0-185.0-0.0","60905151","wem/bandit_either","AZZA3J049G7R5","either","4","","","","","","","0","0","1","0.2745956728","","0.6","0.8","0.2","0.4","","","","","0.2200332621","0.2745956728","0.03073079809","0.2850957273","","","","","","","74","J","1","","","146","main_expt"
"360","","bandit","225","670860","0.0-186.0-0.0","60905151","wem/bandit_either","AZZA3J049G7R5","either","4","","","","","","","1","0","0","0.2375793476","","0.6","0.8","0.2","0.4","","","","","0.1957794229","0.2375793476","0.05105424151","0.2483519338","","","","","","","74","J","1","","","147","main_expt"
"390","","bandit","226","672767","0.0-187.0-0.0","60905151","wem/bandit_either","AZZA3J049G7R5","either","4","","","","","","","1","0","0","0.2954602587","","0.6","0.8","0.2","0.4","","","","","0.1790722045","0.2954602587","0.04045355104","0.2309770791","","","","","","","74","J","1","","","148","main_expt"
"356","","bandit","227","674652","0.0-188.0-0.0","60905151","wem/bandit_either","AZZA3J049G7R5","either","4","","","","","","","1","0","0","0.3435099865","","0.6","0.8","0.2","0.4","","","","","0.2189150546","0.3435099865","0.06416506337","0.1759049641","","","","","","","74","J","1","","","149","main_expt"
"234","","bandit","228","676408","0.0-189.0-0.0","60905151","wem/bandit_either","AZZA3J049G7R5","either","4","","","","","","","0","0","1","0.268900415","","0.6","0.8","0.2","0.4","","","","","0.2119229637","0.268900415","0.07819388902","0.1910702346","","","","","","","74","J","1","","","150","main_expt"
"1735","","bandit","229","679665","0.0-190.0-0.0","60905151","wem/bandit_either","AZZA3J049G7R5","either","4","","","","","","","0","0","1","0.2326488896","","0.6","0.8","0.2","0.4","","","","","0.2472398003","0.2326488896","0.1186979887","0.1799178466","","","","","","","74","J","1","","","151","main_expt"
"1038","","bandit","230","682237","0.0-191.0-0.0","60905151","wem/bandit_either","AZZA3J049G7R5","either","4","","","","","","","0","0","1","0.2768057641","","0.6","0.8","0.2","0.4","","","","","0.2148428051","0.2768057641","0.1084773402","0.1826140084","","","","","","","74","J","1","","","152","main_expt"
"501","","bandit","231","684258","0.0-192.0-0.0","60905151","wem/bandit_either","AZZA3J049G7R5","either","4","","","","","","","0","0","1","0.2997660112","","0.6","0.8","0.2","0.4","","","","","0.1598057249","0.2997660112","0.1314289417","0.147924298","","","","","","","74","J","1","","","153","main_expt"
"297","","bandit","232","686086","0.0-193.0-0.0","60905151","wem/bandit_either","AZZA3J049G7R5","either","4","","","","","","","0","0","1","0.3196464983","","0.6","0.8","0.2","0.4","","","","","0.1489099923","0.3196464983","0.1354051011","0.1388357139","","","","","","","74","J","1","","","154","main_expt"
"867","","bandit","233","688484","0.0-194.0-0.0","60905151","wem/bandit_either","AZZA3J049G7R5","either","4","","","","","","","0","0","1","0.1502541116","","0.6","0.8","0.2","0.4","","","","","0.1502541116","0.3141654429","0.1085215933","0.1658398244","","","","","","","72","H","0","img/none_selected.jpg","","155","main_expt"
"1122","","bandit","234","691140","0.0-195.0-0.0","60905151","wem/bandit_either","AZZA3J049G7R5","either","4","","","","","","","0","0","1","","0.1383379057","0.6","0.8","0.2","0.4","0.1605084188","0.2667217688","0.1383379057","0.1104921729","","","","","","","","","","","75","K","2","","","156","main_expt"
"3975","","bandit","235","696627","0.0-196.0-0.0","60905151","wem/bandit_either","AZZA3J049G7R5","either","4","","","","","","","0","0","1","","0.1428990181","0.6","0.8","0.2","0.4","0.1684101418","0.2867075714","0.1428990181","0.09530810267","","","","","","","","","","","75","K","2","","","157","main_expt"
"319","","bandit","236","698479","0.0-197.0-0.0","60905151","wem/bandit_either","AZZA3J049G7R5","either","4","","","","","","","0","0","1","0.1211627972","","0.6","0.8","0.2","0.4","","","","","0.1807688322","0.2788639118","0.07455979893","0.1211627972","","","","","","","76","L","3","","","158","main_expt"
"530","","bandit","237","700535","0.0-198.0-0.0","60905151","wem/bandit_either","AZZA3J049G7R5","either","4","","","","","","","1","0","0","0.3020710819","","0.6","0.8","0.2","0.4","","","","","0.1516426412","0.3020710819","0.1009372764","0.1012897464","","","","","","","74","J","1","","","159","main_expt"
"271","","bandit","238","702335","0.0-199.0-0.0","60905151","wem/bandit_either","AZZA3J049G7R5","either","4","","","","","","","0","0","1","0.3404227007","","0.6","0.8","0.2","0.4","","","","","0.1638698877","0.3404227007","0.05118862797","0.1188035868","","","","","","","74","J","1","","","160","main_expt"
"279","","bandit","239","704139","0.0-200.0-0.0","60905151","wem/bandit_either","AZZA3J049G7R5","either","4","","","","","","","0","0","1","","0.2876249865","0.6","0.8","0.2","0.4","0.1645359983","0.2876249865","0.05265847637","0.1606836622","","","","","","","","","","","74","J","1","","","161","main_expt"
"155","","bandit","240","705803","0.0-201.0-0.0","60905151","wem/bandit_either","AZZA3J049G7R5","either","4","","","","","","","0","0","1","0.2401308511","","0.6","0.8","0.2","0.4","","","","","0.2509918509","0.2401308511","0.07938684611","0.1859884171","","","","","","","74","J","1","","","162","main_expt"
"208","","bandit","241","707537","0.0-202.0-0.0","60905151","wem/bandit_either","AZZA3J049G7R5","either","4","","","","","","","0","0","1","0.2486605046","","0.6","0.8","0.2","0.4","","","","","0.1883685458","0.2486605046","0.0970900163","0.2528258464","","","","","","","74","J","1","","","163","main_expt"
"937","","bandit","242","710004","0.0-203.0-0.0","60905151","wem/bandit_either","AZZA3J049G7R5","either","4","","","","","","","0","0","1","","0.2179532334","0.6","0.8","0.2","0.4","0.2179532334","0.22675384","0.07401968201","0.2515292425","","","","","","","","","","","72","H","0","img/none_selected.jpg","","164","main_expt"
"394","","bandit","243","711927","0.0-204.0-0.0","60905151","wem/bandit_either","AZZA3J049G7R5","either","4","","","","","","","0","0","1","0.2841151948","","0.6","0.8","0.2","0.4","","","","","0.2143704678","0.2841151948","0.06633104104","0.2068970429","","","","","","","74","J","1","","","165","main_expt"
"487","","bandit","244","713935","0.0-205.0-0.0","60905151","wem/bandit_either","AZZA3J049G7R5","either","4","","","","","","","0","0","1","","0.05309652092","0.6","0.8","0.2","0.4","0.2175899085","0.2842980464","0.05309652092","0.1413778631","","","","","","","","","","","75","K","2","","","166","main_expt"
"366","","bandit","245","715820","0.0-206.0-0.0","60905151","wem/bandit_either","AZZA3J049G7R5","either","4","","","","","","","0","0","1","0.3007590714","","0.6","0.8","0.2","0.4","","","","","0.2137120923","0.3007590714","0.07357446968","0.1999497975","","","","","","","74","J","1","","","167","main_expt"
"4401","","bandit","246","721754","0.0-207.0-0.0","60905151","wem/bandit_either","AZZA3J049G7R5","either","4","","","","","","","0","0","1","","0.1696145944","0.6","0.8","0.2","0.4","0.2331560811","0.2884936601","0.1054325378","0.1696145944","","","","","","","","","","","76","L","3","","","168","main_expt"
"463","","bandit","247","723738","0.0-208.0-0.0","60905151","wem/bandit_either","AZZA3J049G7R5","either","4","","","","","","","0","1","0","","0.08536867429","0.6","0.8","0.2","0.4","0.2367963754","0.2803439438","0.08536867429","0.1338518967","","","","","","","","","","","75","K","2","","","169","main_expt"
"289","","bandit","248","725552","0.0-209.0-0.0","60905151","wem/bandit_either","AZZA3J049G7R5","either","4","","","","","","","0","0","1","0.1083432756","","0.6","0.8","0.2","0.4","","","","","0.2378050175","0.3010437192","0.1083432756","0.1307598277","","","","","","","75","K","2","","","170","main_expt"
"248","","bandit","249","727324","0.0-210.0-0.0","60905151","wem/bandit_either","AZZA3J049G7R5","either","4","","","","","","","0","0","1","","0.09185370626","0.6","0.8","0.2","0.4","0.2253696972","0.3243802095","0.09185370626","0.1200375331","","","","","","","","","","","75","K","2","","","171","main_expt"
"225","","bandit","250","729070","0.0-211.0-0.0","60905151","wem/bandit_either","AZZA3J049G7R5","either","4","","","","","","","0","0","1","","0.09458096772","0.6","0.8","0.2","0.4","0.2903394368","0.3140094691","0.09458096772","0.07514546963","","","","","","","","","","","75","K","2","","","172","main_expt"
"464","","bandit","251","731059","0.0-212.0-0.0","60905151","wem/bandit_either","AZZA3J049G7R5","either","4","","","","","","","0","0","1","","0.1016296913","0.6","0.8","0.2","0.4","0.2384828248","0.2433770114","0.1016296913","0.07704486673","","","","","","","","","","","75","K","2","","","173","main_expt"
"947","","bandit","252","733532","0.0-213.0-0.0","60905151","wem/bandit_either","AZZA3J049G7R5","either","4","","","","","","","0","0","1","","0.117107939","0.6","0.8","0.2","0.4","0.2823111034","0.2080779891","0.117107939","0.04061738922","","","","","","","","","","","75","K","2","","","174","main_expt"
"206","","bandit","253","735258","0.0-214.0-0.0","60905151","wem/bandit_either","AZZA3J049G7R5","either","4","","","","","","","0","0","1","","0.02968316822","0.6","0.8","0.2","0.4","0.292147578","0.2211365803","0.1254773658","0.02968316822","","","","","","","","","","","76","L","3","","","175","main_expt"
"2093","","bandit","254","738876","0.0-215.0-0.0","60905151","wem/bandit_either","AZZA3J049G7R5","either","4","","","","","","","0","0","1","0.2928295457","","0.6","0.8","0.2","0.4","","","","","0.2928295457","0.231280906","0.1518856622","0.04419366322","","","","","","","72","H","0","img/none_selected.jpg","","176","main_expt"
"772","","bandit","255","741179","0.0-216.0-0.0","60905151","wem/bandit_either","AZZA3J049G7R5","either","4","","","","","","","0","0","1","","0.1689881391","0.6","0.8","0.2","0.4","0.297241693","0.1689881391","0.1502483312","0.04140429262","","","","","","","","","","","74","J","1","","","177","main_expt"
"740","","bandit","256","743441","0.0-217.0-0.0","60905151","wem/bandit_either","AZZA3J049G7R5","either","4","","","","","","","0","0","1","0.1699404395","","0.6","0.8","0.2","0.4","","","","","0.276241128","0.1699404395","0.2073149786","0.06103489621","","","","","","","74","J","1","","","178","main_expt"
"1301","","bandit","257","746265","0.0-218.0-0.0","60905151","wem/bandit_either","AZZA3J049G7R5","either","4","","","","","","","0","0","1","","0.1928578162","0.6","0.8","0.2","0.4","0.2405339857","0.1571972967","0.1928578162","0.053608248","","","","","","","","","","","75","K","2","","","179","main_expt"
"336","","bandit","258","748122","0.0-219.0-0.0","60905151","wem/bandit_either","AZZA3J049G7R5","either","4","","","","","","","0","0","1","0.06289379635","","0.6","0.8","0.2","0.4","","","","","0.233428307","0.1567782565","0.1412953234","0.06289379635","","","","","","","76","L","3","","","180","main_expt"
"111","","bandit","259","749751","0.0-220.0-0.0","60905151","wem/bandit_either","AZZA3J049G7R5","either","4","","","","","","","0","0","1","0.1492691696","","0.6","0.8","0.2","0.4","","","","","0.1459310114","0.1492691696","0.1258774719","0.07748386732","","","","","","","74","J","1","","","181","main_expt"
"540","","bandit","260","751800","0.0-221.0-0.0","60905151","wem/bandit_either","AZZA3J049G7R5","either","4","","","","","","","0","0","1","","0.1121960069","0.6","0.8","0.2","0.4","0.1796360657","0.1609613705","0.1121960069","0.096714051","","","","","","","","","","","75","K","2","","","182","main_expt"
"1044","","bandit","261","754370","0.0-222.0-0.0","60905151","wem/bandit_either","AZZA3J049G7R5","either","4","","","","","","","0","1","0","","0.1907874973","0.6","0.8","0.2","0.4","0.1907874973","0.1982891881","0.08335286121","0.05351369794","","","","","","","","","","","72","H","0","img/none_selected.jpg","","183","main_expt"
"276","","bandit","262","756164","0.0-223.0-0.0","60905151","wem/bandit_either","AZZA3J049G7R5","either","4","","","","","","","0","0","1","","0.1451627339","0.6","0.8","0.2","0.4","0.1451627339","0.1703318442","0.1085923678","0.08854511538","","","","","","","","","","","72","H","0","img/none_selected.jpg","","184","main_expt"
"221","","bandit","263","757913","0.0-224.0-0.0","60905151","wem/bandit_either","AZZA3J049G7R5","either","4","","","","","","","0","0","1","","0.1692531577","0.6","0.8","0.2","0.4","0.1692531577","0.09566746086","0.1113654269","0.136385666","","","","","","","","","","","72","H","0","img/none_selected.jpg","","185","main_expt"
"167","","bandit","264","759608","0.0-225.0-0.0","60905151","wem/bandit_either","AZZA3J049G7R5","either","4","","","","","","","0","0","1","","0.1885113298","0.6","0.8","0.2","0.4","0.1885113298","0.1254261761","0.1383531569","0.1848043888","","","","","","","","","","","72","H","0","img/none_selected.jpg","","186","main_expt"
"24","","bandit","265","761154","0.0-226.0-0.0","60905151","wem/bandit_either","AZZA3J049G7R5","either","4","","","","","","","0","0","1","","0.2088125345","0.6","0.8","0.2","0.4","0.2088125345","0.1081798115","0.1739713275","0.1640989128","","","","","","","","","","","72","H","0","img/none_selected.jpg","","187","main_expt"
"0","","bandit","266","762679","0.0-227.0-0.0","60905151","wem/bandit_either","AZZA3J049G7R5","either","4","","","","","","","0","0","1","0.2228369986","","0.6","0.8","0.2","0.4","","","","","0.2228369986","0.08529062399","0.1926366302","0.1301402021","","","","","","","72","H","0","img/none_selected.jpg","","188","main_expt"
"768","","bandit","267","764965","0.0-228.0-0.0","60905151","wem/bandit_either","AZZA3J049G7R5","either","4","","","","","","","0","0","1","0.07250281893","","0.6","0.8","0.2","0.4","","","","","0.2567428292","0.07250281893","0.2499935398","0.1980942663","","","","","","","74","J","1","","","189","main_expt"
"46","","bandit","268","766531","0.0-229.0-0.0","60905151","wem/bandit_either","AZZA3J049G7R5","either","4","","","","","","","0","0","1","","0.07895395147","0.6","0.8","0.2","0.4","0.3177850294","0.07895395147","0.2367317824","0.1842725295","","","","","","","","","","","74","J","1","","","190","main_expt"
"13","","bandit","269","768056","0.0-230.0-0.0","60905151","wem/bandit_either","AZZA3J049G7R5","either","4","","","","","","","0","0","1","0.2876912335","","0.6","0.8","0.2","0.4","","","","","0.2876912335","0.06204701637","0.2515026666","0.2087081259","","","","","","","72","H","0","img/none_selected.jpg","","191","main_expt"
"161","","bandit","270","769748","0.0-231.0-0.0","60905151","wem/bandit_either","AZZA3J049G7R5","either","4","","","","","","","0","0","1","","0.2451916405","0.6","0.8","0.2","0.4","0.2383873749","0.064067899","0.2451916405","0.1800110976","","","","","","","","","","","75","K","2","","","192","main_expt"
"153","","bandit","271","771425","0.0-232.0-0.0","60905151","wem/bandit_either","AZZA3J049G7R5","either","4","","","","","","","0","1","0","","0.2353451433","0.6","0.8","0.2","0.4","0.24690957","0.1286650472","0.2353451433","0.1519186298","","","","","","","","","","","75","K","2","","","193","main_expt"
"283","","bandit","272","773235","0.0-233.0-0.0","60905151","wem/bandit_either","AZZA3J049G7R5","either","4","","","","","","","0","0","1","0.307075739","","0.6","0.8","0.2","0.4","","","","","0.2728455101","0.1746490116","0.307075739","0.1431656489","","","","","","","75","K","2","","","194","main_expt"
"1635","","bandit","273","776392","0.0-234.0-0.0","60905151","wem/bandit_either","AZZA3J049G7R5","either","4","","","","","","","0","0","1","","0.3011001907","0.6","0.8","0.2","0.4","0.2421292151","0.129035247","0.3011001907","0.1868251083","","","","","","","","","","","75","K","2","","","195","main_expt"
"156","","bandit","274","778074","0.0-235.0-0.0","60905151","wem/bandit_either","AZZA3J049G7R5","either","4","","","","","","","0","1","0","","0.2861216794","0.6","0.8","0.2","0.4","0.2598052724","0.09052040682","0.2861216794","0.176624335","","","","","","","","","","","75","K","2","","","196","main_expt"
"281","","bandit","275","779880","0.0-236.0-0.0","60905151","wem/bandit_either","AZZA3J049G7R5","either","4","","","","","","","0","0","1","","0.2121549007","0.6","0.8","0.2","0.4","0.2540930088","0.08675464884","0.2121549007","0.2383323772","","","","","","","","","","","75","K","2","","","197","main_expt"
"395","","bandit","276","781789","0.0-237.0-0.0","60905151","wem/bandit_either","AZZA3J049G7R5","either","4","","","","","","","1","0","0","0.260618614","","0.6","0.8","0.2","0.4","","","","","0.2460150375","0.09429549835","0.260340052","0.260618614","","","","","","","76","L","3","","","198","main_expt"
"182","","bandit","277","783499","0.0-238.0-0.0","60905151","wem/bandit_either","AZZA3J049G7R5","either","4","","","","","","","0","0","1","","0.2935067364","0.6","0.8","0.2","0.4","0.2217343644","0.09303778716","0.3009562829","0.2935067364","","","","","","","","","","","76","L","3","","","199","main_expt"
"93","","bandit","278","785103","0.0-239.0-0.0","60905151","wem/bandit_either","AZZA3J049G7R5","either","4","","","","","","","0","0","1","","0.362920627","0.6","0.8","0.2","0.4","0.2830302048","0.07354084322","0.3430896668","0.362920627","","","","","","","","","","","76","L","3","","","200","main_expt"
"2007","","bandit","279","788622","0.0-240.0-0.0","60905151","wem/bandit_either","AZZA3J049G7R5","either","4","","","","","","","0","1","0","","0.3119044903","0.6","0.8","0.2","0.4","0.3175621279","0.08115367452","0.2973668079","0.3119044903","","","","","","","","","","","76","L","3","","","201","main_expt"
"183","","bandit","280","790318","0.0-241.0-0.0","60905151","wem/bandit_either","AZZA3J049G7R5","either","4","","","","","","","0","1","0","","0.3095695708","0.6","0.8","0.2","0.4","0.3049471546","0.0774842685","0.3219337599","0.3095695708","","","","","","","","","","","76","L","3","","","202","main_expt"
"168","","bandit","281","792009","0.0-242.0-0.0","60905151","wem/bandit_either","AZZA3J049G7R5","either","4","","","","","","","0","0","1","0.3005459379","","0.6","0.8","0.2","0.4","","","","","0.2975042969","0.09704724367","0.3229991028","0.3005459379","","","","","","","76","L","3","","","203","main_expt"
"34","","bandit","282","793564","0.0-243.0-0.0","60905151","wem/bandit_either","AZZA3J049G7R5","either","4","","","","","","","0","0","1","","0.3116824409","0.6","0.8","0.2","0.4","0.2268457719","0.1224111047","0.3077995671","0.3116824409","","","","","","","","","","","76","L","3","","","204","main_expt"
"22","","bandit","283","795103","0.0-244.0-0.0","60905151","wem/bandit_either","AZZA3J049G7R5","either","4","","","","","","","0","0","1","0.3291635812","","0.6","0.8","0.2","0.4","","","","","0.2582085449","0.1627664319","0.3070199156","0.3291635812","","","","","","","76","L","3","","","205","main_expt"
"646","","bandit","284","797268","0.0-245.0-0.0","60905151","wem/bandit_either","AZZA3J049G7R5","either","4","","","","","","","0","1","0","","0.4008790519","0.6","0.8","0.2","0.4","0.2841247045","0.1604236747","0.3109683939","0.4008790519","","","","","","","","","","","76","L","3","","","206","main_expt"
"1422","","bandit","285","800222","0.0-246.0-0.0","60905151","wem/bandit_either","AZZA3J049G7R5","either","4","","","","","","","1","0","0","0.4202180382","","0.6","0.8","0.2","0.4","","","","","0.3333225396","0.126388554","0.2845075958","0.4202180382","","","","","","","76","L","3","","","207","main_expt"
"359","","bandit","286","802104","0.0-247.0-0.0","60905151","wem/bandit_either","AZZA3J049G7R5","either","4","","","","","","","0","1","0","","0.4168586074","0.6","0.8","0.2","0.4","0.290219871","0.1602309633","0.2419557814","0.4168586074","","","","","","","","","","","76","L","3","","","208","main_expt"
"1069","","bandit","287","804707","0.0-248.0-0.0","60905151","wem/bandit_either","AZZA3J049G7R5","either","4","","","","","","","0","0","1","","0.3949328033","0.6","0.8","0.2","0.4","0.3426384504","0.2009997365","0.2449545816","0.3949328033","","","","","","","","","","","76","L","3","","","209","main_expt"
"400","","bandit","288","806622","0.0-249.0-0.0","60905151","wem/bandit_either","AZZA3J049G7R5","either","4","","","","","","","0","0","1","","0.41782505","0.6","0.8","0.2","0.4","0.2932754766","0.1997114924","0.2176860071","0.41782505","","","","","","","","","","","76","L","3","","","210","main_expt"
"215","","bandit","289","808371","0.0-250.0-0.0","60905151","wem/bandit_either","AZZA3J049G7R5","either","4","","","","","","","0","0","1","","0.4377941382","0.6","0.8","0.2","0.4","0.2522206247","0.2631807131","0.2460847292","0.4377941382","","","","","","","","","","","76","L","3","","","211","main_expt"
"484","","bandit","290","810379","0.0-251.0-0.0","60905151","wem/bandit_either","AZZA3J049G7R5","either","4","","","","","","","0","1","0","","0.4619006446","0.6","0.8","0.2","0.4","0.2323705111","0.2008991105","0.2017704833","0.4619006446","","","","","","","","","","","76","L","3","","","212","main_expt"
"374","","bandit","291","812275","0.0-252.0-0.0","60905151","wem/bandit_either","AZZA3J049G7R5","either","4","","","","","","","0","0","1","0.4508737721","","0.6","0.8","0.2","0.4","","","","","0.2815580385","0.1656487101","0.1891715169","0.4508737721","","","","","","","76","L","3","","","213","main_expt"
"247","","bandit","292","814034","0.0-253.0-0.0","60905151","wem/bandit_either","AZZA3J049G7R5","either","4","","","","","","","1","0","0","0.4639731149","","0.6","0.8","0.2","0.4","","","","","0.2955812139","0.213788386","0.1819308411","0.4639731149","","","","","","","76","L","3","","","214","main_expt"
"774","","bandit","293","816347","0.0-254.0-0.0","60905151","wem/bandit_either","AZZA3J049G7R5","either","4","","","","","","","0","0","1","","0.4690757113","0.6","0.8","0.2","0.4","0.2988647484","0.2206736926","0.1406935411","0.4690757113","","","","","","","","","","","76","L","3","","","215","main_expt"
"617","","bandit","294","818499","0.0-255.0-0.0","60905151","wem/bandit_either","AZZA3J049G7R5","either","4","","","","","","","1","0","0","0.4685680314","","0.6","0.8","0.2","0.4","","","","","0.3361974059","0.2270120675","0.206739756","0.4685680314","","","","","","","76","L","3","","","216","main_expt"
"313","","bandit","295","820328","0.0-256.0-0.0","60905151","wem/bandit_either","AZZA3J049G7R5","either","4","","","","","","","0","1","0","","0.4873952874","0.6","0.8","0.2","0.4","0.2764506131","0.2561581829","0.178624692","0.4873952874","","","","","","","","","","","76","L","3","","","217","main_expt"
"188","","bandit","296","822037","0.0-257.0-0.0","60905151","wem/bandit_either","AZZA3J049G7R5","either","4","","","","","","","0","0","1","0.4790671899","","0.6","0.8","0.2","0.4","","","","","0.299893698","0.2785758431","0.2021641755","0.4790671899","","","","","","","76","L","3","","","218","main_expt"
"150","","bandit","297","823704","0.0-258.0-0.0","60905151","wem/bandit_either","AZZA3J049G7R5","either","4","","","","","","","0","0","1","0.4769795117","","0.6","0.8","0.2","0.4","","","","","0.3213687962","0.2707863597","0.2076996705","0.4769795117","","","","","","","76","L","3","","","219","main_expt"
"465","","bandit","298","825679","0.0-259.0-0.0","60905151","wem/bandit_either","AZZA3J049G7R5","either","4","","","","","","","0","1","0","","0.4746148145","0.6","0.8","0.2","0.4","0.3782095139","0.2262269101","0.2479045362","0.4746148145","","","","","","","","","","","76","L","3","","","220","main_expt"
"647","","bandit","299","827851","0.0-260.0-0.0","60905151","wem/bandit_either","AZZA3J049G7R5","either","4","","","","","","","0","1","0","","0.4789253058","0.6","0.8","0.2","0.4","0.3572699546","0.2522421151","0.251163546","0.4789253058","","","","","","","","","","","76","L","3","","","221","main_expt"
"189","","bandit","300","829571","0.0-261.0-0.0","60905151","wem/bandit_either","AZZA3J049G7R5","either","4","","","","","","","0","0","1","0.4765400837","","0.6","0.8","0.2","0.4","","","","","0.332217079","0.2323100388","0.2653622565","0.4765400837","","","","","","","76","L","3","","","222","main_expt"
"1378","","bandit","301","832483","0.0-262.0-0.0","60905151","wem/bandit_either","AZZA3J049G7R5","either","4","","","","","","","1","0","0","0.4872993944","","0.6","0.8","0.2","0.4","","","","","0.3327789551","0.2013525365","0.2034578964","0.4872993944","","","","","","","76","L","3","","","223","main_expt"
"1721","","bandit","302","835732","0.0-263.0-0.0","60905151","wem/bandit_either","AZZA3J049G7R5","either","4","","","","","","","0","0","1","","0.4864577786","0.6","0.8","0.2","0.4","0.3720138676","0.2017363432","0.1176985371","0.4864577786","","","","","","","","","","","76","L","3","","","224","main_expt"
"967","","bandit","303","838219","0.0-264.0-0.0","60905151","wem/bandit_either","AZZA3J049G7R5","either","4","","","","","","","0","1","0","","0.4815865163","0.6","0.8","0.2","0.4","0.4035982493","0.1608447522","0.08531446518","0.4815865163","","","","","","","","","","","76","L","3","","","225","main_expt"
"1109","","bandit","304","840863","0.0-265.0-0.0","60905151","wem/bandit_either","AZZA3J049G7R5","either","4","","","","","","","1","0","0","0.4781941344","","0.6","0.8","0.2","0.4","","","","","0.3538577565","0.2023183299","0.0901010045","0.4781941344","","","","","","","76","L","3","","","226","main_expt"
"506","","bandit","305","842898","0.0-266.0-0.0","60905151","wem/bandit_either","AZZA3J049G7R5","either","4","","","","","","","0","0","1","0.4742279627","","0.6","0.8","0.2","0.4","","","","","0.4205879778","0.1555458008","0.06499555022","0.4742279627","","","","","","","76","L","3","","","227","main_expt"
"77","","bandit","306","844501","0.0-267.0-0.0","60905151","wem/bandit_either","AZZA3J049G7R5","either","4","","","","","","","0","0","1","0.4597327255","","0.6","0.8","0.2","0.4","","","","","0.4082381823","0.1210896773","0.06967502077","0.4597327255","","","","","","","76","L","3","","","228","main_expt"
"1390","","bandit","307","847411","0.0-268.0-0.0","60905151","wem/bandit_either","AZZA3J049G7R5","either","4","","","","","","","0","1","0","","0.4733003713","0.6","0.8","0.2","0.4","0.4274963613","0.1206830913","0.07642173418","0.4733003713","","","","","","","","","","","76","L","3","","","229","main_expt"
"146","","bandit","308","849073","0.0-269.0-0.0","60905151","wem/bandit_either","AZZA3J049G7R5","either","4","","","","","","","0","1","0","","0.4832022084","0.6","0.8","0.2","0.4","0.4362488765","0.1334008039","0.04973788902","0.4832022084","","","","","","","","","","","76","L","3","","","230","main_expt"
"313","","bandit","309","850903","0.0-270.0-0.0","60905151","wem/bandit_either","AZZA3J049G7R5","either","4","","","","","","","0","0","1","","0.4802630573","0.6","0.8","0.2","0.4","0.4420629534","0.1048467088","0.07419495466","0.4802630573","","","","","","","","","","","76","L","3","","","231","main_expt"
"154","","bandit","310","852571","0.0-271.0-0.0","60905151","wem/bandit_either","AZZA3J049G7R5","either","4","","","","","","","0","0","1","0.08125260149","","0.6","0.8","0.2","0.4","","","","","0.4287414635","0.1184002818","0.08125260149","0.4739318499","","","","","","","75","K","2","","","232","main_expt"
"440","","bandit","311","854540","0.0-272.0-0.0","60905151","wem/bandit_either","AZZA3J049G7R5","either","4","","","","","","","0","0","1","","0.4709765286","0.6","0.8","0.2","0.4","0.4395511981","0.08533064469","0.06057073796","0.4709765286","","","","","","","","","","","76","L","3","","","233","main_expt"
"9809","","bandit","312","865867","0.0-273.0-0.0","60905151","wem/bandit_either","AZZA3J049G7R5","either","4","","","","","","","0","0","1","0.1190123434","","0.6","0.8","0.2","0.4","","","","","0.4479240545","0.1190123434","0.1037411708","0.4658145356","","","","","","","74","J","1","","","234","main_expt"
"325","","bandit","313","867717","0.0-274.0-0.0","60905151","wem/bandit_either","AZZA3J049G7R5","either","4","","","","","","","1","0","0","0.4312508187","","0.6","0.8","0.2","0.4","","","","","0.4476644646","0.1392024459","0.1267441937","0.4312508187","","","","","","","76","L","3","","","235","main_expt"
"628","","bandit","314","869884","0.0-275.0-0.0","60905151","wem/bandit_either","AZZA3J049G7R5","either","4","","","","","","","0","0","1","","0.4323277229","0.6","0.8","0.2","0.4","0.457106966","0.1076242464","0.1002206095","0.4323277229","","","","","","","","","","","76","L","3","","","236","main_expt"
"308","","bandit","315","871719","0.0-276.0-0.0","60905151","wem/bandit_either","AZZA3J049G7R5","either","4","","","","","","","0","0","1","0.4517679415","","0.6","0.8","0.2","0.4","","","","","0.4097288684","0.1539911713","0.08353940566","0.4517679415","","","","","","","76","L","3","","","237","main_expt"
"193","","bandit","316","873422","0.0-277.0-0.0","60905151","wem/bandit_either","AZZA3J049G7R5","either","4","","","","","","","0","0","1","","0.4476427196","0.6","0.8","0.2","0.4","0.4530646831","0.1833253983","0.07847158511","0.4476427196","","","","","","","","","","","76","L","3","","","238","main_expt"
"463","","bandit","317","875412","0.0-278.0-0.0","60905151","wem/bandit_either","AZZA3J049G7R5","either","4","","","","","","","0","1","0","","0.4421551546","0.6","0.8","0.2","0.4","0.4532148127","0.185515968","0.1132310855","0.4421551546","","","","","","","","","","","76","L","3","","","239","main_expt"
"4036","","bandit","318","880971","0.0-279.0-0.0","60905151","wem/bandit_either","AZZA3J049G7R5","either","4","","","","","","","0","0","1","0.4205303603","","0.6","0.8","0.2","0.4","","","","","0.4456906816","0.2545144829","0.130249024","0.4205303603","","","","","","","76","L","3","","","240","main_expt"
"304","","bandit","319","882790","0.0-280.0-0.0","60905151","wem/bandit_either","AZZA3J049G7R5","either","4","","","","","","","0","0","1","0.4304808994","","0.6","0.8","0.2","0.4","","","","","0.4515134246","0.1902236802","0.1356270161","0.4304808994","","","","","","","76","L","3","","","241","main_expt"
"4084","","bandit","320","888399","0.0-281.0-0.0","60905151","wem/bandit_either","AZZA3J049G7R5","either","4","","","","","","","0","0","1","0.4318168925","","0.6","0.8","0.2","0.4","","","","","0.4640222466","0.2196571485","0.1402569013","0.4318168925","","","","","","","76","L","3","","","242","main_expt"
"318","","bandit","321","890235","0.0-282.0-0.0","60905151","wem/bandit_either","AZZA3J049G7R5","either","4","","","","","","","0","0","1","","0.2691755858","0.6","0.8","0.2","0.4","0.4305348251","0.2691755858","0.1851652895","0.4437639365","","","","","","","","","","","74","J","1","","","243","main_expt"
"211","","bandit","322","891961","0.0-283.0-0.0","60905151","wem/bandit_either","AZZA3J049G7R5","either","4","","","","","","","1","0","0","0.4444417595","","0.6","0.8","0.2","0.4","","","","","0.4444417595","0.2689580194","0.1871667761","0.4444545885","","","","","","","72","H","0","img/none_selected.jpg","","244","main_expt"
"242","","bandit","323","893726","0.0-284.0-0.0","60905151","wem/bandit_either","AZZA3J049G7R5","either","4","","","","","","","0","0","1","0.4468105605","","0.6","0.8","0.2","0.4","","","","","0.4468105605","0.1935089033","0.1881322931","0.445216333","","","","","","","72","H","0","img/none_selected.jpg","","245","main_expt"
"300","","bandit","324","895555","0.0-285.0-0.0","60905151","wem/bandit_either","AZZA3J049G7R5","either","4","","","","","","","0","0","1","0.4453418505","","0.6","0.8","0.2","0.4","","","","","0.4453418505","0.1466547275","0.187853128","0.4767449203","","","","","","","72","H","0","img/none_selected.jpg","","246","main_expt"
"362","","bandit","325","897445","0.0-286.0-0.0","60905151","wem/bandit_either","AZZA3J049G7R5","either","4","","","","","","","1","0","0","0.4426138654","","0.6","0.8","0.2","0.4","","","","","0.4426138654","0.1275107348","0.1952756904","0.4530054638","","","","","","","72","H","0","img/none_selected.jpg","","247","main_expt"
"403","","bandit","326","899374","0.0-287.0-0.0","60905151","wem/bandit_either","AZZA3J049G7R5","either","4","","","","","","","0","1","0","","0.464375056","0.6","0.8","0.2","0.4","0.464375056","0.107785627","0.1722543521","0.4326938674","","","","","","","","","","","72","H","0","img/none_selected.jpg","","248","main_expt"
"473","","bandit","327","901369","0.0-288.0-0.0","60905151","wem/bandit_either","AZZA3J049G7R5","either","4","","","","","","","0","1","0","","0.4416705694","0.6","0.8","0.2","0.4","0.4416705694","0.1169449123","0.1935833679","0.4276367863","","","","","","","","","","","72","H","0","img/none_selected.jpg","","249","main_expt"
"395","","bandit","328","903291","0.0-289.0-0.0","60905151","wem/bandit_either","AZZA3J049G7R5","either","4","","","","","","","0","0","1","0.4352039605","","0.6","0.8","0.2","0.4","","","","","0.4352039605","0.1474950258","0.1783221165","0.4602627553","","","","","","","72","H","0","img/none_selected.jpg","","250","main_expt"
"839","","bandit","329","905654","0.0-290.0-0.0","60905151","wem/bandit_either","AZZA3J049G7R5","either","4","","","","","","","0","0","1","","0.4625669079","0.6","0.8","0.2","0.4","0.4625669079","0.1272017844","0.2191654692","0.4429671406","","","","","","","","","","","72","H","0","img/none_selected.jpg","","251","main_expt"
"1406","","bandit","330","908585","0.0-291.0-0.0","60905151","wem/bandit_either","AZZA3J049G7R5","either","4","","","","","","","0","0","1","0.4714010403","","0.6","0.8","0.2","0.4","","","","","0.4714010403","0.1383509771","0.2357097141","0.4423062834","","","","","","","72","H","0","img/none_selected.jpg","","252","main_expt"
"226","","bandit","331","910337","0.0-292.0-0.0","60905151","wem/bandit_either","AZZA3J049G7R5","either","4","","","","","","","1","0","0","0.4487775435","","0.6","0.8","0.2","0.4","","","","","0.4487775435","0.1251389104","0.214143541","0.4509963191","","","","","","","72","H","0","img/none_selected.jpg","","253","main_expt"
"605","","bandit","332","912479","0.0-293.0-0.0","60905151","wem/bandit_either","AZZA3J049G7R5","either","4","","","","","","","0","1","0","","0.4801031999","0.6","0.8","0.2","0.4","0.4801031999","0.1660910957","0.2603333519","0.4552381636","","","","","","","","","","","72","H","0","img/none_selected.jpg","","254","main_expt"
"2494","","bandit","333","916499","0.0-294.0-0.0","60905151","wem/bandit_either","AZZA3J049G7R5","either","4","","","","","","","0","0","1","0.4710832431","","0.6","0.8","0.2","0.4","","","","","0.4710832431","0.1691625935","0.2904938923","0.4535988902","","","","","","","72","H","0","img/none_selected.jpg","","255","main_expt"
