"rt","responses","trial_type","trial_index","time_elapsed","internal_node_id","subjID","study","MID","cond","drift","key_press","expt_phase","target","like","value","connected","gems","bombs","no_reward","GemPrChosen","BombPrChosen","GainOverPainPr_0","GainOverPainPr_1","GainOverPainPr_2","GainOverPainPr_3","LosePr_0","LosePr_1","LosePr_2","LosePr_3","WinPr_0","WinPr_1","WinPr_2","WinPr_3","Q0","Q1","Q2","gender","age","ethnicity","respCharCode","respKey","respChoiceNum","respChoice","practice","trial_counter","trial_label"
"5285","{""Q0"":""A1TH0PTGDSBWMO""}","survey-text","0","5306","0.0-0.0","61585480","wem/bandit_either","A1TH0PTGDSBWMO","either","8","","","","","","","","","","","","","","","","","","","","","","","","","","","","","","","","","","","",""
"7699","","text","1","14015","0.0-1.0","61585480","wem/bandit_either","A1TH0PTGDSBWMO","either","8","32","","","","","","","","","","","","","","","","","","","","","","","","","","","","","","","","","","",""
"7996","","text","2","22016","0.0-2.0","61585480","wem/bandit_either","A1TH0PTGDSBWMO","either","8","32","","","","","","","","","","","","","","","","","","","","","","","","","","","","","","","","","","",""
"29101","","text","3","51121","0.0-3.0","61585480","wem/bandit_either","A1TH0PTGDSBWMO","either","8","32","","","","","","","","","","","","","","","","","","","","","","","","","","","","","","","","","","",""
"9173","","text","4","60298","0.0-4.0","61585480","wem/bandit_either","A1TH0PTGDSBWMO","either","8","32","","","","","","","","","","","","","","","","","","","","","","","","","","","","","","","","","","",""
"16173","","text","5","76476","0.0-5.0","61585480","wem/bandit_either","A1TH0PTGDSBWMO","either","8","32","","","","","","","","","","","","","","","","","","","","","","","","","","","","","","","","","","",""
"9683","","text","6","86161","0.0-6.0","61585480","wem/bandit_either","A1TH0PTGDSBWMO","either","8","32","","","","","","","","","","","","","","","","","","","","","","","","","","","","","","","","","","",""
"4811","","text","7","90975","0.0-7.0","61585480","wem/bandit_either","A1TH0PTGDSBWMO","either","8","32","","","","","","","","","","","","","","","","","","","","","","","","","","","","","","","","","","",""
"16415","","identification","8","107469","0.0-8.0-0.0","61585480","wem/bandit_either","A1TH0PTGDSBWMO","either","8","","identification_pre","the village of Zur","","","","","","","","","","","","","","","","","","","","","","","","","","","","","","","","",""
"7241","","identification","9","115750","0.0-8.0-1.0","61585480","wem/bandit_either","A1TH0PTGDSBWMO","either","8","","identification_pre","the village of Nyx","","","","","","","","","","","","","","","","","","","","","","","","","","","","","","","","",""
"3419","","text","10","120174","0.0-9.0","61585480","wem/bandit_either","A1TH0PTGDSBWMO","either","8","32","","","","","","","","","","","","","","","","","","","","","","","","","","","","","","","","","","",""
"3232","","text","11","123409","0.0-10.0","61585480","wem/bandit_either","A1TH0PTGDSBWMO","either","8","32","","","","","","","","","","","","","","","","","","","","","","","","","","","","","","","","","","",""
"5598","","text","12","129011","0.0-11.0","61585480","wem/bandit_either","A1TH0PTGDSBWMO","either","8","32","","","","","","","","","","","","","","","","","","","","","","","","","","","","","","","","","","",""
"4523","","text","13","133538","0.0-12.0","61585480","wem/bandit_either","A1TH0PTGDSBWMO","either","8","32","","","","","","","","","","","","","","","","","","","","","","","","","","","","","","","","","","",""
"4931","","bandit","14","139987","0.0-13.0-0.0","61585480","wem/bandit_either","A1TH0PTGDSBWMO","either","8","","","","","","","0","0","1","0","0","","","","","0","","","","0","","","","","","","","","","74","J","0","img/none_selected_demo.jpg","true","0",""
"2194","","bandit","15","143695","0.0-14.0-0.0","61585480","wem/bandit_either","A1TH0PTGDSBWMO","either","8","","","","","","","0","0","1","0","0","","","","","0","","","","0","","","","","","","","","","75","K","0","img/none_selected_demo.jpg","true","0",""
"6765","","text","16","150465","0.0-15.0","61585480","wem/bandit_either","A1TH0PTGDSBWMO","either","8","32","","","","","","","","","","","","","","","","","","","","","","","","","","","","","","","","","","",""
"20869","","text","17","171338","0.0-16.0","61585480","wem/bandit_either","A1TH0PTGDSBWMO","either","8","32","","","","","","","","","","","","","","","","","","","","","","","","","","","","","","","","","","",""
"10403","","text","18","181745","0.0-17.0","61585480","wem/bandit_either","A1TH0PTGDSBWMO","either","8","32","","","","","","","","","","","","","","","","","","","","","","","","","","","","","","","","","","",""
"3026","","text","19","184776","0.0-18.0","61585480","wem/bandit_either","A1TH0PTGDSBWMO","either","8","32","","","","","","","","","","","","","","","","","","","","","","","","","","","","","","","","","","",""
"1492","","bandit","20","187776","0.0-19.0-0.0","61585480","wem/bandit_either","A1TH0PTGDSBWMO","either","8","","","","","","","0","0","1","","0.2","0.5","0.5","","","0.8","0.2","","","","","","","","","","","","","75","K","1","","true","0","80_20_practice"
"395","","bandit","21","189678","0.0-19.0-1.0","61585480","wem/bandit_either","A1TH0PTGDSBWMO","either","8","","","","","","","1","0","0","0.2","","0.5","0.5","","","","","","","0.8","0.2","","","","","","","","","75","K","1","","true","0","80_20_practice"
"371","","bandit","22","191556","0.0-19.0-2.0","61585480","wem/bandit_either","A1TH0PTGDSBWMO","either","8","","","","","","","0","0","1","0.2","","0.5","0.5","","","","","","","0.8","0.2","","","","","","","","","75","K","1","","true","0","80_20_practice"
"308","","bandit","23","193372","0.0-19.0-3.0","61585480","wem/bandit_either","A1TH0PTGDSBWMO","either","8","","","","","","","0","1","0","","0.8","0.5","0.5","","","0.8","0.2","","","","","","","","","","","","","74","J","0","img/none_selected_demo.jpg","true","0","80_20_practice"
"426","","bandit","24","195307","0.0-19.0-4.0","61585480","wem/bandit_either","A1TH0PTGDSBWMO","either","8","","","","","","","0","1","0","","0.8","0.5","0.5","","","0.8","0.2","","","","","","","","","","","","","74","J","0","img/none_selected_demo.jpg","true","0","80_20_practice"
"731","","bandit","25","197550","0.0-19.0-5.0","61585480","wem/bandit_either","A1TH0PTGDSBWMO","either","8","","","","","","","1","0","0","0.8","","0.5","0.5","","","","","","","0.8","0.2","","","","","","","","","74","J","0","img/none_selected_demo.jpg","true","0","80_20_practice"
"619","","bandit","26","199676","0.0-19.0-6.0","61585480","wem/bandit_either","A1TH0PTGDSBWMO","either","8","","","","","","","1","0","0","0.8","","0.5","0.5","","","","","","","0.8","0.2","","","","","","","","","74","J","0","img/none_selected_demo.jpg","true","0","80_20_practice"
"430","","bandit","27","201616","0.0-19.0-7.0","61585480","wem/bandit_either","A1TH0PTGDSBWMO","either","8","","","","","","","0","1","0","","0.8","0.5","0.5","","","0.8","0.2","","","","","","","","","","","","","74","J","0","img/none_selected_demo.jpg","true","0","80_20_practice"
"534","","bandit","28","203663","0.0-19.0-8.0","61585480","wem/bandit_either","A1TH0PTGDSBWMO","either","8","","","","","","","0","0","1","0.2","","0.5","0.5","","","","","","","0.8","0.2","","","","","","","","","75","K","1","","true","0","80_20_practice"
"346","","bandit","29","205540","0.0-19.0-9.0","61585480","wem/bandit_either","A1TH0PTGDSBWMO","either","8","","","","","","","0","0","1","","0.2","0.5","0.5","","","0.8","0.2","","","","","","","","","","","","","75","K","1","","true","0","80_20_practice"
"385","","bandit","30","207439","0.0-19.0-10.0","61585480","wem/bandit_either","A1TH0PTGDSBWMO","either","8","","","","","","","0","0","1","","0.2","0.5","0.5","","","0.8","0.2","","","","","","","","","","","","","75","K","1","","true","0","80_20_practice"
"320","","bandit","31","209281","0.0-19.0-11.0","61585480","wem/bandit_either","A1TH0PTGDSBWMO","either","8","","","","","","","1","0","0","0.2","","0.5","0.5","","","","","","","0.8","0.2","","","","","","","","","75","K","1","","true","0","80_20_practice"
"323","","bandit","32","211112","0.0-19.0-12.0","61585480","wem/bandit_either","A1TH0PTGDSBWMO","either","8","","","","","","","1","0","0","0.8","","0.5","0.5","","","","","","","0.8","0.2","","","","","","","","","74","J","0","img/none_selected_demo.jpg","true","0","80_20_practice"
"301","","bandit","33","212926","0.0-19.0-13.0","61585480","wem/bandit_either","A1TH0PTGDSBWMO","either","8","","","","","","","0","1","0","","0.8","0.5","0.5","","","0.8","0.2","","","","","","","","","","","","","74","J","0","img/none_selected_demo.jpg","true","0","80_20_practice"
"343","","bandit","34","214784","0.0-19.0-14.0","61585480","wem/bandit_either","A1TH0PTGDSBWMO","either","8","","","","","","","1","0","0","0.8","","0.5","0.5","","","","","","","0.8","0.2","","","","","","","","","74","J","0","img/none_selected_demo.jpg","true","0","80_20_practice"
"190","","bandit","35","216494","0.0-19.0-15.0","61585480","wem/bandit_either","A1TH0PTGDSBWMO","either","8","","","","","","","0","0","1","","0.8","0.5","0.5","","","0.8","0.2","","","","","","","","","","","","","74","J","0","img/none_selected_demo.jpg","true","0","80_20_practice"
"623","","bandit","36","218631","0.0-19.0-16.0","61585480","wem/bandit_either","A1TH0PTGDSBWMO","either","8","","","","","","","0","1","0","","0.8","0.5","0.5","","","0.8","0.2","","","","","","","","","","","","","74","J","0","img/none_selected_demo.jpg","true","0","80_20_practice"
"432","","bandit","37","220582","0.0-19.0-17.0","61585480","wem/bandit_either","A1TH0PTGDSBWMO","either","8","","","","","","","1","0","0","0.8","","0.5","0.5","","","","","","","0.8","0.2","","","","","","","","","74","J","0","img/none_selected_demo.jpg","true","0","80_20_practice"
"316","","bandit","38","222416","0.0-19.0-18.0","61585480","wem/bandit_either","A1TH0PTGDSBWMO","either","8","","","","","","","0","1","0","","0.8","0.5","0.5","","","0.8","0.2","","","","","","","","","","","","","74","J","0","img/none_selected_demo.jpg","true","0","80_20_practice"
"354","","bandit","39","224282","0.0-19.0-19.0","61585480","wem/bandit_either","A1TH0PTGDSBWMO","either","8","","","","","","","1","0","0","0.8","","0.5","0.5","","","","","","","0.8","0.2","","","","","","","","","74","J","0","img/none_selected_demo.jpg","true","0","80_20_practice"
"3885","","text","40","228172","0.0-20.0","61585480","wem/bandit_either","A1TH0PTGDSBWMO","either","8","32","","","","","","","","","","","","","","","","","","","","","","","","","","","","","","","","","","",""
"1706","","bandit","41","231391","0.0-21.0-0.0","61585480","wem/bandit_either","A1TH0PTGDSBWMO","either","8","","","","","","","1","0","0","1","0","","","","","0","1","","","1","0","","","","","","","","","74","J","0","img/none_selected_demo.jpg","true","0",""
"2017","","text","42","233418","0.0-22.0","61585480","wem/bandit_either","A1TH0PTGDSBWMO","either","8","32","","","","","","","","","","","","","","","","","","","","","","","","","","","","","","","","","","",""
"2376","","text","43","235798","0.0-23.0","61585480","wem/bandit_either","A1TH0PTGDSBWMO","either","8","32","","","","","","","","","","","","","","","","","","","","","","","","","","","","","","","","","","",""
"665","","text","44","236468","0.0-24.0","61585480","wem/bandit_either","A1TH0PTGDSBWMO","either","8","32","","","","","","","","","","","","","","","","","","","","","","","","","","","","","","","","","","",""
"356","","text","45","236829","0.0-25.0","61585480","wem/bandit_either","A1TH0PTGDSBWMO","either","8","32","","","","","","","","","","","","","","","","","","","","","","","","","","","","","","","","","","",""
"742","","text","46","237576","0.0-26.0","61585480","wem/bandit_either","A1TH0PTGDSBWMO","either","8","32","","","","","","","","","","","","","","","","","","","","","","","","","","","","","","","","","","",""
"747","","text","47","238328","0.0-27.0","61585480","wem/bandit_either","A1TH0PTGDSBWMO","either","8","32","","","","","","","","","","","","","","","","","","","","","","","","","","","","","","","","","","",""
"419","","text","48","238752","0.0-28.0","61585480","wem/bandit_either","A1TH0PTGDSBWMO","either","8","32","","","","","","","","","","","","","","","","","","","","","","","","","","","","","","","","","","",""
"879","","text","49","239635","0.0-29.0","61585480","wem/bandit_either","A1TH0PTGDSBWMO","either","8","32","","","","","","","","","","","","","","","","","","","","","","","","","","","","","","","","","","",""
"457","","text","50","240100","0.0-30.0","61585480","wem/bandit_either","A1TH0PTGDSBWMO","either","8","32","","","","","","","","","","","","","","","","","","","","","","","","","","","","","","","","","","",""
"487","","text","51","240590","0.0-31.0","61585480","wem/bandit_either","A1TH0PTGDSBWMO","either","8","32","","","","","","","","","","","","","","","","","","","","","","","","","","","","","","","","","","",""
"488","","text","52","241085","0.0-32.0","61585480","wem/bandit_either","A1TH0PTGDSBWMO","either","8","32","","","","","","","","","","","","","","","","","","","","","","","","","","","","","","","","","","",""
"1378","","bandit","53","243975","0.0-33.0-0.0","61585480","wem/bandit_either","A1TH0PTGDSBWMO","either","8","","","","","","","0","1","0","","0.2","0.5","0.5","0.5","0.5","0.8","0.2","0.6","0.2","","","","","","","","","","","74","J","1","","true","0","full_practice"
"361","","bandit","54","245853","0.0-33.0-1.0","61585480","wem/bandit_either","A1TH0PTGDSBWMO","either","8","","","","","","","0","0","1","","0.2","0.5","0.5","0.5","0.5","0.8","0.2","0.6","0.2","","","","","","","","","","","74","J","1","","true","0","full_practice"
"529","","bandit","55","247894","0.0-33.0-2.0","61585480","wem/bandit_either","A1TH0PTGDSBWMO","either","8","","","","","","","0","0","1","0.2","","0.5","0.5","0.5","0.5","","","","","0.8","0.2","0.6","0.2","","","","","","","74","J","1","","true","0","full_practice"
"336","","bandit","56","249749","0.0-33.0-3.0","61585480","wem/bandit_either","A1TH0PTGDSBWMO","either","8","","","","","","","0","0","1","0.6","","0.5","0.5","0.5","0.5","","","","","0.8","0.2","0.6","0.2","","","","","","","75","K","2","","true","0","full_practice"
"276","","bandit","57","251541","0.0-33.0-4.0","61585480","wem/bandit_either","A1TH0PTGDSBWMO","either","8","","","","","","","0","1","0","","0.6","0.5","0.5","0.5","0.5","0.8","0.2","0.6","0.2","","","","","","","","","","","75","K","2","","true","0","full_practice"
"407","","bandit","58","253465","0.0-33.0-5.0","61585480","wem/bandit_either","A1TH0PTGDSBWMO","either","8","","","","","","","0","1","0","","0.6","0.5","0.5","0.5","0.5","0.8","0.2","0.6","0.2","","","","","","","","","","","75","K","2","","true","0","full_practice"
"309","","bandit","59","255287","0.0-33.0-6.0","61585480","wem/bandit_either","A1TH0PTGDSBWMO","either","8","","","","","","","0","0","1","","0.6","0.5","0.5","0.5","0.5","0.8","0.2","0.6","0.2","","","","","","","","","","","75","K","2","","true","0","full_practice"
"237","","bandit","60","257051","0.0-33.0-7.0","61585480","wem/bandit_either","A1TH0PTGDSBWMO","either","8","","","","","","","0","1","0","","0.6","0.5","0.5","0.5","0.5","0.8","0.2","0.6","0.2","","","","","","","","","","","75","K","2","","true","0","full_practice"
"260","","bandit","61","258828","0.0-33.0-8.0","61585480","wem/bandit_either","A1TH0PTGDSBWMO","either","8","","","","","","","0","0","1","0.6","","0.5","0.5","0.5","0.5","","","","","0.8","0.2","0.6","0.2","","","","","","","75","K","2","","true","0","full_practice"
"291","","bandit","62","260634","0.0-33.0-9.0","61585480","wem/bandit_either","A1TH0PTGDSBWMO","either","8","","","","","","","0","0","1","","0.6","0.5","0.5","0.5","0.5","0.8","0.2","0.6","0.2","","","","","","","","","","","75","K","2","","true","0","full_practice"
"3","","bandit","63","262162","0.0-33.0-10.0","61585480","wem/bandit_either","A1TH0PTGDSBWMO","either","8","","","","","","","0","0","1","","0.2","0.5","0.5","0.5","0.5","0.8","0.2","0.6","0.2","","","","","","","","","","","76","L","3","","true","0","full_practice"
"236","","bandit","64","263915","0.0-33.0-11.0","61585480","wem/bandit_either","A1TH0PTGDSBWMO","either","8","","","","","","","0","0","1","","0.2","0.5","0.5","0.5","0.5","0.8","0.2","0.6","0.2","","","","","","","","","","","76","L","3","","true","0","full_practice"
"266","","bandit","65","265699","0.0-33.0-12.0","61585480","wem/bandit_either","A1TH0PTGDSBWMO","either","8","","","","","","","0","0","1","","0.2","0.5","0.5","0.5","0.5","0.8","0.2","0.6","0.2","","","","","","","","","","","76","L","3","","true","0","full_practice"
"130","","bandit","66","267344","0.0-33.0-13.0","61585480","wem/bandit_either","A1TH0PTGDSBWMO","either","8","","","","","","","0","0","1","","0.6","0.5","0.5","0.5","0.5","0.8","0.2","0.6","0.2","","","","","","","","","","","75","K","2","","true","0","full_practice"
"1298","","bandit","67","270161","0.0-33.0-14.0","61585480","wem/bandit_either","A1TH0PTGDSBWMO","either","8","","","","","","","0","0","1","0.8","","0.5","0.5","0.5","0.5","","","","","0.8","0.2","0.6","0.2","","","","","","","72","H","0","img/none_selected.jpg","true","0","full_practice"
"327","","bandit","68","272005","0.0-33.0-15.0","61585480","wem/bandit_either","A1TH0PTGDSBWMO","either","8","","","","","","","1","0","0","0.8","","0.5","0.5","0.5","0.5","","","","","0.8","0.2","0.6","0.2","","","","","","","72","H","0","img/none_selected.jpg","true","0","full_practice"
"797","","bandit","69","274318","0.0-33.0-16.0","61585480","wem/bandit_either","A1TH0PTGDSBWMO","either","8","","","","","","","0","1","0","","0.6","0.5","0.5","0.5","0.5","0.8","0.2","0.6","0.2","","","","","","","","","","","75","K","2","","true","0","full_practice"
"294","","bandit","70","276126","0.0-33.0-17.0","61585480","wem/bandit_either","A1TH0PTGDSBWMO","either","8","","","","","","","0","1","0","","0.8","0.5","0.5","0.5","0.5","0.8","0.2","0.6","0.2","","","","","","","","","","","72","H","0","img/none_selected.jpg","true","0","full_practice"
"402","","bandit","71","278044","0.0-33.0-18.0","61585480","wem/bandit_either","A1TH0PTGDSBWMO","either","8","","","","","","","0","0","1","0.6","","0.5","0.5","0.5","0.5","","","","","0.8","0.2","0.6","0.2","","","","","","","75","K","2","","true","0","full_practice"
"524","","bandit","72","280102","0.0-33.0-19.0","61585480","wem/bandit_either","A1TH0PTGDSBWMO","either","8","","","","","","","0","0","1","","0.8","0.5","0.5","0.5","0.5","0.8","0.2","0.6","0.2","","","","","","","","","","","72","H","0","img/none_selected.jpg","true","0","full_practice"
"3699","","text","73","283816","0.0-34.0","61585480","wem/bandit_either","A1TH0PTGDSBWMO","either","8","32","","","","","","","","","","","","","","","","","","","","","","","","","","","","","","","","","","",""
"1067","","text","74","285888","0.0-35.0","61585480","wem/bandit_either","A1TH0PTGDSBWMO","either","8","32","","","","","","","","","","","","","","","","","","","","","","","","","","","","","","","","","","",""
"317","","text","75","286211","0.0-36.0","61585480","wem/bandit_either","A1TH0PTGDSBWMO","either","8","32","","","","","","","","","","","","","","","","","","","","","","","","","","","","","","","","","","",""
"311","","text","76","286527","0.0-37.0","61585480","wem/bandit_either","A1TH0PTGDSBWMO","either","8","32","","","","","","","","","","","","","","","","","","","","","","","","","","","","","","","","","","",""
"336","","text","77","286869","0.0-38.0","61585480","wem/bandit_either","A1TH0PTGDSBWMO","either","8","32","","","","","","","","","","","","","","","","","","","","","","","","","","","","","","","","","","",""
"353","","text","78","287228","0.0-39.0","61585480","wem/bandit_either","A1TH0PTGDSBWMO","either","8","32","","","","","","","","","","","","","","","","","","","","","","","","","","","","","","","","","","",""
"706","","bandit","79","289450","0.0-40.0-0.0","61585480","wem/bandit_either","A1TH0PTGDSBWMO","either","8","","","","","","","0","0","1","0.2637293772","","0.4","0.2","0.6","0.8","","","","","0.2928194041","0.1351790469","0.2637293772","0.3540548627","","","","","","","75","K","2","","","1","main_expt"
"420","","bandit","80","291385","0.0-41.0-0.0","61585480","wem/bandit_either","A1TH0PTGDSBWMO","either","8","","","","","","","0","1","0","","0.3812516843","0.4","0.2","0.6","0.8","0.3040419902","0.125602744","0.2760013096","0.3812516843","","","","","","","","","","","76","L","3","","","2","main_expt"
"526","","bandit","81","293425","0.0-42.0-0.0","61585480","wem/bandit_either","A1TH0PTGDSBWMO","either","8","","","","","","","0","0","1","0.3901316494","","0.4","0.2","0.6","0.8","","","","","0.2875251023","0.09574082279","0.3240499928","0.3901316494","","","","","","","76","L","3","","","3","main_expt"
"560","","bandit","82","295500","0.0-43.0-0.0","61585480","wem/bandit_either","A1TH0PTGDSBWMO","either","8","","","","","","","0","0","1","0.3945399471","","0.4","0.2","0.6","0.8","","","","","0.2965567903","0.0913382225","0.3510822359","0.3945399471","","","","","","","76","L","3","","","4","main_expt"
"44","","bandit","83","297052","0.0-44.0-0.0","61585480","wem/bandit_either","A1TH0PTGDSBWMO","either","8","","","","","","","0","0","1","0.2681113314","","0.4","0.2","0.6","0.8","","","","","0.2681113314","0.106177601","0.3522827721","0.3997977613","","","","","","","72","H","0","img/none_selected.jpg","","5","main_expt"
"415","","bandit","84","298989","0.0-45.0-0.0","61585480","wem/bandit_either","A1TH0PTGDSBWMO","either","8","","","","","","","0","0","1","","0.2330443498","0.4","0.2","0.6","0.8","0.2330443498","0.08998955495","0.382674005","0.390783501","","","","","","","","","","","72","H","0","img/none_selected.jpg","","6","main_expt"
"595","","bandit","85","301111","0.0-46.0-0.0","61585480","wem/bandit_either","A1TH0PTGDSBWMO","either","8","","","","","","","0","0","1","0.1630509172","","0.4","0.2","0.6","0.8","","","","","0.1630509172","0.1077526668","0.3998463606","0.3305693427","","","","","","","72","H","0","img/none_selected.jpg","","7","main_expt"
"590","","bandit","86","303211","0.0-47.0-0.0","61585480","wem/bandit_either","A1TH0PTGDSBWMO","either","8","","","","","","","0","0","1","","0.1243697388","0.4","0.2","0.6","0.8","0.2002468685","0.1243697388","0.3832029687","0.3056545716","","","","","","","","","","","74","J","1","","","8","main_expt"
"883","","bandit","87","305613","0.0-48.0-0.0","61585480","wem/bandit_either","A1TH0PTGDSBWMO","either","8","","","","","","","0","0","1","","0.1698108096","0.4","0.2","0.6","0.8","0.1835034381","0.1698108096","0.3796681134","0.3278889804","","","","","","","","","","","74","J","1","","","9","main_expt"
"839","","bandit","88","307973","0.0-49.0-0.0","61585480","wem/bandit_either","A1TH0PTGDSBWMO","either","8","","","","","","","0","1","0","","0.3614311416","0.4","0.2","0.6","0.8","0.1939723001","0.221757114","0.3614311416","0.3137855556","","","","","","","","","","","75","K","2","","","10","main_expt"
"497","","bandit","89","309983","0.0-50.0-0.0","61585480","wem/bandit_either","A1TH0PTGDSBWMO","either","8","","","","","","","0","0","1","0.3253079181","","0.4","0.2","0.6","0.8","","","","","0.1949806013","0.1961062924","0.3938737051","0.3253079181","","","","","","","76","L","3","","","11","main_expt"
"393","","bandit","90","311890","0.0-51.0-0.0","61585480","wem/bandit_either","A1TH0PTGDSBWMO","either","8","","","","","","","0","0","1","0.3298150516","","0.4","0.2","0.6","0.8","","","","","0.2587943474","0.1907056259","0.3810544723","0.3298150516","","","","","","","76","L","3","","","12","main_expt"
"309","","bandit","91","313717","0.0-52.0-0.0","61585480","wem/bandit_either","A1TH0PTGDSBWMO","either","8","","","","","","","1","0","0","0.3707046684","","0.4","0.2","0.6","0.8","","","","","0.3085985727","0.2162865666","0.3707046684","0.3673307406","","","","","","","75","K","2","","","13","main_expt"
"356","","bandit","92","315590","0.0-53.0-0.0","61585480","wem/bandit_either","A1TH0PTGDSBWMO","either","8","","","","","","","0","0","1","0.3486531997","","0.4","0.2","0.6","0.8","","","","","0.2464992766","0.2399362825","0.3486531997","0.3679224674","","","","","","","75","K","2","","","14","main_expt"
"364","","bandit","93","317474","0.0-54.0-0.0","61585480","wem/bandit_either","A1TH0PTGDSBWMO","either","8","","","","","","","0","0","1","","0.1986859052","0.4","0.2","0.6","0.8","0.2474611475","0.1986859052","0.3263578384","0.3062507314","","","","","","","","","","","74","J","1","","","15","main_expt"
"404","","bandit","94","319392","0.0-55.0-0.0","61585480","wem/bandit_either","A1TH0PTGDSBWMO","either","8","","","","","","","0","0","1","0.3514189979","","0.4","0.2","0.6","0.8","","","","","0.2835538477","0.1865641621","0.3514189979","0.2892976033","","","","","","","75","K","2","","","16","main_expt"
"394","","bandit","95","321303","0.0-56.0-0.0","61585480","wem/bandit_either","A1TH0PTGDSBWMO","either","8","","","","","","","0","0","1","","0.3532592314","0.4","0.2","0.6","0.8","0.3256112075","0.2035525071","0.3532592314","0.2861796528","","","","","","","","","","","75","K","2","","","17","main_expt"
"366","","bandit","96","323186","0.0-57.0-0.0","61585480","wem/bandit_either","A1TH0PTGDSBWMO","either","8","","","","","","","0","0","1","0.3858608091","","0.4","0.2","0.6","0.8","","","","","0.3802227677","0.2039336531","0.3858608091","0.2958570682","","","","","","","75","K","2","","","18","main_expt"
"147","","bandit","97","324853","0.0-58.0-0.0","61585480","wem/bandit_either","A1TH0PTGDSBWMO","either","8","","","","","","","0","0","1","0.3353028819","","0.4","0.2","0.6","0.8","","","","","0.360566968","0.1598579642","0.3837638756","0.3353028819","","","","","","","76","L","3","","","19","main_expt"
"122","","bandit","98","326495","0.0-59.0-0.0","61585480","wem/bandit_either","A1TH0PTGDSBWMO","either","8","","","","","","","0","0","1","0.3139704528","","0.4","0.2","0.6","0.8","","","","","0.3696799013","0.1437622327","0.2872100501","0.3139704528","","","","","","","76","L","3","","","20","main_expt"
"294","","bandit","99","328314","0.0-60.0-0.0","61585480","wem/bandit_either","A1TH0PTGDSBWMO","either","8","","","","","","","0","0","1","0.2524707143","","0.4","0.2","0.6","0.8","","","","","0.4006907501","0.07974703335","0.2975414498","0.2524707143","","","","","","","76","L","3","","","21","main_expt"
"307","","bandit","100","330141","0.0-61.0-0.0","61585480","wem/bandit_either","A1TH0PTGDSBWMO","either","8","","","","","","","0","0","1","0.248326021","","0.4","0.2","0.6","0.8","","","","","0.4081217326","0.1361132429","0.2741965999","0.248326021","","","","","","","76","L","3","","","22","main_expt"
"137","","bandit","101","331796","0.0-62.0-0.0","61585480","wem/bandit_either","A1TH0PTGDSBWMO","either","8","","","","","","","0","0","1","0.2937153481","","0.4","0.2","0.6","0.8","","","","","0.3740207531","0.1705973249","0.2379064449","0.2937153481","","","","","","","76","L","3","","","23","main_expt"
"273","","bandit","102","333586","0.0-63.0-0.0","61585480","wem/bandit_either","A1TH0PTGDSBWMO","either","8","","","","","","","1","0","0","0.3913756451","","0.4","0.2","0.6","0.8","","","","","0.3913756451","0.1392759225","0.2078598572","0.2625315469","","","","","","","72","H","0","img/none_selected.jpg","","24","main_expt"
"199","","bandit","103","335306","0.0-64.0-0.0","61585480","wem/bandit_either","A1TH0PTGDSBWMO","either","8","","","","","","","0","0","1","0.4100905738","","0.4","0.2","0.6","0.8","","","","","0.4100905738","0.1800538527","0.2764850733","0.2405651368","","","","","","","72","H","0","img/none_selected.jpg","","25","main_expt"
"303","","bandit","104","337125","0.0-65.0-0.0","61585480","wem/bandit_either","A1TH0PTGDSBWMO","either","8","","","","","","","1","0","0","0.3600668969","","0.4","0.2","0.6","0.8","","","","","0.3600668969","0.2146400533","0.3080191348","0.2503350336","","","","","","","72","H","0","img/none_selected.jpg","","26","main_expt"
"286","","bandit","105","338929","0.0-66.0-0.0","61585480","wem/bandit_either","A1TH0PTGDSBWMO","either","8","","","","","","","0","0","1","0.3606197488","","0.4","0.2","0.6","0.8","","","","","0.3703096079","0.1948367851","0.3606197488","0.354091838","","","","","","","75","K","2","","","27","main_expt"
"378","","bandit","106","340831","0.0-67.0-0.0","61585480","wem/bandit_either","A1TH0PTGDSBWMO","either","8","","","","","","","0","0","1","0.3527269899","","0.4","0.2","0.6","0.8","","","","","0.3527269899","0.2282666016","0.3696097963","0.3419366675","","","","","","","72","H","0","img/none_selected.jpg","","28","main_expt"
"590","","bandit","107","342953","0.0-68.0-0.0","61585480","wem/bandit_either","A1TH0PTGDSBWMO","either","8","","","","","","","1","0","0","0.2854860911","","0.4","0.2","0.6","0.8","","","","","0.2854860911","0.1842618798","0.3434444954","0.361896517","","","","","","","72","H","0","img/none_selected.jpg","","29","main_expt"
"310","","bandit","108","344781","0.0-69.0-0.0","61585480","wem/bandit_either","A1TH0PTGDSBWMO","either","8","","","","","","","0","0","1","0.3528183973","","0.4","0.2","0.6","0.8","","","","","0.2971434158","0.1930267653","0.3528183973","0.3701160785","","","","","","","75","K","2","","","30","main_expt"
"389","","bandit","109","346687","0.0-70.0-0.0","61585480","wem/bandit_either","A1TH0PTGDSBWMO","either","8","","","","","","","0","0","1","","0.3192935598","0.4","0.2","0.6","0.8","0.3192935598","0.2279264959","0.3436926249","0.3602312343","","","","","","","","","","","72","H","0","img/none_selected.jpg","","31","main_expt"
"328","","bandit","110","348533","0.0-71.0-0.0","61585480","wem/bandit_either","A1TH0PTGDSBWMO","either","8","","","","","","","0","0","1","","0.2910845839","0.4","0.2","0.6","0.8","0.2910845839","0.1922668126","0.3392376576","0.3550043818","","","","","","","","","","","72","H","0","img/none_selected.jpg","","32","main_expt"
"515","","bandit","111","350568","0.0-72.0-0.0","61585480","wem/bandit_either","A1TH0PTGDSBWMO","either","8","","","","","","","0","1","0","","0.2956883229","0.4","0.2","0.6","0.8","0.2956883229","0.1503247695","0.2524106513","0.3927862597","","","","","","","","","","","72","H","0","img/none_selected.jpg","","33","main_expt"
"579","","bandit","112","352670","0.0-73.0-0.0","61585480","wem/bandit_either","A1TH0PTGDSBWMO","either","8","","","","","","","1","0","0","0.2918182698","","0.4","0.2","0.6","0.8","","","","","0.2918182698","0.1875072744","0.2378308988","0.4185963197","","","","","","","72","H","0","img/none_selected.jpg","","34","main_expt"
"446","","bandit","113","354633","0.0-74.0-0.0","61585480","wem/bandit_either","A1TH0PTGDSBWMO","either","8","","","","","","","0","1","0","","0.2683654211","0.4","0.2","0.6","0.8","0.3063909307","0.2135507624","0.2683654211","0.441983755","","","","","","","","","","","75","K","2","","","35","main_expt"
"507","","bandit","114","356656","0.0-75.0-0.0","61585480","wem/bandit_either","A1TH0PTGDSBWMO","either","8","","","","","","","0","0","1","","0.2645223933","0.4","0.2","0.6","0.8","0.2820805085","0.2042402853","0.2645223933","0.4352827683","","","","","","","","","","","75","K","2","","","36","main_expt"
"812","","bandit","115","358981","0.0-76.0-0.0","61585480","wem/bandit_either","A1TH0PTGDSBWMO","either","8","","","","","","","0","0","1","0.2360561858","","0.4","0.2","0.6","0.8","","","","","0.2610370824","0.2024605481","0.2360561858","0.450520142","","","","","","","75","K","2","","","37","main_expt"
"590","","bandit","116","361101","0.0-77.0-0.0","61585480","wem/bandit_either","A1TH0PTGDSBWMO","either","8","","","","","","","0","0","1","","0.1896233007","0.4","0.2","0.6","0.8","0.1896233007","0.1677713785","0.2001865083","0.4681224698","","","","","","","","","","","72","H","0","img/none_selected.jpg","","38","main_expt"
"760","","bandit","117","363377","0.0-78.0-0.0","61585480","wem/bandit_either","A1TH0PTGDSBWMO","either","8","","","","","","","0","0","1","0.168851025","","0.4","0.2","0.6","0.8","","","","","0.168851025","0.221779122","0.1687915361","0.4711022053","","","","","","","72","H","0","img/none_selected.jpg","","39","main_expt"
"424","","bandit","118","365318","0.0-79.0-0.0","61585480","wem/bandit_either","A1TH0PTGDSBWMO","either","8","","","","","","","0","0","1","","0.1615787635","0.4","0.2","0.6","0.8","0.1615787635","0.2722397218","0.1503151413","0.4559447699","","","","","","","","","","","72","H","0","img/none_selected.jpg","","40","main_expt"
"344","","bandit","119","367179","0.0-80.0-0.0","61585480","wem/bandit_either","A1TH0PTGDSBWMO","either","8","","","","","","","0","0","1","","0.08168262283","0.4","0.2","0.6","0.8","0.1472326003","0.3298230943","0.08168262283","0.4412687596","","","","","","","","","","","75","K","2","","","41","main_expt"
"458","","bandit","120","369147","0.0-81.0-0.0","61585480","wem/bandit_either","A1TH0PTGDSBWMO","either","8","","","","","","","0","0","1","","0.07668629145","0.4","0.2","0.6","0.8","0.1533480506","0.3104885444","0.07668629145","0.4457751761","","","","","","","","","","","75","K","2","","","42","main_expt"
"487","","bandit","121","371161","0.0-82.0-0.0","61585480","wem/bandit_either","A1TH0PTGDSBWMO","either","8","","","","","","","0","0","1","0.1414351437","","0.4","0.2","0.6","0.8","","","","","0.1414351437","0.3005355489","0.07394587158","0.4298378352","","","","","","","72","H","0","img/none_selected.jpg","","43","main_expt"
"413","","bandit","122","373094","0.0-83.0-0.0","61585480","wem/bandit_either","A1TH0PTGDSBWMO","either","8","","","","","","","1","0","0","0.1192337685","","0.4","0.2","0.6","0.8","","","","","0.1067646429","0.2456242138","0.1192337685","0.4416915379","","","","","","","75","K","2","","","44","main_expt"
"781","","bandit","123","375395","0.0-84.0-0.0","61585480","wem/bandit_either","A1TH0PTGDSBWMO","either","8","","","","","","","0","0","1","0.1285724119","","0.4","0.2","0.6","0.8","","","","","0.1250796286","0.2839901561","0.1285724119","0.3915522423","","","","","","","75","K","2","","","45","main_expt"
"416","","bandit","124","377329","0.0-85.0-0.0","61585480","wem/bandit_either","A1TH0PTGDSBWMO","either","8","","","","","","","0","0","1","0.1927264636","","0.4","0.2","0.6","0.8","","","","","0.1927264636","0.2353621531","0.1112684106","0.4318427431","","","","","","","72","H","0","img/none_selected.jpg","","46","main_expt"
"508","","bandit","125","379363","0.0-86.0-0.0","61585480","wem/bandit_either","A1TH0PTGDSBWMO","either","8","","","","","","","0","0","1","0.1804488412","","0.4","0.2","0.6","0.8","","","","","0.1804488412","0.2405257196","0.1207340475","0.4395998441","","","","","","","72","H","0","img/none_selected.jpg","","47","main_expt"
"382","","bandit","126","381262","0.0-87.0-0.0","61585480","wem/bandit_either","A1TH0PTGDSBWMO","either","8","","","","","","","0","0","1","","0.168268176","0.4","0.2","0.6","0.8","0.168268176","0.2629408555","0.1182533935","0.4630443269","","","","","","","","","","","72","H","0","img/none_selected.jpg","","48","main_expt"
"472","","bandit","127","383253","0.0-88.0-0.0","61585480","wem/bandit_either","A1TH0PTGDSBWMO","either","8","","","","","","","0","1","0","","0.1460801474","0.4","0.2","0.6","0.8","0.1466838001","0.2902453213","0.1460801474","0.4794982466","","","","","","","","","","","75","K","2","","","49","main_expt"
"425","","bandit","128","385196","0.0-89.0-0.0","61585480","wem/bandit_either","A1TH0PTGDSBWMO","either","8","","","","","","","0","0","1","0.4562783041","","0.4","0.2","0.6","0.8","","","","","0.1336340117","0.3033715012","0.1765155983","0.4562783041","","","","","","","76","L","3","","","50","main_expt"
"289","","bandit","129","387004","0.0-90.0-0.0","61585480","wem/bandit_either","A1TH0PTGDSBWMO","either","8","","","","","","","0","0","1","","0.1067821754","0.4","0.2","0.6","0.8","0.1067821754","0.3536831403","0.1614266163","0.4515646323","","","","","","","","","","","72","H","0","img/none_selected.jpg","","51","main_expt"
"482","","bandit","130","389004","0.0-91.0-0.0","61585480","wem/bandit_either","A1TH0PTGDSBWMO","either","8","","","","","","","0","0","1","0.07294577227","","0.4","0.2","0.6","0.8","","","","","0.07294577227","0.3058792917","0.1938643747","0.4344137529","","","","","","","72","H","0","img/none_selected.jpg","","52","main_expt"
"327","","bandit","131","390855","0.0-92.0-0.0","61585480","wem/bandit_either","A1TH0PTGDSBWMO","either","8","","","","","","","0","0","1","","0.07676454597","0.4","0.2","0.6","0.8","0.07676454597","0.3466820038","0.1721886996","0.4421766306","","","","","","","","","","","72","H","0","img/none_selected.jpg","","53","main_expt"
"410","","bandit","132","392784","0.0-93.0-0.0","61585480","wem/bandit_either","A1TH0PTGDSBWMO","either","8","","","","","","","0","0","1","0.1542880765","","0.4","0.2","0.6","0.8","","","","","0.07707135067","0.3159173384","0.1542880765","0.4591875032","","","","","","","75","K","2","","","54","main_expt"
"440","","bandit","133","394752","0.0-94.0-0.0","61585480","wem/bandit_either","A1TH0PTGDSBWMO","either","8","","","","","","","0","0","1","0.2155598061","","0.4","0.2","0.6","0.8","","","","","0.08227932488","0.3205246683","0.2155598061","0.4455250987","","","","","","","75","K","2","","","55","main_expt"
"276","","bandit","134","396551","0.0-95.0-0.0","61585480","wem/bandit_either","A1TH0PTGDSBWMO","either","8","","","","","","","0","0","1","","0.199350645","0.4","0.2","0.6","0.8","0.09013031375","0.3067659888","0.199350645","0.4200701886","","","","","","","","","","","75","K","2","","","56","main_expt"
"413","","bandit","135","398489","0.0-96.0-0.0","61585480","wem/bandit_either","A1TH0PTGDSBWMO","either","8","","","","","","","1","0","0","0.1991981904","","0.4","0.2","0.6","0.8","","","","","0.106866739","0.3786279545","0.1991981904","0.3635567377","","","","","","","75","K","2","","","57","main_expt"
"1620","","bandit","136","401628","0.0-97.0-0.0","61585480","wem/bandit_either","A1TH0PTGDSBWMO","either","8","","","","","","","0","0","1","0.1307276253","","0.4","0.2","0.6","0.8","","","","","0.0915584437","0.3796022377","0.1307276253","0.3647217687","","","","","","","75","K","2","","","58","main_expt"
"88","","bandit","137","403238","0.0-98.0-0.0","61585480","wem/bandit_either","A1TH0PTGDSBWMO","either","8","","","","","","","0","0","1","","0.1540949786","0.4","0.2","0.6","0.8","0.1036540812","0.3570845549","0.1540949786","0.3975499765","","","","","","","","","","","75","K","2","","","59","main_expt"
"608","","bandit","138","405376","0.0-99.0-0.0","61585480","wem/bandit_either","A1TH0PTGDSBWMO","either","8","","","","","","","0","0","1","0.1187181044","","0.4","0.2","0.6","0.8","","","","","0.07948280662","0.398525789","0.1187181044","0.376383165","","","","","","","75","K","2","","","60","main_expt"
"731","","bandit","139","407625","0.0-100.0-0.0","61585480","wem/bandit_either","A1TH0PTGDSBWMO","either","8","","","","","","","0","0","1","","0.0685056185","0.4","0.2","0.6","0.8","0.0685056185","0.380986593","0.1734870435","0.3384437455","","","","","","","","","","","72","H","0","img/none_selected.jpg","","61","main_expt"
"354","","bandit","140","409502","0.0-101.0-0.0","61585480","wem/bandit_either","A1TH0PTGDSBWMO","either","8","","","","","","","0","0","1","","0.04196312691","0.4","0.2","0.6","0.8","0.04196312691","0.3928002855","0.2056999461","0.3086389155","","","","","","","","","","","72","H","0","img/none_selected.jpg","","62","main_expt"
"232","","bandit","141","411252","0.0-102.0-0.0","61585480","wem/bandit_either","A1TH0PTGDSBWMO","either","8","","","","","","","0","0","1","0.2421495796","","0.4","0.2","0.6","0.8","","","","","0.06524357318","0.4097838671","0.2421495796","0.3098998428","","","","","","","75","K","2","","","63","main_expt"
"296","","bandit","142","413065","0.0-103.0-0.0","61585480","wem/bandit_either","A1TH0PTGDSBWMO","either","8","","","","","","","0","0","1","0.04599317762","","0.4","0.2","0.6","0.8","","","","","0.04599317762","0.3942475769","0.2678986655","0.2859800092","","","","","","","72","H","0","img/none_selected.jpg","","64","main_expt"
"295","","bandit","143","414887","0.0-104.0-0.0","61585480","wem/bandit_either","A1TH0PTGDSBWMO","either","8","","","","","","","0","0","1","0.2780805564","","0.4","0.2","0.6","0.8","","","","","0.04738713632","0.3756823908","0.2780805564","0.2780623804","","","","","","","75","K","2","","","65","main_expt"
"798","","bandit","144","417202","0.0-105.0-0.0","61585480","wem/bandit_either","A1TH0PTGDSBWMO","either","8","","","","","","","0","0","1","","0.02873144913","0.4","0.2","0.6","0.8","0.02873144913","0.3780323226","0.2923516192","0.2740889186","","","","","","","","","","","72","H","0","img/none_selected.jpg","","66","main_expt"
"300","","bandit","145","419021","0.0-106.0-0.0","61585480","wem/bandit_either","A1TH0PTGDSBWMO","either","8","","","","","","","0","0","1","0.3481747094","","0.4","0.2","0.6","0.8","","","","","0.0355516853","0.382091886","0.3481747094","0.3122756929","","","","","","","75","K","2","","","67","main_expt"
"180","","bandit","146","420734","0.0-107.0-0.0","61585480","wem/bandit_either","A1TH0PTGDSBWMO","either","8","","","","","","","0","0","1","","0.4080562953","0.4","0.2","0.6","0.8","0.04483006882","0.4080562953","0.3540590834","0.3004294993","","","","","","","","","","","74","J","1","","","68","main_expt"
"293","","bandit","147","422553","0.0-108.0-0.0","61585480","wem/bandit_either","A1TH0PTGDSBWMO","either","8","","","","","","","0","1","0","","0.419826639","0.4","0.2","0.6","0.8","0.04300650393","0.419826639","0.3348318208","0.3312842332","","","","","","","","","","","74","J","1","","","69","main_expt"
"453","","bandit","148","424528","0.0-109.0-0.0","61585480","wem/bandit_either","A1TH0PTGDSBWMO","either","8","","","","","","","0","0","1","","0.3889643965","0.4","0.2","0.6","0.8","0.03960880855","0.3889643965","0.3844983113","0.2362018798","","","","","","","","","","","74","J","1","","","70","main_expt"
"111","","bandit","149","426177","0.0-110.0-0.0","61585480","wem/bandit_either","A1TH0PTGDSBWMO","either","8","","","","","","","0","0","1","0.3753843975","","0.4","0.2","0.6","0.8","","","","","0.02401392238","0.3492343966","0.3753843975","0.1838323472","","","","","","","75","K","2","","","71","main_expt"
"357","","bandit","150","428055","0.0-111.0-0.0","61585480","wem/bandit_either","A1TH0PTGDSBWMO","either","8","","","","","","","0","0","1","","0.008756159955","0.4","0.2","0.6","0.8","0.008756159955","0.3502155883","0.3861429343","0.1749810972","","","","","","","","","","","72","H","0","img/none_selected.jpg","","72","main_expt"
"384","","bandit","151","429963","0.0-112.0-0.0","61585480","wem/bandit_either","A1TH0PTGDSBWMO","either","8","","","","","","","0","0","1","","0.006257651783","0.4","0.2","0.6","0.8","0.006257651783","0.3568691787","0.3978436086","0.1664097112","","","","","","","","","","","72","H","0","img/none_selected.jpg","","73","main_expt"
"354","","bandit","152","431835","0.0-113.0-0.0","61585480","wem/bandit_either","A1TH0PTGDSBWMO","either","8","","","","","","","0","0","1","0.004732084297","","0.4","0.2","0.6","0.8","","","","","0.004732084297","0.3303653739","0.3847979518","0.2001176207","","","","","","","72","H","0","img/none_selected.jpg","","74","main_expt"
"155","","bandit","153","433514","0.0-114.0-0.0","61585480","wem/bandit_either","A1TH0PTGDSBWMO","either","8","","","","","","","0","0","1","","0.3974319157","0.4","0.2","0.6","0.8","0.006967558871","0.3353283381","0.3974319157","0.1848717924","","","","","","","","","","","75","K","2","","","75","main_expt"
"279","","bandit","154","435313","0.0-115.0-0.0","61585480","wem/bandit_either","A1TH0PTGDSBWMO","either","8","","","","","","","1","0","0","0.3987985884","","0.4","0.2","0.6","0.8","","","","","0.004525860487","0.3009524994","0.3987985884","0.1510178238","","","","","","","75","K","2","","","76","main_expt"
"493","","bandit","155","437328","0.0-116.0-0.0","61585480","wem/bandit_either","A1TH0PTGDSBWMO","either","8","","","","","","","0","0","1","","0.4127312768","0.4","0.2","0.6","0.8","0.007245535115","0.3316028908","0.4127312768","0.2089633591","","","","","","","","","","","75","K","2","","","77","main_expt"
"424","","bandit","156","439270","0.0-117.0-0.0","61585480","wem/bandit_either","A1TH0PTGDSBWMO","either","8","","","","","","","0","0","1","0.4257675477","","0.4","0.2","0.6","0.8","","","","","0.00483057751","0.3571024926","0.4257675477","0.2285147345","","","","","","","75","K","2","","","78","main_expt"
"378","","bandit","157","441174","0.0-118.0-0.0","61585480","wem/bandit_either","A1TH0PTGDSBWMO","either","8","","","","","","","0","1","0","","0.3542776451","0.4","0.2","0.6","0.8","0.005956317848","0.3542776451","0.4331167668","0.2246975601","","","","","","","","","","","74","J","1","","","79","main_expt"
"848","","bandit","158","443546","0.0-119.0-0.0","61585480","wem/bandit_either","A1TH0PTGDSBWMO","either","8","","","","","","","0","0","1","","0.0076590047","0.4","0.2","0.6","0.8","0.0076590047","0.3201174307","0.4294395537","0.1878766281","","","","","","","","","","","72","H","0","img/none_selected.jpg","","80","main_expt"
"499","","bandit","159","445566","0.0-120.0-0.0","61585480","wem/bandit_either","A1TH0PTGDSBWMO","either","8","","","","","","","0","0","1","","0.009115568074","0.4","0.2","0.6","0.8","0.009115568074","0.3503003334","0.4234249918","0.2436254364","","","","","","","","","","","72","H","0","img/none_selected.jpg","","81","main_expt"
"614","","bandit","160","447698","0.0-121.0-0.0","61585480","wem/bandit_either","A1TH0PTGDSBWMO","either","8","","","","","","","0","0","1","0.3956977209","","0.4","0.2","0.6","0.8","","","","","0.01382977225","0.3509066846","0.3956977209","0.2627531714","","","","","","","75","K","2","","","82","main_expt"
"395","","bandit","161","449613","0.0-122.0-0.0","61585480","wem/bandit_either","A1TH0PTGDSBWMO","either","8","","","","","","","0","0","1","0.4248650233","","0.4","0.2","0.6","0.8","","","","","0.01500629599","0.3951868033","0.4248650233","0.2672212524","","","","","","","75","K","2","","","83","main_expt"
"1549","","bandit","162","452684","0.0-123.0-0.0","61585480","wem/bandit_either","A1TH0PTGDSBWMO","either","8","","","","","","","0","0","1","0.02310127573","","0.4","0.2","0.6","0.8","","","","","0.02310127573","0.4131477378","0.4196907627","0.2817484998","","","","","","","72","H","0","img/none_selected.jpg","","84","main_expt"
"80","","bandit","163","454278","0.0-124.0-0.0","61585480","wem/bandit_either","A1TH0PTGDSBWMO","either","8","","","","","","","0","1","0","","0.435633498","0.4","0.2","0.6","0.8","0.02639065846","0.3889697292","0.435633498","0.3074775227","","","","","","","","","","","75","K","2","","","85","main_expt"
"116","","bandit","164","455918","0.0-125.0-0.0","61585480","wem/bandit_either","A1TH0PTGDSBWMO","either","8","","","","","","","0","1","0","","0.4322222521","0.4","0.2","0.6","0.8","0.01746441632","0.3885636443","0.4322222521","0.2717847629","","","","","","","","","","","75","K","2","","","86","main_expt"
"371","","bandit","165","457806","0.0-126.0-0.0","61585480","wem/bandit_either","A1TH0PTGDSBWMO","either","8","","","","","","","0","0","1","","0.4476119451","0.4","0.2","0.6","0.8","0.01256144444","0.4028282504","0.4476119451","0.2183858348","","","","","","","","","","","75","K","2","","","87","main_expt"
"760","","bandit","166","460100","0.0-127.0-0.0","61585480","wem/bandit_either","A1TH0PTGDSBWMO","either","8","","","","","","","0","0","1","0.2054961256","","0.4","0.2","0.6","0.8","","","","","0.01178158386","0.4306890759","0.4073123198","0.2054961256","","","","","","","76","L","3","","","88","main_expt"
"55","","bandit","167","461672","0.0-128.0-0.0","61585480","wem/bandit_either","A1TH0PTGDSBWMO","either","8","","","","","","","0","1","0","","0.3862301724","0.4","0.2","0.6","0.8","0.008722555822","0.4103738654","0.3862301724","0.1452714398","","","","","","","","","","","75","K","2","","","89","main_expt"
"391","","bandit","168","463589","0.0-129.0-0.0","61585480","wem/bandit_either","A1TH0PTGDSBWMO","either","8","","","","","","","1","0","0","0.3596745144","","0.4","0.2","0.6","0.8","","","","","0.008232471735","0.3980827974","0.3596745144","0.1077779513","","","","","","","75","K","2","","","90","main_expt"
"377","","bandit","169","465491","0.0-130.0-0.0","61585480","wem/bandit_either","A1TH0PTGDSBWMO","either","8","","","","","","","0","0","1","0.3082854458","","0.4","0.2","0.6","0.8","","","","","0.01249180717","0.4040531024","0.3082854458","0.1308407065","","","","","","","75","K","2","","","91","main_expt"
"380","","bandit","170","467396","0.0-131.0-0.0","61585480","wem/bandit_either","A1TH0PTGDSBWMO","either","8","","","","","","","0","0","1","","0.312225492","0.4","0.2","0.6","0.8","0.01470986316","0.3462944796","0.312225492","0.1652322036","","","","","","","","","","","75","K","2","","","92","main_expt"
"166","","bandit","171","469104","0.0-132.0-0.0","61585480","wem/bandit_either","A1TH0PTGDSBWMO","either","8","","","","","","","0","0","1","","0.02655281846","0.4","0.2","0.6","0.8","0.02655281846","0.3411451966","0.3671658277","0.1344678182","","","","","","","","","","","72","H","0","img/none_selected.jpg","","93","main_expt"
"154","","bandit","172","470772","0.0-133.0-0.0","61585480","wem/bandit_either","A1TH0PTGDSBWMO","either","8","","","","","","","1","0","0","0.3384154489","","0.4","0.2","0.6","0.8","","","","","0.02575246025","0.3384154489","0.3401731108","0.1301314301","","","","","","","74","J","1","","","94","main_expt"
"368","","bandit","173","472664","0.0-134.0-0.0","61585480","wem/bandit_either","A1TH0PTGDSBWMO","either","8","","","","","","","0","0","1","","0.3126988266","0.4","0.2","0.6","0.8","0.02262355665","0.3126988266","0.3413923724","0.1746055711","","","","","","","","","","","74","J","1","","","95","main_expt"
"348","","bandit","174","474554","0.0-135.0-0.0","61585480","wem/bandit_either","A1TH0PTGDSBWMO","either","8","","","","","","","0","0","1","","0.02047181149","0.4","0.2","0.6","0.8","0.02047181149","0.3800019137","0.3570420485","0.1994244555","","","","","","","","","","","72","H","0","img/none_selected.jpg","","96","main_expt"
"84","","bandit","175","476163","0.0-136.0-0.0","61585480","wem/bandit_either","A1TH0PTGDSBWMO","either","8","","","","","","","0","0","1","","0.0207754381","0.4","0.2","0.6","0.8","0.0207754381","0.3328121005","0.3435474977","0.1834602947","","","","","","","","","","","72","H","0","img/none_selected.jpg","","97","main_expt"
"334","","bandit","176","478020","0.0-137.0-0.0","61585480","wem/bandit_either","A1TH0PTGDSBWMO","either","8","","","","","","","0","0","1","0.332228596","","0.4","0.2","0.6","0.8","","","","","0.02955834597","0.332228596","0.3614714926","0.1719221531","","","","","","","74","J","1","","","98","main_expt"
"154","","bandit","177","479701","0.0-138.0-0.0","61585480","wem/bandit_either","A1TH0PTGDSBWMO","either","8","","","","","","","0","1","0","","0.3176405447","0.4","0.2","0.6","0.8","0.0383131093","0.2843854285","0.3176405447","0.1183399241","","","","","","","","","","","75","K","2","","","99","main_expt"
"589","","bandit","178","481812","0.0-139.0-0.0","61585480","wem/bandit_either","A1TH0PTGDSBWMO","either","8","","","","","","","0","0","1","0.3586553183","","0.4","0.2","0.6","0.8","","","","","0.03580757471","0.309751149","0.3586553183","0.1558635017","","","","","","","75","K","2","","","100","main_expt"
"1855","","bandit","179","485195","0.0-140.0-0.0","61585480","wem/bandit_either","A1TH0PTGDSBWMO","either","8","","","","","","","0","0","1","0.2951503345","","0.4","0.2","0.6","0.8","","","","","0.04899620691","0.2993195944","0.2951503345","0.1389665978","","","","","","","75","K","2","","","101","main_expt"
"646","","bandit","180","487361","0.0-141.0-0.0","61585480","wem/bandit_either","A1TH0PTGDSBWMO","either","8","","","","","","","0","0","1","","0.2998391809","0.4","0.2","0.6","0.8","0.08055650644","0.3551890872","0.2998391809","0.1377203561","","","","","","","","","","","75","K","2","","","102","main_expt"
"501","","bandit","181","489381","0.0-142.0-0.0","61585480","wem/bandit_either","A1TH0PTGDSBWMO","either","8","","","","","","","0","0","1","0.2791823827","","0.4","0.2","0.6","0.8","","","","","0.1040447627","0.3148404956","0.2791823827","0.1285548106","","","","","","","75","K","2","","","103","main_expt"
"2613","","bandit","182","493536","0.0-143.0-0.0","61585480","wem/bandit_either","A1TH0PTGDSBWMO","either","8","","","","","","","0","0","1","0.3382769334","","0.4","0.2","0.6","0.8","","","","","0.1143547335","0.3286912191","0.3382769334","0.1555523735","","","","","","","75","K","2","","","104","main_expt"
"198","","bandit","183","495263","0.0-144.0-0.0","61585480","wem/bandit_either","A1TH0PTGDSBWMO","either","8","","","","","","","0","0","1","0.298340497","","0.4","0.2","0.6","0.8","","","","","0.1487676438","0.298340497","0.3339697125","0.1775592141","","","","","","","74","J","1","","","105","main_expt"
"735","","bandit","184","497513","0.0-145.0-0.0","61585480","wem/bandit_either","A1TH0PTGDSBWMO","either","8","","","","","","","0","1","0","","0.3504464386","0.4","0.2","0.6","0.8","0.152088545","0.3504464386","0.3124129253","0.2263451353","","","","","","","","","","","74","J","1","","","106","main_expt"
"453","","bandit","185","499491","0.0-146.0-0.0","61585480","wem/bandit_either","A1TH0PTGDSBWMO","either","8","","","","","","","0","0","1","","0.3510410077","0.4","0.2","0.6","0.8","0.2406734145","0.3510410077","0.3400683723","0.1679769802","","","","","","","","","","","74","J","1","","","107","main_expt"
"513","","bandit","186","501525","0.0-147.0-0.0","61585480","wem/bandit_either","A1TH0PTGDSBWMO","either","8","","","","","","","1","0","0","0.3282766846","","0.4","0.2","0.6","0.8","","","","","0.3048040024","0.3282766846","0.3557340834","0.1999870147","","","","","","","74","J","1","","","108","main_expt"
"427","","bandit","187","503472","0.0-148.0-0.0","61585480","wem/bandit_either","A1TH0PTGDSBWMO","either","8","","","","","","","0","0","1","","0.3561186451","0.4","0.2","0.6","0.8","0.3418503096","0.3561186451","0.3846418901","0.208992856","","","","","","","","","","","74","J","1","","","109","main_expt"
"368","","bandit","188","505366","0.0-149.0-0.0","61585480","wem/bandit_either","A1TH0PTGDSBWMO","either","8","","","","","","","0","1","0","","0.3576445865","0.4","0.2","0.6","0.8","0.3198501315","0.3576445865","0.4057962062","0.1716040471","","","","","","","","","","","74","J","1","","","110","main_expt"
"526","","bandit","189","507416","0.0-150.0-0.0","61585480","wem/bandit_either","A1TH0PTGDSBWMO","either","8","","","","","","","0","0","1","0.3377543854","","0.4","0.2","0.6","0.8","","","","","0.3681534847","0.3377543854","0.3692451483","0.08984071331","","","","","","","74","J","1","","","111","main_expt"
"647","","bandit","190","509588","0.0-151.0-0.0","61585480","wem/bandit_either","A1TH0PTGDSBWMO","either","8","","","","","","","0","0","1","","0.286234052","0.4","0.2","0.6","0.8","0.3757830796","0.286234052","0.3577317973","0.1243463141","","","","","","","","","","","74","J","1","","","112","main_expt"
"603","","bandit","191","511712","0.0-152.0-0.0","61585480","wem/bandit_either","A1TH0PTGDSBWMO","either","8","","","","","","","0","0","1","","0.3328808086","0.4","0.2","0.6","0.8","0.3838999828","0.1932674395","0.3328808086","0.1433440675","","","","","","","","","","","75","K","2","","","113","main_expt"
"600","","bandit","192","513845","0.0-153.0-0.0","61585480","wem/bandit_either","A1TH0PTGDSBWMO","either","8","","","","","","","0","0","1","","0.2403040534","0.4","0.2","0.6","0.8","0.4157938717","0.2403040534","0.3416979579","0.1510662198","","","","","","","","","","","74","J","1","","","114","main_expt"
"512","","bandit","193","515892","0.0-154.0-0.0","61585480","wem/bandit_either","A1TH0PTGDSBWMO","either","8","","","","","","","0","0","1","0.254937398","","0.4","0.2","0.6","0.8","","","","","0.4055870595","0.254937398","0.3377137281","0.09845245139","","","","","","","74","J","1","","","115","main_expt"
"714","","bandit","194","518128","0.0-155.0-0.0","61585480","wem/bandit_either","A1TH0PTGDSBWMO","either","8","","","","","","","0","0","1","0.2605063941","","0.4","0.2","0.6","0.8","","","","","0.4161015278","0.2605063941","0.3039448029","0.107393795","","","","","","","74","J","1","","","116","main_expt"
"1396","","bandit","195","521039","0.0-156.0-0.0","61585480","wem/bandit_either","A1TH0PTGDSBWMO","either","8","","","","","","","0","0","1","","0.2161328783","0.4","0.2","0.6","0.8","0.414877819","0.2161328783","0.2974336912","0.07879800556","","","","","","","","","","","74","J","1","","","117","main_expt"
"45","","bandit","196","522610","0.0-157.0-0.0","61585480","wem/bandit_either","A1TH0PTGDSBWMO","either","8","","","","","","","0","0","1","","0.2651867246","0.4","0.2","0.6","0.8","0.3968259953","0.1931197841","0.2651867246","0.08383735875","","","","","","","","","","","75","K","2","","","118","main_expt"
"479","","bandit","197","524610","0.0-158.0-0.0","61585480","wem/bandit_either","A1TH0PTGDSBWMO","either","8","","","","","","","0","0","1","","0.4198241006","0.4","0.2","0.6","0.8","0.4198241006","0.1638183597","0.3131666206","0.1392474383","","","","","","","","","","","72","H","0","img/none_selected.jpg","","119","main_expt"
"1237","","bandit","198","527374","0.0-159.0-0.0","61585480","wem/bandit_either","A1TH0PTGDSBWMO","either","8","","","","","","","0","0","1","","0.4286088018","0.4","0.2","0.6","0.8","0.4286088018","0.1893282748","0.358829095","0.1649404926","","","","","","","","","","","72","H","0","img/none_selected.jpg","","120","main_expt"
"83","","bandit","199","528973","0.0-160.0-0.0","61585480","wem/bandit_either","A1TH0PTGDSBWMO","either","8","","","","","","","0","0","1","0.3189860171","","0.4","0.2","0.6","0.8","","","","","0.4253829576","0.2290368179","0.3189860171","0.1764152442","","","","","","","75","K","2","","","121","main_expt"
"460","","bandit","200","530957","0.0-161.0-0.0","61585480","wem/bandit_either","A1TH0PTGDSBWMO","either","8","","","","","","","0","0","1","","0.4235175979","0.4","0.2","0.6","0.8","0.4235175979","0.2445441383","0.3011672979","0.2092397698","","","","","","","","","","","72","H","0","img/none_selected.jpg","","122","main_expt"
"584","","bandit","201","533065","0.0-162.0-0.0","61585480","wem/bandit_either","A1TH0PTGDSBWMO","either","8","","","","","","","0","0","1","","0.2091075756","0.4","0.2","0.6","0.8","0.4182090072","0.2091075756","0.3037948063","0.1884058447","","","","","","","","","","","74","J","1","","","123","main_expt"
"1068","","bandit","202","535660","0.0-163.0-0.0","61585480","wem/bandit_either","A1TH0PTGDSBWMO","either","8","","","","","","","0","0","1","","0.4356016004","0.4","0.2","0.6","0.8","0.4356016004","0.2216111921","0.2446200253","0.1876417206","","","","","","","","","","","72","H","0","img/none_selected.jpg","","124","main_expt"
"898","","bandit","203","538093","0.0-164.0-0.0","61585480","wem/bandit_either","A1TH0PTGDSBWMO","either","8","","","","","","","0","1","0","","0.403953628","0.4","0.2","0.6","0.8","0.403953628","0.1622020501","0.2464628806","0.1890564589","","","","","","","","","","","72","H","0","img/none_selected.jpg","","125","main_expt"
"215","","bandit","204","539832","0.0-165.0-0.0","61585480","wem/bandit_either","A1TH0PTGDSBWMO","either","8","","","","","","","0","0","1","0.281169445","","0.4","0.2","0.6","0.8","","","","","0.4020675328","0.173533554","0.281169445","0.1659850756","","","","","","","75","K","2","","","126","main_expt"
"852","","bandit","205","542217","0.0-166.0-0.0","61585480","wem/bandit_either","A1TH0PTGDSBWMO","either","8","","","","","","","1","0","0","0.338443572","","0.4","0.2","0.6","0.8","","","","","0.338443572","0.189829559","0.290080064","0.2006343121","","","","","","","72","H","0","img/none_selected.jpg","","127","main_expt"
"851","","bandit","206","544615","0.0-167.0-0.0","61585480","wem/bandit_either","A1TH0PTGDSBWMO","either","8","","","","","","","0","0","1","0.3280989756","","0.4","0.2","0.6","0.8","","","","","0.323123489","0.1764696366","0.3280989756","0.2637444583","","","","","","","75","K","2","","","128","main_expt"
"2892","","bandit","207","549031","0.0-168.0-0.0","61585480","wem/bandit_either","A1TH0PTGDSBWMO","either","8","","","","","","","0","0","1","0.3052704822","","0.4","0.2","0.6","0.8","","","","","0.3615310162","0.172709194","0.3052704822","0.2783394686","","","","","","","75","K","2","","","129","main_expt"
"616","","bandit","208","551174","0.0-169.0-0.0","61585480","wem/bandit_either","A1TH0PTGDSBWMO","either","8","","","","","","","0","0","1","0.314718742","","0.4","0.2","0.6","0.8","","","","","0.3667448715","0.1407460215","0.314718742","0.2674474002","","","","","","","75","K","2","","","130","main_expt"
"1128","","bandit","209","553826","0.0-170.0-0.0","61585480","wem/bandit_either","A1TH0PTGDSBWMO","either","8","","","","","","","0","0","1","0.2122920843","","0.4","0.2","0.6","0.8","","","","","0.341745941","0.143826562","0.2492347367","0.2122920843","","","","","","","76","L","3","","","131","main_expt"
"306","","bandit","210","555660","0.0-171.0-0.0","61585480","wem/bandit_either","A1TH0PTGDSBWMO","either","8","","","","","","","0","0","1","0.2615325727","","0.4","0.2","0.6","0.8","","","","","0.2615325727","0.1862992663","0.2495736985","0.1969346152","","","","","","","72","H","0","img/none_selected.jpg","","132","main_expt"
"564","","bandit","211","557762","0.0-172.0-0.0","61585480","wem/bandit_either","A1TH0PTGDSBWMO","either","8","","","","","","","0","0","1","","0.27905624","0.4","0.2","0.6","0.8","0.27905624","0.185648564","0.2487120015","0.1390835973","","","","","","","","","","","72","H","0","img/none_selected.jpg","","133","main_expt"
"204","","bandit","212","559493","0.0-173.0-0.0","61585480","wem/bandit_either","A1TH0PTGDSBWMO","either","8","","","","","","","0","1","0","","0.3239420422","0.4","0.2","0.6","0.8","0.2751163123","0.2002276213","0.3239420422","0.1437640715","","","","","","","","","","","75","K","2","","","134","main_expt"
"455","","bandit","213","561473","0.0-174.0-0.0","61585480","wem/bandit_either","A1TH0PTGDSBWMO","either","8","","","","","","","0","0","1","","0.2586507773","0.4","0.2","0.6","0.8","0.2586507773","0.2474552851","0.3903525049","0.1175999949","","","","","","","","","","","72","H","0","img/none_selected.jpg","","135","main_expt"
"480","","bandit","214","563478","0.0-175.0-0.0","61585480","wem/bandit_either","A1TH0PTGDSBWMO","either","8","","","","","","","0","0","1","0.1108499649","","0.4","0.2","0.6","0.8","","","","","0.2385277364","0.2454982057","0.3703049055","0.1108499649","","","","","","","76","L","3","","","136","main_expt"
"373","","bandit","215","565374","0.0-176.0-0.0","61585480","wem/bandit_either","A1TH0PTGDSBWMO","either","8","","","","","","","0","0","1","0.3657944308","","0.4","0.2","0.6","0.8","","","","","0.1935782534","0.2708690816","0.3657944308","0.1208727618","","","","","","","75","K","2","","","137","main_expt"
"221","","bandit","216","567112","0.0-177.0-0.0","61585480","wem/bandit_either","A1TH0PTGDSBWMO","either","8","","","","","","","0","0","1","","0.2219039101","0.4","0.2","0.6","0.8","0.14087624","0.2219039101","0.3452946514","0.1098805161","","","","","","","","","","","74","J","1","","","138","main_expt"
"114","","bandit","217","568776","0.0-178.0-0.0","61585480","wem/bandit_either","A1TH0PTGDSBWMO","either","8","","","","","","","0","0","1","","0.3225052804","0.4","0.2","0.6","0.8","0.1340930794","0.2485571535","0.3225052804","0.1359731218","","","","","","","","","","","75","K","2","","","139","main_expt"
"684","","bandit","218","570982","0.0-179.0-0.0","61585480","wem/bandit_either","A1TH0PTGDSBWMO","either","8","","","","","","","0","1","0","","0.2997250911","0.4","0.2","0.6","0.8","0.1170750994","0.2605640439","0.2997250911","0.1419248406","","","","","","","","","","","75","K","2","","","140","main_expt"
"385","","bandit","219","572891","0.0-180.0-0.0","61585480","wem/bandit_either","A1TH0PTGDSBWMO","either","8","","","","","","","0","0","1","","0.2260680923","0.4","0.2","0.6","0.8","0.1316830279","0.2260680923","0.311933389","0.1269577117","","","","","","","","","","","74","J","1","","","141","main_expt"
"331","","bandit","220","574757","0.0-181.0-0.0","61585480","wem/bandit_either","A1TH0PTGDSBWMO","either","8","","","","","","","1","0","0","0.2354846983","","0.4","0.2","0.6","0.8","","","","","0.09490366034","0.2354846983","0.3442568425","0.1073819056","","","","","","","74","J","1","","","142","main_expt"
"263","","bandit","221","576551","0.0-182.0-0.0","61585480","wem/bandit_either","A1TH0PTGDSBWMO","either","8","","","","","","","0","0","1","","0.2089358464","0.4","0.2","0.6","0.8","0.1246024154","0.2089358464","0.3117203045","0.1152767294","","","","","","","","","","","74","J","1","","","143","main_expt"
"3039","","bandit","222","581131","0.0-183.0-0.0","61585480","wem/bandit_either","A1TH0PTGDSBWMO","either","8","","","","","","","0","1","0","","0.1844607625","0.4","0.2","0.6","0.8","0.1179874238","0.1844607625","0.3080771123","0.1317444946","","","","","","","","","","","74","J","1","","","144","main_expt"
"979","","bandit","223","583640","0.0-184.0-0.0","61585480","wem/bandit_either","A1TH0PTGDSBWMO","either","8","","","","","","","0","1","0","","0.1211842963","0.4","0.2","0.6","0.8","0.1211842963","0.1940384654","0.3146876691","0.1058600218","","","","","","","","","","","72","H","0","img/none_selected.jpg","","145","main_expt"
"244","","bandit","224","585413","0.0-185.0-0.0","61585480","wem/bandit_either","A1TH0PTGDSBWMO","either","8","","","","","","","0","0","1","","0.2532022814","0.4","0.2","0.6","0.8","0.06212451067","0.2532022814","0.3526806189","0.1862633901","","","","","","","","","","","74","J","1","","","146","main_expt"
"7","","bandit","225","586952","0.0-186.0-0.0","61585480","wem/bandit_either","A1TH0PTGDSBWMO","either","8","","","","","","","0","0","1","","0.272856749","0.4","0.2","0.6","0.8","0.05826033827","0.272856749","0.3859334927","0.1944793183","","","","","","","","","","","74","J","1","","","147","main_expt"
"35","","bandit","226","588514","0.0-187.0-0.0","61585480","wem/bandit_either","A1TH0PTGDSBWMO","either","8","","","","","","","1","0","0","0.4089873985","","0.4","0.2","0.6","0.8","","","","","0.04847575149","0.2441255329","0.4089873985","0.1572605535","","","","","","","75","K","2","","","148","main_expt"
"281","","bandit","227","590324","0.0-188.0-0.0","61585480","wem/bandit_either","A1TH0PTGDSBWMO","either","8","","","","","","","0","1","0","","0.2304797635","0.4","0.2","0.6","0.8","0.07397138717","0.2304797635","0.3317076441","0.1632070519","","","","","","","","","","","74","J","1","","","149","main_expt"
"317","","bandit","228","592166","0.0-189.0-0.0","61585480","wem/bandit_either","A1TH0PTGDSBWMO","either","8","","","","","","","0","0","1","","0.2645424191","0.4","0.2","0.6","0.8","0.1178437277","0.2645424191","0.2514439341","0.2162169298","","","","","","","","","","","74","J","1","","","150","main_expt"
"513","","bandit","229","594202","0.0-190.0-0.0","61585480","wem/bandit_either","A1TH0PTGDSBWMO","either","8","","","","","","","0","0","1","0.2209696772","","0.4","0.2","0.6","0.8","","","","","0.1116740648","0.2919476008","0.2209696772","0.2806681102","","","","","","","75","K","2","","","151","main_expt"
"2","","bandit","230","595732","0.0-191.0-0.0","61585480","wem/bandit_either","A1TH0PTGDSBWMO","either","8","","","","","","","0","0","1","","0.3004198658","0.4","0.2","0.6","0.8","0.09681320826","0.3004198658","0.2004300668","0.25223767","","","","","","","","","","","74","J","1","","","152","main_expt"
"291","","bandit","231","597557","0.0-192.0-0.0","61585480","wem/bandit_either","A1TH0PTGDSBWMO","either","8","","","","","","","0","1","0","","0.2910243242","0.4","0.2","0.6","0.8","0.1162344283","0.2910243242","0.1803159607","0.2259503681","","","","","","","","","","","74","J","1","","","153","main_expt"
"177","","bandit","232","599260","0.0-193.0-0.0","61585480","wem/bandit_either","A1TH0PTGDSBWMO","either","8","","","","","","","0","0","1","","0.1793353988","0.4","0.2","0.6","0.8","0.1441765144","0.2858680692","0.1793353988","0.2520515582","","","","","","","","","","","75","K","2","","","154","main_expt"
"347","","bandit","233","601132","0.0-194.0-0.0","61585480","wem/bandit_either","A1TH0PTGDSBWMO","either","8","","","","","","","1","0","0","0.276906037","","0.4","0.2","0.6","0.8","","","","","0.1506434262","0.276906037","0.175125938","0.246895917","","","","","","","74","J","1","","","155","main_expt"
"181","","bandit","234","602840","0.0-195.0-0.0","61585480","wem/bandit_either","A1TH0PTGDSBWMO","either","8","","","","","","","0","0","1","0.19004546","","0.4","0.2","0.6","0.8","","","","","0.1691825384","0.3087514371","0.19004546","0.2067462234","","","","","","","75","K","2","","","156","main_expt"
"248","","bandit","235","604618","0.0-196.0-0.0","61585480","wem/bandit_either","A1TH0PTGDSBWMO","either","8","","","","","","","1","0","0","0.1538528063","","0.4","0.2","0.6","0.8","","","","","0.1465267651","0.3400763937","0.1538528063","0.1736677602","","","","","","","75","K","2","","","157","main_expt"
"113","","bandit","236","606257","0.0-197.0-0.0","61585480","wem/bandit_either","A1TH0PTGDSBWMO","either","8","","","","","","","0","0","1","0.1624419901","","0.4","0.2","0.6","0.8","","","","","0.1517260174","0.3388441277","0.1624419901","0.2437422656","","","","","","","75","K","2","","","158","main_expt"
"42","","bandit","237","607823","0.0-198.0-0.0","61585480","wem/bandit_either","A1TH0PTGDSBWMO","either","8","","","","","","","0","0","1","","0.3496437485","0.4","0.2","0.6","0.8","0.143579764","0.3496437485","0.1749682205","0.2627628197","","","","","","","","","","","74","J","1","","","159","main_expt"
"8469","","bandit","238","617818","0.0-199.0-0.0","61585480","wem/bandit_either","A1TH0PTGDSBWMO","either","8","","","","","","","0","0","1","0.3347491532","","0.4","0.2","0.6","0.8","","","","","0.1701049762","0.3347491532","0.2227833177","0.2532756584","","","","","","","74","J","1","","","160","main_expt"
"136","","bandit","239","619482","0.0-200.0-0.0","61585480","wem/bandit_either","A1TH0PTGDSBWMO","either","8","","","","","","","0","0","1","0.1616195486","","0.4","0.2","0.6","0.8","","","","","0.1596038406","0.3036625801","0.1616195486","0.2846030245","","","","","","","75","K","2","","","161","main_expt"
"54","","bandit","240","621063","0.0-201.0-0.0","61585480","wem/bandit_either","A1TH0PTGDSBWMO","either","8","","","","","","","0","0","1","","0.1440802068","0.4","0.2","0.6","0.8","0.1186271452","0.2735804545","0.1440802068","0.2480450928","","","","","","","","","","","75","K","2","","","162","main_expt"
"81","","bandit","241","622695","0.0-202.0-0.0","61585480","wem/bandit_either","A1TH0PTGDSBWMO","either","8","","","","","","","0","0","1","","0.2219233964","0.4","0.2","0.6","0.8","0.1460830151","0.2219233964","0.1349250059","0.3217860246","","","","","","","","","","","74","J","1","","","163","main_expt"
"229","","bandit","242","624462","0.0-203.0-0.0","61585480","wem/bandit_either","A1TH0PTGDSBWMO","either","8","","","","","","","0","0","1","","0.2489701673","0.4","0.2","0.6","0.8","0.1924179555","0.2489701673","0.1482528248","0.3528623486","","","","","","","","","","","74","J","1","","","164","main_expt"
"837","","bandit","243","626826","0.0-204.0-0.0","61585480","wem/bandit_either","A1TH0PTGDSBWMO","either","8","","","","","","","1","0","0","0.2424219606","","0.4","0.2","0.6","0.8","","","","","0.1909643941","0.2424219606","0.1444116863","0.3113737792","","","","","","","74","J","1","","","165","main_expt"
"460","","bandit","244","628815","0.0-205.0-0.0","61585480","wem/bandit_either","A1TH0PTGDSBWMO","either","8","","","","","","","0","0","1","","0.1899742571","0.4","0.2","0.6","0.8","0.1917506842","0.1899742571","0.1621449425","0.2820045276","","","","","","","","","","","74","J","1","","","166","main_expt"
"452","","bandit","245","630793","0.0-206.0-0.0","61585480","wem/bandit_either","A1TH0PTGDSBWMO","either","8","","","","","","","0","0","1","0.2298880826","","0.4","0.2","0.6","0.8","","","","","0.2238056512","0.2298880826","0.1695256229","0.2539690707","","","","","","","74","J","1","","","167","main_expt"
"3","","bandit","246","632325","0.0-207.0-0.0","61585480","wem/bandit_either","A1TH0PTGDSBWMO","either","8","","","","","","","0","0","1","","0.241220494","0.4","0.2","0.6","0.8","0.2132240521","0.241220494","0.1712445676","0.2177565821","","","","","","","","","","","74","J","1","","","168","main_expt"
"363","","bandit","247","634220","0.0-208.0-0.0","61585480","wem/bandit_either","A1TH0PTGDSBWMO","either","8","","","","","","","1","0","0","0.2113351254","","0.4","0.2","0.6","0.8","","","","","0.1363713625","0.2113351254","0.191079104","0.183214586","","","","","","","74","J","1","","","169","main_expt"
"717","","bandit","248","636465","0.0-209.0-0.0","61585480","wem/bandit_either","A1TH0PTGDSBWMO","either","8","","","","","","","0","0","1","","0.2224744884","0.4","0.2","0.6","0.8","0.2007690262","0.2224744884","0.2227666825","0.1757282231","","","","","","","","","","","74","J","1","","","170","main_expt"
"673","","bandit","249","638671","0.0-210.0-0.0","61585480","wem/bandit_either","A1TH0PTGDSBWMO","either","8","","","","","","","0","0","1","","0.262177911","0.4","0.2","0.6","0.8","0.1238998316","0.262177911","0.2719914804","0.1679331046","","","","","","","","","","","74","J","1","","","171","main_expt"
"350","","bandit","250","640548","0.0-211.0-0.0","61585480","wem/bandit_either","A1TH0PTGDSBWMO","either","8","","","","","","","0","0","1","0.2330128459","","0.4","0.2","0.6","0.8","","","","","0.09746419185","0.2822992514","0.2330128459","0.14560319","","","","","","","75","K","2","","","172","main_expt"
"59","","bandit","251","642136","0.0-212.0-0.0","61585480","wem/bandit_either","A1TH0PTGDSBWMO","either","8","","","","","","","0","0","1","0.2545762091","","0.4","0.2","0.6","0.8","","","","","0.1018164217","0.2545762091","0.2840251313","0.1341549344","","","","","","","74","J","1","","","173","main_expt"
"408","","bandit","252","644063","0.0-213.0-0.0","61585480","wem/bandit_either","A1TH0PTGDSBWMO","either","8","","","","","","","0","0","1","0.2739042306","","0.4","0.2","0.6","0.8","","","","","0.1401689619","0.2838184637","0.2739042306","0.1471305278","","","","","","","75","K","2","","","174","main_expt"
"121","","bandit","253","645715","0.0-214.0-0.0","61585480","wem/bandit_either","A1TH0PTGDSBWMO","either","8","","","","","","","1","0","0","0.3444735506","","0.4","0.2","0.6","0.8","","","","","0.1697524679","0.3002790513","0.3444735506","0.173963405","","","","","","","75","K","2","","","175","main_expt"
"272","","bandit","254","647503","0.0-215.0-0.0","61585480","wem/bandit_either","A1TH0PTGDSBWMO","either","8","","","","","","","0","0","1","","0.3771690292","0.4","0.2","0.6","0.8","0.1896898672","0.3771690292","0.3223017316","0.1821857965","","","","","","","","","","","74","J","1","","","176","main_expt"
"1367","","bandit","255","650395","0.0-216.0-0.0","61585480","wem/bandit_either","A1TH0PTGDSBWMO","either","8","","","","","","","0","0","1","0.2964924158","","0.4","0.2","0.6","0.8","","","","","0.2441254625","0.4047809956","0.2964924158","0.1444884472","","","","","","","75","K","2","","","177","main_expt"
"43","","bandit","256","651965","0.0-217.0-0.0","61585480","wem/bandit_either","A1TH0PTGDSBWMO","either","8","","","","","","","1","0","0","0.4344960837","","0.4","0.2","0.6","0.8","","","","","0.2427722412","0.4344960837","0.2780576925","0.1207783293","","","","","","","74","J","1","","","178","main_expt"
"121","","bandit","257","653621","0.0-218.0-0.0","61585480","wem/bandit_either","A1TH0PTGDSBWMO","either","8","","","","","","","0","0","1","","0.2859751729","0.4","0.2","0.6","0.8","0.2284650367","0.4287912686","0.2859751729","0.111585665","","","","","","","","","","","75","K","2","","","179","main_expt"
"416","","bandit","258","655556","0.0-219.0-0.0","61585480","wem/bandit_either","A1TH0PTGDSBWMO","either","8","","","","","","","0","0","1","","0.4294180747","0.4","0.2","0.6","0.8","0.2694081366","0.4294180747","0.283533164","0.06891525065","","","","","","","","","","","74","J","1","","","180","main_expt"
"95","","bandit","259","657181","0.0-220.0-0.0","61585480","wem/bandit_either","A1TH0PTGDSBWMO","either","8","","","","","","","0","0","1","0.2430023428","","0.4","0.2","0.6","0.8","","","","","0.2471628034","0.3887332701","0.2430023428","0.07407739619","","","","","","","75","K","2","","","181","main_expt"
"17","","bandit","260","658722","0.0-221.0-0.0","61585480","wem/bandit_either","A1TH0PTGDSBWMO","either","8","","","","","","","0","0","1","","0.223254837","0.4","0.2","0.6","0.8","0.275372354","0.3910635387","0.223254837","0.07501704201","","","","","","","","","","","75","K","2","","","182","main_expt"
"900","","bandit","261","661155","0.0-222.0-0.0","61585480","wem/bandit_either","A1TH0PTGDSBWMO","either","8","","","","","","","0","1","0","","0.2274286797","0.4","0.2","0.6","0.8","0.2378950907","0.3957792538","0.2274286797","0.09354103142","","","","","","","","","","","75","K","2","","","183","main_expt"
"689","","bandit","262","663374","0.0-223.0-0.0","61585480","wem/bandit_either","A1TH0PTGDSBWMO","either","8","","","","","","","0","0","1","0.2485964068","","0.4","0.2","0.6","0.8","","","","","0.2611999536","0.3777829694","0.2485964068","0.06673830493","","","","","","","75","K","2","","","184","main_expt"
"129","","bandit","263","665031","0.0-224.0-0.0","61585480","wem/bandit_either","A1TH0PTGDSBWMO","either","8","","","","","","","0","0","1","","0.4130939835","0.4","0.2","0.6","0.8","0.2799245071","0.4130939835","0.2080173303","0.08617836821","","","","","","","","","","","74","J","1","","","185","main_expt"
"3071","","bandit","264","669647","0.0-225.0-0.0","61585480","wem/bandit_either","A1TH0PTGDSBWMO","either","8","","","","","","","0","0","1","","0.376930599","0.4","0.2","0.6","0.8","0.2275386122","0.376930599","0.2538883687","0.05054014018","","","","","","","","","","","74","J","1","","","186","main_expt"
"1914","","bandit","265","673102","0.0-226.0-0.0","61585480","wem/bandit_either","A1TH0PTGDSBWMO","either","8","","","","","","","0","0","1","","0.2558518805","0.4","0.2","0.6","0.8","0.2558518805","0.3934592684","0.2267652077","0.1101456656","","","","","","","","","","","72","H","0","img/none_selected.jpg","","187","main_expt"
"105","","bandit","266","674731","0.0-227.0-0.0","61585480","wem/bandit_either","A1TH0PTGDSBWMO","either","8","","","","","","","0","0","1","","0.1076418148","0.4","0.2","0.6","0.8","0.2757393749","0.4086060551","0.2583789709","0.1076418148","","","","","","","","","","","76","L","3","","","188","main_expt"
"383","","bandit","267","676647","0.0-228.0-0.0","61585480","wem/bandit_either","A1TH0PTGDSBWMO","either","8","","","","","","","0","0","1","0.447145564","","0.4","0.2","0.6","0.8","","","","","0.3326758055","0.447145564","0.2329768584","0.1230456027","","","","","","","74","J","1","","","189","main_expt"
"174","","bandit","268","678351","0.0-229.0-0.0","61585480","wem/bandit_either","A1TH0PTGDSBWMO","either","8","","","","","","","0","0","1","","0.2002510669","0.4","0.2","0.6","0.8","0.332927569","0.386091063","0.2002510669","0.1872873117","","","","","","","","","","","75","K","2","","","190","main_expt"
"446","","bandit","269","680323","0.0-230.0-0.0","61585480","wem/bandit_either","A1TH0PTGDSBWMO","either","8","","","","","","","0","1","0","","0.4221145333","0.4","0.2","0.6","0.8","0.3859199101","0.4221145333","0.2182600554","0.1413073252","","","","","","","","","","","74","J","1","","","191","main_expt"
"961","","bandit","270","682817","0.0-231.0-0.0","61585480","wem/bandit_either","A1TH0PTGDSBWMO","either","8","","","","","","","0","0","1","","0.3913199708","0.4","0.2","0.6","0.8","0.392668484","0.3913199708","0.2681613901","0.1868627967","","","","","","","","","","","74","J","1","","","192","main_expt"
"162","","bandit","271","684510","0.0-232.0-0.0","61585480","wem/bandit_either","A1TH0PTGDSBWMO","either","8","","","","","","","1","0","0","0.3035027483","","0.4","0.2","0.6","0.8","","","","","0.3789843676","0.4013624592","0.3035027483","0.2312719224","","","","","","","75","K","2","","","193","main_expt"
"353","","bandit","272","686386","0.0-233.0-0.0","61585480","wem/bandit_either","A1TH0PTGDSBWMO","either","8","","","","","","","0","0","1","","0.275531754","0.4","0.2","0.6","0.8","0.3689216281","0.3668237699","0.275531754","0.2585201677","","","","","","","","","","","75","K","2","","","194","main_expt"
"374","","bandit","273","688286","0.0-234.0-0.0","61585480","wem/bandit_either","A1TH0PTGDSBWMO","either","8","","","","","","","0","0","1","","0.3856266791","0.4","0.2","0.6","0.8","0.4136905162","0.3856266791","0.2716401532","0.2786104129","","","","","","","","","","","74","J","1","","","195","main_expt"
"150","","bandit","274","689962","0.0-235.0-0.0","61585480","wem/bandit_either","A1TH0PTGDSBWMO","either","8","","","","","","","0","0","1","0.3702439493","","0.4","0.2","0.6","0.8","","","","","0.4258575101","0.3702439493","0.2814611543","0.2407834285","","","","","","","74","J","1","","","196","main_expt"
"196","","bandit","275","691685","0.0-236.0-0.0","61585480","wem/bandit_either","A1TH0PTGDSBWMO","either","8","","","","","","","0","0","1","0.2588010394","","0.4","0.2","0.6","0.8","","","","","0.3976178043","0.3665926528","0.2588010394","0.2550568011","","","","","","","75","K","2","","","197","main_expt"
"255","","bandit","276","693480","0.0-237.0-0.0","61585480","wem/bandit_either","A1TH0PTGDSBWMO","either","8","","","","","","","1","0","0","0.3094610495","","0.4","0.2","0.6","0.8","","","","","0.3802378075","0.3432124584","0.3094610495","0.3094863904","","","","","","","75","K","2","","","198","main_expt"
"492","","bandit","277","695502","0.0-238.0-0.0","61585480","wem/bandit_either","A1TH0PTGDSBWMO","either","8","","","","","","","0","0","1","","0.3139278769","0.4","0.2","0.6","0.8","0.3926800246","0.4096574544","0.3139278769","0.3012985694","","","","","","","","","","","75","K","2","","","199","main_expt"
"375","","bandit","278","697402","0.0-239.0-0.0","61585480","wem/bandit_either","A1TH0PTGDSBWMO","either","8","","","","","","","0","0","1","","0.3799023259","0.4","0.2","0.6","0.8","0.3814844917","0.3799023259","0.3459706187","0.3149132519","","","","","","","","","","","74","J","1","","","200","main_expt"
"353","","bandit","279","699281","0.0-240.0-0.0","61585480","wem/bandit_either","A1TH0PTGDSBWMO","either","8","","","","","","","0","0","1","0.3513783521","","0.4","0.2","0.6","0.8","","","","","0.3831630738","0.3513783521","0.3038365479","0.3236307962","","","","","","","74","J","1","","","201","main_expt"
"46274","","bandit","280","747086","0.0-241.0-0.0","61585480","wem/bandit_either","A1TH0PTGDSBWMO","either","8","","","","","","","0","0","1","0.2964599608","","0.4","0.2","0.6","0.8","","","","","0.3957430938","0.3439351057","0.2964599608","0.3163717903","","","","","","","75","K","2","","","202","main_expt"
"125","","bandit","281","748758","0.0-242.0-0.0","61585480","wem/bandit_either","A1TH0PTGDSBWMO","either","8","","","","","","","0","1","0","","0.2615327891","0.4","0.2","0.6","0.8","0.4175506619","0.2615327891","0.280336616","0.3165936227","","","","","","","","","","","74","J","1","","","203","main_expt"
"1075","","bandit","282","751358","0.0-243.0-0.0","61585480","wem/bandit_either","A1TH0PTGDSBWMO","either","8","","","","","","","1","0","0","0.2211517471","","0.4","0.2","0.6","0.8","","","","","0.4356800279","0.2211517471","0.262900641","0.3166231072","","","","","","","74","J","1","","","204","main_expt"
"933","","bandit","283","753827","0.0-244.0-0.0","61585480","wem/bandit_either","A1TH0PTGDSBWMO","either","8","","","","","","","0","0","1","","0.1955747294","0.4","0.2","0.6","0.8","0.4342993254","0.1955747294","0.3403150927","0.2983153058","","","","","","","","","","","74","J","1","","","205","main_expt"
"685","","bandit","284","756054","0.0-245.0-0.0","61585480","wem/bandit_either","A1TH0PTGDSBWMO","either","8","","","","","","","0","0","1","","0.3407188883","0.4","0.2","0.6","0.8","0.4515967499","0.3137251184","0.3407188883","0.255573156","","","","","","","","","","","75","K","2","","","206","main_expt"
"329","","bandit","285","757918","0.0-246.0-0.0","61585480","wem/bandit_either","A1TH0PTGDSBWMO","either","8","","","","","","","0","0","1","0.2955601217","","0.4","0.2","0.6","0.8","","","","","0.4559700358","0.2982459604","0.2955601217","0.2816724171","","","","","","","75","K","2","","","207","main_expt"
"449","","bandit","286","759891","0.0-247.0-0.0","61585480","wem/bandit_either","A1TH0PTGDSBWMO","either","8","","","","","","","0","0","1","","0.2832193826","0.4","0.2","0.6","0.8","0.4711787588","0.2359404152","0.2832193826","0.2462622089","","","","","","","","","","","75","K","2","","","208","main_expt"
"574","","bandit","287","761993","0.0-248.0-0.0","61585480","wem/bandit_either","A1TH0PTGDSBWMO","either","8","","","","","","","0","0","1","","0.2396635106","0.4","0.2","0.6","0.8","0.4859779177","0.2396635106","0.25637755","0.2608633631","","","","","","","","","","","74","J","1","","","209","main_expt"
"612","","bandit","288","764141","0.0-249.0-0.0","61585480","wem/bandit_either","A1TH0PTGDSBWMO","either","8","","","","","","","0","0","1","","0.2500912527","0.4","0.2","0.6","0.8","0.4798195452","0.2320506775","0.2500912527","0.2649708152","","","","","","","","","","","75","K","2","","","210","main_expt"
"483","","bandit","289","766158","0.0-250.0-0.0","61585480","wem/bandit_either","A1TH0PTGDSBWMO","either","8","","","","","","","0","0","1","0.1894847828","","0.4","0.2","0.6","0.8","","","","","0.4754072522","0.1894847828","0.2481129288","0.2658594566","","","","","","","74","J","1","","","211","main_expt"
"497","","bandit","290","768186","0.0-251.0-0.0","61585480","wem/bandit_either","A1TH0PTGDSBWMO","either","8","","","","","","","0","0","1","","0.4780703898","0.4","0.2","0.6","0.8","0.4780703898","0.2330804604","0.3192168596","0.2648449814","","","","","","","","","","","72","H","0","img/none_selected.jpg","","212","main_expt"
"507","","bandit","291","770235","0.0-252.0-0.0","61585480","wem/bandit_either","A1TH0PTGDSBWMO","either","8","","","","","","","0","0","1","","0.2361953268","0.4","0.2","0.6","0.8","0.4883488692","0.2484053244","0.2361953268","0.286492297","","","","","","","","","","","75","K","2","","","213","main_expt"
"1081","","bandit","292","772849","0.0-253.0-0.0","61585480","wem/bandit_either","A1TH0PTGDSBWMO","either","8","","","","","","","0","0","1","","0.4872562331","0.4","0.2","0.6","0.8","0.4872562331","0.2182548364","0.2308921763","0.2540339129","","","","","","","","","","","72","H","0","img/none_selected.jpg","","214","main_expt"
"450","","bandit","293","774827","0.0-254.0-0.0","61585480","wem/bandit_either","A1TH0PTGDSBWMO","either","8","","","","","","","0","0","1","","0.2161033537","0.4","0.2","0.6","0.8","0.4749609167","0.1824073789","0.2161033537","0.254651127","","","","","","","","","","","75","K","2","","","215","main_expt"
"112","","bandit","294","776473","0.0-255.0-0.0","61585480","wem/bandit_either","A1TH0PTGDSBWMO","either","8","","","","","","","0","0","1","0.1896756427","","0.4","0.2","0.6","0.8","","","","","0.4798413464","0.1923730387","0.1896756427","0.3140517816","","","","","","","75","K","2","","","216","main_expt"
"395","","bandit","295","778397","0.0-256.0-0.0","61585480","wem/bandit_either","A1TH0PTGDSBWMO","either","8","","","","","","","0","0","1","","0.2266612446","0.4","0.2","0.6","0.8","0.4865144435","0.2266612446","0.1724286307","0.3338676317","","","","","","","","","","","74","J","1","","","217","main_expt"
"87","","bandit","296","780009","0.0-257.0-0.0","61585480","wem/bandit_either","A1TH0PTGDSBWMO","either","8","","","","","","","1","0","0","0.4789145001","","0.4","0.2","0.6","0.8","","","","","0.4789145001","0.1702705737","0.161168334","0.3397001125","","","","","","","72","H","0","img/none_selected.jpg","","218","main_expt"
"348","","bandit","297","781881","0.0-258.0-0.0","61585480","wem/bandit_either","A1TH0PTGDSBWMO","either","8","","","","","","","0","0","1","0.2021763003","","0.4","0.2","0.6","0.8","","","","","0.4834748692","0.1159766116","0.2021763003","0.2982528089","","","","","","","75","K","2","","","219","main_expt"
"39","","bandit","298","783444","0.0-259.0-0.0","61585480","wem/bandit_either","A1TH0PTGDSBWMO","either","8","","","","","","","0","0","1","","0.09529473055","0.4","0.2","0.6","0.8","0.4722371777","0.09529473055","0.2142164272","0.2770934022","","","","","","","","","","","74","J","1","","","220","main_expt"
"1029","","bandit","299","786004","0.0-260.0-0.0","61585480","wem/bandit_either","A1TH0PTGDSBWMO","either","8","","","","","","","0","1","0","","0.4654689219","0.4","0.2","0.6","0.8","0.4654689219","0.09060922323","0.189068297","0.2696770889","","","","","","","","","","","72","H","0","img/none_selected.jpg","","221","main_expt"
"342","","bandit","300","787876","0.0-261.0-0.0","61585480","wem/bandit_either","A1TH0PTGDSBWMO","either","8","","","","","","","0","0","1","","0.4533789701","0.4","0.2","0.6","0.8","0.4533789701","0.1250772464","0.2120997892","0.3103502417","","","","","","","","","","","72","H","0","img/none_selected.jpg","","222","main_expt"
"72","","bandit","301","789485","0.0-262.0-0.0","61585480","wem/bandit_either","A1TH0PTGDSBWMO","either","8","","","","","","","0","0","1","","0.4473019993","0.4","0.2","0.6","0.8","0.4473019993","0.1177235221","0.1937664477","0.3477728299","","","","","","","","","","","72","H","0","img/none_selected.jpg","","223","main_expt"
"352","","bandit","302","791364","0.0-263.0-0.0","61585480","wem/bandit_either","A1TH0PTGDSBWMO","either","8","","","","","","","0","0","1","","0.4651086175","0.4","0.2","0.6","0.8","0.4651086175","0.1589673504","0.2195846313","0.3230244909","","","","","","","","","","","72","H","0","img/none_selected.jpg","","224","main_expt"
"657","","bandit","303","793556","0.0-264.0-0.0","61585480","wem/bandit_either","A1TH0PTGDSBWMO","either","8","","","","","","","0","1","0","","0.4704934375","0.4","0.2","0.6","0.8","0.4704934375","0.1582937281","0.1973587738","0.3641913847","","","","","","","","","","","72","H","0","img/none_selected.jpg","","225","main_expt"
"368","","bandit","304","795456","0.0-265.0-0.0","61585480","wem/bandit_either","A1TH0PTGDSBWMO","either","8","","","","","","","1","0","0","0.4545632724","","0.4","0.2","0.6","0.8","","","","","0.4545632724","0.1585786296","0.2029059012","0.3211822138","","","","","","","72","H","0","img/none_selected.jpg","","226","main_expt"
"148","","bandit","305","797143","0.0-266.0-0.0","61585480","wem/bandit_either","A1TH0PTGDSBWMO","either","8","","","","","","","0","1","0","","0.4313330006","0.4","0.2","0.6","0.8","0.4313330006","0.1614007709","0.1677618241","0.3318596792","","","","","","","","","","","72","H","0","img/none_selected.jpg","","227","main_expt"
"102","","bandit","306","798780","0.0-267.0-0.0","61585480","wem/bandit_either","A1TH0PTGDSBWMO","either","8","","","","","","","0","0","1","","0.4253897179","0.4","0.2","0.6","0.8","0.4253897179","0.1160982884","0.2079318551","0.3715738924","","","","","","","","","","","72","H","0","img/none_selected.jpg","","228","main_expt"
"19","","bandit","307","800328","0.0-268.0-0.0","61585480","wem/bandit_either","A1TH0PTGDSBWMO","either","8","","","","","","","1","0","0","0.4416009531","","0.4","0.2","0.6","0.8","","","","","0.4416009531","0.1327168588","0.1860779256","0.3571583743","","","","","","","72","H","0","img/none_selected.jpg","","229","main_expt"
"585","","bandit","308","802443","0.0-269.0-0.0","61585480","wem/bandit_either","A1TH0PTGDSBWMO","either","8","","","","","","","0","1","0","","0.4612445757","0.4","0.2","0.6","0.8","0.4612445757","0.1751239199","0.1294985144","0.3455313741","","","","","","","","","","","72","H","0","img/none_selected.jpg","","230","main_expt"
"59","","bandit","309","804044","0.0-270.0-0.0","61585480","wem/bandit_either","A1TH0PTGDSBWMO","either","8","","","","","","","0","0","1","","0.4455927364","0.4","0.2","0.6","0.8","0.4455927364","0.2080149414","0.1424139305","0.3114256563","","","","","","","","","","","72","H","0","img/none_selected.jpg","","231","main_expt"
"631","","bandit","310","806211","0.0-271.0-0.0","61585480","wem/bandit_either","A1TH0PTGDSBWMO","either","8","","","","","","","0","0","1","","0.4449483857","0.4","0.2","0.6","0.8","0.4449483857","0.2305008548","0.1777617008","0.3127001645","","","","","","","","","","","72","H","0","img/none_selected.jpg","","232","main_expt"
"197","","bandit","311","807944","0.0-272.0-0.0","61585480","wem/bandit_either","A1TH0PTGDSBWMO","either","8","","","","","","","1","0","0","0.4570404202","","0.4","0.2","0.6","0.8","","","","","0.4570404202","0.2331895239","0.1408291819","0.2953609795","","","","","","","72","H","0","img/none_selected.jpg","","233","main_expt"
"48","","bandit","312","809525","0.0-273.0-0.0","61585480","wem/bandit_either","A1TH0PTGDSBWMO","either","8","","","","","","","0","1","0","","0.4785018613","0.4","0.2","0.6","0.8","0.4785018613","0.2007149185","0.09563300426","0.2743769666","","","","","","","","","","","72","H","0","img/none_selected.jpg","","234","main_expt"
"570","","bandit","313","811627","0.0-274.0-0.0","61585480","wem/bandit_either","A1TH0PTGDSBWMO","either","8","","","","","","","0","0","1","","0.4708517218","0.4","0.2","0.6","0.8","0.4708517218","0.1428876463","0.06508254785","0.2842570603","","","","","","","","","","","72","H","0","img/none_selected.jpg","","235","main_expt"
"726","","bandit","314","813883","0.0-275.0-0.0","61585480","wem/bandit_either","A1TH0PTGDSBWMO","either","8","","","","","","","0","0","1","","0.4721911582","0.4","0.2","0.6","0.8","0.4721911582","0.1327756685","0.05272484418","0.3536106974","","","","","","","","","","","72","H","0","img/none_selected.jpg","","236","main_expt"
"303","","bandit","315","815718","0.0-276.0-0.0","61585480","wem/bandit_either","A1TH0PTGDSBWMO","either","8","","","","","","","1","0","0","0.4567984566","","0.4","0.2","0.6","0.8","","","","","0.4567984566","0.1969646424","0.05000735717","0.3777879982","","","","","","","72","H","0","img/none_selected.jpg","","237","main_expt"
"347","","bandit","316","817602","0.0-277.0-0.0","61585480","wem/bandit_either","A1TH0PTGDSBWMO","either","8","","","","","","","0","1","0","","0.4601910044","0.4","0.2","0.6","0.8","0.4601910044","0.2040955009","0.03409798278","0.3819628943","","","","","","","","","","","72","H","0","img/none_selected.jpg","","238","main_expt"
"808","","bandit","317","819944","0.0-278.0-0.0","61585480","wem/bandit_either","A1TH0PTGDSBWMO","either","8","","","","","","","1","0","0","0.4663275819","","0.4","0.2","0.6","0.8","","","","","0.4663275819","0.1885012088","0.03555143528","0.3590612953","","","","","","","72","H","0","img/none_selected.jpg","","239","main_expt"
"208","","bandit","318","821690","0.0-279.0-0.0","61585480","wem/bandit_either","A1TH0PTGDSBWMO","either","8","","","","","","","1","0","0","0.4781926851","","0.4","0.2","0.6","0.8","","","","","0.4781926851","0.1779850251","0.06633834621","0.3943681209","","","","","","","72","H","0","img/none_selected.jpg","","240","main_expt"
"552","","bandit","319","823777","0.0-280.0-0.0","61585480","wem/bandit_either","A1TH0PTGDSBWMO","either","8","","","","","","","0","0","1","","0.4813407325","0.4","0.2","0.6","0.8","0.4813407325","0.2132761508","0.0332650027","0.4178476804","","","","","","","","","","","72","H","0","img/none_selected.jpg","","241","main_expt"
"520","","bandit","320","825836","0.0-281.0-0.0","61585480","wem/bandit_either","A1TH0PTGDSBWMO","either","8","","","","","","","0","1","0","","0.4758201438","0.4","0.2","0.6","0.8","0.4758201438","0.2181708985","0.03674005559","0.4083523659","","","","","","","","","","","72","H","0","img/none_selected.jpg","","242","main_expt"
"559","","bandit","321","827933","0.0-282.0-0.0","61585480","wem/bandit_either","A1TH0PTGDSBWMO","either","8","","","","","","","1","0","0","0.4739127226","","0.4","0.2","0.6","0.8","","","","","0.4739127226","0.1880751836","0.02732183546","0.4107673147","","","","","","","72","H","0","img/none_selected.jpg","","243","main_expt"
"319","","bandit","322","829789","0.0-283.0-0.0","61585480","wem/bandit_either","A1TH0PTGDSBWMO","either","8","","","","","","","0","0","1","0.4467527753","","0.4","0.2","0.6","0.8","","","","","0.4467527753","0.2693527465","0.02742276317","0.3914084711","","","","","","","72","H","0","img/none_selected.jpg","","244","main_expt"
"3","","bandit","323","831320","0.0-284.0-0.0","61585480","wem/bandit_either","A1TH0PTGDSBWMO","either","8","","","","","","","0","1","0","","0.4492118003","0.4","0.2","0.6","0.8","0.4492118003","0.2474629182","0.03322496416","0.4117032301","","","","","","","","","","","72","H","0","img/none_selected.jpg","","245","main_expt"
"618","","bandit","324","833470","0.0-285.0-0.0","61585480","wem/bandit_either","A1TH0PTGDSBWMO","either","8","","","","","","","0","0","1","0.4702058379","","0.4","0.2","0.6","0.8","","","","","0.4702058379","0.3019125269","0.0538648904","0.4225436654","","","","","","","72","H","0","img/none_selected.jpg","","246","main_expt"
"99","","bandit","325","835103","0.0-286.0-0.0","61585480","wem/bandit_either","A1TH0PTGDSBWMO","either","8","","","","","","","0","0","1","","0.4717010128","0.4","0.2","0.6","0.8","0.4717010128","0.3013832462","0.05538537946","0.4327875568","","","","","","","","","","","72","H","0","img/none_selected.jpg","","247","main_expt"
"2423","","bandit","326","839066","0.0-287.0-0.0","61585480","wem/bandit_either","A1TH0PTGDSBWMO","either","8","","","","","","","0","0","1","0.4750055548","","0.4","0.2","0.6","0.8","","","","","0.4750055548","0.2917300956","0.07377210468","0.4478523955","","","","","","","72","H","0","img/none_selected.jpg","","248","main_expt"
"215","","bandit","327","840820","0.0-288.0-0.0","61585480","wem/bandit_either","A1TH0PTGDSBWMO","either","8","","","","","","","0","0","1","0.4608113614","","0.4","0.2","0.6","0.8","","","","","0.4608113614","0.2976682537","0.07098242635","0.4221620221","","","","","","","72","H","0","img/none_selected.jpg","","249","main_expt"
"1098","","bandit","328","843457","0.0-289.0-0.0","61585480","wem/bandit_either","A1TH0PTGDSBWMO","either","8","","","","","","","0","0","1","0.4361301801","","0.4","0.2","0.6","0.8","","","","","0.4361301801","0.2921609534","0.08291081884","0.3998447204","","","","","","","72","H","0","img/none_selected.jpg","","250","main_expt"
"328","","bandit","329","845317","0.0-290.0-0.0","61585480","wem/bandit_either","A1TH0PTGDSBWMO","either","8","","","","","","","0","0","1","","0.4203652199","0.4","0.2","0.6","0.8","0.4203652199","0.3026336231","0.07668358207","0.4053116556","","","","","","","","","","","72","H","0","img/none_selected.jpg","","251","main_expt"
"366","","bandit","330","847212","0.0-291.0-0.0","61585480","wem/bandit_either","A1TH0PTGDSBWMO","either","8","","","","","","","0","0","1","","0.4465363659","0.4","0.2","0.6","0.8","0.4465363659","0.3303824841","0.05892609675","0.3780439072","","","","","","","","","","","72","H","0","img/none_selected.jpg","","252","main_expt"
