"rt","responses","trial_type","trial_index","time_elapsed","internal_node_id","subjID","study","MID","cond","drift","key_press","expt_phase","target","like","value","connected","gems","bombs","no_reward","GemPrChosen","BombPrChosen","GainOverPainPr_0","GainOverPainPr_1","GainOverPainPr_2","GainOverPainPr_3","LosePr_0","LosePr_1","LosePr_2","LosePr_3","WinPr_0","WinPr_1","WinPr_2","WinPr_3","Q0","Q1","Q2","gender","age","ethnicity","respCharCode","respKey","respChoiceNum","respChoice","practice","trial_counter","trial_label"
"3558","{""Q0"":""A1A3TGZ7DKJWRW""}","survey-text","0","3568","0.0-0.0","62809177","wem/bandit_either","A1A3TGZ7DKJWRW","either","5","","","","","","","","","","","","","","","","","","","","","","","","","","","","","","","","","","","",""
"6084","","text","1","10659","0.0-1.0","62809177","wem/bandit_either","A1A3TGZ7DKJWRW","either","5","32","","","","","","","","","","","","","","","","","","","","","","","","","","","","","","","","","","",""
"5111","","text","2","15773","0.0-2.0","62809177","wem/bandit_either","A1A3TGZ7DKJWRW","either","5","32","","","","","","","","","","","","","","","","","","","","","","","","","","","","","","","","","","",""
"18063","","text","3","33838","0.0-3.0","62809177","wem/bandit_either","A1A3TGZ7DKJWRW","either","5","32","","","","","","","","","","","","","","","","","","","","","","","","","","","","","","","","","","",""
"14210","","text","4","48051","0.0-4.0","62809177","wem/bandit_either","A1A3TGZ7DKJWRW","either","5","32","","","","","","","","","","","","","","","","","","","","","","","","","","","","","","","","","","",""
"21800","","text","5","69854","0.0-5.0","62809177","wem/bandit_either","A1A3TGZ7DKJWRW","either","5","32","","","","","","","","","","","","","","","","","","","","","","","","","","","","","","","","","","",""
"5759","","text","6","75615","0.0-6.0","62809177","wem/bandit_either","A1A3TGZ7DKJWRW","either","5","32","","","","","","","","","","","","","","","","","","","","","","","","","","","","","","","","","","",""
"9957","","text","7","85574","0.0-7.0","62809177","wem/bandit_either","A1A3TGZ7DKJWRW","either","5","32","","","","","","","","","","","","","","","","","","","","","","","","","","","","","","","","","","",""
"5862","","identification","8","91472","0.0-8.0-0.0","62809177","wem/bandit_either","A1A3TGZ7DKJWRW","either","5","","identification_pre","the village of Zur","","","","","","","","","","","","","","","","","","","","","","","","","","","","","","","","",""
"3196","","identification","9","95712","0.0-8.0-1.0","62809177","wem/bandit_either","A1A3TGZ7DKJWRW","either","5","","identification_pre","the village of Nyx","","","","","","","","","","","","","","","","","","","","","","","","","","","","","","","","",""
"6037","","text","10","102850","0.0-9.0","62809177","wem/bandit_either","A1A3TGZ7DKJWRW","either","5","32","","","","","","","","","","","","","","","","","","","","","","","","","","","","","","","","","","",""
"4283","","text","11","107136","0.0-10.0","62809177","wem/bandit_either","A1A3TGZ7DKJWRW","either","5","32","","","","","","","","","","","","","","","","","","","","","","","","","","","","","","","","","","",""
"1610","","text","12","108749","0.0-11.0","62809177","wem/bandit_either","A1A3TGZ7DKJWRW","either","5","32","","","","","","","","","","","","","","","","","","","","","","","","","","","","","","","","","","",""
"3550","","text","13","112303","0.0-12.0","62809177","wem/bandit_either","A1A3TGZ7DKJWRW","either","5","32","","","","","","","","","","","","","","","","","","","","","","","","","","","","","","","","","","",""
"3342","","bandit","14","117177","0.0-13.0-0.0","62809177","wem/bandit_either","A1A3TGZ7DKJWRW","either","5","","","","","","","0","0","1","0","0","","","","","0","","","","0","","","","","","","","","","74","J","0","img/none_selected_demo.jpg","true","0",""
"1081","","bandit","15","119790","0.0-14.0-0.0","62809177","wem/bandit_either","A1A3TGZ7DKJWRW","either","5","","","","","","","0","0","1","0","0","","","","","0","","","","0","","","","","","","","","","75","K","0","img/none_selected_demo.jpg","true","0",""
"6785","","text","16","126578","0.0-15.0","62809177","wem/bandit_either","A1A3TGZ7DKJWRW","either","5","32","","","","","","","","","","","","","","","","","","","","","","","","","","","","","","","","","","",""
"8460","","text","17","135042","0.0-16.0","62809177","wem/bandit_either","A1A3TGZ7DKJWRW","either","5","32","","","","","","","","","","","","","","","","","","","","","","","","","","","","","","","","","","",""
"5792","","text","18","140837","0.0-17.0","62809177","wem/bandit_either","A1A3TGZ7DKJWRW","either","5","32","","","","","","","","","","","","","","","","","","","","","","","","","","","","","","","","","","",""
"2637","","text","19","143478","0.0-18.0","62809177","wem/bandit_either","A1A3TGZ7DKJWRW","either","5","32","","","","","","","","","","","","","","","","","","","","","","","","","","","","","","","","","","",""
"641","","bandit","20","145632","0.0-19.0-0.0","62809177","wem/bandit_either","A1A3TGZ7DKJWRW","either","5","","","","","","","0","0","1","0.8","","0.5","0.5","","","","","","","0.8","0.2","","","","","","","","","74","J","0","img/none_selected_demo.jpg","true","0","80_20_practice"
"349","","bandit","21","147497","0.0-19.0-1.0","62809177","wem/bandit_either","A1A3TGZ7DKJWRW","either","5","","","","","","","0","0","1","","0.2","0.5","0.5","","","0.8","0.2","","","","","","","","","","","","","75","K","1","","true","0","80_20_practice"
"1040","","bandit","22","150070","0.0-19.0-2.0","62809177","wem/bandit_either","A1A3TGZ7DKJWRW","either","5","","","","","","","0","0","1","","0.2","0.5","0.5","","","0.8","0.2","","","","","","","","","","","","","75","K","1","","true","0","80_20_practice"
"162","","bandit","23","151754","0.0-19.0-3.0","62809177","wem/bandit_either","A1A3TGZ7DKJWRW","either","5","","","","","","","0","0","1","","0.2","0.5","0.5","","","0.8","0.2","","","","","","","","","","","","","75","K","1","","true","0","80_20_practice"
"20","","bandit","24","153283","0.0-19.0-4.0","62809177","wem/bandit_either","A1A3TGZ7DKJWRW","either","5","","","","","","","0","1","0","","0.2","0.5","0.5","","","0.8","0.2","","","","","","","","","","","","","75","K","1","","true","0","80_20_practice"
"332","","bandit","25","155126","0.0-19.0-5.0","62809177","wem/bandit_either","A1A3TGZ7DKJWRW","either","5","","","","","","","0","0","1","0.2","","0.5","0.5","","","","","","","0.8","0.2","","","","","","","","","75","K","1","","true","0","80_20_practice"
"134","","bandit","26","156771","0.0-19.0-6.0","62809177","wem/bandit_either","A1A3TGZ7DKJWRW","either","5","","","","","","","0","0","1","0.2","","0.5","0.5","","","","","","","0.8","0.2","","","","","","","","","75","K","1","","true","0","80_20_practice"
"77","","bandit","27","158358","0.0-19.0-7.0","62809177","wem/bandit_either","A1A3TGZ7DKJWRW","either","5","","","","","","","0","0","1","","0.2","0.5","0.5","","","0.8","0.2","","","","","","","","","","","","","75","K","1","","true","0","80_20_practice"
"93","","bandit","28","159968","0.0-19.0-8.0","62809177","wem/bandit_either","A1A3TGZ7DKJWRW","either","5","","","","","","","0","0","1","","0.2","0.5","0.5","","","0.8","0.2","","","","","","","","","","","","","75","K","1","","true","0","80_20_practice"
"177","","bandit","29","161672","0.0-19.0-9.0","62809177","wem/bandit_either","A1A3TGZ7DKJWRW","either","5","","","","","","","0","0","1","0.2","","0.5","0.5","","","","","","","0.8","0.2","","","","","","","","","75","K","1","","true","0","80_20_practice"
"161","","bandit","30","163344","0.0-19.0-10.0","62809177","wem/bandit_either","A1A3TGZ7DKJWRW","either","5","","","","","","","0","0","1","0.2","","0.5","0.5","","","","","","","0.8","0.2","","","","","","","","","75","K","1","","true","0","80_20_practice"
"310","","bandit","31","165165","0.0-19.0-11.0","62809177","wem/bandit_either","A1A3TGZ7DKJWRW","either","5","","","","","","","1","0","0","0.8","","0.5","0.5","","","","","","","0.8","0.2","","","","","","","","","74","J","0","img/none_selected_demo.jpg","true","0","80_20_practice"
"275","","bandit","32","166952","0.0-19.0-12.0","62809177","wem/bandit_either","A1A3TGZ7DKJWRW","either","5","","","","","","","0","0","1","","0.8","0.5","0.5","","","0.8","0.2","","","","","","","","","","","","","74","J","0","img/none_selected_demo.jpg","true","0","80_20_practice"
"136","","bandit","33","168603","0.0-19.0-13.0","62809177","wem/bandit_either","A1A3TGZ7DKJWRW","either","5","","","","","","","0","0","1","","0.8","0.5","0.5","","","0.8","0.2","","","","","","","","","","","","","74","J","0","img/none_selected_demo.jpg","true","0","80_20_practice"
"135","","bandit","34","170267","0.0-19.0-14.0","62809177","wem/bandit_either","A1A3TGZ7DKJWRW","either","5","","","","","","","0","1","0","","0.8","0.5","0.5","","","0.8","0.2","","","","","","","","","","","","","74","J","0","img/none_selected_demo.jpg","true","0","80_20_practice"
"261","","bandit","35","172049","0.0-19.0-15.0","62809177","wem/bandit_either","A1A3TGZ7DKJWRW","either","5","","","","","","","1","0","0","0.8","","0.5","0.5","","","","","","","0.8","0.2","","","","","","","","","74","J","0","img/none_selected_demo.jpg","true","0","80_20_practice"
"313","","bandit","36","173874","0.0-19.0-16.0","62809177","wem/bandit_either","A1A3TGZ7DKJWRW","either","5","","","","","","","0","1","0","","0.8","0.5","0.5","","","0.8","0.2","","","","","","","","","","","","","74","J","0","img/none_selected_demo.jpg","true","0","80_20_practice"
"243","","bandit","37","175626","0.0-19.0-17.0","62809177","wem/bandit_either","A1A3TGZ7DKJWRW","either","5","","","","","","","0","1","0","","0.8","0.5","0.5","","","0.8","0.2","","","","","","","","","","","","","74","J","0","img/none_selected_demo.jpg","true","0","80_20_practice"
"247","","bandit","38","177396","0.0-19.0-18.0","62809177","wem/bandit_either","A1A3TGZ7DKJWRW","either","5","","","","","","","0","1","0","","0.8","0.5","0.5","","","0.8","0.2","","","","","","","","","","","","","74","J","0","img/none_selected_demo.jpg","true","0","80_20_practice"
"212","","bandit","39","179132","0.0-19.0-19.0","62809177","wem/bandit_either","A1A3TGZ7DKJWRW","either","5","","","","","","","0","1","0","","0.8","0.5","0.5","","","0.8","0.2","","","","","","","","","","","","","74","J","0","img/none_selected_demo.jpg","true","0","80_20_practice"
"1939","","text","40","181075","0.0-20.0","62809177","wem/bandit_either","A1A3TGZ7DKJWRW","either","5","32","","","","","","","","","","","","","","","","","","","","","","","","","","","","","","","","","","",""
"1295","","bandit","41","183889","0.0-21.0-0.0","62809177","wem/bandit_either","A1A3TGZ7DKJWRW","either","5","","","","","","","1","0","0","1","0","","","","","0","1","","","1","0","","","","","","","","","74","J","0","img/none_selected_demo.jpg","true","0",""
"2169","","text","42","186063","0.0-22.0","62809177","wem/bandit_either","A1A3TGZ7DKJWRW","either","5","32","","","","","","","","","","","","","","","","","","","","","","","","","","","","","","","","","","",""
"1921","","text","43","187989","0.0-23.0","62809177","wem/bandit_either","A1A3TGZ7DKJWRW","either","5","32","","","","","","","","","","","","","","","","","","","","","","","","","","","","","","","","","","",""
"917","","text","44","188911","0.0-24.0","62809177","wem/bandit_either","A1A3TGZ7DKJWRW","either","5","32","","","","","","","","","","","","","","","","","","","","","","","","","","","","","","","","","","",""
"2638","","text","45","191552","0.0-25.0","62809177","wem/bandit_either","A1A3TGZ7DKJWRW","either","5","32","","","","","","","","","","","","","","","","","","","","","","","","","","","","","","","","","","",""
"5264","","text","46","196820","0.0-26.0","62809177","wem/bandit_either","A1A3TGZ7DKJWRW","either","5","32","","","","","","","","","","","","","","","","","","","","","","","","","","","","","","","","","","",""
"3786","","text","47","200611","0.0-27.0","62809177","wem/bandit_either","A1A3TGZ7DKJWRW","either","5","32","","","","","","","","","","","","","","","","","","","","","","","","","","","","","","","","","","",""
"4404","","text","48","205024","0.0-28.0","62809177","wem/bandit_either","A1A3TGZ7DKJWRW","either","5","32","","","","","","","","","","","","","","","","","","","","","","","","","","","","","","","","","","",""
"2650","","text","49","207678","0.0-29.0","62809177","wem/bandit_either","A1A3TGZ7DKJWRW","either","5","32","","","","","","","","","","","","","","","","","","","","","","","","","","","","","","","","","","",""
"4941","","text","50","212624","0.0-30.0","62809177","wem/bandit_either","A1A3TGZ7DKJWRW","either","5","32","","","","","","","","","","","","","","","","","","","","","","","","","","","","","","","","","","",""
"940","","text","51","213567","0.0-31.0","62809177","wem/bandit_either","A1A3TGZ7DKJWRW","either","5","32","","","","","","","","","","","","","","","","","","","","","","","","","","","","","","","","","","",""
"7116","","text","52","220687","0.0-32.0","62809177","wem/bandit_either","A1A3TGZ7DKJWRW","either","5","32","","","","","","","","","","","","","","","","","","","","","","","","","","","","","","","","","","",""
"901","","bandit","53","223100","0.0-33.0-0.0","62809177","wem/bandit_either","A1A3TGZ7DKJWRW","either","5","","","","","","","1","0","0","0.8","","0.5","0.5","0.5","0.5","","","","","0.8","0.2","0.6","0.2","","","","","","","72","H","0","img/none_selected.jpg","true","0","full_practice"
"259","","bandit","54","224875","0.0-33.0-1.0","62809177","wem/bandit_either","A1A3TGZ7DKJWRW","either","5","","","","","","","0","0","1","","0.8","0.5","0.5","0.5","0.5","0.8","0.2","0.6","0.2","","","","","","","","","","","72","H","0","img/none_selected.jpg","true","0","full_practice"
"4","","bandit","55","226391","0.0-33.0-2.0","62809177","wem/bandit_either","A1A3TGZ7DKJWRW","either","5","","","","","","","0","1","0","","0.8","0.5","0.5","0.5","0.5","0.8","0.2","0.6","0.2","","","","","","","","","","","72","H","0","img/none_selected.jpg","true","0","full_practice"
"212","","bandit","56","228121","0.0-33.0-3.0","62809177","wem/bandit_either","A1A3TGZ7DKJWRW","either","5","","","","","","","1","0","0","0.8","","0.5","0.5","0.5","0.5","","","","","0.8","0.2","0.6","0.2","","","","","","","72","H","0","img/none_selected.jpg","true","0","full_practice"
"87","","bandit","57","229747","0.0-33.0-4.0","62809177","wem/bandit_either","A1A3TGZ7DKJWRW","either","5","","","","","","","0","1","0","","0.8","0.5","0.5","0.5","0.5","0.8","0.2","0.6","0.2","","","","","","","","","","","72","H","0","img/none_selected.jpg","true","0","full_practice"
"68","","bandit","58","231337","0.0-33.0-5.0","62809177","wem/bandit_either","A1A3TGZ7DKJWRW","either","5","","","","","","","0","1","0","","0.8","0.5","0.5","0.5","0.5","0.8","0.2","0.6","0.2","","","","","","","","","","","72","H","0","img/none_selected.jpg","true","0","full_practice"
"162","","bandit","59","233011","0.0-33.0-6.0","62809177","wem/bandit_either","A1A3TGZ7DKJWRW","either","5","","","","","","","0","1","0","","0.8","0.5","0.5","0.5","0.5","0.8","0.2","0.6","0.2","","","","","","","","","","","72","H","0","img/none_selected.jpg","true","0","full_practice"
"200","","bandit","60","234734","0.0-33.0-7.0","62809177","wem/bandit_either","A1A3TGZ7DKJWRW","either","5","","","","","","","1","0","0","0.8","","0.5","0.5","0.5","0.5","","","","","0.8","0.2","0.6","0.2","","","","","","","72","H","0","img/none_selected.jpg","true","0","full_practice"
"144","","bandit","61","236388","0.0-33.0-8.0","62809177","wem/bandit_either","A1A3TGZ7DKJWRW","either","5","","","","","","","1","0","0","0.8","","0.5","0.5","0.5","0.5","","","","","0.8","0.2","0.6","0.2","","","","","","","72","H","0","img/none_selected.jpg","true","0","full_practice"
"168","","bandit","62","238079","0.0-33.0-9.0","62809177","wem/bandit_either","A1A3TGZ7DKJWRW","either","5","","","","","","","0","0","1","","0.8","0.5","0.5","0.5","0.5","0.8","0.2","0.6","0.2","","","","","","","","","","","72","H","0","img/none_selected.jpg","true","0","full_practice"
"344","","bandit","63","239964","0.0-33.0-10.0","62809177","wem/bandit_either","A1A3TGZ7DKJWRW","either","5","","","","","","","1","0","0","0.8","","0.5","0.5","0.5","0.5","","","","","0.8","0.2","0.6","0.2","","","","","","","72","H","0","img/none_selected.jpg","true","0","full_practice"
"267","","bandit","64","241749","0.0-33.0-11.0","62809177","wem/bandit_either","A1A3TGZ7DKJWRW","either","5","","","","","","","0","1","0","","0.8","0.5","0.5","0.5","0.5","0.8","0.2","0.6","0.2","","","","","","","","","","","72","H","0","img/none_selected.jpg","true","0","full_practice"
"226","","bandit","65","243490","0.0-33.0-12.0","62809177","wem/bandit_either","A1A3TGZ7DKJWRW","either","5","","","","","","","0","1","0","","0.8","0.5","0.5","0.5","0.5","0.8","0.2","0.6","0.2","","","","","","","","","","","72","H","0","img/none_selected.jpg","true","0","full_practice"
"342","","bandit","66","245345","0.0-33.0-13.0","62809177","wem/bandit_either","A1A3TGZ7DKJWRW","either","5","","","","","","","1","0","0","0.8","","0.5","0.5","0.5","0.5","","","","","0.8","0.2","0.6","0.2","","","","","","","72","H","0","img/none_selected.jpg","true","0","full_practice"
"369","","bandit","67","247245","0.0-33.0-14.0","62809177","wem/bandit_either","A1A3TGZ7DKJWRW","either","5","","","","","","","1","0","0","0.8","","0.5","0.5","0.5","0.5","","","","","0.8","0.2","0.6","0.2","","","","","","","72","H","0","img/none_selected.jpg","true","0","full_practice"
"291","","bandit","68","249054","0.0-33.0-15.0","62809177","wem/bandit_either","A1A3TGZ7DKJWRW","either","5","","","","","","","1","0","0","0.8","","0.5","0.5","0.5","0.5","","","","","0.8","0.2","0.6","0.2","","","","","","","72","H","0","img/none_selected.jpg","true","0","full_practice"
"320","","bandit","69","250914","0.0-33.0-16.0","62809177","wem/bandit_either","A1A3TGZ7DKJWRW","either","5","","","","","","","1","0","0","0.8","","0.5","0.5","0.5","0.5","","","","","0.8","0.2","0.6","0.2","","","","","","","72","H","0","img/none_selected.jpg","true","0","full_practice"
"430","","bandit","70","252857","0.0-33.0-17.0","62809177","wem/bandit_either","A1A3TGZ7DKJWRW","either","5","","","","","","","0","1","0","","0.8","0.5","0.5","0.5","0.5","0.8","0.2","0.6","0.2","","","","","","","","","","","72","H","0","img/none_selected.jpg","true","0","full_practice"
"825","","bandit","71","255194","0.0-33.0-18.0","62809177","wem/bandit_either","A1A3TGZ7DKJWRW","either","5","","","","","","","1","0","0","0.8","","0.5","0.5","0.5","0.5","","","","","0.8","0.2","0.6","0.2","","","","","","","72","H","0","img/none_selected.jpg","true","0","full_practice"
"739","","bandit","72","257447","0.0-33.0-19.0","62809177","wem/bandit_either","A1A3TGZ7DKJWRW","either","5","","","","","","","0","1","0","","0.8","0.5","0.5","0.5","0.5","0.8","0.2","0.6","0.2","","","","","","","","","","","72","H","0","img/none_selected.jpg","true","0","full_practice"
"2305","","text","73","259766","0.0-34.0","62809177","wem/bandit_either","A1A3TGZ7DKJWRW","either","5","32","","","","","","","","","","","","","","","","","","","","","","","","","","","","","","","","","","",""
"8879","","text","74","269666","0.0-35.0","62809177","wem/bandit_either","A1A3TGZ7DKJWRW","either","5","32","","","","","","","","","","","","","","","","","","","","","","","","","","","","","","","","","","",""
"6517","","text","75","276190","0.0-36.0","62809177","wem/bandit_either","A1A3TGZ7DKJWRW","either","5","32","","","","","","","","","","","","","","","","","","","","","","","","","","","","","","","","","","",""
"2189","","text","76","278385","0.0-37.0","62809177","wem/bandit_either","A1A3TGZ7DKJWRW","either","5","32","","","","","","","","","","","","","","","","","","","","","","","","","","","","","","","","","","",""
"1383","","text","77","279772","0.0-38.0","62809177","wem/bandit_either","A1A3TGZ7DKJWRW","either","5","32","","","","","","","","","","","","","","","","","","","","","","","","","","","","","","","","","","",""
"3019","","text","78","282797","0.0-39.0","62809177","wem/bandit_either","A1A3TGZ7DKJWRW","either","5","32","","","","","","","","","","","","","","","","","","","","","","","","","","","","","","","","","","",""
"921","","bandit","79","285249","0.0-40.0-0.0","62809177","wem/bandit_either","A1A3TGZ7DKJWRW","either","5","","","","","","","1","0","0","0.3897275569","","0.4","0.8","0.6","0.2","","","","","0.3897275569","0.4265570961","0.3340388524","0.1165465043","","","","","","","72","H","0","img/none_selected.jpg","","1","main_expt"
"75","","bandit","80","286840","0.0-41.0-0.0","62809177","wem/bandit_either","A1A3TGZ7DKJWRW","either","5","","","","","","","1","0","0","0.3911966266","","0.4","0.8","0.6","0.2","","","","","0.3911966266","0.4177099958","0.3223834482","0.08371899021","","","","","","","72","H","0","img/none_selected.jpg","","2","main_expt"
"135","","bandit","81","288487","0.0-42.0-0.0","62809177","wem/bandit_either","A1A3TGZ7DKJWRW","either","5","","","","","","","0","0","1","","0.4074861021","0.4","0.8","0.6","0.2","0.4074861021","0.4192185534","0.3585509001","0.04339790364","","","","","","","","","","","72","H","0","img/none_selected.jpg","","3","main_expt"
"75","","bandit","82","290091","0.0-43.0-0.0","62809177","wem/bandit_either","A1A3TGZ7DKJWRW","either","5","","","","","","","0","0","1","","0.3965638453","0.4","0.8","0.6","0.2","0.3965638453","0.4241610434","0.3416436242","0.04073472785","","","","","","","","","","","72","H","0","img/none_selected.jpg","","4","main_expt"
"281","","bandit","83","291891","0.0-44.0-0.0","62809177","wem/bandit_either","A1A3TGZ7DKJWRW","either","5","","","","","","","0","0","1","","0.3688269119","0.4","0.8","0.6","0.2","0.3688269119","0.4284837315","0.3444758892","0.04731773769","","","","","","","","","","","72","H","0","img/none_selected.jpg","","5","main_expt"
"82","","bandit","84","293496","0.0-45.0-0.0","62809177","wem/bandit_either","A1A3TGZ7DKJWRW","either","5","","","","","","","0","0","1","","0.3865867917","0.4","0.8","0.6","0.2","0.3865867917","0.4328708062","0.3574177426","0.05617088868","","","","","","","","","","","72","H","0","img/none_selected.jpg","","6","main_expt"
"16","","bandit","85","295029","0.0-46.0-0.0","62809177","wem/bandit_either","A1A3TGZ7DKJWRW","either","5","","","","","","","1","0","0","0.4294719924","","0.4","0.8","0.6","0.2","","","","","0.4294719924","0.4176545671","0.3634052143","0.05606577856","","","","","","","72","H","0","img/none_selected.jpg","","7","main_expt"
"98","","bandit","86","296643","0.0-47.0-0.0","62809177","wem/bandit_either","A1A3TGZ7DKJWRW","either","5","","","","","","","0","1","0","","0.4210378118","0.4","0.8","0.6","0.2","0.4210378118","0.4022395488","0.3675420607","0.09244853328","","","","","","","","","","","72","H","0","img/none_selected.jpg","","8","main_expt"
"151","","bandit","87","298322","0.0-48.0-0.0","62809177","wem/bandit_either","A1A3TGZ7DKJWRW","either","5","","","","","","","0","0","1","0.4502112583","","0.4","0.8","0.6","0.2","","","","","0.4502112583","0.3929004949","0.3921196104","0.1271341085","","","","","","","72","H","0","img/none_selected.jpg","","9","main_expt"
"163","","bandit","88","300012","0.0-49.0-0.0","62809177","wem/bandit_either","A1A3TGZ7DKJWRW","either","5","","","","","","","0","0","1","","0.4452653155","0.4","0.8","0.6","0.2","0.4452653155","0.3863711448","0.4026182126","0.1370717255","","","","","","","","","","","72","H","0","img/none_selected.jpg","","10","main_expt"
"76","","bandit","89","301601","0.0-50.0-0.0","62809177","wem/bandit_either","A1A3TGZ7DKJWRW","either","5","","","","","","","0","0","1","0.4205849279","","0.4","0.8","0.6","0.2","","","","","0.4352349267","0.4205849279","0.3543069494","0.1275050207","","","","","","","74","J","1","","","11","main_expt"
"250","","bandit","90","303367","0.0-51.0-0.0","62809177","wem/bandit_either","A1A3TGZ7DKJWRW","either","5","","","","","","","1","0","0","0.4525069231","","0.4","0.8","0.6","0.2","","","","","0.4029030639","0.4525069231","0.3504097904","0.122317004","","","","","","","74","J","1","","","12","main_expt"
"126","","bandit","91","305009","0.0-52.0-0.0","62809177","wem/bandit_either","A1A3TGZ7DKJWRW","either","5","","","","","","","1","0","0","0.4485799753","","0.4","0.8","0.6","0.2","","","","","0.4198147105","0.4485799753","0.2787441393","0.1251711411","","","","","","","74","J","1","","","13","main_expt"
"46","","bandit","92","306572","0.0-53.0-0.0","62809177","wem/bandit_either","A1A3TGZ7DKJWRW","either","5","","","","","","","0","0","1","0.4504049656","","0.4","0.8","0.6","0.2","","","","","0.3761312174","0.4504049656","0.2723245106","0.1380641988","","","","","","","74","J","1","","","14","main_expt"
"77","","bandit","93","308162","0.0-54.0-0.0","62809177","wem/bandit_either","A1A3TGZ7DKJWRW","either","5","","","","","","","0","0","1","","0.4281165459","0.4","0.8","0.6","0.2","0.4017507227","0.4281165459","0.3687644442","0.2010812313","","","","","","","","","","","74","J","1","","","15","main_expt"
"134","","bandit","94","309832","0.0-55.0-0.0","62809177","wem/bandit_either","A1A3TGZ7DKJWRW","either","5","","","","","","","0","0","1","0.3992289848","","0.4","0.8","0.6","0.2","","","","","0.3859888637","0.4035101098","0.3992289848","0.1747275657","","","","","","","75","K","2","","","16","main_expt"
"88","","bandit","95","311453","0.0-56.0-0.0","62809177","wem/bandit_either","A1A3TGZ7DKJWRW","either","5","","","","","","","0","0","1","0.4067061876","","0.4","0.8","0.6","0.2","","","","","0.3706978481","0.4063691663","0.4067061876","0.1816524112","","","","","","","75","K","2","","","17","main_expt"
"83","","bandit","96","313057","0.0-57.0-0.0","62809177","wem/bandit_either","A1A3TGZ7DKJWRW","either","5","","","","","","","0","0","1","0.3969002131","","0.4","0.8","0.6","0.2","","","","","0.3323991027","0.4201618032","0.3969002131","0.1700798448","","","","","","","75","K","2","","","18","main_expt"
"399","","bandit","97","314968","0.0-58.0-0.0","62809177","wem/bandit_either","A1A3TGZ7DKJWRW","either","5","","","","","","","0","0","1","","0.1998500639","0.4","0.8","0.6","0.2","0.3301718366","0.3868389751","0.3930099592","0.1998500639","","","","","","","","","","","76","L","3","","","19","main_expt"
"273","","bandit","98","316758","0.0-59.0-0.0","62809177","wem/bandit_either","A1A3TGZ7DKJWRW","either","5","","","","","","","0","0","1","0.2418808817","","0.4","0.8","0.6","0.2","","","","","0.3714618997","0.3868875991","0.3791602553","0.2418808817","","","","","","","76","L","3","","","20","main_expt"
"294","","bandit","99","318566","0.0-60.0-0.0","62809177","wem/bandit_either","A1A3TGZ7DKJWRW","either","5","","","","","","","1","0","0","0.4253770554","","0.4","0.8","0.6","0.2","","","","","0.3621694591","0.4253770554","0.4127515201","0.2293341009","","","","","","","74","J","1","","","21","main_expt"
"12","","bandit","100","320093","0.0-61.0-0.0","62809177","wem/bandit_either","A1A3TGZ7DKJWRW","either","5","","","","","","","0","0","1","0.4285762007","","0.4","0.8","0.6","0.2","","","","","0.3648829928","0.4285762007","0.4164833055","0.2074184163","","","","","","","74","J","1","","","22","main_expt"
"319","","bandit","101","321927","0.0-62.0-0.0","62809177","wem/bandit_either","A1A3TGZ7DKJWRW","either","5","","","","","","","1","0","0","0.4082522222","","0.4","0.8","0.6","0.2","","","","","0.2856994719","0.4082522222","0.4143027846","0.1832507358","","","","","","","74","J","1","","","23","main_expt"
"335","","bandit","102","323787","0.0-63.0-0.0","62809177","wem/bandit_either","A1A3TGZ7DKJWRW","either","5","","","","","","","0","0","1","0.4027270218","","0.4","0.8","0.6","0.2","","","","","0.3152516524","0.4027270218","0.3649270698","0.1469425149","","","","","","","74","J","1","","","24","main_expt"
"333","","bandit","103","325640","0.0-64.0-0.0","62809177","wem/bandit_either","A1A3TGZ7DKJWRW","either","5","","","","","","","1","0","0","0.4100212433","","0.4","0.8","0.6","0.2","","","","","0.2778145345","0.4100212433","0.392676409","0.102794739","","","","","","","74","J","1","","","25","main_expt"
"507","","bandit","104","327655","0.0-65.0-0.0","62809177","wem/bandit_either","A1A3TGZ7DKJWRW","either","5","","","","","","","0","0","1","0.4190791169","","0.4","0.8","0.6","0.2","","","","","0.3170506137","0.4190791169","0.4031565401","0.1173732637","","","","","","","74","J","1","","","26","main_expt"
"704","","bandit","105","329874","0.0-66.0-0.0","62809177","wem/bandit_either","A1A3TGZ7DKJWRW","either","5","","","","","","","0","0","1","0.4527212376","","0.4","0.8","0.6","0.2","","","","","0.3223143746","0.4527212376","0.4245959001","0.08835016803","","","","","","","74","J","1","","","27","main_expt"
"1474","","bandit","106","332874","0.0-67.0-0.0","62809177","wem/bandit_either","A1A3TGZ7DKJWRW","either","5","","","","","","","0","0","1","0.4480998813","","0.4","0.8","0.6","0.2","","","","","0.3234472479","0.4480998813","0.4232885055","0.1134440288","","","","","","","74","J","1","","","28","main_expt"
"1168","","bandit","107","335572","0.0-68.0-0.0","62809177","wem/bandit_either","A1A3TGZ7DKJWRW","either","5","","","","","","","0","0","1","0.4628669208","","0.4","0.8","0.6","0.2","","","","","0.2881425904","0.4628669208","0.4495512981","0.1982905849","","","","","","","74","J","1","","","29","main_expt"
"425","","bandit","108","337510","0.0-69.0-0.0","62809177","wem/bandit_either","A1A3TGZ7DKJWRW","either","5","","","","","","","0","0","1","0.4565655028","","0.4","0.8","0.6","0.2","","","","","0.2326555855","0.4565655028","0.4485299892","0.2366655967","","","","","","","74","J","1","","","30","main_expt"
"617","","bandit","109","339648","0.0-70.0-0.0","62809177","wem/bandit_either","A1A3TGZ7DKJWRW","either","5","","","","","","","1","0","0","0.2364604256","","0.4","0.8","0.6","0.2","","","","","0.2364604256","0.4686031056","0.4599237238","0.1622470467","","","","","","","72","H","0","img/none_selected.jpg","","31","main_expt"
"246","","bandit","110","341412","0.0-71.0-0.0","62809177","wem/bandit_either","A1A3TGZ7DKJWRW","either","5","","","","","","","0","0","1","0.2451982598","","0.4","0.8","0.6","0.2","","","","","0.2451982598","0.4659582456","0.4508116693","0.1771911602","","","","","","","72","H","0","img/none_selected.jpg","","32","main_expt"
"253","","bandit","111","343189","0.0-72.0-0.0","62809177","wem/bandit_either","A1A3TGZ7DKJWRW","either","5","","","","","","","0","0","1","","0.2360369815","0.4","0.8","0.6","0.2","0.2360369815","0.4810757035","0.45101727","0.1622836308","","","","","","","","","","","72","H","0","img/none_selected.jpg","","33","main_expt"
"522","","bandit","112","345248","0.0-73.0-0.0","62809177","wem/bandit_either","A1A3TGZ7DKJWRW","either","5","","","","","","","0","0","1","0.4340174653","","0.4","0.8","0.6","0.2","","","","","0.2317763892","0.4842727378","0.4340174653","0.1655985557","","","","","","","75","K","2","","","34","main_expt"
"11","","bandit","113","346773","0.0-74.0-0.0","62809177","wem/bandit_either","A1A3TGZ7DKJWRW","either","5","","","","","","","1","0","0","0.4040147441","","0.4","0.8","0.6","0.2","","","","","0.2527891731","0.4745470136","0.4040147441","0.1492797185","","","","","","","75","K","2","","","35","main_expt"
"391","","bandit","114","348678","0.0-75.0-0.0","62809177","wem/bandit_either","A1A3TGZ7DKJWRW","either","5","","","","","","","1","0","0","0.4268829696","","0.4","0.8","0.6","0.2","","","","","0.2641283143","0.4440965139","0.4268829696","0.1504543003","","","","","","","75","K","2","","","36","main_expt"
"521","","bandit","115","350762","0.0-76.0-0.0","62809177","wem/bandit_either","A1A3TGZ7DKJWRW","either","5","","","","","","","1","0","0","0.4562327564","","0.4","0.8","0.6","0.2","","","","","0.2309310423","0.4544425755","0.4562327564","0.1064249526","","","","","","","75","K","2","","","37","main_expt"
"1098","","bandit","116","353380","0.0-77.0-0.0","62809177","wem/bandit_either","A1A3TGZ7DKJWRW","either","5","","","","","","","0","0","1","0.4481627861","","0.4","0.8","0.6","0.2","","","","","0.2093170459","0.4700138218","0.4481627861","0.1346530267","","","","","","","75","K","2","","","38","main_expt"
"506","","bandit","117","355401","0.0-78.0-0.0","62809177","wem/bandit_either","A1A3TGZ7DKJWRW","either","5","","","","","","","0","1","0","","0.4475890948","0.4","0.8","0.6","0.2","0.1398625959","0.466948448","0.4475890948","0.1303494481","","","","","","","","","","","75","K","2","","","39","main_expt"
"182","","bandit","118","357099","0.0-79.0-0.0","62809177","wem/bandit_either","A1A3TGZ7DKJWRW","either","5","","","","","","","1","0","0","0.4501575696","","0.4","0.8","0.6","0.2","","","","","0.09690087606","0.4679256248","0.4501575696","0.1492074344","","","","","","","75","K","2","","","40","main_expt"
"219","","bandit","119","358840","0.0-80.0-0.0","62809177","wem/bandit_either","A1A3TGZ7DKJWRW","either","5","","","","","","","1","0","0","0.4121884666","","0.4","0.8","0.6","0.2","","","","","0.1129569356","0.445537573","0.4121884666","0.1370672299","","","","","","","75","K","2","","","41","main_expt"
"252","","bandit","120","360612","0.0-81.0-0.0","62809177","wem/bandit_either","A1A3TGZ7DKJWRW","either","5","","","","","","","0","0","1","","0.4379939247","0.4","0.8","0.6","0.2","0.1227033228","0.4521531226","0.4379939247","0.08144147181","","","","","","","","","","","75","K","2","","","42","main_expt"
"312","","bandit","121","362459","0.0-82.0-0.0","62809177","wem/bandit_either","A1A3TGZ7DKJWRW","either","5","","","","","","","0","0","1","0.4271747655","","0.4","0.8","0.6","0.2","","","","","0.08393287497","0.4695072217","0.4271747655","0.06793865388","","","","","","","75","K","2","","","43","main_expt"
"529","","bandit","122","364503","0.0-83.0-0.0","62809177","wem/bandit_either","A1A3TGZ7DKJWRW","either","5","","","","","","","1","0","0","0.4480494518","","0.4","0.8","0.6","0.2","","","","","0.06260074275","0.4807409838","0.4480494518","0.05295344446","","","","","","","75","K","2","","","44","main_expt"
"1246","","bandit","123","367264","0.0-84.0-0.0","62809177","wem/bandit_either","A1A3TGZ7DKJWRW","either","5","","","","","","","1","0","0","0.4269729589","","0.4","0.8","0.6","0.2","","","","","0.08062123592","0.4507048108","0.4269729589","0.02744239742","","","","","","","75","K","2","","","45","main_expt"
"678","","bandit","124","369459","0.0-85.0-0.0","62809177","wem/bandit_either","A1A3TGZ7DKJWRW","either","5","","","","","","","0","0","1","0.4475746277","","0.4","0.8","0.6","0.2","","","","","0.1110847749","0.4382321206","0.4475746277","0.02347437243","","","","","","","75","K","2","","","46","main_expt"
"451","","bandit","125","371440","0.0-86.0-0.0","62809177","wem/bandit_either","A1A3TGZ7DKJWRW","either","5","","","","","","","0","0","1","0.4295618238","","0.4","0.8","0.6","0.2","","","","","0.05346849493","0.4393937913","0.4295618238","0.02418160198","","","","","","","75","K","2","","","47","main_expt"
"406","","bandit","126","373373","0.0-87.0-0.0","62809177","wem/bandit_either","A1A3TGZ7DKJWRW","either","5","","","","","","","0","0","1","0.4431907244","","0.4","0.8","0.6","0.2","","","","","0.04499733497","0.440318131","0.4431907244","0.01182676654","","","","","","","75","K","2","","","48","main_expt"
"203","","bandit","127","375113","0.0-88.0-0.0","62809177","wem/bandit_either","A1A3TGZ7DKJWRW","either","5","","","","","","","1","0","0","0.4187732916","","0.4","0.8","0.6","0.2","","","","","0.07378534534","0.4362102412","0.4187732916","0.0186287842","","","","","","","75","K","2","","","49","main_expt"
"441","","bandit","128","377068","0.0-89.0-0.0","62809177","wem/bandit_either","A1A3TGZ7DKJWRW","either","5","","","","","","","0","0","1","","0.356579213","0.4","0.8","0.6","0.2","0.06168845619","0.44488671","0.356579213","0.02550629551","","","","","","","","","","","75","K","2","","","50","main_expt"
"251","","bandit","129","378851","0.0-90.0-0.0","62809177","wem/bandit_either","A1A3TGZ7DKJWRW","either","5","","","","","","","0","0","1","0.2629404955","","0.4","0.8","0.6","0.2","","","","","0.1062028567","0.4633405548","0.2629404955","0.04366809707","","","","","","","75","K","2","","","51","main_expt"
"334","","bandit","130","380721","0.0-91.0-0.0","62809177","wem/bandit_either","A1A3TGZ7DKJWRW","either","5","","","","","","","0","0","1","","0.2919747068","0.4","0.8","0.6","0.2","0.1379608546","0.4528043762","0.2919747068","0.04357168116","","","","","","","","","","","75","K","2","","","52","main_expt"
"721","","bandit","131","382978","0.0-92.0-0.0","62809177","wem/bandit_either","A1A3TGZ7DKJWRW","either","5","","","","","","","0","0","1","0.03899227154","","0.4","0.8","0.6","0.2","","","","","0.1356826849","0.4390431751","0.3809901122","0.03899227154","","","","","","","76","L","3","","","53","main_expt"
"257","","bandit","132","384754","0.0-93.0-0.0","62809177","wem/bandit_either","A1A3TGZ7DKJWRW","either","5","","","","","","","0","0","1","","0.04009146386","0.4","0.8","0.6","0.2","0.1038772241","0.4549270822","0.3452518694","0.04009146386","","","","","","","","","","","76","L","3","","","54","main_expt"
"46","","bandit","133","386329","0.0-94.0-0.0","62809177","wem/bandit_either","A1A3TGZ7DKJWRW","either","5","","","","","","","0","0","1","","0.0155768565","0.4","0.8","0.6","0.2","0.1689791829","0.4710341864","0.3263112327","0.0155768565","","","","","","","","","","","76","L","3","","","55","main_expt"
"954","","bandit","134","388800","0.0-95.0-0.0","62809177","wem/bandit_either","A1A3TGZ7DKJWRW","either","5","","","","","","","1","0","0","0.4745834276","","0.4","0.8","0.6","0.2","","","","","0.1108888145","0.4745834276","0.3308963945","0.02112461672","","","","","","","74","J","1","","","56","main_expt"
"290","","bandit","135","390606","0.0-96.0-0.0","62809177","wem/bandit_either","A1A3TGZ7DKJWRW","either","5","","","","","","","0","0","1","","0.489318572","0.4","0.8","0.6","0.2","0.1206542402","0.489318572","0.3150326571","0.0126553198","","","","","","","","","","","74","J","1","","","57","main_expt"
"470","","bandit","136","392593","0.0-97.0-0.0","62809177","wem/bandit_either","A1A3TGZ7DKJWRW","either","5","","","","","","","0","0","1","0.480037986","","0.4","0.8","0.6","0.2","","","","","0.09707343937","0.480037986","0.3049116772","0.01131359515","","","","","","","74","J","1","","","58","main_expt"
"586","","bandit","137","394719","0.0-98.0-0.0","62809177","wem/bandit_either","A1A3TGZ7DKJWRW","either","5","","","","","","","0","0","1","","0.1044384952","0.4","0.8","0.6","0.2","0.1044384952","0.4593461039","0.3050987947","0.01030075821","","","","","","","","","","","72","H","0","img/none_selected.jpg","","59","main_expt"
"761","","bandit","138","396996","0.0-99.0-0.0","62809177","wem/bandit_either","A1A3TGZ7DKJWRW","either","5","","","","","","","0","0","1","0.08890369623","","0.4","0.8","0.6","0.2","","","","","0.08890369623","0.446051488","0.3274009355","0.005868957973","","","","","","","72","H","0","img/none_selected.jpg","","60","main_expt"
"232","","bandit","139","398742","0.0-100.0-0.0","62809177","wem/bandit_either","A1A3TGZ7DKJWRW","either","5","","","","","","","0","0","1","","0.08921221942","0.4","0.8","0.6","0.2","0.08921221942","0.4391285327","0.3428943983","0.004361943215","","","","","","","","","","","72","H","0","img/none_selected.jpg","","61","main_expt"
"812","","bandit","140","401068","0.0-101.0-0.0","62809177","wem/bandit_either","A1A3TGZ7DKJWRW","either","5","","","","","","","0","0","1","","0.09812025034","0.4","0.8","0.6","0.2","0.09812025034","0.4063883723","0.3549763931","0.005208412743","","","","","","","","","","","72","H","0","img/none_selected.jpg","","62","main_expt"
"360","","bandit","141","402967","0.0-102.0-0.0","62809177","wem/bandit_either","A1A3TGZ7DKJWRW","either","5","","","","","","","0","0","1","","0.09006279409","0.4","0.8","0.6","0.2","0.09006279409","0.4330387396","0.3496678451","0.006461011255","","","","","","","","","","","72","H","0","img/none_selected.jpg","","63","main_expt"
"228","","bandit","142","404722","0.0-103.0-0.0","62809177","wem/bandit_either","A1A3TGZ7DKJWRW","either","5","","","","","","","0","0","1","","0.1118976224","0.4","0.8","0.6","0.2","0.1118976224","0.4207902426","0.3188537263","0.01267926231","","","","","","","","","","","72","H","0","img/none_selected.jpg","","64","main_expt"
"267","","bandit","143","406506","0.0-104.0-0.0","62809177","wem/bandit_either","A1A3TGZ7DKJWRW","either","5","","","","","","","0","0","1","0.1053817613","","0.4","0.8","0.6","0.2","","","","","0.1053817613","0.3719582347","0.3191795336","0.009732787917","","","","","","","72","H","0","img/none_selected.jpg","","65","main_expt"
"477","","bandit","144","408504","0.0-105.0-0.0","62809177","wem/bandit_either","A1A3TGZ7DKJWRW","either","5","","","","","","","0","0","1","0.268616347","","0.4","0.8","0.6","0.2","","","","","0.1307356695","0.3748569955","0.268616347","0.01092542651","","","","","","","75","K","2","","","66","main_expt"
"190","","bandit","145","410211","0.0-106.0-0.0","62809177","wem/bandit_either","A1A3TGZ7DKJWRW","either","5","","","","","","","1","0","0","0.335252031","","0.4","0.8","0.6","0.2","","","","","0.1418436428","0.335252031","0.259194563","0.02125534741","","","","","","","74","J","1","","","67","main_expt"
"276","","bandit","146","412013","0.0-107.0-0.0","62809177","wem/bandit_either","A1A3TGZ7DKJWRW","either","5","","","","","","","0","0","1","0.3199157278","","0.4","0.8","0.6","0.2","","","","","0.1459089566","0.3199157278","0.2281204868","0.02360283027","","","","","","","74","J","1","","","68","main_expt"
"533","","bandit","147","414081","0.0-108.0-0.0","62809177","wem/bandit_either","A1A3TGZ7DKJWRW","either","5","","","","","","","1","0","0","0.2195844169","","0.4","0.8","0.6","0.2","","","","","0.1809721424","0.3068525281","0.2195844169","0.02539305756","","","","","","","75","K","2","","","69","main_expt"
"137","","bandit","148","415741","0.0-109.0-0.0","62809177","wem/bandit_either","A1A3TGZ7DKJWRW","either","5","","","","","","","0","0","1","0.1883338509","","0.4","0.8","0.6","0.2","","","","","0.1784068974","0.3181076016","0.1883338509","0.05014388586","","","","","","","75","K","2","","","70","main_expt"
"255","","bandit","149","417513","0.0-110.0-0.0","62809177","wem/bandit_either","A1A3TGZ7DKJWRW","either","5","","","","","","","0","0","1","","0.1639708178","0.4","0.8","0.6","0.2","0.1973023396","0.2926426422","0.1639708178","0.04209054697","","","","","","","","","","","75","K","2","","","71","main_expt"
"417","","bandit","150","419447","0.0-111.0-0.0","62809177","wem/bandit_either","A1A3TGZ7DKJWRW","either","5","","","","","","","0","0","1","0.1312842785","","0.4","0.8","0.6","0.2","","","","","0.2436342847","0.2380263643","0.1312842785","0.05611199342","","","","","","","75","K","2","","","72","main_expt"
"201","","bandit","151","421227","0.0-112.0-0.0","62809177","wem/bandit_either","A1A3TGZ7DKJWRW","either","5","","","","","","","0","0","1","","0.1805041857","0.4","0.8","0.6","0.2","0.1992173182","0.2407197948","0.1805041857","0.05293238473","","","","","","","","","","","75","K","2","","","73","main_expt"
"255","","bandit","152","423023","0.0-113.0-0.0","62809177","wem/bandit_either","A1A3TGZ7DKJWRW","either","5","","","","","","","0","0","1","0.1739557812","","0.4","0.8","0.6","0.2","","","","","0.2347098304","0.2317468449","0.1739557812","0.0318456884","","","","","","","75","K","2","","","74","main_expt"
"291","","bandit","153","424844","0.0-114.0-0.0","62809177","wem/bandit_either","A1A3TGZ7DKJWRW","either","5","","","","","","","0","0","1","","0.03873230677","0.4","0.8","0.6","0.2","0.2641442137","0.2545997551","0.2434916027","0.03873230677","","","","","","","","","","","76","L","3","","","75","main_expt"
"340","","bandit","154","426701","0.0-115.0-0.0","62809177","wem/bandit_either","A1A3TGZ7DKJWRW","either","5","","","","","","","0","0","1","0.2890845388","","0.4","0.8","0.6","0.2","","","","","0.3192644053","0.2890845388","0.2438468568","0.03304947682","","","","","","","74","J","1","","","76","main_expt"
"331","","bandit","155","428550","0.0-116.0-0.0","62809177","wem/bandit_either","A1A3TGZ7DKJWRW","either","5","","","","","","","0","0","1","0.2386362654","","0.4","0.8","0.6","0.2","","","","","0.3351132613","0.2386362654","0.2425324642","0.02607887458","","","","","","","74","J","1","","","77","main_expt"
"494","","bandit","156","430569","0.0-117.0-0.0","62809177","wem/bandit_either","A1A3TGZ7DKJWRW","either","5","","","","","","","0","0","1","","0.205588479","0.4","0.8","0.6","0.2","0.3086784207","0.2673679704","0.205588479","0.02492981692","","","","","","","","","","","75","K","2","","","78","main_expt"
"673","","bandit","157","432769","0.0-118.0-0.0","62809177","wem/bandit_either","A1A3TGZ7DKJWRW","either","5","","","","","","","0","0","1","0.213062191","","0.4","0.8","0.6","0.2","","","","","0.3076482073","0.2813811921","0.213062191","0.01824110002","","","","","","","75","K","2","","","79","main_expt"
"738","","bandit","158","435042","0.0-119.0-0.0","62809177","wem/bandit_either","A1A3TGZ7DKJWRW","either","5","","","","","","","0","0","1","0.1852926048","","0.4","0.8","0.6","0.2","","","","","0.3605025214","0.2419447949","0.1852926048","0.0202176162","","","","","","","75","K","2","","","80","main_expt"
"348","","bandit","159","436915","0.0-120.0-0.0","62809177","wem/bandit_either","A1A3TGZ7DKJWRW","either","5","","","","","","","0","0","1","0.2332942271","","0.4","0.8","0.6","0.2","","","","","0.3286166321","0.323481111","0.2332942271","0.0252752587","","","","","","","75","K","2","","","81","main_expt"
"511","","bandit","160","438943","0.0-121.0-0.0","62809177","wem/bandit_either","A1A3TGZ7DKJWRW","either","5","","","","","","","0","0","1","","0.2087797338","0.4","0.8","0.6","0.2","0.3459677762","0.3097244961","0.2087797338","0.05668457717","","","","","","","","","","","75","K","2","","","82","main_expt"
"726","","bandit","161","441201","0.0-122.0-0.0","62809177","wem/bandit_either","A1A3TGZ7DKJWRW","either","5","","","","","","","0","0","1","","0.2049979043","0.4","0.8","0.6","0.2","0.3092751195","0.2787498647","0.2049979043","0.07760530004","","","","","","","","","","","75","K","2","","","83","main_expt"
"570","","bandit","162","443299","0.0-123.0-0.0","62809177","wem/bandit_either","A1A3TGZ7DKJWRW","either","5","","","","","","","0","0","1","","0.2151780091","0.4","0.8","0.6","0.2","0.3044630387","0.2589524449","0.2151780091","0.03696005566","","","","","","","","","","","75","K","2","","","84","main_expt"
"520","","bandit","163","445340","0.0-124.0-0.0","62809177","wem/bandit_either","A1A3TGZ7DKJWRW","either","5","","","","","","","0","0","1","","0.1497615914","0.4","0.8","0.6","0.2","0.2812480587","0.2769318636","0.1497615914","0.04177257934","","","","","","","","","","","75","K","2","","","85","main_expt"
"319","","bandit","164","447179","0.0-125.0-0.0","62809177","wem/bandit_either","A1A3TGZ7DKJWRW","either","5","","","","","","","0","0","1","0.2849222391","","0.4","0.8","0.6","0.2","","","","","0.2506532223","0.2849222391","0.1223687677","0.0385770192","","","","","","","74","J","1","","","86","main_expt"
"454","","bandit","165","449151","0.0-126.0-0.0","62809177","wem/bandit_either","A1A3TGZ7DKJWRW","either","5","","","","","","","0","0","1","0.3131087309","","0.4","0.8","0.6","0.2","","","","","0.2269900387","0.3131087309","0.1472857413","0.03720252147","","","","","","","74","J","1","","","87","main_expt"
"559","","bandit","166","451242","0.0-127.0-0.0","62809177","wem/bandit_either","A1A3TGZ7DKJWRW","either","5","","","","","","","1","0","0","0.3038587512","","0.4","0.8","0.6","0.2","","","","","0.1504729919","0.3038587512","0.1252586248","0.06746059371","","","","","","","74","J","1","","","88","main_expt"
"529","","bandit","167","453322","0.0-128.0-0.0","62809177","wem/bandit_either","A1A3TGZ7DKJWRW","either","5","","","","","","","0","0","1","0.3308022157","","0.4","0.8","0.6","0.2","","","","","0.1382070302","0.3308022157","0.1194927994","0.04069757945","","","","","","","74","J","1","","","89","main_expt"
"651","","bandit","168","455495","0.0-129.0-0.0","62809177","wem/bandit_either","A1A3TGZ7DKJWRW","either","5","","","","","","","1","0","0","0.3574922351","","0.4","0.8","0.6","0.2","","","","","0.1364765349","0.3574922351","0.1589750007","0.07325379503","","","","","","","74","J","1","","","90","main_expt"
"193","","bandit","169","457206","0.0-130.0-0.0","62809177","wem/bandit_either","A1A3TGZ7DKJWRW","either","5","","","","","","","0","0","1","0.3729517688","","0.4","0.8","0.6","0.2","","","","","0.09318196272","0.3729517688","0.1859960426","0.06877471811","","","","","","","74","J","1","","","91","main_expt"
"12","","bandit","170","458736","0.0-131.0-0.0","62809177","wem/bandit_either","A1A3TGZ7DKJWRW","either","5","","","","","","","0","0","1","","0.06946097624","0.4","0.8","0.6","0.2","0.06946097624","0.398352994","0.192419488","0.04115987362","","","","","","","","","","","72","H","0","img/none_selected.jpg","","92","main_expt"
"301","","bandit","171","460556","0.0-132.0-0.0","62809177","wem/bandit_either","A1A3TGZ7DKJWRW","either","5","","","","","","","0","1","0","","0.07078892783","0.4","0.8","0.6","0.2","0.08102832817","0.4135860398","0.1716033463","0.07078892783","","","","","","","","","","","76","L","3","","","93","main_expt"
"89","","bandit","172","462176","0.0-133.0-0.0","62809177","wem/bandit_either","A1A3TGZ7DKJWRW","either","5","","","","","","","0","0","1","","0.05572868433","0.4","0.8","0.6","0.2","0.1271360848","0.3786880174","0.1935897604","0.05572868433","","","","","","","","","","","76","L","3","","","94","main_expt"
"158","","bandit","173","463865","0.0-134.0-0.0","62809177","wem/bandit_either","A1A3TGZ7DKJWRW","either","5","","","","","","","0","0","1","0.05056929995","","0.4","0.8","0.6","0.2","","","","","0.1097592989","0.3823424718","0.2193228015","0.05056929995","","","","","","","76","L","3","","","95","main_expt"
"263","","bandit","174","465644","0.0-135.0-0.0","62809177","wem/bandit_either","A1A3TGZ7DKJWRW","either","5","","","","","","","0","0","1","","0.04159874267","0.4","0.8","0.6","0.2","0.1085490834","0.3642725552","0.3262643469","0.04159874267","","","","","","","","","","","76","L","3","","","96","main_expt"
"569","","bandit","175","467732","0.0-136.0-0.0","62809177","wem/bandit_either","A1A3TGZ7DKJWRW","either","5","","","","","","","0","0","1","","0.03654451862","0.4","0.8","0.6","0.2","0.1049812554","0.3197717944","0.3207405496","0.03654451862","","","","","","","","","","","76","L","3","","","97","main_expt"
"132","","bandit","176","469384","0.0-137.0-0.0","62809177","wem/bandit_either","A1A3TGZ7DKJWRW","either","5","","","","","","","0","0","1","","0.04190300095","0.4","0.8","0.6","0.2","0.08177978443","0.2514424369","0.3712856991","0.04190300095","","","","","","","","","","","76","L","3","","","98","main_expt"
"137","","bandit","177","471057","0.0-138.0-0.0","62809177","wem/bandit_either","A1A3TGZ7DKJWRW","either","5","","","","","","","0","0","1","","0.08742990617","0.4","0.8","0.6","0.2","0.07574087804","0.2926772137","0.3740145378","0.08742990617","","","","","","","","","","","76","L","3","","","99","main_expt"
"115","","bandit","178","472703","0.0-139.0-0.0","62809177","wem/bandit_either","A1A3TGZ7DKJWRW","either","5","","","","","","","0","0","1","0.08966523481","","0.4","0.8","0.6","0.2","","","","","0.07829319678","0.234485335","0.3776295542","0.08966523481","","","","","","","76","L","3","","","100","main_expt"
"147","","bandit","179","474374","0.0-140.0-0.0","62809177","wem/bandit_either","A1A3TGZ7DKJWRW","either","5","","","","","","","0","0","1","","0.07849065771","0.4","0.8","0.6","0.2","0.07919243683","0.250352175","0.3592666398","0.07849065771","","","","","","","","","","","76","L","3","","","101","main_expt"
"278","","bandit","180","476183","0.0-141.0-0.0","62809177","wem/bandit_either","A1A3TGZ7DKJWRW","either","5","","","","","","","0","0","1","","0.1054267613","0.4","0.8","0.6","0.2","0.1052753188","0.2139972863","0.3412191773","0.1054267613","","","","","","","","","","","76","L","3","","","102","main_expt"
"148","","bandit","181","477858","0.0-142.0-0.0","62809177","wem/bandit_either","A1A3TGZ7DKJWRW","either","5","","","","","","","0","1","0","","0.1120981937","0.4","0.8","0.6","0.2","0.1248526142","0.20092706","0.3133100433","0.1120981937","","","","","","","","","","","76","L","3","","","103","main_expt"
"94","","bandit","182","479536","0.0-143.0-0.0","62809177","wem/bandit_either","A1A3TGZ7DKJWRW","either","5","","","","","","","0","0","1","","0.1034740879","0.4","0.8","0.6","0.2","0.142969925","0.2305366804","0.3219148419","0.1034740879","","","","","","","","","","","76","L","3","","","104","main_expt"
"524","","bandit","183","481593","0.0-144.0-0.0","62809177","wem/bandit_either","A1A3TGZ7DKJWRW","either","5","","","","","","","0","0","1","","0.07597240327","0.4","0.8","0.6","0.2","0.13947254","0.2102135581","0.3300892518","0.07597240327","","","","","","","","","","","76","L","3","","","105","main_expt"
"1137","","bandit","184","484246","0.0-145.0-0.0","62809177","wem/bandit_either","A1A3TGZ7DKJWRW","either","5","","","","","","","0","1","0","","0.1124257427","0.4","0.8","0.6","0.2","0.1329526997","0.2219457329","0.3401839058","0.1124257427","","","","","","","","","","","76","L","3","","","106","main_expt"
"611","","bandit","185","486375","0.0-146.0-0.0","62809177","wem/bandit_either","A1A3TGZ7DKJWRW","either","5","","","","","","","0","0","1","","0.1133168519","0.4","0.8","0.6","0.2","0.1727290233","0.3048423019","0.3784706915","0.1133168519","","","","","","","","","","","76","L","3","","","107","main_expt"
"328","","bandit","186","488224","0.0-147.0-0.0","62809177","wem/bandit_either","A1A3TGZ7DKJWRW","either","5","","","","","","","0","0","1","","0.3945753887","0.4","0.8","0.6","0.2","0.1864487031","0.258150515","0.3945753887","0.1752395656","","","","","","","","","","","75","K","2","","","108","main_expt"
"269","","bandit","187","490024","0.0-148.0-0.0","62809177","wem/bandit_either","A1A3TGZ7DKJWRW","either","5","","","","","","","0","0","1","0.356827327","","0.4","0.8","0.6","0.2","","","","","0.2463216238","0.1859129148","0.356827327","0.1862973424","","","","","","","75","K","2","","","109","main_expt"
"323","","bandit","188","491888","0.0-149.0-0.0","62809177","wem/bandit_either","A1A3TGZ7DKJWRW","either","5","","","","","","","0","0","1","0.2344179837","","0.4","0.8","0.6","0.2","","","","","0.2431522628","0.1371624404","0.2344179837","0.2015845776","","","","","","","75","K","2","","","110","main_expt"
"570","","bandit","189","493982","0.0-150.0-0.0","62809177","wem/bandit_either","A1A3TGZ7DKJWRW","either","5","","","","","","","0","0","1","","0.2644823096","0.4","0.8","0.6","0.2","0.1757476643","0.1258232978","0.2644823096","0.2003651753","","","","","","","","","","","75","K","2","","","111","main_expt"
"311","","bandit","190","495824","0.0-151.0-0.0","62809177","wem/bandit_either","A1A3TGZ7DKJWRW","either","5","","","","","","","0","0","1","0.1529967373","","0.4","0.8","0.6","0.2","","","","","0.2451518953","0.1529967373","0.28311182","0.21392293","","","","","","","74","J","1","","","112","main_expt"
"378","","bandit","191","497721","0.0-152.0-0.0","62809177","wem/bandit_either","A1A3TGZ7DKJWRW","either","5","","","","","","","0","0","1","0.148248117","","0.4","0.8","0.6","0.2","","","","","0.2407836715","0.148248117","0.2413269532","0.1606798039","","","","","","","74","J","1","","","113","main_expt"
"333","","bandit","192","499577","0.0-153.0-0.0","62809177","wem/bandit_either","A1A3TGZ7DKJWRW","either","5","","","","","","","0","0","1","0.1562208239","","0.4","0.8","0.6","0.2","","","","","0.3099317417","0.1562208239","0.3100969134","0.2095980235","","","","","","","74","J","1","","","114","main_expt"
"296","","bandit","193","501402","0.0-154.0-0.0","62809177","wem/bandit_either","A1A3TGZ7DKJWRW","either","5","","","","","","","0","0","1","","0.2138032898","0.4","0.8","0.6","0.2","0.3180754701","0.2138032898","0.329842252","0.2550279667","","","","","","","","","","","74","J","1","","","115","main_expt"
"272","","bandit","194","503191","0.0-155.0-0.0","62809177","wem/bandit_either","A1A3TGZ7DKJWRW","either","5","","","","","","","1","0","0","0.2331260325","","0.4","0.8","0.6","0.2","","","","","0.2919742107","0.2331260325","0.3223706096","0.2471764387","","","","","","","74","J","1","","","116","main_expt"
"160","","bandit","195","504886","0.0-156.0-0.0","62809177","wem/bandit_either","A1A3TGZ7DKJWRW","either","5","","","","","","","0","0","1","0.1826309729","","0.4","0.8","0.6","0.2","","","","","0.2799774295","0.1826309729","0.3098408215","0.2730878341","","","","","","","74","J","1","","","117","main_expt"
"108","","bandit","196","506513","0.0-157.0-0.0","62809177","wem/bandit_either","A1A3TGZ7DKJWRW","either","5","","","","","","","0","0","1","0.2646714695","","0.4","0.8","0.6","0.2","","","","","0.2646714695","0.1511269107","0.2974554567","0.2071462199","","","","","","","72","H","0","img/none_selected.jpg","","118","main_expt"
"99","","bandit","197","508120","0.0-158.0-0.0","62809177","wem/bandit_either","A1A3TGZ7DKJWRW","either","5","","","","","","","0","1","0","","0.3179839519","0.4","0.8","0.6","0.2","0.3179839519","0.1559979654","0.3598468986","0.2275232499","","","","","","","","","","","72","H","0","img/none_selected.jpg","","119","main_expt"
"186","","bandit","198","509818","0.0-159.0-0.0","62809177","wem/bandit_either","A1A3TGZ7DKJWRW","either","5","","","","","","","0","1","0","","0.3302262658","0.4","0.8","0.6","0.2","0.3302262658","0.1463004055","0.2984373086","0.2767559596","","","","","","","","","","","72","H","0","img/none_selected.jpg","","120","main_expt"
"185","","bandit","199","511530","0.0-160.0-0.0","62809177","wem/bandit_either","A1A3TGZ7DKJWRW","either","5","","","","","","","0","0","1","","0.3500549905","0.4","0.8","0.6","0.2","0.3500549905","0.1418195479","0.2973090059","0.3448590315","","","","","","","","","","","72","H","0","img/none_selected.jpg","","121","main_expt"
"125","","bandit","200","513198","0.0-161.0-0.0","62809177","wem/bandit_either","A1A3TGZ7DKJWRW","either","5","","","","","","","1","0","0","0.2686616284","","0.4","0.8","0.6","0.2","","","","","0.2686616284","0.1270782113","0.3382791822","0.3593301016","","","","","","","72","H","0","img/none_selected.jpg","","122","main_expt"
"274","","bandit","201","515000","0.0-162.0-0.0","62809177","wem/bandit_either","A1A3TGZ7DKJWRW","either","5","","","","","","","0","0","1","","0.2277230314","0.4","0.8","0.6","0.2","0.2277230314","0.1207154071","0.3154347028","0.3680529171","","","","","","","","","","","72","H","0","img/none_selected.jpg","","123","main_expt"
"51","","bandit","202","516572","0.0-163.0-0.0","62809177","wem/bandit_either","A1A3TGZ7DKJWRW","either","5","","","","","","","0","0","1","","0.3287090939","0.4","0.8","0.6","0.2","0.3287090939","0.1229329119","0.2966737815","0.3476523483","","","","","","","","","","","72","H","0","img/none_selected.jpg","","124","main_expt"
"519","","bandit","203","518621","0.0-164.0-0.0","62809177","wem/bandit_either","A1A3TGZ7DKJWRW","either","5","","","","","","","0","1","0","","0.3687339586","0.4","0.8","0.6","0.2","0.3687339586","0.09241122996","0.3094831126","0.3564603465","","","","","","","","","","","72","H","0","img/none_selected.jpg","","125","main_expt"
"70","","bandit","204","520220","0.0-165.0-0.0","62809177","wem/bandit_either","A1A3TGZ7DKJWRW","either","5","","","","","","","0","0","1","0.3836195774","","0.4","0.8","0.6","0.2","","","","","0.3836195774","0.08418962236","0.2488993205","0.3550684458","","","","","","","72","H","0","img/none_selected.jpg","","126","main_expt"
"491","","bandit","205","522251","0.0-166.0-0.0","62809177","wem/bandit_either","A1A3TGZ7DKJWRW","either","5","","","","","","","1","0","0","0.3617365958","","0.4","0.8","0.6","0.2","","","","","0.3617365958","0.154715772","0.1953487027","0.3235559827","","","","","","","72","H","0","img/none_selected.jpg","","127","main_expt"
"225","","bandit","206","524014","0.0-167.0-0.0","62809177","wem/bandit_either","A1A3TGZ7DKJWRW","either","5","","","","","","","0","0","1","","0.3235283493","0.4","0.8","0.6","0.2","0.3235283493","0.1556709078","0.2171889907","0.312087491","","","","","","","","","","","72","H","0","img/none_selected.jpg","","128","main_expt"
"315","","bandit","207","525851","0.0-168.0-0.0","62809177","wem/bandit_either","A1A3TGZ7DKJWRW","either","5","","","","","","","0","1","0","","0.3453830546","0.4","0.8","0.6","0.2","0.3453830546","0.1214200615","0.2467699801","0.2843272188","","","","","","","","","","","72","H","0","img/none_selected.jpg","","129","main_expt"
"228","","bandit","208","527597","0.0-169.0-0.0","62809177","wem/bandit_either","A1A3TGZ7DKJWRW","either","5","","","","","","","0","1","0","","0.3242747857","0.4","0.8","0.6","0.2","0.3242747857","0.1377283829","0.2814443482","0.2128416856","","","","","","","","","","","72","H","0","img/none_selected.jpg","","130","main_expt"
"298","","bandit","209","529420","0.0-170.0-0.0","62809177","wem/bandit_either","A1A3TGZ7DKJWRW","either","5","","","","","","","1","0","0","0.3417201858","","0.4","0.8","0.6","0.2","","","","","0.3417201858","0.1397421628","0.2834176508","0.2403879813","","","","","","","72","H","0","img/none_selected.jpg","","131","main_expt"
"230","","bandit","210","531181","0.0-171.0-0.0","62809177","wem/bandit_either","A1A3TGZ7DKJWRW","either","5","","","","","","","0","0","1","0.3498614837","","0.4","0.8","0.6","0.2","","","","","0.3498614837","0.1061875113","0.2429908031","0.2811421594","","","","","","","72","H","0","img/none_selected.jpg","","132","main_expt"
"193","","bandit","211","532907","0.0-172.0-0.0","62809177","wem/bandit_either","A1A3TGZ7DKJWRW","either","5","","","","","","","0","0","1","","0.3134828643","0.4","0.8","0.6","0.2","0.3134828643","0.07774811701","0.3053559495","0.3002858371","","","","","","","","","","","72","H","0","img/none_selected.jpg","","133","main_expt"
"341","","bandit","212","534767","0.0-173.0-0.0","62809177","wem/bandit_either","A1A3TGZ7DKJWRW","either","5","","","","","","","0","0","1","","0.3554593188","0.4","0.8","0.6","0.2","0.3554593188","0.08211281178","0.2693478067","0.277406375","","","","","","","","","","","72","H","0","img/none_selected.jpg","","134","main_expt"
"134","","bandit","213","536416","0.0-174.0-0.0","62809177","wem/bandit_either","A1A3TGZ7DKJWRW","either","5","","","","","","","0","0","1","","0.3150900126","0.4","0.8","0.6","0.2","0.3150900126","0.1123817552","0.3369166079","0.2897147582","","","","","","","","","","","72","H","0","img/none_selected.jpg","","135","main_expt"
"144","","bandit","214","538078","0.0-175.0-0.0","62809177","wem/bandit_either","A1A3TGZ7DKJWRW","either","5","","","","","","","0","0","1","","0.3199395785","0.4","0.8","0.6","0.2","0.3199395785","0.1478339482","0.268603144","0.3590576628","","","","","","","","","","","72","H","0","img/none_selected.jpg","","136","main_expt"
"156","","bandit","215","539764","0.0-176.0-0.0","62809177","wem/bandit_either","A1A3TGZ7DKJWRW","either","5","","","","","","","0","1","0","","0.33362357","0.4","0.8","0.6","0.2","0.33362357","0.1374936615","0.2373427956","0.3822427384","","","","","","","","","","","72","H","0","img/none_selected.jpg","","137","main_expt"
"172","","bandit","216","541477","0.0-177.0-0.0","62809177","wem/bandit_either","A1A3TGZ7DKJWRW","either","5","","","","","","","0","0","1","0.3611324022","","0.4","0.8","0.6","0.2","","","","","0.3611324022","0.159761955","0.2206869265","0.3410071165","","","","","","","72","H","0","img/none_selected.jpg","","138","main_expt"
"231","","bandit","217","543227","0.0-178.0-0.0","62809177","wem/bandit_either","A1A3TGZ7DKJWRW","either","5","","","","","","","0","0","1","0.1363721132","","0.4","0.8","0.6","0.2","","","","","0.3504145086","0.1363721132","0.2177966349","0.3738014659","","","","","","","74","J","1","","","139","main_expt"
"410","","bandit","218","545158","0.0-179.0-0.0","62809177","wem/bandit_either","A1A3TGZ7DKJWRW","either","5","","","","","","","0","0","1","","0.1031445192","0.4","0.8","0.6","0.2","0.309774603","0.1031445192","0.2387685432","0.422575493","","","","","","","","","","","74","J","1","","","140","main_expt"
"292","","bandit","219","546977","0.0-180.0-0.0","62809177","wem/bandit_either","A1A3TGZ7DKJWRW","either","5","","","","","","","0","0","1","0.09805286369","","0.4","0.8","0.6","0.2","","","","","0.3506531288","0.09805286369","0.2575087366","0.4439129864","","","","","","","74","J","1","","","141","main_expt"
"477","","bandit","220","548973","0.0-181.0-0.0","62809177","wem/bandit_either","A1A3TGZ7DKJWRW","either","5","","","","","","","0","0","1","0.2392038972","","0.4","0.8","0.6","0.2","","","","","0.2965027242","0.1149002948","0.2392038972","0.4323802182","","","","","","","75","K","2","","","142","main_expt"
"935","","bandit","221","551433","0.0-182.0-0.0","62809177","wem/bandit_either","A1A3TGZ7DKJWRW","either","5","","","","","","","0","0","1","","0.1209542099","0.4","0.8","0.6","0.2","0.2087517366","0.1209542099","0.2216470548","0.4358412593","","","","","","","","","","","74","J","1","","","143","main_expt"
"905","","bandit","222","553877","0.0-183.0-0.0","62809177","wem/bandit_either","A1A3TGZ7DKJWRW","either","5","","","","","","","1","0","0","0.1202521083","","0.4","0.8","0.6","0.2","","","","","0.2313605626","0.1202521083","0.2224896139","0.4407373256","","","","","","","74","J","1","","","144","main_expt"
"450","","bandit","223","555851","0.0-184.0-0.0","62809177","wem/bandit_either","A1A3TGZ7DKJWRW","either","5","","","","","","","1","0","0","0.1619743669","","0.4","0.8","0.6","0.2","","","","","0.1785565547","0.1619743669","0.1925605464","0.4661091035","","","","","","","74","J","1","","","145","main_expt"
"168","","bandit","224","557527","0.0-185.0-0.0","62809177","wem/bandit_either","A1A3TGZ7DKJWRW","either","5","","","","","","","0","0","1","0.2069800611","","0.4","0.8","0.6","0.2","","","","","0.1770660648","0.1664631043","0.2069800611","0.4637097668","","","","","","","75","K","2","","","146","main_expt"
"633","","bandit","225","559672","0.0-186.0-0.0","62809177","wem/bandit_either","A1A3TGZ7DKJWRW","either","5","","","","","","","0","0","1","0.1669241763","","0.4","0.8","0.6","0.2","","","","","0.1063371611","0.1669241763","0.2489662189","0.4700491642","","","","","","","74","J","1","","","147","main_expt"
"1090","","bandit","226","562287","0.0-187.0-0.0","62809177","wem/bandit_either","A1A3TGZ7DKJWRW","either","5","","","","","","","0","0","1","0.1581456949","","0.4","0.8","0.6","0.2","","","","","0.1216370817","0.1581456949","0.1946464158","0.4648109734","","","","","","","74","J","1","","","148","main_expt"
"1589","","bandit","227","565410","0.0-188.0-0.0","62809177","wem/bandit_either","A1A3TGZ7DKJWRW","either","5","","","","","","","0","0","1","0.1826562491","","0.4","0.8","0.6","0.2","","","","","0.1024256959","0.1698392466","0.1826562491","0.4635511513","","","","","","","75","K","2","","","149","main_expt"
"1090","","bandit","228","568016","0.0-189.0-0.0","62809177","wem/bandit_either","A1A3TGZ7DKJWRW","either","5","","","","","","","0","0","1","","0.1750473563","0.4","0.8","0.6","0.2","0.1371094633","0.2140114634","0.1750473563","0.4445017148","","","","","","","","","","","75","K","2","","","150","main_expt"
"382","","bandit","229","569907","0.0-190.0-0.0","62809177","wem/bandit_either","A1A3TGZ7DKJWRW","either","5","","","","","","","0","0","1","","0.4434799742","0.4","0.8","0.6","0.2","0.1702433702","0.2392960001","0.1109536645","0.4434799742","","","","","","","","","","","76","L","3","","","151","main_expt"
"412","","bandit","230","571841","0.0-191.0-0.0","62809177","wem/bandit_either","A1A3TGZ7DKJWRW","either","5","","","","","","","0","0","1","0.2095863317","","0.4","0.8","0.6","0.2","","","","","0.1860489046","0.2095863317","0.1143086707","0.4451665291","","","","","","","74","J","1","","","152","main_expt"
"278","","bandit","231","573652","0.0-192.0-0.0","62809177","wem/bandit_either","A1A3TGZ7DKJWRW","either","5","","","","","","","0","1","0","","0.2117094388","0.4","0.8","0.6","0.2","0.2117094388","0.2543258611","0.1236290712","0.4401532833","","","","","","","","","","","72","H","0","img/none_selected.jpg","","153","main_expt"
"214","","bandit","232","575391","0.0-193.0-0.0","62809177","wem/bandit_either","A1A3TGZ7DKJWRW","either","5","","","","","","","0","0","1","0.2602259906","","0.4","0.8","0.6","0.2","","","","","0.2072389033","0.2602259906","0.1600695342","0.4516855879","","","","","","","74","J","1","","","154","main_expt"
"324","","bandit","233","577233","0.0-194.0-0.0","62809177","wem/bandit_either","A1A3TGZ7DKJWRW","either","5","","","","","","","1","0","0","0.2750581274","","0.4","0.8","0.6","0.2","","","","","0.1986333914","0.2750581274","0.1770288166","0.4480264808","","","","","","","74","J","1","","","155","main_expt"
"135","","bandit","234","578892","0.0-195.0-0.0","62809177","wem/bandit_either","A1A3TGZ7DKJWRW","either","5","","","","","","","0","0","1","0.2438045727","","0.4","0.8","0.6","0.2","","","","","0.2054640346","0.2438045727","0.1761817894","0.4260414265","","","","","","","74","J","1","","","156","main_expt"
"53","","bandit","235","580466","0.0-196.0-0.0","62809177","wem/bandit_either","A1A3TGZ7DKJWRW","either","5","","","","","","","1","0","0","0.2857025143","","0.4","0.8","0.6","0.2","","","","","0.1810715383","0.2857025143","0.1998830888","0.4365201507","","","","","","","74","J","1","","","157","main_expt"
"1039","","bandit","236","583031","0.0-197.0-0.0","62809177","wem/bandit_either","A1A3TGZ7DKJWRW","either","5","","","","","","","0","0","1","0.2887719476","","0.4","0.8","0.6","0.2","","","","","0.2118906364","0.2887719476","0.2150354531","0.4076244479","","","","","","","74","J","1","","","158","main_expt"
"340","","bandit","237","584900","0.0-198.0-0.0","62809177","wem/bandit_either","A1A3TGZ7DKJWRW","either","5","","","","","","","0","0","1","0.2859462397","","0.4","0.8","0.6","0.2","","","","","0.2293976715","0.2859462397","0.2221069796","0.403953851","","","","","","","74","J","1","","","159","main_expt"
"296","","bandit","238","586734","0.0-199.0-0.0","62809177","wem/bandit_either","A1A3TGZ7DKJWRW","either","5","","","","","","","0","0","1","0.2186051381","","0.4","0.8","0.6","0.2","","","","","0.2186051381","0.207432816","0.2627335039","0.4282135537","","","","","","","72","H","0","img/none_selected.jpg","","160","main_expt"
"1514","","bandit","239","589770","0.0-200.0-0.0","62809177","wem/bandit_either","A1A3TGZ7DKJWRW","either","5","","","","","","","0","0","1","","0.2175927206","0.4","0.8","0.6","0.2","0.2175927206","0.1611694724","0.2922457848","0.4479073124","","","","","","","","","","","72","H","0","img/none_selected.jpg","","161","main_expt"
"176","","bandit","240","591469","0.0-201.0-0.0","62809177","wem/bandit_either","A1A3TGZ7DKJWRW","either","5","","","","","","","0","0","1","0.2370404117","","0.4","0.8","0.6","0.2","","","","","0.2370404117","0.14378348","0.3040212123","0.4456201243","","","","","","","72","H","0","img/none_selected.jpg","","162","main_expt"
"596","","bandit","241","593582","0.0-202.0-0.0","62809177","wem/bandit_either","A1A3TGZ7DKJWRW","either","5","","","","","","","0","0","1","","0.2778780432","0.4","0.8","0.6","0.2","0.2778780432","0.1707099899","0.2933359027","0.4384930657","","","","","","","","","","","72","H","0","img/none_selected.jpg","","163","main_expt"
"587","","bandit","242","595702","0.0-203.0-0.0","62809177","wem/bandit_either","A1A3TGZ7DKJWRW","either","5","","","","","","","0","0","1","0.2388203062","","0.4","0.8","0.6","0.2","","","","","0.2643388611","0.1933693166","0.2388203062","0.4231568034","","","","","","","75","K","2","","","164","main_expt"
"494","","bandit","243","597726","0.0-204.0-0.0","62809177","wem/bandit_either","A1A3TGZ7DKJWRW","either","5","","","","","","","1","0","0","0.2646204916","","0.4","0.8","0.6","0.2","","","","","0.1967204453","0.2406324952","0.2646204916","0.4412535734","","","","","","","75","K","2","","","165","main_expt"
"333","","bandit","244","599577","0.0-205.0-0.0","62809177","wem/bandit_either","A1A3TGZ7DKJWRW","either","5","","","","","","","0","0","1","","0.2591758032","0.4","0.8","0.6","0.2","0.1567937345","0.2650462377","0.2591758032","0.438364003","","","","","","","","","","","75","K","2","","","166","main_expt"
"156","","bandit","245","601257","0.0-206.0-0.0","62809177","wem/bandit_either","A1A3TGZ7DKJWRW","either","5","","","","","","","1","0","0","0.1955934818","","0.4","0.8","0.6","0.2","","","","","0.1201482918","0.245875583","0.1955934818","0.4290991351","","","","","","","75","K","2","","","167","main_expt"
"379","","bandit","246","603177","0.0-207.0-0.0","62809177","wem/bandit_either","A1A3TGZ7DKJWRW","either","5","","","","","","","0","0","1","","0.2090603634","0.4","0.8","0.6","0.2","0.0936051119","0.257303599","0.2090603634","0.4510860662","","","","","","","","","","","75","K","2","","","168","main_expt"
"332","","bandit","247","605054","0.0-208.0-0.0","62809177","wem/bandit_either","A1A3TGZ7DKJWRW","either","5","","","","","","","0","0","1","0.2678479696","","0.4","0.8","0.6","0.2","","","","","0.08775096918","0.2993732043","0.2678479696","0.4491424364","","","","","","","75","K","2","","","169","main_expt"
"715","","bandit","248","607289","0.0-209.0-0.0","62809177","wem/bandit_either","A1A3TGZ7DKJWRW","either","5","","","","","","","0","0","1","","0.2532125956","0.4","0.8","0.6","0.2","0.06743429675","0.3388977639","0.2532125956","0.4332244901","","","","","","","","","","","75","K","2","","","170","main_expt"
"1101","","bandit","249","609906","0.0-210.0-0.0","62809177","wem/bandit_either","A1A3TGZ7DKJWRW","either","5","","","","","","","0","0","1","0.2568627054","","0.4","0.8","0.6","0.2","","","","","0.05979118822","0.2947926635","0.2568627054","0.4405036994","","","","","","","75","K","2","","","171","main_expt"
"387","","bandit","250","611819","0.0-211.0-0.0","62809177","wem/bandit_either","A1A3TGZ7DKJWRW","either","5","","","","","","","0","1","0","","0.2451563353","0.4","0.8","0.6","0.2","0.03200499914","0.2892529657","0.2451563353","0.4358521759","","","","","","","","","","","75","K","2","","","172","main_expt"
"396","","bandit","251","613757","0.0-212.0-0.0","62809177","wem/bandit_either","A1A3TGZ7DKJWRW","either","5","","","","","","","0","0","1","","0.3003395367","0.4","0.8","0.6","0.2","0.04613358223","0.2571917514","0.3003395367","0.4471617722","","","","","","","","","","","75","K","2","","","173","main_expt"
"1021","","bandit","252","616310","0.0-213.0-0.0","62809177","wem/bandit_either","A1A3TGZ7DKJWRW","either","5","","","","","","","0","0","1","","0.2545998681","0.4","0.8","0.6","0.2","0.05969677181","0.244173221","0.2545998681","0.4560251174","","","","","","","","","","","75","K","2","","","174","main_expt"
"937","","bandit","253","618771","0.0-214.0-0.0","62809177","wem/bandit_either","A1A3TGZ7DKJWRW","either","5","","","","","","","1","0","0","0.3383135611","","0.4","0.8","0.6","0.2","","","","","0.05930066603","0.2038098688","0.3383135611","0.4379349024","","","","","","","75","K","2","","","175","main_expt"
"356","","bandit","254","620642","0.0-215.0-0.0","62809177","wem/bandit_either","A1A3TGZ7DKJWRW","either","5","","","","","","","0","0","1","","0.3880627729","0.4","0.8","0.6","0.2","0.08110879181","0.2053823003","0.3880627729","0.4328841116","","","","","","","","","","","75","K","2","","","176","main_expt"
"179","","bandit","255","622346","0.0-216.0-0.0","62809177","wem/bandit_either","A1A3TGZ7DKJWRW","either","5","","","","","","","1","0","0","0.3920994557","","0.4","0.8","0.6","0.2","","","","","0.07611568943","0.2193083282","0.3920994557","0.3965365967","","","","","","","75","K","2","","","177","main_expt"
"418","","bandit","256","624299","0.0-217.0-0.0","62809177","wem/bandit_either","A1A3TGZ7DKJWRW","either","5","","","","","","","0","0","1","0.3882277994","","0.4","0.8","0.6","0.2","","","","","0.1220467165","0.1904263594","0.3882277994","0.3899234309","","","","","","","75","K","2","","","178","main_expt"
"371","","bandit","257","626194","0.0-218.0-0.0","62809177","wem/bandit_either","A1A3TGZ7DKJWRW","either","5","","","","","","","1","0","0","0.3939691408","","0.4","0.8","0.6","0.2","","","","","0.1698853315","0.2212788648","0.3939691408","0.4238443777","","","","","","","75","K","2","","","179","main_expt"
"342","","bandit","258","628060","0.0-219.0-0.0","62809177","wem/bandit_either","A1A3TGZ7DKJWRW","either","5","","","","","","","0","0","1","0.4074656662","","0.4","0.8","0.6","0.2","","","","","0.1374762061","0.2640717145","0.4074656662","0.4487400994","","","","","","","75","K","2","","","180","main_expt"
"292","","bandit","259","629874","0.0-220.0-0.0","62809177","wem/bandit_either","A1A3TGZ7DKJWRW","either","5","","","","","","","0","0","1","0.3724421945","","0.4","0.8","0.6","0.2","","","","","0.09961924189","0.2426483564","0.3724421945","0.4314573438","","","","","","","75","K","2","","","181","main_expt"
"404","","bandit","260","631847","0.0-221.0-0.0","62809177","wem/bandit_either","A1A3TGZ7DKJWRW","either","5","","","","","","","0","0","1","0.2998177931","","0.4","0.8","0.6","0.2","","","","","0.1391043194","0.2001563476","0.2998177931","0.4458059303","","","","","","","75","K","2","","","182","main_expt"
"888","","bandit","261","634254","0.0-222.0-0.0","62809177","wem/bandit_either","A1A3TGZ7DKJWRW","either","5","","","","","","","0","0","1","0.3629728763","","0.4","0.8","0.6","0.2","","","","","0.1336424596","0.2167094124","0.3629728763","0.4485460149","","","","","","","75","K","2","","","183","main_expt"
"363","","bandit","262","636153","0.0-223.0-0.0","62809177","wem/bandit_either","A1A3TGZ7DKJWRW","either","5","","","","","","","0","0","1","","0.3763603645","0.4","0.8","0.6","0.2","0.115911235","0.2402813617","0.3763603645","0.4078350507","","","","","","","","","","","75","K","2","","","184","main_expt"
"544","","bandit","263","638223","0.0-224.0-0.0","62809177","wem/bandit_either","A1A3TGZ7DKJWRW","either","5","","","","","","","0","1","0","","0.3805788675","0.4","0.8","0.6","0.2","0.1394203739","0.2745112141","0.3472982705","0.3805788675","","","","","","","","","","","76","L","3","","","185","main_expt"
"338","","bandit","264","640074","0.0-225.0-0.0","62809177","wem/bandit_either","A1A3TGZ7DKJWRW","either","5","","","","","","","0","1","0","","0.4236809331","0.4","0.8","0.6","0.2","0.1557479742","0.2774566956","0.3095995051","0.4236809331","","","","","","","","","","","76","L","3","","","186","main_expt"
"344","","bandit","265","641933","0.0-226.0-0.0","62809177","wem/bandit_either","A1A3TGZ7DKJWRW","either","5","","","","","","","0","0","1","","0.4058627081","0.4","0.8","0.6","0.2","0.1823611596","0.2876011691","0.2567332284","0.4058627081","","","","","","","","","","","76","L","3","","","187","main_expt"
"631","","bandit","266","644094","0.0-227.0-0.0","62809177","wem/bandit_either","A1A3TGZ7DKJWRW","either","5","","","","","","","0","0","1","","0.3913346521","0.4","0.8","0.6","0.2","0.1854179297","0.2947112378","0.2555256861","0.3913346521","","","","","","","","","","","76","L","3","","","188","main_expt"
"1421","","bandit","267","647048","0.0-228.0-0.0","62809177","wem/bandit_either","A1A3TGZ7DKJWRW","either","5","","","","","","","0","0","1","0.3760164219","","0.4","0.8","0.6","0.2","","","","","0.1875645599","0.2581494","0.2009875262","0.3760164219","","","","","","","76","L","3","","","189","main_expt"
"435","","bandit","268","649006","0.0-229.0-0.0","62809177","wem/bandit_either","A1A3TGZ7DKJWRW","either","5","","","","","","","1","0","0","0.3327352817","","0.4","0.8","0.6","0.2","","","","","0.2018323604","0.1756323468","0.2055488595","0.3327352817","","","","","","","76","L","3","","","190","main_expt"
"309","","bandit","269","650847","0.0-230.0-0.0","62809177","wem/bandit_either","A1A3TGZ7DKJWRW","either","5","","","","","","","0","1","0","","0.3015177445","0.4","0.8","0.6","0.2","0.221094727","0.2521570866","0.1506387864","0.3015177445","","","","","","","","","","","76","L","3","","","191","main_expt"
"263","","bandit","270","652690","0.0-231.0-0.0","62809177","wem/bandit_either","A1A3TGZ7DKJWRW","either","5","","","","","","","0","1","0","","0.2773298268","0.4","0.8","0.6","0.2","0.2320570195","0.2964739449","0.2027442266","0.2773298268","","","","","","","","","","","76","L","3","","","192","main_expt"
"451","","bandit","271","654665","0.0-232.0-0.0","62809177","wem/bandit_either","A1A3TGZ7DKJWRW","either","5","","","","","","","0","0","1","0.2836613797","","0.4","0.8","0.6","0.2","","","","","0.2948950962","0.2612966838","0.1969137872","0.2836613797","","","","","","","76","L","3","","","193","main_expt"
"575","","bandit","272","656771","0.0-233.0-0.0","62809177","wem/bandit_either","A1A3TGZ7DKJWRW","either","5","","","","","","","1","0","0","0.2799350415","","0.4","0.8","0.6","0.2","","","","","0.2602906927","0.3292914436","0.2114994946","0.2799350415","","","","","","","76","L","3","","","194","main_expt"
"657","","bandit","273","658950","0.0-234.0-0.0","62809177","wem/bandit_either","A1A3TGZ7DKJWRW","either","5","","","","","","","0","0","1","","0.2068597772","0.4","0.8","0.6","0.2","0.1771499101","0.4070308407","0.2467939011","0.2068597772","","","","","","","","","","","76","L","3","","","195","main_expt"
"748","","bandit","274","661224","0.0-235.0-0.0","62809177","wem/bandit_either","A1A3TGZ7DKJWRW","either","5","","","","","","","0","0","1","","0.2679469531","0.4","0.8","0.6","0.2","0.1746274925","0.3494820729","0.2731811988","0.2679469531","","","","","","","","","","","76","L","3","","","196","main_expt"
"410","","bandit","275","663177","0.0-236.0-0.0","62809177","wem/bandit_either","A1A3TGZ7DKJWRW","either","5","","","","","","","0","0","1","","0.2448078588","0.4","0.8","0.6","0.2","0.193224684","0.3571939809","0.2512114903","0.2448078588","","","","","","","","","","","76","L","3","","","197","main_expt"
"428","","bandit","276","665137","0.0-237.0-0.0","62809177","wem/bandit_either","A1A3TGZ7DKJWRW","either","5","","","","","","","0","0","1","","0.2433987968","0.4","0.8","0.6","0.2","0.1771509929","0.382430028","0.190651112","0.2433987968","","","","","","","","","","","76","L","3","","","198","main_expt"
"2087","","bandit","277","668748","0.0-238.0-0.0","62809177","wem/bandit_either","A1A3TGZ7DKJWRW","either","5","","","","","","","0","0","1","","0.2653624242","0.4","0.8","0.6","0.2","0.2466668772","0.3353474301","0.1701189695","0.2653624242","","","","","","","","","","","76","L","3","","","199","main_expt"
"1675","","bandit","278","671963","0.0-239.0-0.0","62809177","wem/bandit_either","A1A3TGZ7DKJWRW","either","5","","","","","","","1","0","0","0.2551376492","","0.4","0.8","0.6","0.2","","","","","0.2477816141","0.3321976498","0.1656975488","0.2551376492","","","","","","","76","L","3","","","200","main_expt"
"703","","bandit","279","674207","0.0-240.0-0.0","62809177","wem/bandit_either","A1A3TGZ7DKJWRW","either","5","","","","","","","0","0","1","","0.2660639347","0.4","0.8","0.6","0.2","0.2744817861","0.3218117355","0.1647298582","0.2660639347","","","","","","","","","","","76","L","3","","","201","main_expt"
"473","","bandit","280","676210","0.0-241.0-0.0","62809177","wem/bandit_either","A1A3TGZ7DKJWRW","either","5","","","","","","","0","1","0","","0.2220900594","0.4","0.8","0.6","0.2","0.3043062986","0.2949214693","0.1242041815","0.2220900594","","","","","","","","","","","76","L","3","","","202","main_expt"
"290","","bandit","281","678024","0.0-242.0-0.0","62809177","wem/bandit_either","A1A3TGZ7DKJWRW","either","5","","","","","","","0","0","1","","0.1543353204","0.4","0.8","0.6","0.2","0.272185569","0.300077299","0.1684487429","0.1543353204","","","","","","","","","","","76","L","3","","","203","main_expt"
"304","","bandit","282","679852","0.0-243.0-0.0","62809177","wem/bandit_either","A1A3TGZ7DKJWRW","either","5","","","","","","","0","0","1","","0.1605482003","0.4","0.8","0.6","0.2","0.2610767704","0.2866085977","0.1666409686","0.1605482003","","","","","","","","","","","76","L","3","","","204","main_expt"
"212","","bandit","283","681592","0.0-244.0-0.0","62809177","wem/bandit_either","A1A3TGZ7DKJWRW","either","5","","","","","","","0","0","1","","0.1406914754","0.4","0.8","0.6","0.2","0.2832615928","0.2695546272","0.2197286508","0.1406914754","","","","","","","","","","","76","L","3","","","205","main_expt"
"136","","bandit","284","683257","0.0-245.0-0.0","62809177","wem/bandit_either","A1A3TGZ7DKJWRW","either","5","","","","","","","0","0","1","0.1138947463","","0.4","0.8","0.6","0.2","","","","","0.300913322","0.2622178416","0.2754509052","0.1138947463","","","","","","","76","L","3","","","206","main_expt"
"320","","bandit","285","685120","0.0-246.0-0.0","62809177","wem/bandit_either","A1A3TGZ7DKJWRW","either","5","","","","","","","0","1","0","","0.1096702189","0.4","0.8","0.6","0.2","0.3260258847","0.2498186578","0.2664869377","0.1096702189","","","","","","","","","","","76","L","3","","","207","main_expt"
"319","","bandit","286","686970","0.0-247.0-0.0","62809177","wem/bandit_either","A1A3TGZ7DKJWRW","either","5","","","","","","","0","0","1","","0.09922356593","0.4","0.8","0.6","0.2","0.3173829003","0.2335358635","0.2686565688","0.09922356593","","","","","","","","","","","76","L","3","","","208","main_expt"
"1197","","bandit","287","689695","0.0-248.0-0.0","62809177","wem/bandit_either","A1A3TGZ7DKJWRW","either","5","","","","","","","0","0","1","0.101567507","","0.4","0.8","0.6","0.2","","","","","0.3153846937","0.2638942681","0.2380255957","0.101567507","","","","","","","76","L","3","","","209","main_expt"
"623","","bandit","288","691850","0.0-249.0-0.0","62809177","wem/bandit_either","A1A3TGZ7DKJWRW","either","5","","","","","","","0","0","1","","0.08675379402","0.4","0.8","0.6","0.2","0.3010876552","0.2526926237","0.2507768727","0.08675379402","","","","","","","","","","","76","L","3","","","210","main_expt"
"634","","bandit","289","694017","0.0-250.0-0.0","62809177","wem/bandit_either","A1A3TGZ7DKJWRW","either","5","","","","","","","0","0","1","0.2740367769","","0.4","0.8","0.6","0.2","","","","","0.2864900033","0.2740367769","0.2685142319","0.07512021269","","","","","","","74","J","1","","","211","main_expt"
"804","","bandit","290","696345","0.0-251.0-0.0","62809177","wem/bandit_either","A1A3TGZ7DKJWRW","either","5","","","","","","","0","0","1","0.2440836191","","0.4","0.8","0.6","0.2","","","","","0.3163372434","0.2440836191","0.260511483","0.08144254236","","","","","","","74","J","1","","","212","main_expt"
"1061","","bandit","291","698931","0.0-252.0-0.0","62809177","wem/bandit_either","A1A3TGZ7DKJWRW","either","5","","","","","","","0","0","1","0.2341903104","","0.4","0.8","0.6","0.2","","","","","0.2701305136","0.2341903104","0.2579605047","0.06585574052","","","","","","","74","J","1","","","213","main_expt"
"511","","bandit","292","700965","0.0-253.0-0.0","62809177","wem/bandit_either","A1A3TGZ7DKJWRW","either","5","","","","","","","0","0","1","","0.302599165","0.4","0.8","0.6","0.2","0.302599165","0.2097526345","0.2470456849","0.08686614453","","","","","","","","","","","72","H","0","img/none_selected.jpg","","214","main_expt"
"366","","bandit","293","702873","0.0-254.0-0.0","62809177","wem/bandit_either","A1A3TGZ7DKJWRW","either","5","","","","","","","0","0","1","0.2968005471","","0.4","0.8","0.6","0.2","","","","","0.2968005471","0.1796882487","0.3285383036","0.1068548489","","","","","","","72","H","0","img/none_selected.jpg","","215","main_expt"
"591","","bandit","294","705008","0.0-255.0-0.0","62809177","wem/bandit_either","A1A3TGZ7DKJWRW","either","5","","","","","","","0","0","1","0.2237900511","","0.4","0.8","0.6","0.2","","","","","0.2835536598","0.2237900511","0.3780044773","0.1211736082","","","","","","","74","J","1","","","216","main_expt"
"393","","bandit","295","706936","0.0-256.0-0.0","62809177","wem/bandit_either","A1A3TGZ7DKJWRW","either","5","","","","","","","1","0","0","0.2265358539","","0.4","0.8","0.6","0.2","","","","","0.2520762718","0.2265358539","0.3939228946","0.09343701815","","","","","","","74","J","1","","","217","main_expt"
"242","","bandit","296","708706","0.0-257.0-0.0","62809177","wem/bandit_either","A1A3TGZ7DKJWRW","either","5","","","","","","","0","0","1","","0.1001055386","0.4","0.8","0.6","0.2","0.2562699476","0.2364013437","0.3198270803","0.1001055386","","","","","","","","","","","76","L","3","","","218","main_expt"
"521","","bandit","297","710752","0.0-258.0-0.0","62809177","wem/bandit_either","A1A3TGZ7DKJWRW","either","5","","","","","","","0","0","1","","0.09524874014","0.4","0.8","0.6","0.2","0.3002431464","0.2810560361","0.3502502288","0.09524874014","","","","","","","","","","","76","L","3","","","219","main_expt"
"327","","bandit","298","712633","0.0-259.0-0.0","62809177","wem/bandit_either","A1A3TGZ7DKJWRW","either","5","","","","","","","0","1","0","","0.1304899995","0.4","0.8","0.6","0.2","0.3365413303","0.3027429446","0.3402456168","0.1304899995","","","","","","","","","","","76","L","3","","","220","main_expt"
"259","","bandit","299","714432","0.0-260.0-0.0","62809177","wem/bandit_either","A1A3TGZ7DKJWRW","either","5","","","","","","","0","0","1","","0.1272814923","0.4","0.8","0.6","0.2","0.2946103072","0.3132134988","0.3770059732","0.1272814923","","","","","","","","","","","76","L","3","","","221","main_expt"
"845","","bandit","300","716802","0.0-261.0-0.0","62809177","wem/bandit_either","A1A3TGZ7DKJWRW","either","5","","","","","","","0","0","1","0.1654407056","","0.4","0.8","0.6","0.2","","","","","0.3267284332","0.2424821827","0.3864421123","0.1654407056","","","","","","","76","L","3","","","222","main_expt"
"540","","bandit","301","718869","0.0-262.0-0.0","62809177","wem/bandit_either","A1A3TGZ7DKJWRW","either","5","","","","","","","0","1","0","","0.1788325852","0.4","0.8","0.6","0.2","0.3175152631","0.2595367495","0.4205211408","0.1788325852","","","","","","","","","","","76","L","3","","","223","main_expt"
"320","","bandit","302","720720","0.0-263.0-0.0","62809177","wem/bandit_either","A1A3TGZ7DKJWRW","either","5","","","","","","","0","0","1","","0.1736623033","0.4","0.8","0.6","0.2","0.3192400935","0.328819141","0.4131889957","0.1736623033","","","","","","","","","","","76","L","3","","","224","main_expt"
"605","","bandit","303","722867","0.0-264.0-0.0","62809177","wem/bandit_either","A1A3TGZ7DKJWRW","either","5","","","","","","","0","0","1","","0.1721911447","0.4","0.8","0.6","0.2","0.3096750449","0.356121412","0.4001513574","0.1721911447","","","","","","","","","","","76","L","3","","","225","main_expt"
"529","","bandit","304","724932","0.0-265.0-0.0","62809177","wem/bandit_either","A1A3TGZ7DKJWRW","either","5","","","","","","","0","0","1","","0.2133818582","0.4","0.8","0.6","0.2","0.3142833063","0.3394019192","0.3963688582","0.2133818582","","","","","","","","","","","76","L","3","","","226","main_expt"
"537","","bandit","305","726998","0.0-266.0-0.0","62809177","wem/bandit_either","A1A3TGZ7DKJWRW","either","5","","","","","","","0","0","1","","0.3979714495","0.4","0.8","0.6","0.2","0.3096885674","0.2860553004","0.3979714495","0.2620007467","","","","","","","","","","","75","K","2","","","227","main_expt"
"379","","bandit","306","728902","0.0-267.0-0.0","62809177","wem/bandit_either","A1A3TGZ7DKJWRW","either","5","","","","","","","0","0","1","0.3811043637","","0.4","0.8","0.6","0.2","","","","","0.3048295172","0.2967856672","0.3811043637","0.2961930455","","","","","","","75","K","2","","","228","main_expt"
"373","","bandit","307","730799","0.0-268.0-0.0","62809177","wem/bandit_either","A1A3TGZ7DKJWRW","either","5","","","","","","","0","0","1","","0.3488149186","0.4","0.8","0.6","0.2","0.2553920021","0.2857745529","0.3488149186","0.3081123415","","","","","","","","","","","75","K","2","","","229","main_expt"
"607","","bandit","308","732950","0.0-269.0-0.0","62809177","wem/bandit_either","A1A3TGZ7DKJWRW","either","5","","","","","","","0","0","1","0.2883621188","","0.4","0.8","0.6","0.2","","","","","0.2783794412","0.2589404948","0.2883621188","0.3027177586","","","","","","","75","K","2","","","230","main_expt"
"522","","bandit","309","735015","0.0-270.0-0.0","62809177","wem/bandit_either","A1A3TGZ7DKJWRW","either","5","","","","","","","0","0","1","0.2444465504","","0.4","0.8","0.6","0.2","","","","","0.2735536708","0.2628441024","0.2444465504","0.2495346478","","","","","","","75","K","2","","","231","main_expt"
"443","","bandit","310","736992","0.0-271.0-0.0","62809177","wem/bandit_either","A1A3TGZ7DKJWRW","either","5","","","","","","","0","0","1","","0.2185872191","0.4","0.8","0.6","0.2","0.2262440502","0.276537748","0.2996930955","0.2185872191","","","","","","","","","","","76","L","3","","","232","main_expt"
"310","","bandit","311","738832","0.0-272.0-0.0","62809177","wem/bandit_either","A1A3TGZ7DKJWRW","either","5","","","","","","","1","0","0","0.3103031796","","0.4","0.8","0.6","0.2","","","","","0.2171974885","0.2485723575","0.3103031796","0.1874863907","","","","","","","75","K","2","","","233","main_expt"
"541","","bandit","312","740898","0.0-273.0-0.0","62809177","wem/bandit_either","A1A3TGZ7DKJWRW","either","5","","","","","","","0","0","1","0.2971988612","","0.4","0.8","0.6","0.2","","","","","0.2951485073","0.2172766866","0.2971988612","0.2165838284","","","","","","","75","K","2","","","234","main_expt"
"272","","bandit","313","742709","0.0-274.0-0.0","62809177","wem/bandit_either","A1A3TGZ7DKJWRW","either","5","","","","","","","0","0","1","0.3266576642","","0.4","0.8","0.6","0.2","","","","","0.3135740045","0.221542824","0.3266576642","0.1791302586","","","","","","","75","K","2","","","235","main_expt"
"378","","bandit","314","744621","0.0-275.0-0.0","62809177","wem/bandit_either","A1A3TGZ7DKJWRW","either","5","","","","","","","1","0","0","0.3596878827","","0.4","0.8","0.6","0.2","","","","","0.2945285262","0.2200573756","0.3596878827","0.2463713802","","","","","","","75","K","2","","","236","main_expt"
"277","","bandit","315","746428","0.0-276.0-0.0","62809177","wem/bandit_either","A1A3TGZ7DKJWRW","either","5","","","","","","","0","0","1","0.3951370387","","0.4","0.8","0.6","0.2","","","","","0.2797454337","0.2146478317","0.3951370387","0.2204623923","","","","","","","75","K","2","","","237","main_expt"
"462","","bandit","316","748416","0.0-277.0-0.0","62809177","wem/bandit_either","A1A3TGZ7DKJWRW","either","5","","","","","","","0","0","1","0.3863552979","","0.4","0.8","0.6","0.2","","","","","0.266453507","0.2237656472","0.3863552979","0.2316256556","","","","","","","75","K","2","","","238","main_expt"
"565","","bandit","317","750511","0.0-278.0-0.0","62809177","wem/bandit_either","A1A3TGZ7DKJWRW","either","5","","","","","","","0","0","1","","0.3962704677","0.4","0.8","0.6","0.2","0.310831157","0.2302611888","0.3962704677","0.2406304147","","","","","","","","","","","75","K","2","","","239","main_expt"
"465","","bandit","318","752523","0.0-279.0-0.0","62809177","wem/bandit_either","A1A3TGZ7DKJWRW","either","5","","","","","","","1","0","0","0.3926977495","","0.4","0.8","0.6","0.2","","","","","0.331950591","0.2253069634","0.3926977495","0.2624476398","","","","","","","75","K","2","","","240","main_expt"
"536","","bandit","319","754583","0.0-280.0-0.0","62809177","wem/bandit_either","A1A3TGZ7DKJWRW","either","5","","","","","","","0","0","1","","0.3381110468","0.4","0.8","0.6","0.2","0.3223776605","0.2523404353","0.3381110468","0.2627099727","","","","","","","","","","","75","K","2","","","241","main_expt"
"201","","bandit","320","756309","0.0-281.0-0.0","62809177","wem/bandit_either","A1A3TGZ7DKJWRW","either","5","","","","","","","0","0","1","","0.3213381148","0.4","0.8","0.6","0.2","0.3389272588","0.238450381","0.3213381148","0.2262339403","","","","","","","","","","","75","K","2","","","242","main_expt"
"696","","bandit","321","758533","0.0-282.0-0.0","62809177","wem/bandit_either","A1A3TGZ7DKJWRW","either","5","","","","","","","0","0","1","0.3395415742","","0.4","0.8","0.6","0.2","","","","","0.4023830898","0.2476478509","0.3395415742","0.2511573395","","","","","","","75","K","2","","","243","main_expt"
"1227","","bandit","322","761289","0.0-283.0-0.0","62809177","wem/bandit_either","A1A3TGZ7DKJWRW","either","5","","","","","","","0","0","1","","0.3077285799","0.4","0.8","0.6","0.2","0.4072225753","0.2603762171","0.3077285799","0.3112309098","","","","","","","","","","","75","K","2","","","244","main_expt"
"619","","bandit","323","763421","0.0-284.0-0.0","62809177","wem/bandit_either","A1A3TGZ7DKJWRW","either","5","","","","","","","0","0","1","0.269997398","","0.4","0.8","0.6","0.2","","","","","0.4047901721","0.2778117757","0.269997398","0.3169667097","","","","","","","75","K","2","","","245","main_expt"
"520","","bandit","324","765470","0.0-285.0-0.0","62809177","wem/bandit_either","A1A3TGZ7DKJWRW","either","5","","","","","","","0","0","1","","0.3774934029","0.4","0.8","0.6","0.2","0.4245844383","0.2571702875","0.2896792764","0.3774934029","","","","","","","","","","","76","L","3","","","246","main_expt"
"247","","bandit","325","767244","0.0-286.0-0.0","62809177","wem/bandit_either","A1A3TGZ7DKJWRW","either","5","","","","","","","0","1","0","","0.3592590195","0.4","0.8","0.6","0.2","0.4425022826","0.2790325972","0.3079745892","0.3592590195","","","","","","","","","","","76","L","3","","","247","main_expt"
"332","","bandit","326","769105","0.0-287.0-0.0","62809177","wem/bandit_either","A1A3TGZ7DKJWRW","either","5","","","","","","","0","0","1","","0.3659800935","0.4","0.8","0.6","0.2","0.4454461089","0.2665328125","0.2306801962","0.3659800935","","","","","","","","","","","76","L","3","","","248","main_expt"
"431","","bandit","327","771173","0.0-288.0-0.0","62809177","wem/bandit_either","A1A3TGZ7DKJWRW","either","5","","","","","","","0","0","1","","0.3940863056","0.4","0.8","0.6","0.2","0.4565985803","0.2666328085","0.2363838343","0.3940863056","","","","","","","","","","","76","L","3","","","249","main_expt"
"492","","bandit","328","773208","0.0-289.0-0.0","62809177","wem/bandit_either","A1A3TGZ7DKJWRW","either","5","","","","","","","0","0","1","","0.3652193683","0.4","0.8","0.6","0.2","0.4666950096","0.2637425143","0.2865845142","0.3652193683","","","","","","","","","","","76","L","3","","","250","main_expt"
"463","","bandit","329","775224","0.0-290.0-0.0","62809177","wem/bandit_either","A1A3TGZ7DKJWRW","either","5","","","","","","","0","0","1","","0.3118516898","0.4","0.8","0.6","0.2","0.4491167865","0.3041279159","0.3527425442","0.3118516898","","","","","","","","","","","76","L","3","","","251","main_expt"
"1374","","bandit","330","778121","0.0-291.0-0.0","62809177","wem/bandit_either","A1A3TGZ7DKJWRW","either","5","","","","","","","0","1","0","","0.3291033061","0.4","0.8","0.6","0.2","0.4512042396","0.3054217384","0.3236638898","0.3291033061","","","","","","","","","","","76","L","3","","","252","main_expt"
"441","","bandit","331","780076","0.0-292.0-0.0","62809177","wem/bandit_either","A1A3TGZ7DKJWRW","either","5","","","","","","","0","0","1","0.35413613","","0.4","0.8","0.6","0.2","","","","","0.4572977034","0.3241125582","0.2905162115","0.35413613","","","","","","","76","L","3","","","253","main_expt"
"5639","","bandit","332","787242","0.0-293.0-0.0","62809177","wem/bandit_either","A1A3TGZ7DKJWRW","either","5","","","","","","","0","1","0","","0.2644422317","0.4","0.8","0.6","0.2","0.4550853681","0.3512447021","0.2486268238","0.2644422317","","","","","","","","","","","76","L","3","","","254","main_expt"
