"rt","responses","trial_type","trial_index","time_elapsed","internal_node_id","subjID","study","MID","cond","drift","key_press","expt_phase","target","like","value","connected","gems","bombs","no_reward","GemPrChosen","BombPrChosen","GainOverPainPr_0","GainOverPainPr_1","GainOverPainPr_2","GainOverPainPr_3","LosePr_0","LosePr_1","LosePr_2","LosePr_3","WinPr_0","WinPr_1","WinPr_2","WinPr_3","Q0","Q1","Q2","gender","age","ethnicity","respCharCode","respKey","respChoiceNum","respChoice","practice","trial_counter","trial_label"
"3404","{""Q0"":""A1VCIMAAY6GUD3""}","survey-text","0","3413","0.0-0.0","63168819","wem/bandit_either","A1VCIMAAY6GUD3","either","7","","","","","","","","","","","","","","","","","","","","","","","","","","","","","","","","","","","",""
"10106","","text","1","14528","0.0-1.0","63168819","wem/bandit_either","A1VCIMAAY6GUD3","either","7","32","","","","","","","","","","","","","","","","","","","","","","","","","","","","","","","","","","",""
"7241","","text","2","21773","0.0-2.0","63168819","wem/bandit_either","A1VCIMAAY6GUD3","either","7","32","","","","","","","","","","","","","","","","","","","","","","","","","","","","","","","","","","",""
"11424","","text","3","33200","0.0-3.0","63168819","wem/bandit_either","A1VCIMAAY6GUD3","either","7","32","","","","","","","","","","","","","","","","","","","","","","","","","","","","","","","","","","",""
"7921","","text","4","41124","0.0-4.0","63168819","wem/bandit_either","A1VCIMAAY6GUD3","either","7","32","","","","","","","","","","","","","","","","","","","","","","","","","","","","","","","","","","",""
"66549","","text","5","107680","0.0-5.0","63168819","wem/bandit_either","A1VCIMAAY6GUD3","either","7","32","","","","","","","","","","","","","","","","","","","","","","","","","","","","","","","","","","",""
"4011","","text","6","111700","0.0-6.0","63168819","wem/bandit_either","A1VCIMAAY6GUD3","either","7","32","","","","","","","","","","","","","","","","","","","","","","","","","","","","","","","","","","",""
"2670","","text","7","114373","0.0-7.0","63168819","wem/bandit_either","A1VCIMAAY6GUD3","either","7","32","","","","","","","","","","","","","","","","","","","","","","","","","","","","","","","","","","",""
"9833","","identification","8","124237","0.0-8.0-0.0","63168819","wem/bandit_either","A1VCIMAAY6GUD3","either","7","","identification_pre","the village of Zur","","","","","","","","","","","","","","","","","","","","","","","","","","","","","","","","",""
"6136","","identification","9","131432","0.0-8.0-1.0","63168819","wem/bandit_either","A1VCIMAAY6GUD3","either","7","","identification_pre","the village of Nyx","","","","","","","","","","","","","","","","","","","","","","","","","","","","","","","","",""
"7232","","text","10","139669","0.0-9.0","63168819","wem/bandit_either","A1VCIMAAY6GUD3","either","7","32","","","","","","","","","","","","","","","","","","","","","","","","","","","","","","","","","","",""
"2854","","text","11","142525","0.0-10.0","63168819","wem/bandit_either","A1VCIMAAY6GUD3","either","7","32","","","","","","","","","","","","","","","","","","","","","","","","","","","","","","","","","","",""
"1595","","text","12","144124","0.0-11.0","63168819","wem/bandit_either","A1VCIMAAY6GUD3","either","7","32","","","","","","","","","","","","","","","","","","","","","","","","","","","","","","","","","","",""
"3284","","text","13","147410","0.0-12.0","63168819","wem/bandit_either","A1VCIMAAY6GUD3","either","7","32","","","","","","","","","","","","","","","","","","","","","","","","","","","","","","","","","","",""
"1981","","bandit","14","150913","0.0-13.0-0.0","63168819","wem/bandit_either","A1VCIMAAY6GUD3","either","7","","","","","","","0","0","1","0","0","","","","","0","","","","0","","","","","","","","","","74","J","0","img/none_selected_demo.jpg","true","0",""
"1646","","bandit","15","154097","0.0-14.0-0.0","63168819","wem/bandit_either","A1VCIMAAY6GUD3","either","7","","","","","","","0","0","1","0","0","","","","","0","","","","0","","","","","","","","","","75","K","0","img/none_selected_demo.jpg","true","0",""
"3855","","text","16","157955","0.0-15.0","63168819","wem/bandit_either","A1VCIMAAY6GUD3","either","7","32","","","","","","","","","","","","","","","","","","","","","","","","","","","","","","","","","","",""
"13831","","text","17","171790","0.0-16.0","63168819","wem/bandit_either","A1VCIMAAY6GUD3","either","7","32","","","","","","","","","","","","","","","","","","","","","","","","","","","","","","","","","","",""
"4498","","text","18","176292","0.0-17.0","63168819","wem/bandit_either","A1VCIMAAY6GUD3","either","7","32","","","","","","","","","","","","","","","","","","","","","","","","","","","","","","","","","","",""
"2477","","text","19","178772","0.0-18.0","63168819","wem/bandit_either","A1VCIMAAY6GUD3","either","7","32","","","","","","","","","","","","","","","","","","","","","","","","","","","","","","","","","","",""
"1194","","bandit","20","181503","0.0-19.0-0.0","63168819","wem/bandit_either","A1VCIMAAY6GUD3","either","7","","","","","","","0","1","0","","0.8","0.5","0.5","","","0.8","0.2","","","","","","","","","","","","","74","J","0","img/none_selected_demo.jpg","true","0","80_20_practice"
"605","","bandit","21","183631","0.0-19.0-1.0","63168819","wem/bandit_either","A1VCIMAAY6GUD3","either","7","","","","","","","1","0","0","0.8","","0.5","0.5","","","","","","","0.8","0.2","","","","","","","","","74","J","0","img/none_selected_demo.jpg","true","0","80_20_practice"
"382","","bandit","22","185529","0.0-19.0-2.0","63168819","wem/bandit_either","A1VCIMAAY6GUD3","either","7","","","","","","","1","0","0","0.8","","0.5","0.5","","","","","","","0.8","0.2","","","","","","","","","74","J","0","img/none_selected_demo.jpg","true","0","80_20_practice"
"284","","bandit","23","187337","0.0-19.0-3.0","63168819","wem/bandit_either","A1VCIMAAY6GUD3","either","7","","","","","","","1","0","0","0.8","","0.5","0.5","","","","","","","0.8","0.2","","","","","","","","","74","J","0","img/none_selected_demo.jpg","true","0","80_20_practice"
"323","","bandit","24","189178","0.0-19.0-4.0","63168819","wem/bandit_either","A1VCIMAAY6GUD3","either","7","","","","","","","0","1","0","","0.8","0.5","0.5","","","0.8","0.2","","","","","","","","","","","","","74","J","0","img/none_selected_demo.jpg","true","0","80_20_practice"
"348","","bandit","25","191042","0.0-19.0-5.0","63168819","wem/bandit_either","A1VCIMAAY6GUD3","either","7","","","","","","","0","0","1","","0.8","0.5","0.5","","","0.8","0.2","","","","","","","","","","","","","74","J","0","img/none_selected_demo.jpg","true","0","80_20_practice"
"442","","bandit","26","193008","0.0-19.0-6.0","63168819","wem/bandit_either","A1VCIMAAY6GUD3","either","7","","","","","","","1","0","0","0.8","","0.5","0.5","","","","","","","0.8","0.2","","","","","","","","","74","J","0","img/none_selected_demo.jpg","true","0","80_20_practice"
"480","","bandit","27","195016","0.0-19.0-7.0","63168819","wem/bandit_either","A1VCIMAAY6GUD3","either","7","","","","","","","0","1","0","","0.8","0.5","0.5","","","0.8","0.2","","","","","","","","","","","","","74","J","0","img/none_selected_demo.jpg","true","0","80_20_practice"
"315","","bandit","28","196851","0.0-19.0-8.0","63168819","wem/bandit_either","A1VCIMAAY6GUD3","either","7","","","","","","","0","0","1","","0.2","0.5","0.5","","","0.8","0.2","","","","","","","","","","","","","75","K","1","","true","0","80_20_practice"
"289","","bandit","29","198672","0.0-19.0-9.0","63168819","wem/bandit_either","A1VCIMAAY6GUD3","either","7","","","","","","","0","0","1","0.2","","0.5","0.5","","","","","","","0.8","0.2","","","","","","","","","75","K","1","","true","0","80_20_practice"
"301","","bandit","30","200502","0.0-19.0-10.0","63168819","wem/bandit_either","A1VCIMAAY6GUD3","either","7","","","","","","","0","1","0","","0.8","0.5","0.5","","","0.8","0.2","","","","","","","","","","","","","74","J","0","img/none_selected_demo.jpg","true","0","80_20_practice"
"512","","bandit","31","202547","0.0-19.0-11.0","63168819","wem/bandit_either","A1VCIMAAY6GUD3","either","7","","","","","","","0","1","0","","0.8","0.5","0.5","","","0.8","0.2","","","","","","","","","","","","","74","J","0","img/none_selected_demo.jpg","true","0","80_20_practice"
"1589","","bandit","32","205659","0.0-19.0-12.0","63168819","wem/bandit_either","A1VCIMAAY6GUD3","either","7","","","","","","","0","1","0","","0.8","0.5","0.5","","","0.8","0.2","","","","","","","","","","","","","74","J","0","img/none_selected_demo.jpg","true","0","80_20_practice"
"291","","bandit","33","207477","0.0-19.0-13.0","63168819","wem/bandit_either","A1VCIMAAY6GUD3","either","7","","","","","","","0","0","1","0.2","","0.5","0.5","","","","","","","0.8","0.2","","","","","","","","","75","K","1","","true","0","80_20_practice"
"125","","bandit","34","209136","0.0-19.0-14.0","63168819","wem/bandit_either","A1VCIMAAY6GUD3","either","7","","","","","","","0","0","1","","0.2","0.5","0.5","","","0.8","0.2","","","","","","","","","","","","","75","K","1","","true","0","80_20_practice"
"254","","bandit","35","210905","0.0-19.0-15.0","63168819","wem/bandit_either","A1VCIMAAY6GUD3","either","7","","","","","","","0","0","1","","0.2","0.5","0.5","","","0.8","0.2","","","","","","","","","","","","","75","K","1","","true","0","80_20_practice"
"284","","bandit","36","212712","0.0-19.0-16.0","63168819","wem/bandit_either","A1VCIMAAY6GUD3","either","7","","","","","","","1","0","0","0.8","","0.5","0.5","","","","","","","0.8","0.2","","","","","","","","","74","J","0","img/none_selected_demo.jpg","true","0","80_20_practice"
"2246","","bandit","37","216495","0.0-19.0-17.0","63168819","wem/bandit_either","A1VCIMAAY6GUD3","either","7","","","","","","","0","0","1","","0.8","0.5","0.5","","","0.8","0.2","","","","","","","","","","","","","74","J","0","img/none_selected_demo.jpg","true","0","80_20_practice"
"348","","bandit","38","218372","0.0-19.0-18.0","63168819","wem/bandit_either","A1VCIMAAY6GUD3","either","7","","","","","","","1","0","0","0.8","","0.5","0.5","","","","","","","0.8","0.2","","","","","","","","","74","J","0","img/none_selected_demo.jpg","true","0","80_20_practice"
"344","","bandit","39","220252","0.0-19.0-19.0","63168819","wem/bandit_either","A1VCIMAAY6GUD3","either","7","","","","","","","0","1","0","","0.8","0.5","0.5","","","0.8","0.2","","","","","","","","","","","","","74","J","0","img/none_selected_demo.jpg","true","0","80_20_practice"
"2427","","text","40","222683","0.0-20.0","63168819","wem/bandit_either","A1VCIMAAY6GUD3","either","7","32","","","","","","","","","","","","","","","","","","","","","","","","","","","","","","","","","","",""
"1386","","bandit","41","225600","0.0-21.0-0.0","63168819","wem/bandit_either","A1VCIMAAY6GUD3","either","7","","","","","","","1","0","0","1","0","","","","","0","1","","","1","0","","","","","","","","","74","J","0","img/none_selected_demo.jpg","true","0",""
"8601","","text","42","234205","0.0-22.0","63168819","wem/bandit_either","A1VCIMAAY6GUD3","either","7","32","","","","","","","","","","","","","","","","","","","","","","","","","","","","","","","","","","",""
"1786","","text","43","235995","0.0-23.0","63168819","wem/bandit_either","A1VCIMAAY6GUD3","either","7","32","","","","","","","","","","","","","","","","","","","","","","","","","","","","","","","","","","",""
"3580","","text","44","239579","0.0-24.0","63168819","wem/bandit_either","A1VCIMAAY6GUD3","either","7","32","","","","","","","","","","","","","","","","","","","","","","","","","","","","","","","","","","",""
"2204","","text","45","241787","0.0-25.0","63168819","wem/bandit_either","A1VCIMAAY6GUD3","either","7","32","","","","","","","","","","","","","","","","","","","","","","","","","","","","","","","","","","",""
"3958","","text","46","245749","0.0-26.0","63168819","wem/bandit_either","A1VCIMAAY6GUD3","either","7","32","","","","","","","","","","","","","","","","","","","","","","","","","","","","","","","","","","",""
"2595","","text","47","248347","0.0-27.0","63168819","wem/bandit_either","A1VCIMAAY6GUD3","either","7","32","","","","","","","","","","","","","","","","","","","","","","","","","","","","","","","","","","",""
"4570","","text","48","252922","0.0-28.0","63168819","wem/bandit_either","A1VCIMAAY6GUD3","either","7","32","","","","","","","","","","","","","","","","","","","","","","","","","","","","","","","","","","",""
"3496","","text","49","256422","0.0-29.0","63168819","wem/bandit_either","A1VCIMAAY6GUD3","either","7","32","","","","","","","","","","","","","","","","","","","","","","","","","","","","","","","","","","",""
"5210","","text","50","261636","0.0-30.0","63168819","wem/bandit_either","A1VCIMAAY6GUD3","either","7","32","","","","","","","","","","","","","","","","","","","","","","","","","","","","","","","","","","",""
"1955","","text","51","263595","0.0-31.0","63168819","wem/bandit_either","A1VCIMAAY6GUD3","either","7","32","","","","","","","","","","","","","","","","","","","","","","","","","","","","","","","","","","",""
"3494","","text","52","267094","0.0-32.0","63168819","wem/bandit_either","A1VCIMAAY6GUD3","either","7","32","","","","","","","","","","","","","","","","","","","","","","","","","","","","","","","","","","",""
"1324","","bandit","53","269953","0.0-33.0-0.0","63168819","wem/bandit_either","A1VCIMAAY6GUD3","either","7","","","","","","","0","0","1","0.6","","0.5","0.5","0.5","0.5","","","","","0.8","0.2","0.6","0.2","","","","","","","75","K","2","","true","0","full_practice"
"301","","bandit","54","271783","0.0-33.0-1.0","63168819","wem/bandit_either","A1VCIMAAY6GUD3","either","7","","","","","","","0","0","1","0.2","","0.5","0.5","0.5","0.5","","","","","0.8","0.2","0.6","0.2","","","","","","","76","L","3","","true","0","full_practice"
"302","","bandit","55","273605","0.0-33.0-2.0","63168819","wem/bandit_either","A1VCIMAAY6GUD3","either","7","","","","","","","0","0","1","0.2","","0.5","0.5","0.5","0.5","","","","","0.8","0.2","0.6","0.2","","","","","","","74","J","1","","true","0","full_practice"
"303","","bandit","56","275443","0.0-33.0-3.0","63168819","wem/bandit_either","A1VCIMAAY6GUD3","either","7","","","","","","","0","1","0","","0.8","0.5","0.5","0.5","0.5","0.8","0.2","0.6","0.2","","","","","","","","","","","72","H","0","img/none_selected.jpg","true","0","full_practice"
"294","","bandit","57","277252","0.0-33.0-4.0","63168819","wem/bandit_either","A1VCIMAAY6GUD3","either","7","","","","","","","0","0","1","","0.8","0.5","0.5","0.5","0.5","0.8","0.2","0.6","0.2","","","","","","","","","","","72","H","0","img/none_selected.jpg","true","0","full_practice"
"273","","bandit","58","279061","0.0-33.0-5.0","63168819","wem/bandit_either","A1VCIMAAY6GUD3","either","7","","","","","","","0","0","1","","0.8","0.5","0.5","0.5","0.5","0.8","0.2","0.6","0.2","","","","","","","","","","","72","H","0","img/none_selected.jpg","true","0","full_practice"
"312","","bandit","59","280884","0.0-33.0-6.0","63168819","wem/bandit_either","A1VCIMAAY6GUD3","either","7","","","","","","","0","0","1","0.2","","0.5","0.5","0.5","0.5","","","","","0.8","0.2","0.6","0.2","","","","","","","74","J","1","","true","0","full_practice"
"359","","bandit","60","282783","0.0-33.0-7.0","63168819","wem/bandit_either","A1VCIMAAY6GUD3","either","7","","","","","","","0","0","1","","0.6","0.5","0.5","0.5","0.5","0.8","0.2","0.6","0.2","","","","","","","","","","","75","K","2","","true","0","full_practice"
"465","","bandit","61","284781","0.0-33.0-8.0","63168819","wem/bandit_either","A1VCIMAAY6GUD3","either","7","","","","","","","0","0","1","0.2","","0.5","0.5","0.5","0.5","","","","","0.8","0.2","0.6","0.2","","","","","","","76","L","3","","true","0","full_practice"
"376","","bandit","62","286677","0.0-33.0-9.0","63168819","wem/bandit_either","A1VCIMAAY6GUD3","either","7","","","","","","","0","0","1","0.2","","0.5","0.5","0.5","0.5","","","","","0.8","0.2","0.6","0.2","","","","","","","76","L","3","","true","0","full_practice"
"318","","bandit","63","288531","0.0-33.0-10.0","63168819","wem/bandit_either","A1VCIMAAY6GUD3","either","7","","","","","","","0","0","1","","0.6","0.5","0.5","0.5","0.5","0.8","0.2","0.6","0.2","","","","","","","","","","","75","K","2","","true","0","full_practice"
"348","","bandit","64","290396","0.0-33.0-11.0","63168819","wem/bandit_either","A1VCIMAAY6GUD3","either","7","","","","","","","0","0","1","0.2","","0.5","0.5","0.5","0.5","","","","","0.8","0.2","0.6","0.2","","","","","","","74","J","1","","true","0","full_practice"
"327","","bandit","65","292236","0.0-33.0-12.0","63168819","wem/bandit_either","A1VCIMAAY6GUD3","either","7","","","","","","","1","0","0","0.8","","0.5","0.5","0.5","0.5","","","","","0.8","0.2","0.6","0.2","","","","","","","72","H","0","img/none_selected.jpg","true","0","full_practice"
"310","","bandit","66","294066","0.0-33.0-13.0","63168819","wem/bandit_either","A1VCIMAAY6GUD3","either","7","","","","","","","0","1","0","","0.8","0.5","0.5","0.5","0.5","0.8","0.2","0.6","0.2","","","","","","","","","","","72","H","0","img/none_selected.jpg","true","0","full_practice"
"288","","bandit","67","295893","0.0-33.0-14.0","63168819","wem/bandit_either","A1VCIMAAY6GUD3","either","7","","","","","","","1","0","0","0.8","","0.5","0.5","0.5","0.5","","","","","0.8","0.2","0.6","0.2","","","","","","","72","H","0","img/none_selected.jpg","true","0","full_practice"
"314","","bandit","68","297736","0.0-33.0-15.0","63168819","wem/bandit_either","A1VCIMAAY6GUD3","either","7","","","","","","","1","0","0","0.8","","0.5","0.5","0.5","0.5","","","","","0.8","0.2","0.6","0.2","","","","","","","72","H","0","img/none_selected.jpg","true","0","full_practice"
"339","","bandit","69","299611","0.0-33.0-16.0","63168819","wem/bandit_either","A1VCIMAAY6GUD3","either","7","","","","","","","0","1","0","","0.8","0.5","0.5","0.5","0.5","0.8","0.2","0.6","0.2","","","","","","","","","","","72","H","0","img/none_selected.jpg","true","0","full_practice"
"331","","bandit","70","301459","0.0-33.0-17.0","63168819","wem/bandit_either","A1VCIMAAY6GUD3","either","7","","","","","","","0","1","0","","0.8","0.5","0.5","0.5","0.5","0.8","0.2","0.6","0.2","","","","","","","","","","","72","H","0","img/none_selected.jpg","true","0","full_practice"
"333","","bandit","71","303307","0.0-33.0-18.0","63168819","wem/bandit_either","A1VCIMAAY6GUD3","either","7","","","","","","","0","1","0","","0.8","0.5","0.5","0.5","0.5","0.8","0.2","0.6","0.2","","","","","","","","","","","72","H","0","img/none_selected.jpg","true","0","full_practice"
"352","","bandit","72","305188","0.0-33.0-19.0","63168819","wem/bandit_either","A1VCIMAAY6GUD3","either","7","","","","","","","0","1","0","","0.8","0.5","0.5","0.5","0.5","0.8","0.2","0.6","0.2","","","","","","","","","","","72","H","0","img/none_selected.jpg","true","0","full_practice"
"2710","","text","73","307915","0.0-34.0","63168819","wem/bandit_either","A1VCIMAAY6GUD3","either","7","32","","","","","","","","","","","","","","","","","","","","","","","","","","","","","","","","","","",""
"6700","","text","74","315629","0.0-35.0","63168819","wem/bandit_either","A1VCIMAAY6GUD3","either","7","32","","","","","","","","","","","","","","","","","","","","","","","","","","","","","","","","","","",""
"8081","","text","75","323719","0.0-36.0","63168819","wem/bandit_either","A1VCIMAAY6GUD3","either","7","32","","","","","","","","","","","","","","","","","","","","","","","","","","","","","","","","","","",""
"12440","","text","76","336165","0.0-37.0","63168819","wem/bandit_either","A1VCIMAAY6GUD3","either","7","32","","","","","","","","","","","","","","","","","","","","","","","","","","","","","","","","","","",""
"5297","","text","77","341467","0.0-38.0","63168819","wem/bandit_either","A1VCIMAAY6GUD3","either","7","32","","","","","","","","","","","","","","","","","","","","","","","","","","","","","","","","","","",""
"5037","","text","78","346513","0.0-39.0","63168819","wem/bandit_either","A1VCIMAAY6GUD3","either","7","32","","","","","","","","","","","","","","","","","","","","","","","","","","","","","","","","","","",""
"1515","","bandit","79","349545","0.0-40.0-0.0","63168819","wem/bandit_either","A1VCIMAAY6GUD3","either","7","","","","","","","1","0","0","0.01738065524","","0.4","0.6","0.8","0.2","","","","","0.01738065524","0.06530018083","0.1952616071","0.1480066451","","","","","","","72","H","0","img/none_selected.jpg","","1","main_expt"
"312","","bandit","80","351371","0.0-41.0-0.0","63168819","wem/bandit_either","A1VCIMAAY6GUD3","either","7","","","","","","","0","0","1","","0.0196943787","0.4","0.6","0.8","0.2","0.0196943787","0.1011701763","0.1652234336","0.1053714073","","","","","","","","","","","72","H","0","img/none_selected.jpg","","2","main_expt"
"378","","bandit","81","353276","0.0-42.0-0.0","63168819","wem/bandit_either","A1VCIMAAY6GUD3","either","7","","","","","","","0","0","1","0.01678573497","","0.4","0.6","0.8","0.2","","","","","0.01678573497","0.09486719381","0.1347382479","0.1460078221","","","","","","","72","H","0","img/none_selected.jpg","","3","main_expt"
"304","","bandit","82","355098","0.0-43.0-0.0","63168819","wem/bandit_either","A1VCIMAAY6GUD3","either","7","","","","","","","0","0","1","","0.06705802814","0.4","0.6","0.8","0.2","0.02981965743","0.06705802814","0.1684625442","0.1866138214","","","","","","","","","","","74","J","1","","","4","main_expt"
"304","","bandit","83","356942","0.0-44.0-0.0","63168819","wem/bandit_either","A1VCIMAAY6GUD3","either","7","","","","","","","0","0","1","0.1792029032","","0.4","0.6","0.8","0.2","","","","","0.02600208211","0.0822298525","0.1792029032","0.2445348717","","","","","","","75","K","2","","","5","main_expt"
"300","","bandit","84","358757","0.0-45.0-0.0","63168819","wem/bandit_either","A1VCIMAAY6GUD3","either","7","","","","","","","0","1","0","","0.2546962146","0.4","0.6","0.8","0.2","0.02332436933","0.09162209411","0.2153873139","0.2546962146","","","","","","","","","","","76","L","3","","","6","main_expt"
"323","","bandit","85","360606","0.0-46.0-0.0","63168819","wem/bandit_either","A1VCIMAAY6GUD3","either","7","","","","","","","0","0","1","","0.2344841702","0.4","0.6","0.8","0.2","0.02864040813","0.1028820098","0.1757762721","0.2344841702","","","","","","","","","","","76","L","3","","","7","main_expt"
"316","","bandit","86","362458","0.0-47.0-0.0","63168819","wem/bandit_either","A1VCIMAAY6GUD3","either","7","","","","","","","0","0","1","","0.2473344203","0.4","0.6","0.8","0.2","0.02951264166","0.1532270122","0.2241229746","0.2473344203","","","","","","","","","","","76","L","3","","","8","main_expt"
"253","","bandit","87","364236","0.0-48.0-0.0","63168819","wem/bandit_either","A1VCIMAAY6GUD3","either","7","","","","","","","0","0","1","0.02997011939","","0.4","0.6","0.8","0.2","","","","","0.02997011939","0.2131450397","0.2199426203","0.2642160399","","","","","","","72","H","0","img/none_selected.jpg","","9","main_expt"
"301","","bandit","88","366076","0.0-49.0-0.0","63168819","wem/bandit_either","A1VCIMAAY6GUD3","either","7","","","","","","","0","0","1","0.02489651457","","0.4","0.6","0.8","0.2","","","","","0.02489651457","0.2985754635","0.1520686932","0.2104627424","","","","","","","72","H","0","img/none_selected.jpg","","10","main_expt"
"317","","bandit","89","367927","0.0-50.0-0.0","63168819","wem/bandit_either","A1VCIMAAY6GUD3","either","7","","","","","","","0","0","1","","0.01651058827","0.4","0.6","0.8","0.2","0.01651058827","0.2924640086","0.2013349999","0.219372878","","","","","","","","","","","72","H","0","img/none_selected.jpg","","11","main_expt"
"455","","bandit","90","369897","0.0-51.0-0.0","63168819","wem/bandit_either","A1VCIMAAY6GUD3","either","7","","","","","","","0","0","1","","0.2105839871","0.4","0.6","0.8","0.2","0.02341729431","0.3264291113","0.2156800105","0.2105839871","","","","","","","","","","","76","L","3","","","12","main_expt"
"288","","bandit","91","371712","0.0-52.0-0.0","63168819","wem/bandit_either","A1VCIMAAY6GUD3","either","7","","","","","","","0","0","1","","0.2511698571","0.4","0.6","0.8","0.2","0.0257410372","0.3254913314","0.1833947696","0.2511698571","","","","","","","","","","","76","L","3","","","13","main_expt"
"437","","bandit","92","373685","0.0-53.0-0.0","63168819","wem/bandit_either","A1VCIMAAY6GUD3","either","7","","","","","","","0","0","1","","0.2158977649","0.4","0.6","0.8","0.2","0.02570014082","0.3428504842","0.243643366","0.2158977649","","","","","","","","","","","76","L","3","","","14","main_expt"
"309","","bandit","93","375522","0.0-54.0-0.0","63168819","wem/bandit_either","A1VCIMAAY6GUD3","either","7","","","","","","","0","0","1","0.2265365198","","0.4","0.6","0.8","0.2","","","","","0.04268316416","0.3244047679","0.2265365198","0.2762480727","","","","","","","75","K","2","","","15","main_expt"
"1301","","bandit","94","378355","0.0-55.0-0.0","63168819","wem/bandit_either","A1VCIMAAY6GUD3","either","7","","","","","","","0","1","0","","0.3025313629","0.4","0.6","0.8","0.2","0.04667408308","0.3025313629","0.2484951132","0.3202890724","","","","","","","","","","","74","J","1","","","16","main_expt"
"403","","bandit","95","380287","0.0-56.0-0.0","63168819","wem/bandit_either","A1VCIMAAY6GUD3","either","7","","","","","","","1","0","0","0.3291216938","","0.4","0.6","0.8","0.2","","","","","0.0506688767","0.3291216938","0.2570267238","0.3680552247","","","","","","","74","J","1","","","17","main_expt"
"315","","bandit","96","382123","0.0-57.0-0.0","63168819","wem/bandit_either","A1VCIMAAY6GUD3","either","7","","","","","","","0","0","1","","0.2987881532","0.4","0.6","0.8","0.2","0.02988526167","0.2987881532","0.287418789","0.3968593921","","","","","","","","","","","74","J","1","","","18","main_expt"
"353","","bandit","97","384007","0.0-58.0-0.0","63168819","wem/bandit_either","A1VCIMAAY6GUD3","either","7","","","","","","","0","0","1","0.281207523","","0.4","0.6","0.8","0.2","","","","","0.03476350355","0.281207523","0.2338710899","0.4192996399","","","","","","","74","J","1","","","19","main_expt"
"418","","bandit","98","385946","0.0-59.0-0.0","63168819","wem/bandit_either","A1VCIMAAY6GUD3","either","7","","","","","","","0","0","1","","0.291129981","0.4","0.6","0.8","0.2","0.0233687216","0.291129981","0.2335293464","0.4362768361","","","","","","","","","","","74","J","1","","","20","main_expt"
"299","","bandit","99","387775","0.0-60.0-0.0","63168819","wem/bandit_either","A1VCIMAAY6GUD3","either","7","","","","","","","0","0","1","0.2729578326","","0.4","0.6","0.8","0.2","","","","","0.01272547494","0.2729578326","0.2434826965","0.4599691003","","","","","","","74","J","1","","","21","main_expt"
"307","","bandit","100","389611","0.0-61.0-0.0","63168819","wem/bandit_either","A1VCIMAAY6GUD3","either","7","","","","","","","0","0","1","","0.01739491555","0.4","0.6","0.8","0.2","0.01739491555","0.2805141014","0.2702300591","0.44353765","","","","","","","","","","","72","H","0","img/none_selected.jpg","","22","main_expt"
"239","","bandit","101","391372","0.0-62.0-0.0","63168819","wem/bandit_either","A1VCIMAAY6GUD3","either","7","","","","","","","0","0","1","0.2424740502","","0.4","0.6","0.8","0.2","","","","","0.006692102231","0.3016389313","0.2424740502","0.4105594395","","","","","","","75","K","2","","","23","main_expt"
"293","","bandit","102","393196","0.0-63.0-0.0","63168819","wem/bandit_either","A1VCIMAAY6GUD3","either","7","","","","","","","0","0","1","","0.4243351486","0.4","0.6","0.8","0.2","0.01209419849","0.2475621169","0.1754503809","0.4243351486","","","","","","","","","","","76","L","3","","","24","main_expt"
"330","","bandit","103","395069","0.0-64.0-0.0","63168819","wem/bandit_either","A1VCIMAAY6GUD3","either","7","","","","","","","0","0","1","","0.4172780312","0.4","0.6","0.8","0.2","0.009734580702","0.2607476102","0.2023019753","0.4172780312","","","","","","","","","","","76","L","3","","","25","main_expt"
"365","","bandit","104","396960","0.0-65.0-0.0","63168819","wem/bandit_either","A1VCIMAAY6GUD3","either","7","","","","","","","0","0","1","0.1887270612","","0.4","0.6","0.8","0.2","","","","","0.008596148908","0.292589008","0.1887270612","0.3981062588","","","","","","","75","K","2","","","26","main_expt"
"401","","bandit","105","398903","0.0-66.0-0.0","63168819","wem/bandit_either","A1VCIMAAY6GUD3","either","7","","","","","","","0","0","1","","0.2978950393","0.4","0.6","0.8","0.2","0.01380650739","0.2978950393","0.2526986378","0.3889188119","","","","","","","","","","","74","J","1","","","27","main_expt"
"111","","bandit","106","400534","0.0-67.0-0.0","63168819","wem/bandit_either","A1VCIMAAY6GUD3","either","7","","","","","","","0","0","1","","0.01160852189","0.4","0.6","0.8","0.2","0.01160852189","0.337392419","0.2536033627","0.3699095679","","","","","","","","","","","72","H","0","img/none_selected.jpg","","28","main_expt"
"350","","bandit","107","402398","0.0-68.0-0.0","63168819","wem/bandit_either","A1VCIMAAY6GUD3","either","7","","","","","","","0","0","1","0.3830759015","","0.4","0.6","0.8","0.2","","","","","0.02858314752","0.3830759015","0.258258936","0.4087832773","","","","","","","74","J","1","","","29","main_expt"
"290","","bandit","108","404218","0.0-69.0-0.0","63168819","wem/bandit_either","A1VCIMAAY6GUD3","either","7","","","","","","","0","0","1","0.0265596094","","0.4","0.6","0.8","0.2","","","","","0.0265596094","0.3778881599","0.3152574144","0.4162513677","","","","","","","72","H","0","img/none_selected.jpg","","30","main_expt"
"348","","bandit","109","406099","0.0-70.0-0.0","63168819","wem/bandit_either","A1VCIMAAY6GUD3","either","7","","","","","","","0","0","1","0.3508579725","","0.4","0.6","0.8","0.2","","","","","0.02828816112","0.3585458117","0.3508579725","0.43337534","","","","","","","75","K","2","","","31","main_expt"
"358","","bandit","110","407989","0.0-71.0-0.0","63168819","wem/bandit_either","A1VCIMAAY6GUD3","either","7","","","","","","","0","1","0","","0.4399105216","0.4","0.6","0.8","0.2","0.03857304495","0.3511664436","0.3902021543","0.4399105216","","","","","","","","","","","76","L","3","","","32","main_expt"
"1128","","bandit","111","410650","0.0-72.0-0.0","63168819","wem/bandit_either","A1VCIMAAY6GUD3","either","7","","","","","","","0","0","1","","0.3859623535","0.4","0.6","0.8","0.2","0.02642959278","0.3924960189","0.4112626521","0.3859623535","","","","","","","","","","","76","L","3","","","33","main_expt"
"545","","bandit","112","412711","0.0-73.0-0.0","63168819","wem/bandit_either","A1VCIMAAY6GUD3","either","7","","","","","","","0","0","1","","0.4231921331","0.4","0.6","0.8","0.2","0.06800028167","0.3713907517","0.3912589523","0.4231921331","","","","","","","","","","","76","L","3","","","34","main_expt"
"1009","","bandit","113","415259","0.0-74.0-0.0","63168819","wem/bandit_either","A1VCIMAAY6GUD3","either","7","","","","","","","0","0","1","0.3663646496","","0.4","0.6","0.8","0.2","","","","","0.05710280771","0.3929004689","0.3663646496","0.3950458867","","","","","","","75","K","2","","","35","main_expt"
"487","","bandit","114","417268","0.0-75.0-0.0","63168819","wem/bandit_either","A1VCIMAAY6GUD3","either","7","","","","","","","0","0","1","","0.4005306787","0.4","0.6","0.8","0.2","0.07756943076","0.3820467604","0.3045225128","0.4005306787","","","","","","","","","","","76","L","3","","","36","main_expt"
"1436","","bandit","115","420220","0.0-76.0-0.0","63168819","wem/bandit_either","A1VCIMAAY6GUD3","either","7","","","","","","","0","0","1","","0.06074629621","0.4","0.6","0.8","0.2","0.06074629621","0.3948022939","0.2806474599","0.3972735937","","","","","","","","","","","72","H","0","img/none_selected.jpg","","37","main_expt"
"1067","","bandit","116","422806","0.0-77.0-0.0","63168819","wem/bandit_either","A1VCIMAAY6GUD3","either","7","","","","","","","0","0","1","0.3769579019","","0.4","0.6","0.8","0.2","","","","","0.07063042774","0.3769579019","0.3558759705","0.38339591","","","","","","","74","J","1","","","38","main_expt"
"378","","bandit","117","424721","0.0-78.0-0.0","63168819","wem/bandit_either","A1VCIMAAY6GUD3","either","7","","","","","","","0","0","1","0.3906354184","","0.4","0.6","0.8","0.2","","","","","0.06209293178","0.4030344636","0.3194138052","0.3906354184","","","","","","","76","L","3","","","39","main_expt"
"279","","bandit","118","426527","0.0-79.0-0.0","63168819","wem/bandit_either","A1VCIMAAY6GUD3","either","7","","","","","","","0","0","1","0.3549086085","","0.4","0.6","0.8","0.2","","","","","0.06952578958","0.3622335218","0.3549086085","0.3623676206","","","","","","","75","K","2","","","40","main_expt"
"318","","bandit","119","428362","0.0-80.0-0.0","63168819","wem/bandit_either","A1VCIMAAY6GUD3","either","7","","","","","","","0","0","1","0.3452113815","","0.4","0.6","0.8","0.2","","","","","0.1291245709","0.3911596719","0.3452113815","0.3873704927","","","","","","","75","K","2","","","41","main_expt"
"278","","bandit","120","430171","0.0-81.0-0.0","63168819","wem/bandit_either","A1VCIMAAY6GUD3","either","7","","","","","","","0","1","0","","0.359823116","0.4","0.6","0.8","0.2","0.1174523948","0.3921858285","0.3522960267","0.359823116","","","","","","","","","","","76","L","3","","","42","main_expt"
"302","","bandit","121","432009","0.0-82.0-0.0","63168819","wem/bandit_either","A1VCIMAAY6GUD3","either","7","","","","","","","1","0","0","0.3710191411","","0.4","0.6","0.8","0.2","","","","","0.1201484523","0.3831213528","0.3093122096","0.3710191411","","","","","","","76","L","3","","","43","main_expt"
"566","","bandit","122","434103","0.0-83.0-0.0","63168819","wem/bandit_either","A1VCIMAAY6GUD3","either","7","","","","","","","0","0","1","","0.3874065465","0.4","0.6","0.8","0.2","0.09958360536","0.3518708159","0.3026159556","0.3874065465","","","","","","","","","","","76","L","3","","","44","main_expt"
"1001","","bandit","123","436619","0.0-84.0-0.0","63168819","wem/bandit_either","A1VCIMAAY6GUD3","either","7","","","","","","","0","1","0","","0.3851533971","0.4","0.6","0.8","0.2","0.05173655998","0.3122870636","0.3336294247","0.3851533971","","","","","","","","","","","76","L","3","","","45","main_expt"
"763","","bandit","124","438898","0.0-85.0-0.0","63168819","wem/bandit_either","A1VCIMAAY6GUD3","either","7","","","","","","","0","1","0","","0.4055883719","0.4","0.6","0.8","0.2","0.05945041096","0.2635721956","0.3400222736","0.4055883719","","","","","","","","","","","76","L","3","","","46","main_expt"
"1069","","bandit","125","441493","0.0-86.0-0.0","63168819","wem/bandit_either","A1VCIMAAY6GUD3","either","7","","","","","","","0","0","1","","0.3671593179","0.4","0.6","0.8","0.2","0.04375763727","0.2856785865","0.328707825","0.3671593179","","","","","","","","","","","76","L","3","","","47","main_expt"
"315","","bandit","126","443334","0.0-87.0-0.0","63168819","wem/bandit_either","A1VCIMAAY6GUD3","either","7","","","","","","","0","0","1","","0.3198203038","0.4","0.6","0.8","0.2","0.0666370861","0.2649087478","0.3307690822","0.3198203038","","","","","","","","","","","76","L","3","","","48","main_expt"
"556","","bandit","127","445411","0.0-88.0-0.0","63168819","wem/bandit_either","A1VCIMAAY6GUD3","either","7","","","","","","","0","1","0","","0.08266213623","0.4","0.6","0.8","0.2","0.08266213623","0.2462979357","0.3438067684","0.3111357295","","","","","","","","","","","72","H","0","img/none_selected.jpg","","49","main_expt"
"305","","bandit","128","447234","0.0-89.0-0.0","63168819","wem/bandit_either","A1VCIMAAY6GUD3","either","7","","","","","","","0","0","1","0.08795051988","","0.4","0.6","0.8","0.2","","","","","0.08795051988","0.2490076798","0.4037002216","0.3196682981","","","","","","","72","H","0","img/none_selected.jpg","","50","main_expt"
"2038","","bandit","129","450791","0.0-90.0-0.0","63168819","wem/bandit_either","A1VCIMAAY6GUD3","either","7","","","","","","","0","0","1","","0.07533366945","0.4","0.6","0.8","0.2","0.07533366945","0.305209751","0.3557518394","0.3088596379","","","","","","","","","","","72","H","0","img/none_selected.jpg","","51","main_expt"
"465","","bandit","130","452784","0.0-91.0-0.0","63168819","wem/bandit_either","A1VCIMAAY6GUD3","either","7","","","","","","","0","0","1","","0.06506638851","0.4","0.6","0.8","0.2","0.06506638851","0.3087204988","0.3254324358","0.3060924957","","","","","","","","","","","72","H","0","img/none_selected.jpg","","52","main_expt"
"381","","bandit","131","454685","0.0-92.0-0.0","63168819","wem/bandit_either","A1VCIMAAY6GUD3","either","7","","","","","","","0","0","1","","0.2984188648","0.4","0.6","0.8","0.2","0.06562792832","0.2984188648","0.2952150256","0.3229319808","","","","","","","","","","","74","J","1","","","53","main_expt"
"155","","bandit","132","456363","0.0-93.0-0.0","63168819","wem/bandit_either","A1VCIMAAY6GUD3","either","7","","","","","","","0","0","1","0.300320608","","0.4","0.6","0.8","0.2","","","","","0.04630081711","0.3353917468","0.300320608","0.3280138586","","","","","","","75","K","2","","","54","main_expt"
"321","","bandit","133","458209","0.0-94.0-0.0","63168819","wem/bandit_either","A1VCIMAAY6GUD3","either","7","","","","","","","0","1","0","","0.2777260571","0.4","0.6","0.8","0.2","0.03868373719","0.3259144651","0.2985084879","0.2777260571","","","","","","","","","","","76","L","3","","","55","main_expt"
"269","","bandit","134","459995","0.0-95.0-0.0","63168819","wem/bandit_either","A1VCIMAAY6GUD3","either","7","","","","","","","0","0","1","","0.1791004868","0.4","0.6","0.8","0.2","0.06235362297","0.3259049121","0.2607009345","0.1791004868","","","","","","","","","","","76","L","3","","","56","main_expt"
"277","","bandit","135","461816","0.0-96.0-0.0","63168819","wem/bandit_either","A1VCIMAAY6GUD3","either","7","","","","","","","0","0","1","","0.2182265394","0.4","0.6","0.8","0.2","0.04639461243","0.3687904078","0.2565854794","0.2182265394","","","","","","","","","","","76","L","3","","","57","main_expt"
"312","","bandit","136","463658","0.0-97.0-0.0","63168819","wem/bandit_either","A1VCIMAAY6GUD3","either","7","","","","","","","0","0","1","","0.08954448139","0.4","0.6","0.8","0.2","0.08954448139","0.3422038875","0.319121847","0.2970860181","","","","","","","","","","","72","H","0","img/none_selected.jpg","","58","main_expt"
"309","","bandit","137","465485","0.0-98.0-0.0","63168819","wem/bandit_either","A1VCIMAAY6GUD3","either","7","","","","","","","0","0","1","","0.3269923399","0.4","0.6","0.8","0.2","0.07390342289","0.3771421139","0.3269923399","0.3249685468","","","","","","","","","","","75","K","2","","","59","main_expt"
"21","","bandit","138","467024","0.0-99.0-0.0","63168819","wem/bandit_either","A1VCIMAAY6GUD3","either","7","","","","","","","0","0","1","0.3620124399","","0.4","0.6","0.8","0.2","","","","","0.05801548519","0.3620124399","0.3150968823","0.2931470039","","","","","","","74","J","1","","","60","main_expt"
"449","","bandit","139","468991","0.0-100.0-0.0","63168819","wem/bandit_either","A1VCIMAAY6GUD3","either","7","","","","","","","0","1","0","","0.2646536279","0.4","0.6","0.8","0.2","0.07333263924","0.3958116198","0.324539239","0.2646536279","","","","","","","","","","","76","L","3","","","61","main_expt"
"318","","bandit","140","470827","0.0-101.0-0.0","63168819","wem/bandit_either","A1VCIMAAY6GUD3","either","7","","","","","","","0","0","1","","0.242461968","0.4","0.6","0.8","0.2","0.07563430262","0.3615218546","0.3066306166","0.242461968","","","","","","","","","","","76","L","3","","","62","main_expt"
"333","","bandit","141","472692","0.0-102.0-0.0","63168819","wem/bandit_either","A1VCIMAAY6GUD3","either","7","","","","","","","0","0","1","0.2206683029","","0.4","0.6","0.8","0.2","","","","","0.06826526778","0.3574266064","0.3068900116","0.2206683029","","","","","","","76","L","3","","","63","main_expt"
"355","","bandit","142","474563","0.0-103.0-0.0","63168819","wem/bandit_either","A1VCIMAAY6GUD3","either","7","","","","","","","0","0","1","","0.2288959862","0.4","0.6","0.8","0.2","0.1175271989","0.3541915859","0.2936494982","0.2288959862","","","","","","","","","","","76","L","3","","","64","main_expt"
"657","","bandit","143","476741","0.0-104.0-0.0","63168819","wem/bandit_either","A1VCIMAAY6GUD3","either","7","","","","","","","0","0","1","","0.2346523549","0.4","0.6","0.8","0.2","0.1273865191","0.3339820985","0.290236101","0.2346523549","","","","","","","","","","","76","L","3","","","65","main_expt"
"475","","bandit","144","478743","0.0-105.0-0.0","63168819","wem/bandit_either","A1VCIMAAY6GUD3","either","7","","","","","","","0","0","1","","0.1881688105","0.4","0.6","0.8","0.2","0.09075088943","0.3195467083","0.2512036594","0.1881688105","","","","","","","","","","","76","L","3","","","66","main_expt"
"10475","","bandit","145","490753","0.0-106.0-0.0","63168819","wem/bandit_either","A1VCIMAAY6GUD3","either","7","","","","","","","1","0","0","0.3477383846","","0.4","0.6","0.8","0.2","","","","","0.08077075725","0.3477383846","0.263747572","0.231043846","","","","","","","74","J","1","","","67","main_expt"
"333","","bandit","146","492615","0.0-107.0-0.0","63168819","wem/bandit_either","A1VCIMAAY6GUD3","either","7","","","","","","","0","0","1","","0.3365352069","0.4","0.6","0.8","0.2","0.08810311296","0.3365352069","0.2892519303","0.2576664243","","","","","","","","","","","74","J","1","","","68","main_expt"
"350","","bandit","147","494493","0.0-108.0-0.0","63168819","wem/bandit_either","A1VCIMAAY6GUD3","either","7","","","","","","","0","1","0","","0.3148812039","0.4","0.6","0.8","0.2","0.1260156682","0.3148812039","0.2383664846","0.2183283259","","","","","","","","","","","74","J","1","","","69","main_expt"
"395","","bandit","148","496403","0.0-109.0-0.0","63168819","wem/bandit_either","A1VCIMAAY6GUD3","either","7","","","","","","","1","0","0","0.3154014692","","0.4","0.6","0.8","0.2","","","","","0.08773951932","0.3154014692","0.2497111545","0.2260484764","","","","","","","74","J","1","","","70","main_expt"
"408","","bandit","149","498334","0.0-110.0-0.0","63168819","wem/bandit_either","A1VCIMAAY6GUD3","either","7","","","","","","","0","0","1","","0.219815459","0.4","0.6","0.8","0.2","0.1154304285","0.219815459","0.2095843002","0.3196469567","","","","","","","","","","","74","J","1","","","71","main_expt"
"203","","bandit","150","500069","0.0-111.0-0.0","63168819","wem/bandit_either","A1VCIMAAY6GUD3","either","7","","","","","","","0","0","1","0.2623730272","","0.4","0.6","0.8","0.2","","","","","0.10097247","0.2623730272","0.1972488467","0.3644141189","","","","","","","74","J","1","","","72","main_expt"
"404","","bandit","151","502005","0.0-112.0-0.0","63168819","wem/bandit_either","A1VCIMAAY6GUD3","either","7","","","","","","","1","0","0","0.2639805735","","0.4","0.6","0.8","0.2","","","","","0.0746930591","0.2639805735","0.15494396","0.4081842109","","","","","","","74","J","1","","","73","main_expt"
"323","","bandit","152","503846","0.0-113.0-0.0","63168819","wem/bandit_either","A1VCIMAAY6GUD3","either","7","","","","","","","0","0","1","0.2770925356","","0.4","0.6","0.8","0.2","","","","","0.1124392477","0.2770925356","0.1324790415","0.4506698749","","","","","","","74","J","1","","","74","main_expt"
"479","","bandit","153","505852","0.0-114.0-0.0","63168819","wem/bandit_either","A1VCIMAAY6GUD3","either","7","","","","","","","1","0","0","0.2796652475","","0.4","0.6","0.8","0.2","","","","","0.113494578","0.2796652475","0.179195356","0.454520075","","","","","","","74","J","1","","","75","main_expt"
"2205","","bandit","154","509590","0.0-115.0-0.0","63168819","wem/bandit_either","A1VCIMAAY6GUD3","either","7","","","","","","","0","0","1","","0.3153427244","0.4","0.6","0.8","0.2","0.1469344428","0.3153427244","0.215808919","0.466199952","","","","","","","","","","","74","J","1","","","76","main_expt"
"124","","bandit","155","511252","0.0-116.0-0.0","63168819","wem/bandit_either","A1VCIMAAY6GUD3","either","7","","","","","","","1","0","0","0.3676911864","","0.4","0.6","0.8","0.2","","","","","0.2152215887","0.3676911864","0.2312347408","0.4402141775","","","","","","","74","J","1","","","77","main_expt"
"348","","bandit","156","513115","0.0-117.0-0.0","63168819","wem/bandit_either","A1VCIMAAY6GUD3","either","7","","","","","","","0","0","1","","0.3434277392","0.4","0.6","0.8","0.2","0.2055177618","0.3434277392","0.2197025874","0.4525957793","","","","","","","","","","","74","J","1","","","78","main_expt"
"371","","bandit","157","515019","0.0-118.0-0.0","63168819","wem/bandit_either","A1VCIMAAY6GUD3","either","7","","","","","","","0","0","1","0.3758616161","","0.4","0.6","0.8","0.2","","","","","0.222262525","0.3758616161","0.2227420924","0.4630799716","","","","","","","74","J","1","","","79","main_expt"
"235","","bandit","158","516781","0.0-119.0-0.0","63168819","wem/bandit_either","A1VCIMAAY6GUD3","either","7","","","","","","","0","0","1","","0.3862393514","0.4","0.6","0.8","0.2","0.2700860438","0.3862393514","0.2283057493","0.423693353","","","","","","","","","","","74","J","1","","","80","main_expt"
"274","","bandit","159","518567","0.0-120.0-0.0","63168819","wem/bandit_either","A1VCIMAAY6GUD3","either","7","","","","","","","0","0","1","","0.3593770893","0.4","0.6","0.8","0.2","0.2642688004","0.3593770893","0.2721525977","0.4319112677","","","","","","","","","","","74","J","1","","","81","main_expt"
"288","","bandit","160","520372","0.0-121.0-0.0","63168819","wem/bandit_either","A1VCIMAAY6GUD3","either","7","","","","","","","0","0","1","","0.4035110645","0.4","0.6","0.8","0.2","0.2824164754","0.4035110645","0.2850237184","0.441827487","","","","","","","","","","","74","J","1","","","82","main_expt"
"289","","bandit","161","522207","0.0-122.0-0.0","63168819","wem/bandit_either","A1VCIMAAY6GUD3","either","7","","","","","","","0","0","1","","0.3236436683","0.4","0.6","0.8","0.2","0.2819095575","0.3719627038","0.3236436683","0.4288861504","","","","","","","","","","","75","K","2","","","83","main_expt"
"328","","bandit","162","524058","0.0-123.0-0.0","63168819","wem/bandit_either","A1VCIMAAY6GUD3","either","7","","","","","","","0","0","1","","0.4350385517","0.4","0.6","0.8","0.2","0.2589745902","0.3349288927","0.3339638593","0.4350385517","","","","","","","","","","","76","L","3","","","84","main_expt"
"310","","bandit","163","525898","0.0-124.0-0.0","63168819","wem/bandit_either","A1VCIMAAY6GUD3","either","7","","","","","","","0","0","1","","0.4255505645","0.4","0.6","0.8","0.2","0.3626504113","0.3247899262","0.3795022601","0.4255505645","","","","","","","","","","","76","L","3","","","85","main_expt"
"334","","bandit","164","527759","0.0-125.0-0.0","63168819","wem/bandit_either","A1VCIMAAY6GUD3","either","7","","","","","","","0","1","0","","0.3598915268","0.4","0.6","0.8","0.2","0.3598915268","0.3443557019","0.3835523064","0.4330938692","","","","","","","","","","","72","H","0","img/none_selected.jpg","","86","main_expt"
"391","","bandit","165","529685","0.0-126.0-0.0","63168819","wem/bandit_either","A1VCIMAAY6GUD3","either","7","","","","","","","0","1","0","","0.3433052933","0.4","0.6","0.8","0.2","0.3433052933","0.3648776167","0.3772514457","0.4548398529","","","","","","","","","","","72","H","0","img/none_selected.jpg","","87","main_expt"
"392","","bandit","166","531588","0.0-127.0-0.0","63168819","wem/bandit_either","A1VCIMAAY6GUD3","either","7","","","","","","","0","1","0","","0.4022938878","0.4","0.6","0.8","0.2","0.4022938878","0.3609631839","0.3766830519","0.4493124031","","","","","","","","","","","72","H","0","img/none_selected.jpg","","88","main_expt"
"649","","bandit","167","533771","0.0-128.0-0.0","63168819","wem/bandit_either","A1VCIMAAY6GUD3","either","7","","","","","","","1","0","0","0.4141493151","","0.4","0.6","0.8","0.2","","","","","0.4141493151","0.3636167192","0.3537755119","0.4161110063","","","","","","","72","H","0","img/none_selected.jpg","","89","main_expt"
"347","","bandit","168","535654","0.0-129.0-0.0","63168819","wem/bandit_either","A1VCIMAAY6GUD3","either","7","","","","","","","0","1","0","","0.4136124289","0.4","0.6","0.8","0.2","0.4136124289","0.3563441379","0.3014761449","0.405260856","","","","","","","","","","","72","H","0","img/none_selected.jpg","","90","main_expt"
"321","","bandit","169","537504","0.0-130.0-0.0","63168819","wem/bandit_either","A1VCIMAAY6GUD3","either","7","","","","","","","0","0","1","","0.4184852842","0.4","0.6","0.8","0.2","0.4184852842","0.3389138503","0.2694038268","0.3827048226","","","","","","","","","","","72","H","0","img/none_selected.jpg","","91","main_expt"
"315","","bandit","170","539362","0.0-131.0-0.0","63168819","wem/bandit_either","A1VCIMAAY6GUD3","either","7","","","","","","","1","0","0","0.4456808576","","0.4","0.6","0.8","0.2","","","","","0.4456808576","0.3263360165","0.2651536323","0.3552182969","","","","","","","72","H","0","img/none_selected.jpg","","92","main_expt"
"260","","bandit","171","541145","0.0-132.0-0.0","63168819","wem/bandit_either","A1VCIMAAY6GUD3","either","7","","","","","","","0","1","0","","0.4355219805","0.4","0.6","0.8","0.2","0.4355219805","0.2844131911","0.1997208586","0.3286897504","","","","","","","","","","","72","H","0","img/none_selected.jpg","","93","main_expt"
"270","","bandit","172","542951","0.0-133.0-0.0","63168819","wem/bandit_either","A1VCIMAAY6GUD3","either","7","","","","","","","1","0","0","0.4609821192","","0.4","0.6","0.8","0.2","","","","","0.4609821192","0.2978465223","0.2442555344","0.3422490236","","","","","","","72","H","0","img/none_selected.jpg","","94","main_expt"
"90","","bandit","173","544562","0.0-134.0-0.0","63168819","wem/bandit_either","A1VCIMAAY6GUD3","either","7","","","","","","","0","0","1","","0.4419374505","0.4","0.6","0.8","0.2","0.4419374505","0.2638723705","0.2638839348","0.3160161054","","","","","","","","","","","72","H","0","img/none_selected.jpg","","95","main_expt"
"300","","bandit","174","546380","0.0-135.0-0.0","63168819","wem/bandit_either","A1VCIMAAY6GUD3","either","7","","","","","","","1","0","0","0.39438674","","0.4","0.6","0.8","0.2","","","","","0.39438674","0.2276010735","0.2265245807","0.2945538732","","","","","","","72","H","0","img/none_selected.jpg","","96","main_expt"
"263","","bandit","175","548184","0.0-136.0-0.0","63168819","wem/bandit_either","A1VCIMAAY6GUD3","either","7","","","","","","","0","0","1","0.3617668419","","0.4","0.6","0.8","0.2","","","","","0.3617668419","0.2045446072","0.1969189177","0.393563827","","","","","","","72","H","0","img/none_selected.jpg","","97","main_expt"
"271","","bandit","176","549980","0.0-137.0-0.0","63168819","wem/bandit_either","A1VCIMAAY6GUD3","either","7","","","","","","","0","1","0","","0.3737913853","0.4","0.6","0.8","0.2","0.3737913853","0.2436418828","0.1761144245","0.4046254927","","","","","","","","","","","72","H","0","img/none_selected.jpg","","98","main_expt"
"258","","bandit","177","551771","0.0-138.0-0.0","63168819","wem/bandit_either","A1VCIMAAY6GUD3","either","7","","","","","","","0","0","1","","0.4221129479","0.4","0.6","0.8","0.2","0.4221129479","0.2473144087","0.1211630765","0.3659012549","","","","","","","","","","","72","H","0","img/none_selected.jpg","","99","main_expt"
"196","","bandit","178","553484","0.0-139.0-0.0","63168819","wem/bandit_either","A1VCIMAAY6GUD3","either","7","","","","","","","1","0","0","0.3857893684","","0.4","0.6","0.8","0.2","","","","","0.3857893684","0.2707360286","0.1257326749","0.400368336","","","","","","","72","H","0","img/none_selected.jpg","","100","main_expt"
"566","","bandit","179","555593","0.0-140.0-0.0","63168819","wem/bandit_either","A1VCIMAAY6GUD3","either","7","","","","","","","0","0","1","0.3635527264","","0.4","0.6","0.8","0.2","","","","","0.3635527264","0.3250409822","0.09975532208","0.4367931528","","","","","","","72","H","0","img/none_selected.jpg","","101","main_expt"
"747","","bandit","180","557872","0.0-141.0-0.0","63168819","wem/bandit_either","A1VCIMAAY6GUD3","either","7","","","","","","","0","0","1","","0.3738375489","0.4","0.6","0.8","0.2","0.3738375489","0.3088580598","0.1127414424","0.4371155326","","","","","","","","","","","72","H","0","img/none_selected.jpg","","102","main_expt"
"118","","bandit","181","559522","0.0-142.0-0.0","63168819","wem/bandit_either","A1VCIMAAY6GUD3","either","7","","","","","","","0","0","1","","0.3860163181","0.4","0.6","0.8","0.2","0.3860163181","0.2901001995","0.1232600734","0.388648264","","","","","","","","","","","72","H","0","img/none_selected.jpg","","103","main_expt"
"74","","bandit","182","561143","0.0-143.0-0.0","63168819","wem/bandit_either","A1VCIMAAY6GUD3","either","7","","","","","","","0","0","1","","0.390692362","0.4","0.6","0.8","0.2","0.390692362","0.309645936","0.08156843846","0.3718469433","","","","","","","","","","","72","H","0","img/none_selected.jpg","","104","main_expt"
"4734","","bandit","183","567395","0.0-144.0-0.0","63168819","wem/bandit_either","A1VCIMAAY6GUD3","either","7","","","","","","","0","0","1","","0.4139082553","0.4","0.6","0.8","0.2","0.4139082553","0.3386062745","0.08245659199","0.3920304628","","","","","","","","","","","72","H","0","img/none_selected.jpg","","105","main_expt"
"728","","bandit","184","569668","0.0-145.0-0.0","63168819","wem/bandit_either","A1VCIMAAY6GUD3","either","7","","","","","","","0","0","1","","0.3295275825","0.4","0.6","0.8","0.2","0.3295275825","0.3827539061","0.1276639339","0.3733497125","","","","","","","","","","","72","H","0","img/none_selected.jpg","","106","main_expt"
"142","","bandit","185","571340","0.0-146.0-0.0","63168819","wem/bandit_either","A1VCIMAAY6GUD3","either","7","","","","","","","0","0","1","0.3499712774","","0.4","0.6","0.8","0.2","","","","","0.3499712774","0.3401355396","0.1812689745","0.3878439861","","","","","","","72","H","0","img/none_selected.jpg","","107","main_expt"
"679","","bandit","186","573552","0.0-147.0-0.0","63168819","wem/bandit_either","A1VCIMAAY6GUD3","either","7","","","","","","","0","0","1","0.2666891207","","0.4","0.6","0.8","0.2","","","","","0.2666891207","0.3258039352","0.2187982558","0.3529013302","","","","","","","72","H","0","img/none_selected.jpg","","108","main_expt"
"13","","bandit","187","575086","0.0-148.0-0.0","63168819","wem/bandit_either","A1VCIMAAY6GUD3","either","7","","","","","","","0","0","1","0.374919859","","0.4","0.6","0.8","0.2","","","","","0.2575067634","0.374919859","0.2201216928","0.3457683734","","","","","","","74","J","1","","","109","main_expt"
"209","","bandit","188","576820","0.0-149.0-0.0","63168819","wem/bandit_either","A1VCIMAAY6GUD3","either","7","","","","","","","0","0","1","0.1789817232","","0.4","0.6","0.8","0.2","","","","","0.2664913793","0.3656186065","0.1789817232","0.3316873257","","","","","","","75","K","2","","","110","main_expt"
"21","","bandit","189","578363","0.0-150.0-0.0","63168819","wem/bandit_either","A1VCIMAAY6GUD3","either","7","","","","","","","0","0","1","","0.3434945318","0.4","0.6","0.8","0.2","0.2233446911","0.3649701027","0.2404947452","0.3434945318","","","","","","","","","","","76","L","3","","","111","main_expt"
"152","","bandit","190","580045","0.0-151.0-0.0","63168819","wem/bandit_either","A1VCIMAAY6GUD3","either","7","","","","","","","0","0","1","","0.2959558532","0.4","0.6","0.8","0.2","0.2170082082","0.3371716456","0.2959558532","0.2729480053","","","","","","","","","","","75","K","2","","","112","main_expt"
"28","","bandit","191","581604","0.0-152.0-0.0","63168819","wem/bandit_either","A1VCIMAAY6GUD3","either","7","","","","","","","0","0","1","","0.2587224119","0.4","0.6","0.8","0.2","0.1912277411","0.2587224119","0.2966985553","0.2579672073","","","","","","","","","","","74","J","1","","","113","main_expt"
"289","","bandit","192","583430","0.0-153.0-0.0","63168819","wem/bandit_either","A1VCIMAAY6GUD3","either","7","","","","","","","0","0","1","","0.1691995451","0.4","0.6","0.8","0.2","0.1691995451","0.2384324947","0.3289730608","0.24654084","","","","","","","","","","","72","H","0","img/none_selected.jpg","","114","main_expt"
"259","","bandit","193","585214","0.0-154.0-0.0","63168819","wem/bandit_either","A1VCIMAAY6GUD3","either","7","","","","","","","0","0","1","0.246649757","","0.4","0.6","0.8","0.2","","","","","0.1263730162","0.2705755989","0.2783705844","0.246649757","","","","","","","76","L","3","","","115","main_expt"
"118","","bandit","194","586865","0.0-155.0-0.0","63168819","wem/bandit_either","A1VCIMAAY6GUD3","either","7","","","","","","","0","0","1","","0.2190482835","0.4","0.6","0.8","0.2","0.1130092975","0.2666822","0.2990421824","0.2190482835","","","","","","","","","","","76","L","3","","","116","main_expt"
"267","","bandit","195","588666","0.0-156.0-0.0","63168819","wem/bandit_either","A1VCIMAAY6GUD3","either","7","","","","","","","0","0","1","0.3214730448","","0.4","0.6","0.8","0.2","","","","","0.1317362661","0.2664749026","0.3214730448","0.1860086181","","","","","","","75","K","2","","","117","main_expt"
"282","","bandit","196","590489","0.0-157.0-0.0","63168819","wem/bandit_either","A1VCIMAAY6GUD3","either","7","","","","","","","0","1","0","","0.285497096","0.4","0.6","0.8","0.2","0.08460291254","0.285497096","0.3996160597","0.1765749983","","","","","","","","","","","74","J","1","","","118","main_expt"
"308","","bandit","197","592330","0.0-158.0-0.0","63168819","wem/bandit_either","A1VCIMAAY6GUD3","either","7","","","","","","","0","1","0","","0.3004427434","0.4","0.6","0.8","0.2","0.09168363065","0.3004427434","0.4143362638","0.1840588368","","","","","","","","","","","74","J","1","","","119","main_expt"
"367","","bandit","198","594241","0.0-159.0-0.0","63168819","wem/bandit_either","A1VCIMAAY6GUD3","either","7","","","","","","","0","0","1","0.2419855731","","0.4","0.6","0.8","0.2","","","","","0.06729372802","0.2419855731","0.372340151","0.1988357929","","","","","","","74","J","1","","","120","main_expt"
"523","","bandit","199","596304","0.0-160.0-0.0","63168819","wem/bandit_either","A1VCIMAAY6GUD3","either","7","","","","","","","1","0","0","0.3054132847","","0.4","0.6","0.8","0.2","","","","","0.08346408207","0.3054132847","0.3910424524","0.2315674","","","","","","","74","J","1","","","121","main_expt"
"4396","","bandit","200","602235","0.0-161.0-0.0","63168819","wem/bandit_either","A1VCIMAAY6GUD3","either","7","","","","","","","0","0","1","","0.2473202095","0.4","0.6","0.8","0.2","0.05632743158","0.2473202095","0.3813410711","0.2041322171","","","","","","","","","","","74","J","1","","","122","main_expt"
"1057","","bandit","201","604829","0.0-162.0-0.0","63168819","wem/bandit_either","A1VCIMAAY6GUD3","either","7","","","","","","","0","0","1","0.2909195989","","0.4","0.6","0.8","0.2","","","","","0.05516745574","0.2909195989","0.4247291795","0.1945268209","","","","","","","74","J","1","","","123","main_expt"
"311","","bandit","202","606664","0.0-163.0-0.0","63168819","wem/bandit_either","A1VCIMAAY6GUD3","either","7","","","","","","","0","0","1","","0.3493750294","0.4","0.6","0.8","0.2","0.05528311039","0.3493750294","0.4311179713","0.2206749142","","","","","","","","","","","74","J","1","","","124","main_expt"
"328","","bandit","203","608518","0.0-164.0-0.0","63168819","wem/bandit_either","A1VCIMAAY6GUD3","either","7","","","","","","","1","0","0","0.3883668019","","0.4","0.6","0.8","0.2","","","","","0.07149807259","0.3883668019","0.4085782939","0.212012295","","","","","","","74","J","1","","","125","main_expt"
"1988","","bandit","204","612032","0.0-165.0-0.0","63168819","wem/bandit_either","A1VCIMAAY6GUD3","either","7","","","","","","","0","1","0","","0.3888129637","0.4","0.6","0.8","0.2","0.1137803622","0.3888129637","0.4110861309","0.1656684785","","","","","","","","","","","74","J","1","","","126","main_expt"
"509","","bandit","205","614078","0.0-166.0-0.0","63168819","wem/bandit_either","A1VCIMAAY6GUD3","either","7","","","","","","","0","0","1","0.3659195129","","0.4","0.6","0.8","0.2","","","","","0.1003054442","0.3659195129","0.4214671818","0.1685301808","","","","","","","74","J","1","","","127","main_expt"
"352","","bandit","206","615958","0.0-167.0-0.0","63168819","wem/bandit_either","A1VCIMAAY6GUD3","either","7","","","","","","","1","0","0","0.3689954399","","0.4","0.6","0.8","0.2","","","","","0.1378169536","0.3689954399","0.36889317","0.1703551811","","","","","","","74","J","1","","","128","main_expt"
"260","","bandit","207","617745","0.0-168.0-0.0","63168819","wem/bandit_either","A1VCIMAAY6GUD3","either","7","","","","","","","0","0","1","0.3600340942","","0.4","0.6","0.8","0.2","","","","","0.1333081235","0.3600340942","0.3840267129","0.1624753709","","","","","","","74","J","1","","","129","main_expt"
"286","","bandit","208","619552","0.0-169.0-0.0","63168819","wem/bandit_either","A1VCIMAAY6GUD3","either","7","","","","","","","0","0","1","0.3580797835","","0.4","0.6","0.8","0.2","","","","","0.1682212827","0.3580797835","0.3809677701","0.2335662737","","","","","","","74","J","1","","","130","main_expt"
"451","","bandit","209","621527","0.0-170.0-0.0","63168819","wem/bandit_either","A1VCIMAAY6GUD3","either","7","","","","","","","0","0","1","","0.3785893338","0.4","0.6","0.8","0.2","0.2193829955","0.3785893338","0.3681933818","0.240441026","","","","","","","","","","","74","J","1","","","131","main_expt"
"336","","bandit","210","623397","0.0-171.0-0.0","63168819","wem/bandit_either","A1VCIMAAY6GUD3","either","7","","","","","","","0","0","1","0.2693349046","","0.4","0.6","0.8","0.2","","","","","0.2693349046","0.3764735404","0.3664045944","0.2266699971","","","","","","","72","H","0","img/none_selected.jpg","","132","main_expt"
"297","","bandit","211","625237","0.0-172.0-0.0","63168819","wem/bandit_either","A1VCIMAAY6GUD3","either","7","","","","","","","1","0","0","0.4046437197","","0.4","0.6","0.8","0.2","","","","","0.2576546077","0.3433534211","0.4046437197","0.1994193025","","","","","","","75","K","2","","","133","main_expt"
"150","","bandit","212","626925","0.0-173.0-0.0","63168819","wem/bandit_either","A1VCIMAAY6GUD3","either","7","","","","","","","1","0","0","0.364490756","","0.4","0.6","0.8","0.2","","","","","0.2412372273","0.3606247271","0.364490756","0.1891464922","","","","","","","75","K","2","","","134","main_expt"
"337","","bandit","213","628804","0.0-174.0-0.0","63168819","wem/bandit_either","A1VCIMAAY6GUD3","either","7","","","","","","","0","0","1","0.311914316","","0.4","0.6","0.8","0.2","","","","","0.2198641054","0.3268624306","0.311914316","0.1614798668","","","","","","","75","K","2","","","135","main_expt"
"11","","bandit","214","630345","0.0-175.0-0.0","63168819","wem/bandit_either","A1VCIMAAY6GUD3","either","7","","","","","","","0","0","1","0.2653901568","","0.4","0.6","0.8","0.2","","","","","0.2504132697","0.2854606769","0.2653901568","0.1880386222","","","","","","","75","K","2","","","136","main_expt"
"331","","bandit","215","632227","0.0-176.0-0.0","63168819","wem/bandit_either","A1VCIMAAY6GUD3","either","7","","","","","","","0","0","1","0.2413295316","","0.4","0.6","0.8","0.2","","","","","0.1912230989","0.3311747399","0.2413295316","0.1961818793","","","","","","","75","K","2","","","137","main_expt"
"119","","bandit","216","633882","0.0-177.0-0.0","63168819","wem/bandit_either","A1VCIMAAY6GUD3","either","7","","","","","","","0","1","0","","0.2060295423","0.4","0.6","0.8","0.2","0.1576256809","0.2570785188","0.2060295423","0.2857678963","","","","","","","","","","","75","K","2","","","138","main_expt"
"326","","bandit","217","635752","0.0-178.0-0.0","63168819","wem/bandit_either","A1VCIMAAY6GUD3","either","7","","","","","","","1","0","0","0.1809645164","","0.4","0.6","0.8","0.2","","","","","0.1019788138","0.2858060749","0.1809645164","0.3449131854","","","","","","","75","K","2","","","139","main_expt"
"264","","bandit","218","637552","0.0-179.0-0.0","63168819","wem/bandit_either","A1VCIMAAY6GUD3","either","7","","","","","","","0","0","1","0.1843216893","","0.4","0.6","0.8","0.2","","","","","0.07754087054","0.2975559752","0.1843216893","0.2537716732","","","","","","","75","K","2","","","140","main_expt"
"280","","bandit","219","639358","0.0-180.0-0.0","63168819","wem/bandit_either","A1VCIMAAY6GUD3","either","7","","","","","","","1","0","0","0.1651876155","","0.4","0.6","0.8","0.2","","","","","0.09489610577","0.2802168405","0.1651876155","0.2858111263","","","","","","","75","K","2","","","141","main_expt"
"256","","bandit","220","641157","0.0-181.0-0.0","63168819","wem/bandit_either","A1VCIMAAY6GUD3","either","7","","","","","","","1","0","0","0.1536427928","","0.4","0.6","0.8","0.2","","","","","0.09601428546","0.2231986748","0.1536427928","0.303049367","","","","","","","75","K","2","","","142","main_expt"
"274","","bandit","221","642962","0.0-182.0-0.0","63168819","wem/bandit_either","A1VCIMAAY6GUD3","either","7","","","","","","","0","0","1","","0.1546140226","0.4","0.6","0.8","0.2","0.08301142993","0.2032880393","0.1546140226","0.2969419413","","","","","","","","","","","75","K","2","","","143","main_expt"
"320","","bandit","222","644815","0.0-183.0-0.0","63168819","wem/bandit_either","A1VCIMAAY6GUD3","either","7","","","","","","","1","0","0","0.1746031107","","0.4","0.6","0.8","0.2","","","","","0.09599686985","0.1967741464","0.1746031107","0.3128690494","","","","","","","75","K","2","","","144","main_expt"
"326","","bandit","223","646683","0.0-184.0-0.0","63168819","wem/bandit_either","A1VCIMAAY6GUD3","either","7","","","","","","","0","0","1","","0.2021387556","0.4","0.6","0.8","0.2","0.07499383622","0.2283154954","0.2021387556","0.2991796355","","","","","","","","","","","75","K","2","","","145","main_expt"
"364","","bandit","224","648584","0.0-185.0-0.0","63168819","wem/bandit_either","A1VCIMAAY6GUD3","either","7","","","","","","","0","0","1","0.2504344391","","0.4","0.6","0.8","0.2","","","","","0.09566861","0.2118700154","0.2504344391","0.3163763193","","","","","","","75","K","2","","","146","main_expt"
"496","","bandit","225","650627","0.0-186.0-0.0","63168819","wem/bandit_either","A1VCIMAAY6GUD3","either","7","","","","","","","1","0","0","0.2437718569","","0.4","0.6","0.8","0.2","","","","","0.08578591382","0.210437557","0.2437718569","0.3198025905","","","","","","","75","K","2","","","147","main_expt"
"283","","bandit","226","652443","0.0-187.0-0.0","63168819","wem/bandit_either","A1VCIMAAY6GUD3","either","7","","","","","","","0","0","1","0.2446677265","","0.4","0.6","0.8","0.2","","","","","0.1147887709","0.2370661354","0.2446677265","0.2588245921","","","","","","","75","K","2","","","148","main_expt"
"227","","bandit","227","654213","0.0-188.0-0.0","63168819","wem/bandit_either","A1VCIMAAY6GUD3","either","7","","","","","","","1","0","0","0.2911002833","","0.4","0.6","0.8","0.2","","","","","0.1378203382","0.2430363771","0.2911002833","0.248712437","","","","","","","75","K","2","","","149","main_expt"
"251","","bandit","228","656001","0.0-189.0-0.0","63168819","wem/bandit_either","A1VCIMAAY6GUD3","either","7","","","","","","","0","0","1","0.3529655025","","0.4","0.6","0.8","0.2","","","","","0.1414499273","0.2242182381","0.3529655025","0.179144869","","","","","","","75","K","2","","","150","main_expt"
"292","","bandit","229","657819","0.0-190.0-0.0","63168819","wem/bandit_either","A1VCIMAAY6GUD3","either","7","","","","","","","1","0","0","0.3885741111","","0.4","0.6","0.8","0.2","","","","","0.07852348772","0.1997145133","0.3885741111","0.1545669956","","","","","","","75","K","2","","","151","main_expt"
"307","","bandit","230","659667","0.0-191.0-0.0","63168819","wem/bandit_either","A1VCIMAAY6GUD3","either","7","","","","","","","1","0","0","0.3690499696","","0.4","0.6","0.8","0.2","","","","","0.08485793113","0.2195927633","0.3690499696","0.1651714415","","","","","","","75","K","2","","","152","main_expt"
"275","","bandit","231","661480","0.0-192.0-0.0","63168819","wem/bandit_either","A1VCIMAAY6GUD3","either","7","","","","","","","0","0","1","0.3710492515","","0.4","0.6","0.8","0.2","","","","","0.1083789561","0.2121816628","0.3710492515","0.2396245514","","","","","","","75","K","2","","","153","main_expt"
"695","","bandit","232","663712","0.0-193.0-0.0","63168819","wem/bandit_either","A1VCIMAAY6GUD3","either","7","","","","","","","0","0","1","0.3483335413","","0.4","0.6","0.8","0.2","","","","","0.109098481","0.1830588608","0.3483335413","0.2085838567","","","","","","","75","K","2","","","154","main_expt"
"41","","bandit","233","665289","0.0-194.0-0.0","63168819","wem/bandit_either","A1VCIMAAY6GUD3","either","7","","","","","","","1","0","0","0.3343760247","","0.4","0.6","0.8","0.2","","","","","0.1758262092","0.2031423662","0.3343760247","0.1864274254","","","","","","","75","K","2","","","155","main_expt"
"1","","bandit","234","666819","0.0-195.0-0.0","63168819","wem/bandit_either","A1VCIMAAY6GUD3","either","7","","","","","","","0","0","1","","0.3742013553","0.4","0.6","0.8","0.2","0.2046597001","0.2022731065","0.3742013553","0.1750870897","","","","","","","","","","","75","K","2","","","156","main_expt"
"318","","bandit","235","668687","0.0-196.0-0.0","63168819","wem/bandit_either","A1VCIMAAY6GUD3","either","7","","","","","","","0","0","1","0.3620366094","","0.4","0.6","0.8","0.2","","","","","0.1774751899","0.1826661219","0.3620366094","0.1321985386","","","","","","","75","K","2","","","157","main_expt"
"623","","bandit","236","670842","0.0-197.0-0.0","63168819","wem/bandit_either","A1VCIMAAY6GUD3","either","7","","","","","","","1","0","0","0.3671714071","","0.4","0.6","0.8","0.2","","","","","0.1612033886","0.1658993888","0.3671714071","0.1341899746","","","","","","","75","K","2","","","158","main_expt"
"416","","bandit","237","672794","0.0-198.0-0.0","63168819","wem/bandit_either","A1VCIMAAY6GUD3","either","7","","","","","","","0","0","1","","0.4015988616","0.4","0.6","0.8","0.2","0.1586838935","0.1620079643","0.4015988616","0.1567784951","","","","","","","","","","","75","K","2","","","159","main_expt"
"252","","bandit","238","674596","0.0-199.0-0.0","63168819","wem/bandit_either","A1VCIMAAY6GUD3","either","7","","","","","","","0","0","1","0.4004877553","","0.4","0.6","0.8","0.2","","","","","0.2159944071","0.2453635642","0.4004877553","0.1615549635","","","","","","","75","K","2","","","160","main_expt"
"291","","bandit","239","676428","0.0-200.0-0.0","63168819","wem/bandit_either","A1VCIMAAY6GUD3","either","7","","","","","","","0","0","1","0.4095849454","","0.4","0.6","0.8","0.2","","","","","0.2105769377","0.2456373749","0.4095849454","0.1854631015","","","","","","","75","K","2","","","161","main_expt"
"248","","bandit","240","678198","0.0-201.0-0.0","63168819","wem/bandit_either","A1VCIMAAY6GUD3","either","7","","","","","","","0","0","1","0.3978002783","","0.4","0.6","0.8","0.2","","","","","0.2006925765","0.2460125232","0.3978002783","0.21229469","","","","","","","75","K","2","","","162","main_expt"
"328","","bandit","241","680051","0.0-202.0-0.0","63168819","wem/bandit_either","A1VCIMAAY6GUD3","either","7","","","","","","","0","0","1","","0.2013568893","0.4","0.6","0.8","0.2","0.2365124807","0.2013568893","0.4180552148","0.162194177","","","","","","","","","","","74","J","1","","","163","main_expt"
"346","","bandit","242","681927","0.0-203.0-0.0","63168819","wem/bandit_either","A1VCIMAAY6GUD3","either","7","","","","","","","0","0","1","","0.2157370886","0.4","0.6","0.8","0.2","0.2157370886","0.1933595846","0.4407560021","0.1535707797","","","","","","","","","","","72","H","0","img/none_selected.jpg","","164","main_expt"
"433","","bandit","243","683894","0.0-204.0-0.0","63168819","wem/bandit_either","A1VCIMAAY6GUD3","either","7","","","","","","","0","0","1","0.2315934193","","0.4","0.6","0.8","0.2","","","","","0.2166787898","0.167552211","0.4582960521","0.2315934193","","","","","","","76","L","3","","","165","main_expt"
"152","","bandit","244","685583","0.0-205.0-0.0","63168819","wem/bandit_either","A1VCIMAAY6GUD3","either","7","","","","","","","0","0","1","","0.2579087381","0.4","0.6","0.8","0.2","0.1846262972","0.1311237951","0.4337500892","0.2579087381","","","","","","","","","","","76","L","3","","","166","main_expt"
"294","","bandit","245","687404","0.0-206.0-0.0","63168819","wem/bandit_either","A1VCIMAAY6GUD3","either","7","","","","","","","0","0","1","","0.1714029316","0.4","0.6","0.8","0.2","0.1888750078","0.1714029316","0.4537582576","0.2496457694","","","","","","","","","","","74","J","1","","","167","main_expt"
"293","","bandit","246","689239","0.0-207.0-0.0","63168819","wem/bandit_either","A1VCIMAAY6GUD3","either","7","","","","","","","0","0","1","","0.1494402723","0.4","0.6","0.8","0.2","0.2315683769","0.1494402723","0.4473485534","0.234558796","","","","","","","","","","","74","J","1","","","168","main_expt"
"313","","bandit","247","691082","0.0-208.0-0.0","63168819","wem/bandit_either","A1VCIMAAY6GUD3","either","7","","","","","","","0","0","1","","0.2018123945","0.4","0.6","0.8","0.2","0.2018123945","0.1819888556","0.4471591033","0.2458600006","","","","","","","","","","","72","H","0","img/none_selected.jpg","","169","main_expt"
"249","","bandit","248","692863","0.0-209.0-0.0","63168819","wem/bandit_either","A1VCIMAAY6GUD3","either","7","","","","","","","0","0","1","","0.139238222","0.4","0.6","0.8","0.2","0.139238222","0.2329206984","0.4581839475","0.2214583157","","","","","","","","","","","72","H","0","img/none_selected.jpg","","170","main_expt"
"315","","bandit","249","694716","0.0-210.0-0.0","63168819","wem/bandit_either","A1VCIMAAY6GUD3","either","7","","","","","","","0","0","1","0.4674995421","","0.4","0.6","0.8","0.2","","","","","0.1466511374","0.2000607923","0.4674995421","0.296208115","","","","","","","75","K","2","","","171","main_expt"
"249","","bandit","250","696492","0.0-211.0-0.0","63168819","wem/bandit_either","A1VCIMAAY6GUD3","either","7","","","","","","","0","0","1","0.4455620345","","0.4","0.6","0.8","0.2","","","","","0.1348290388","0.2342957318","0.4455620345","0.3062379281","","","","","","","75","K","2","","","172","main_expt"
"274","","bandit","251","698318","0.0-212.0-0.0","63168819","wem/bandit_either","A1VCIMAAY6GUD3","either","7","","","","","","","0","0","1","","0.2498067723","0.4","0.6","0.8","0.2","0.1521691919","0.2189308077","0.4471610379","0.2498067723","","","","","","","","","","","76","L","3","","","173","main_expt"
"289","","bandit","252","700159","0.0-213.0-0.0","63168819","wem/bandit_either","A1VCIMAAY6GUD3","either","7","","","","","","","0","0","1","","0.1803522277","0.4","0.6","0.8","0.2","0.2191935525","0.2373932689","0.4496576915","0.1803522277","","","","","","","","","","","76","L","3","","","174","main_expt"
"305","","bandit","253","702002","0.0-214.0-0.0","63168819","wem/bandit_either","A1VCIMAAY6GUD3","either","7","","","","","","","1","0","0","0.4715297358","","0.4","0.6","0.8","0.2","","","","","0.219961305","0.2160264752","0.4715297358","0.2014319342","","","","","","","75","K","2","","","175","main_expt"
"247","","bandit","254","703785","0.0-215.0-0.0","63168819","wem/bandit_either","A1VCIMAAY6GUD3","either","7","","","","","","","1","0","0","0.477956151","","0.4","0.6","0.8","0.2","","","","","0.1882485239","0.1990604306","0.477956151","0.2122003168","","","","","","","75","K","2","","","176","main_expt"
"310","","bandit","255","705632","0.0-216.0-0.0","63168819","wem/bandit_either","A1VCIMAAY6GUD3","either","7","","","","","","","1","0","0","0.4563721206","","0.4","0.6","0.8","0.2","","","","","0.1644902553","0.1729978196","0.4563721206","0.2629069455","","","","","","","75","K","2","","","177","main_expt"
"160","","bandit","256","707318","0.0-217.0-0.0","63168819","wem/bandit_either","A1VCIMAAY6GUD3","either","7","","","","","","","1","0","0","0.4409869931","","0.4","0.6","0.8","0.2","","","","","0.1713669852","0.1633080779","0.4409869931","0.2336104206","","","","","","","75","K","2","","","178","main_expt"
"343","","bandit","257","709213","0.0-218.0-0.0","63168819","wem/bandit_either","A1VCIMAAY6GUD3","either","7","","","","","","","1","0","0","0.4243126063","","0.4","0.6","0.8","0.2","","","","","0.2263400462","0.1243251356","0.4243126063","0.1887504226","","","","","","","75","K","2","","","179","main_expt"
"300","","bandit","258","711048","0.0-219.0-0.0","63168819","wem/bandit_either","A1VCIMAAY6GUD3","either","7","","","","","","","0","0","1","0.4312830743","","0.4","0.6","0.8","0.2","","","","","0.2036870175","0.1150149055","0.4312830743","0.138376641","","","","","","","75","K","2","","","180","main_expt"
"190","","bandit","259","712782","0.0-220.0-0.0","63168819","wem/bandit_either","A1VCIMAAY6GUD3","either","7","","","","","","","1","0","0","0.4433127893","","0.4","0.6","0.8","0.2","","","","","0.1934599198","0.1407924877","0.4433127893","0.1883992559","","","","","","","75","K","2","","","181","main_expt"
"281","","bandit","260","714610","0.0-221.0-0.0","63168819","wem/bandit_either","A1VCIMAAY6GUD3","either","7","","","","","","","0","0","1","","0.440136403","0.4","0.6","0.8","0.2","0.2424515525","0.09672650852","0.440136403","0.128889003","","","","","","","","","","","75","K","2","","","182","main_expt"
"503","","bandit","261","716658","0.0-222.0-0.0","63168819","wem/bandit_either","A1VCIMAAY6GUD3","either","7","","","","","","","1","0","0","0.4347693449","","0.4","0.6","0.8","0.2","","","","","0.1961777535","0.09888002855","0.4347693449","0.1748769843","","","","","","","75","K","2","","","183","main_expt"
"339","","bandit","262","718534","0.0-223.0-0.0","63168819","wem/bandit_either","A1VCIMAAY6GUD3","either","7","","","","","","","1","0","0","0.4277130926","","0.4","0.6","0.8","0.2","","","","","0.1489283113","0.07200145298","0.4277130926","0.1945994373","","","","","","","75","K","2","","","184","main_expt"
"311","","bandit","263","720369","0.0-224.0-0.0","63168819","wem/bandit_either","A1VCIMAAY6GUD3","either","7","","","","","","","0","0","1","0.3956248437","","0.4","0.6","0.8","0.2","","","","","0.1499965078","0.09476413333","0.3956248437","0.1644748654","","","","","","","75","K","2","","","185","main_expt"
"297","","bandit","264","722203","0.0-225.0-0.0","63168819","wem/bandit_either","A1VCIMAAY6GUD3","either","7","","","","","","","0","0","1","","0.3748928266","0.4","0.6","0.8","0.2","0.2169832988","0.06556422103","0.3748928266","0.1504635592","","","","","","","","","","","75","K","2","","","186","main_expt"
"259","","bandit","265","723989","0.0-226.0-0.0","63168819","wem/bandit_either","A1VCIMAAY6GUD3","either","7","","","","","","","0","0","1","","0.3848139325","0.4","0.6","0.8","0.2","0.2655186329","0.08901149072","0.3848139325","0.1760039214","","","","","","","","","","","75","K","2","","","187","main_expt"
"270","","bandit","266","725787","0.0-227.0-0.0","63168819","wem/bandit_either","A1VCIMAAY6GUD3","either","7","","","","","","","1","0","0","0.3990176401","","0.4","0.6","0.8","0.2","","","","","0.2738785118","0.09471428588","0.3990176401","0.1203267588","","","","","","","75","K","2","","","188","main_expt"
"234","","bandit","267","727571","0.0-228.0-0.0","63168819","wem/bandit_either","A1VCIMAAY6GUD3","either","7","","","","","","","1","0","0","0.3581396838","","0.4","0.6","0.8","0.2","","","","","0.3041874674","0.05118235823","0.3581396838","0.1171540391","","","","","","","75","K","2","","","189","main_expt"
"265","","bandit","268","729362","0.0-229.0-0.0","63168819","wem/bandit_either","A1VCIMAAY6GUD3","either","7","","","","","","","1","0","0","0.2882972244","","0.4","0.6","0.8","0.2","","","","","0.3229453735","0.05788318751","0.2882972244","0.1535230761","","","","","","","75","K","2","","","190","main_expt"
"291","","bandit","269","731206","0.0-230.0-0.0","63168819","wem/bandit_either","A1VCIMAAY6GUD3","either","7","","","","","","","0","0","1","0.3145326233","","0.4","0.6","0.8","0.2","","","","","0.3818249757","0.08736915481","0.3145326233","0.1372750947","","","","","","","75","K","2","","","191","main_expt"
"270","","bandit","270","733005","0.0-231.0-0.0","63168819","wem/bandit_either","A1VCIMAAY6GUD3","either","7","","","","","","","0","0","1","0.3270603702","","0.4","0.6","0.8","0.2","","","","","0.4157726243","0.08251019118","0.3270603702","0.1047771501","","","","","","","75","K","2","","","192","main_expt"
"288","","bandit","271","734831","0.0-232.0-0.0","63168819","wem/bandit_either","A1VCIMAAY6GUD3","either","7","","","","","","","0","0","1","0.3604030797","","0.4","0.6","0.8","0.2","","","","","0.4611608212","0.06897628064","0.3604030797","0.1100845432","","","","","","","75","K","2","","","193","main_expt"
"220","","bandit","272","736590","0.0-233.0-0.0","63168819","wem/bandit_either","A1VCIMAAY6GUD3","either","7","","","","","","","0","0","1","","0.357423186","0.4","0.6","0.8","0.2","0.4508818777","0.06801266305","0.357423186","0.1468163818","","","","","","","","","","","75","K","2","","","194","main_expt"
"263","","bandit","273","738378","0.0-234.0-0.0","63168819","wem/bandit_either","A1VCIMAAY6GUD3","either","7","","","","","","","0","1","0","","0.3697779856","0.4","0.6","0.8","0.2","0.4278921451","0.09923709358","0.3697779856","0.1495594621","","","","","","","","","","","75","K","2","","","195","main_expt"
"262","","bandit","274","740189","0.0-235.0-0.0","63168819","wem/bandit_either","A1VCIMAAY6GUD3","either","7","","","","","","","0","0","1","0.3617177512","","0.4","0.6","0.8","0.2","","","","","0.4256293003","0.1103063831","0.3617177512","0.2263220537","","","","","","","75","K","2","","","196","main_expt"
"279","","bandit","275","742003","0.0-236.0-0.0","63168819","wem/bandit_either","A1VCIMAAY6GUD3","either","7","","","","","","","0","0","1","0.3775990084","","0.4","0.6","0.8","0.2","","","","","0.4476975038","0.07377144043","0.3775990084","0.2204718804","","","","","","","75","K","2","","","197","main_expt"
"296","","bandit","276","743836","0.0-237.0-0.0","63168819","wem/bandit_either","A1VCIMAAY6GUD3","either","7","","","","","","","0","0","1","","0.4144042571","0.4","0.6","0.8","0.2","0.4434357272","0.08863448313","0.4144042571","0.2401118457","","","","","","","","","","","75","K","2","","","198","main_expt"
"313","","bandit","277","745705","0.0-238.0-0.0","63168819","wem/bandit_either","A1VCIMAAY6GUD3","either","7","","","","","","","1","0","0","0.4081775392","","0.4","0.6","0.8","0.2","","","","","0.4245114622","0.1082179128","0.4081775392","0.2673724497","","","","","","","75","K","2","","","199","main_expt"
"354","","bandit","278","747607","0.0-239.0-0.0","63168819","wem/bandit_either","A1VCIMAAY6GUD3","either","7","","","","","","","0","0","1","0.4166156547","","0.4","0.6","0.8","0.2","","","","","0.4087100315","0.09350688576","0.4166156547","0.3125307902","","","","","","","75","K","2","","","200","main_expt"
"197","","bandit","279","749335","0.0-240.0-0.0","63168819","wem/bandit_either","A1VCIMAAY6GUD3","either","7","","","","","","","0","0","1","0.4306537176","","0.4","0.6","0.8","0.2","","","","","0.4361521275","0.1036625099","0.4306537176","0.2914574258","","","","","","","75","K","2","","","201","main_expt"
"201","","bandit","280","751084","0.0-241.0-0.0","63168819","wem/bandit_either","A1VCIMAAY6GUD3","either","7","","","","","","","1","0","0","0.449382563","","0.4","0.6","0.8","0.2","","","","","0.3332596158","0.1216733889","0.449382563","0.2550600684","","","","","","","75","K","2","","","202","main_expt"
"103","","bandit","281","752725","0.0-242.0-0.0","63168819","wem/bandit_either","A1VCIMAAY6GUD3","either","7","","","","","","","1","0","0","0.4506576586","","0.4","0.6","0.8","0.2","","","","","0.3581848779","0.120655788","0.4506576586","0.2769745997","","","","","","","75","K","2","","","203","main_expt"
"1203","","bandit","282","755478","0.0-243.0-0.0","63168819","wem/bandit_either","A1VCIMAAY6GUD3","either","7","","","","","","","1","0","0","0.454839243","","0.4","0.6","0.8","0.2","","","","","0.3597133043","0.1082970726","0.454839243","0.2752990059","","","","","","","75","K","2","","","204","main_expt"
"286","","bandit","283","757291","0.0-244.0-0.0","63168819","wem/bandit_either","A1VCIMAAY6GUD3","either","7","","","","","","","0","0","1","0.4512889682","","0.4","0.6","0.8","0.2","","","","","0.3630183988","0.09143681274","0.4512889682","0.2901512169","","","","","","","75","K","2","","","205","main_expt"
"288","","bandit","284","759114","0.0-245.0-0.0","63168819","wem/bandit_either","A1VCIMAAY6GUD3","either","7","","","","","","","0","0","1","0.4591490044","","0.4","0.6","0.8","0.2","","","","","0.3737494834","0.08377413986","0.4591490044","0.2823763913","","","","","","","75","K","2","","","206","main_expt"
"229","","bandit","285","760869","0.0-246.0-0.0","63168819","wem/bandit_either","A1VCIMAAY6GUD3","either","7","","","","","","","0","0","1","0.4650593633","","0.4","0.6","0.8","0.2","","","","","0.3668784438","0.1585073664","0.4650593633","0.2708062506","","","","","","","75","K","2","","","207","main_expt"
"141","","bandit","286","762546","0.0-247.0-0.0","63168819","wem/bandit_either","A1VCIMAAY6GUD3","either","7","","","","","","","1","0","0","0.4641513068","","0.4","0.6","0.8","0.2","","","","","0.4045351895","0.162299901","0.4641513068","0.2641553663","","","","","","","75","K","2","","","208","main_expt"
"347","","bandit","287","764438","0.0-248.0-0.0","63168819","wem/bandit_either","A1VCIMAAY6GUD3","either","7","","","","","","","1","0","0","0.4567807332","","0.4","0.6","0.8","0.2","","","","","0.4402386934","0.1542266077","0.4567807332","0.2704675845","","","","","","","75","K","2","","","209","main_expt"
"364","","bandit","288","766340","0.0-249.0-0.0","63168819","wem/bandit_either","A1VCIMAAY6GUD3","either","7","","","","","","","1","0","0","0.428253188","","0.4","0.6","0.8","0.2","","","","","0.4483623408","0.1890415559","0.428253188","0.3420868926","","","","","","","75","K","2","","","210","main_expt"
"13","","bandit","289","767885","0.0-250.0-0.0","63168819","wem/bandit_either","A1VCIMAAY6GUD3","either","7","","","","","","","1","0","0","0.410271385","","0.4","0.6","0.8","0.2","","","","","0.4471415093","0.1818133019","0.410271385","0.3069688952","","","","","","","75","K","2","","","211","main_expt"
"482","","bandit","290","769898","0.0-251.0-0.0","63168819","wem/bandit_either","A1VCIMAAY6GUD3","either","7","","","","","","","1","0","0","0.4065587724","","0.4","0.6","0.8","0.2","","","","","0.4374655127","0.1782747956","0.4065587724","0.3005379093","","","","","","","75","K","2","","","212","main_expt"
"384","","bandit","291","771819","0.0-252.0-0.0","63168819","wem/bandit_either","A1VCIMAAY6GUD3","either","7","","","","","","","1","0","0","0.4007116542","","0.4","0.6","0.8","0.2","","","","","0.4381457257","0.1935195711","0.4007116542","0.213882915","","","","","","","75","K","2","","","213","main_expt"
"413","","bandit","292","773773","0.0-253.0-0.0","63168819","wem/bandit_either","A1VCIMAAY6GUD3","either","7","","","","","","","0","0","1","0.4246209323","","0.4","0.6","0.8","0.2","","","","","0.4643769008","0.2421176173","0.4246209323","0.2138557204","","","","","","","75","K","2","","","214","main_expt"
"352","","bandit","293","775662","0.0-254.0-0.0","63168819","wem/bandit_either","A1VCIMAAY6GUD3","either","7","","","","","","","1","0","0","0.3993057066","","0.4","0.6","0.8","0.2","","","","","0.4328812357","0.2629876012","0.3993057066","0.2142566612","","","","","","","75","K","2","","","215","main_expt"
"935","","bandit","294","778144","0.0-255.0-0.0","63168819","wem/bandit_either","A1VCIMAAY6GUD3","either","7","","","","","","","0","0","1","0.3987772474","","0.4","0.6","0.8","0.2","","","","","0.4064507999","0.2977714141","0.3987772474","0.1900351118","","","","","","","75","K","2","","","216","main_expt"
"652","","bandit","295","780342","0.0-256.0-0.0","63168819","wem/bandit_either","A1VCIMAAY6GUD3","either","7","","","","","","","1","0","0","0.4101433534","","0.4","0.6","0.8","0.2","","","","","0.4197961641","0.3017601552","0.4101433534","0.2185169477","","","","","","","75","K","2","","","217","main_expt"
"428","","bandit","296","782302","0.0-257.0-0.0","63168819","wem/bandit_either","A1VCIMAAY6GUD3","either","7","","","","","","","0","0","1","0.4448029092","","0.4","0.6","0.8","0.2","","","","","0.4167397569","0.2888566207","0.4448029092","0.2240895604","","","","","","","75","K","2","","","218","main_expt"
"469","","bandit","297","784316","0.0-258.0-0.0","63168819","wem/bandit_either","A1VCIMAAY6GUD3","either","7","","","","","","","0","0","1","","0.4454766299","0.4","0.6","0.8","0.2","0.4250944588","0.2844008008","0.4454766299","0.1990808675","","","","","","","","","","","75","K","2","","","219","main_expt"
"485","","bandit","298","786343","0.0-259.0-0.0","63168819","wem/bandit_either","A1VCIMAAY6GUD3","either","7","","","","","","","0","1","0","","0.4610997771","0.4","0.6","0.8","0.2","0.4173336587","0.2225062479","0.4610997771","0.266602996","","","","","","","","","","","75","K","2","","","220","main_expt"
"423","","bandit","299","788303","0.0-260.0-0.0","63168819","wem/bandit_either","A1VCIMAAY6GUD3","either","7","","","","","","","0","1","0","","0.4642289789","0.4","0.6","0.8","0.2","0.3944711005","0.2409900116","0.4642289789","0.2443661227","","","","","","","","","","","75","K","2","","","221","main_expt"
"253","","bandit","300","790090","0.0-261.0-0.0","63168819","wem/bandit_either","A1VCIMAAY6GUD3","either","7","","","","","","","1","0","0","0.4641270597","","0.4","0.6","0.8","0.2","","","","","0.3619306912","0.1989678636","0.4641270597","0.2205922116","","","","","","","75","K","2","","","222","main_expt"
"833","","bandit","301","792467","0.0-262.0-0.0","63168819","wem/bandit_either","A1VCIMAAY6GUD3","either","7","","","","","","","0","0","1","0.4697433819","","0.4","0.6","0.8","0.2","","","","","0.4117842179","0.1902867071","0.4697433819","0.1861223506","","","","","","","75","K","2","","","223","main_expt"
"384","","bandit","302","794377","0.0-263.0-0.0","63168819","wem/bandit_either","A1VCIMAAY6GUD3","either","7","","","","","","","0","1","0","","0.460898083","0.4","0.6","0.8","0.2","0.3965092367","0.2076415522","0.460898083","0.1668884863","","","","","","","","","","","75","K","2","","","224","main_expt"
"818","","bandit","303","796736","0.0-264.0-0.0","63168819","wem/bandit_either","A1VCIMAAY6GUD3","either","7","","","","","","","1","0","0","0.4394890665","","0.4","0.6","0.8","0.2","","","","","0.4084477862","0.2393469174","0.4394890665","0.1481472712","","","","","","","75","K","2","","","225","main_expt"
"1037","","bandit","304","799320","0.0-265.0-0.0","63168819","wem/bandit_either","A1VCIMAAY6GUD3","either","7","","","","","","","1","0","0","0.4520955237","","0.4","0.6","0.8","0.2","","","","","0.4104601526","0.2425440376","0.4520955237","0.1140846591","","","","","","","75","K","2","","","226","main_expt"
"986","","bandit","305","801854","0.0-266.0-0.0","63168819","wem/bandit_either","A1VCIMAAY6GUD3","either","7","","","","","","","1","0","0","0.4324220164","","0.4","0.6","0.8","0.2","","","","","0.3899733519","0.2365603363","0.4324220164","0.1074218354","","","","","","","75","K","2","","","227","main_expt"
"469","","bandit","306","803860","0.0-267.0-0.0","63168819","wem/bandit_either","A1VCIMAAY6GUD3","either","7","","","","","","","0","0","1","0.4220482421","","0.4","0.6","0.8","0.2","","","","","0.3796730737","0.2127958296","0.4220482421","0.08065165665","","","","","","","75","K","2","","","228","main_expt"
"574","","bandit","307","805975","0.0-268.0-0.0","63168819","wem/bandit_either","A1VCIMAAY6GUD3","either","7","","","","","","","0","0","1","0.3885749154","","0.4","0.6","0.8","0.2","","","","","0.4046866514","0.2207861463","0.3885749154","0.07774059362","","","","","","","75","K","2","","","229","main_expt"
"1228","","bandit","308","808744","0.0-269.0-0.0","63168819","wem/bandit_either","A1VCIMAAY6GUD3","either","7","","","","","","","0","0","1","0.4023755806","","0.4","0.6","0.8","0.2","","","","","0.3988793555","0.2589226453","0.4023755806","0.1109483114","","","","","","","75","K","2","","","230","main_expt"
"3","","bandit","309","810280","0.0-270.0-0.0","63168819","wem/bandit_either","A1VCIMAAY6GUD3","either","7","","","","","","","0","0","1","0.3768725222","","0.4","0.6","0.8","0.2","","","","","0.3981898202","0.2956158432","0.3768725222","0.05902300203","","","","","","","75","K","2","","","231","main_expt"
"530","","bandit","310","812351","0.0-271.0-0.0","63168819","wem/bandit_either","A1VCIMAAY6GUD3","either","7","","","","","","","0","0","1","0.3619917427","","0.4","0.6","0.8","0.2","","","","","0.4411941832","0.3202484073","0.3619917427","0.06675855664","","","","","","","75","K","2","","","232","main_expt"
"482","","bandit","311","814364","0.0-272.0-0.0","63168819","wem/bandit_either","A1VCIMAAY6GUD3","either","7","","","","","","","0","0","1","0.3833578816","","0.4","0.6","0.8","0.2","","","","","0.42967461","0.2933644042","0.3833578816","0.06703699679","","","","","","","75","K","2","","","233","main_expt"
"463","","bandit","312","816361","0.0-273.0-0.0","63168819","wem/bandit_either","A1VCIMAAY6GUD3","either","7","","","","","","","0","0","1","0.3106154811","","0.4","0.6","0.8","0.2","","","","","0.4242798354","0.3106154811","0.3552131768","0.05331023031","","","","","","","74","J","1","","","234","main_expt"
"305","","bandit","313","818214","0.0-274.0-0.0","63168819","wem/bandit_either","A1VCIMAAY6GUD3","either","7","","","","","","","0","0","1","","0.3158990995","0.4","0.6","0.8","0.2","0.4617388459","0.3158990995","0.3135084543","0.05187545802","","","","","","","","","","","74","J","1","","","235","main_expt"
"335","","bandit","314","820087","0.0-275.0-0.0","63168819","wem/bandit_either","A1VCIMAAY6GUD3","either","7","","","","","","","0","0","1","","0.4619510484","0.4","0.6","0.8","0.2","0.4619510484","0.3036927748","0.244945467","0.06939909985","","","","","","","","","","","72","H","0","img/none_selected.jpg","","236","main_expt"
"323","","bandit","315","821956","0.0-276.0-0.0","63168819","wem/bandit_either","A1VCIMAAY6GUD3","either","7","","","","","","","0","1","0","","0.4482398789","0.4","0.6","0.8","0.2","0.4482398789","0.3491021326","0.1823839079","0.1210409879","","","","","","","","","","","72","H","0","img/none_selected.jpg","","237","main_expt"
"861","","bandit","316","824353","0.0-277.0-0.0","63168819","wem/bandit_either","A1VCIMAAY6GUD3","either","7","","","","","","","0","0","1","","0.4193969143","0.4","0.6","0.8","0.2","0.4193969143","0.3939254097","0.1685050226","0.1147840357","","","","","","","","","","","72","H","0","img/none_selected.jpg","","238","main_expt"
"265","","bandit","317","826149","0.0-278.0-0.0","63168819","wem/bandit_either","A1VCIMAAY6GUD3","either","7","","","","","","","0","1","0","","0.4203848948","0.4","0.6","0.8","0.2","0.4203848948","0.379108978","0.1606472637","0.1006463842","","","","","","","","","","","72","H","0","img/none_selected.jpg","","239","main_expt"
"262","","bandit","318","827956","0.0-279.0-0.0","63168819","wem/bandit_either","A1VCIMAAY6GUD3","either","7","","","","","","","0","0","1","0.4489383263","","0.4","0.6","0.8","0.2","","","","","0.4489383263","0.3876209848","0.1512795466","0.1008771133","","","","","","","72","H","0","img/none_selected.jpg","","240","main_expt"
"287","","bandit","319","829793","0.0-280.0-0.0","63168819","wem/bandit_either","A1VCIMAAY6GUD3","either","7","","","","","","","0","0","1","0.4636195567","","0.4","0.6","0.8","0.2","","","","","0.4636195567","0.3839625774","0.1916219391","0.09981833296","","","","","","","72","H","0","img/none_selected.jpg","","241","main_expt"
"305","","bandit","320","831637","0.0-281.0-0.0","63168819","wem/bandit_either","A1VCIMAAY6GUD3","either","7","","","","","","","1","0","0","0.4575307695","","0.4","0.6","0.8","0.2","","","","","0.4575307695","0.3477958629","0.1641013935","0.1171772993","","","","","","","72","H","0","img/none_selected.jpg","","242","main_expt"
"296","","bandit","321","833469","0.0-282.0-0.0","63168819","wem/bandit_either","A1VCIMAAY6GUD3","either","7","","","","","","","0","1","0","","0.4449554393","0.4","0.6","0.8","0.2","0.4449554393","0.3500658948","0.2064320789","0.1239984651","","","","","","","","","","","72","H","0","img/none_selected.jpg","","243","main_expt"
"220","","bandit","322","835218","0.0-283.0-0.0","63168819","wem/bandit_either","A1VCIMAAY6GUD3","either","7","","","","","","","0","0","1","0.4525763452","","0.4","0.6","0.8","0.2","","","","","0.4525763452","0.3452717574","0.2205496082","0.1126152289","","","","","","","72","H","0","img/none_selected.jpg","","244","main_expt"
"272","","bandit","323","837018","0.0-284.0-0.0","63168819","wem/bandit_either","A1VCIMAAY6GUD3","either","7","","","","","","","0","0","1","0.4753838692","","0.4","0.6","0.8","0.2","","","","","0.4753838692","0.3162288444","0.214276823","0.1524829061","","","","","","","72","H","0","img/none_selected.jpg","","245","main_expt"
"204","","bandit","324","838746","0.0-285.0-0.0","63168819","wem/bandit_either","A1VCIMAAY6GUD3","either","7","","","","","","","0","1","0","","0.4623654582","0.4","0.6","0.8","0.2","0.4623654582","0.2894596967","0.2084567316","0.1921750243","","","","","","","","","","","72","H","0","img/none_selected.jpg","","246","main_expt"
"157","","bandit","325","840437","0.0-286.0-0.0","63168819","wem/bandit_either","A1VCIMAAY6GUD3","either","7","","","","","","","0","0","1","","0.4331165165","0.4","0.6","0.8","0.2","0.4331165165","0.2642296388","0.2232303491","0.1931065189","","","","","","","","","","","72","H","0","img/none_selected.jpg","","247","main_expt"
"276","","bandit","326","842243","0.0-287.0-0.0","63168819","wem/bandit_either","A1VCIMAAY6GUD3","either","7","","","","","","","0","0","1","","0.4401602984","0.4","0.6","0.8","0.2","0.4401602984","0.2534255255","0.2541796534","0.2189994516","","","","","","","","","","","72","H","0","img/none_selected.jpg","","248","main_expt"
"8","","bandit","327","843781","0.0-288.0-0.0","63168819","wem/bandit_either","A1VCIMAAY6GUD3","either","7","","","","","","","0","1","0","","0.430892824","0.4","0.6","0.8","0.2","0.430892824","0.2252980971","0.232462199","0.1989243371","","","","","","","","","","","72","H","0","img/none_selected.jpg","","249","main_expt"
"316","","bandit","328","845645","0.0-289.0-0.0","63168819","wem/bandit_either","A1VCIMAAY6GUD3","either","7","","","","","","","0","0","1","","0.4282509168","0.4","0.6","0.8","0.2","0.4282509168","0.298830738","0.2877664065","0.1635706079","","","","","","","","","","","72","H","0","img/none_selected.jpg","","250","main_expt"
"64","","bandit","329","847259","0.0-290.0-0.0","63168819","wem/bandit_either","A1VCIMAAY6GUD3","either","7","","","","","","","0","0","1","0.4499649657","","0.4","0.6","0.8","0.2","","","","","0.4499649657","0.3113207693","0.2947451014","0.1738575253","","","","","","","72","H","0","img/none_selected.jpg","","251","main_expt"
"294","","bandit","330","849095","0.0-291.0-0.0","63168819","wem/bandit_either","A1VCIMAAY6GUD3","either","7","","","","","","","0","1","0","","0.458069626","0.4","0.6","0.8","0.2","0.458069626","0.2952600368","0.2581410112","0.1868362494","","","","","","","","","","","72","H","0","img/none_selected.jpg","","252","main_expt"
"348","","bandit","331","850987","0.0-292.0-0.0","63168819","wem/bandit_either","A1VCIMAAY6GUD3","either","7","","","","","","","0","1","0","","0.4419078322","0.4","0.6","0.8","0.2","0.4419078322","0.2837805879","0.2526573277","0.1888839862","","","","","","","","","","","72","H","0","img/none_selected.jpg","","253","main_expt"
