"rt","responses","trial_type","trial_index","time_elapsed","internal_node_id","subjID","study","MID","cond","drift","key_press","expt_phase","target","like","value","connected","gems","bombs","no_reward","GemPrChosen","BombPrChosen","GainOverPainPr_0","GainOverPainPr_1","GainOverPainPr_2","GainOverPainPr_3","LosePr_0","LosePr_1","LosePr_2","LosePr_3","WinPr_0","WinPr_1","WinPr_2","WinPr_3","Q0","Q1","Q2","gender","age","ethnicity","respCharCode","respKey","respChoiceNum","respChoice","practice","trial_counter","trial_label"
"11482","{""Q0"":""A3CWEIEY3TGJFX""}","survey-text","0","11489","0.0-0.0","65061698","wem/bandit_either","A3CWEIEY3TGJFX","either","5","","","","","","","","","","","","","","","","","","","","","","","","","","","","","","","","","","","",""
"12422","","text","1","24918","0.0-1.0","65061698","wem/bandit_either","A3CWEIEY3TGJFX","either","5","32","","","","","","","","","","","","","","","","","","","","","","","","","","","","","","","","","","",""
"7135","","text","2","32057","0.0-2.0","65061698","wem/bandit_either","A3CWEIEY3TGJFX","either","5","32","","","","","","","","","","","","","","","","","","","","","","","","","","","","","","","","","","",""
"20238","","text","3","52297","0.0-3.0","65061698","wem/bandit_either","A3CWEIEY3TGJFX","either","5","32","","","","","","","","","","","","","","","","","","","","","","","","","","","","","","","","","","",""
"13622","","text","4","65921","0.0-4.0","65061698","wem/bandit_either","A3CWEIEY3TGJFX","either","5","32","","","","","","","","","","","","","","","","","","","","","","","","","","","","","","","","","","",""
"26491","","text","5","92418","0.0-5.0","65061698","wem/bandit_either","A3CWEIEY3TGJFX","either","5","32","","","","","","","","","","","","","","","","","","","","","","","","","","","","","","","","","","",""
"8537","","text","6","100962","0.0-6.0","65061698","wem/bandit_either","A3CWEIEY3TGJFX","either","5","32","","","","","","","","","","","","","","","","","","","","","","","","","","","","","","","","","","",""
"5264","","text","7","106230","0.0-7.0","65061698","wem/bandit_either","A3CWEIEY3TGJFX","either","5","32","","","","","","","","","","","","","","","","","","","","","","","","","","","","","","","","","","",""
"15569","","identification","8","121841","0.0-8.0-0.0","65061698","wem/bandit_either","A3CWEIEY3TGJFX","either","5","","identification_pre","the village of Zur","","","","","","","","","","","","","","","","","","","","","","","","","","","","","","","","",""
"12638","","identification","9","135506","0.0-8.0-1.0","65061698","wem/bandit_either","A3CWEIEY3TGJFX","either","5","","identification_pre","the village of Nyx","","","","","","","","","","","","","","","","","","","","","","","","","","","","","","","","",""
"7005","","text","10","143515","0.0-9.0","65061698","wem/bandit_either","A3CWEIEY3TGJFX","either","5","32","","","","","","","","","","","","","","","","","","","","","","","","","","","","","","","","","","",""
"1996","","text","11","145513","0.0-10.0","65061698","wem/bandit_either","A3CWEIEY3TGJFX","either","5","32","","","","","","","","","","","","","","","","","","","","","","","","","","","","","","","","","","",""
"1901","","text","12","147417","0.0-11.0","65061698","wem/bandit_either","A3CWEIEY3TGJFX","either","5","32","","","","","","","","","","","","","","","","","","","","","","","","","","","","","","","","","","",""
"7870","","text","13","155288","0.0-12.0","65061698","wem/bandit_either","A3CWEIEY3TGJFX","either","5","32","","","","","","","","","","","","","","","","","","","","","","","","","","","","","","","","","","",""
"1064","","bandit","14","157866","0.0-13.0-0.0","65061698","wem/bandit_either","A3CWEIEY3TGJFX","either","5","","","","","","","0","0","1","0","0","","","","","0","","","","0","","","","","","","","","","74","J","0","img/none_selected_demo.jpg","true","0",""
"1249","","bandit","15","160625","0.0-14.0-0.0","65061698","wem/bandit_either","A3CWEIEY3TGJFX","either","5","","","","","","","0","0","1","0","0","","","","","0","","","","0","","","","","","","","","","75","K","0","img/none_selected_demo.jpg","true","0",""
"9832","","text","16","170460","0.0-15.0","65061698","wem/bandit_either","A3CWEIEY3TGJFX","either","5","32","","","","","","","","","","","","","","","","","","","","","","","","","","","","","","","","","","",""
"12923","","text","17","183386","0.0-16.0","65061698","wem/bandit_either","A3CWEIEY3TGJFX","either","5","32","","","","","","","","","","","","","","","","","","","","","","","","","","","","","","","","","","",""
"8580","","text","18","191969","0.0-17.0","65061698","wem/bandit_either","A3CWEIEY3TGJFX","either","5","32","","","","","","","","","","","","","","","","","","","","","","","","","","","","","","","","","","",""
"3241","","text","19","195212","0.0-18.0","65061698","wem/bandit_either","A3CWEIEY3TGJFX","either","5","32","","","","","","","","","","","","","","","","","","","","","","","","","","","","","","","","","","",""
"2404","","bandit","20","199130","0.0-19.0-0.0","65061698","wem/bandit_either","A3CWEIEY3TGJFX","either","5","","","","","","","0","1","0","","0.8","0.5","0.5","","","0.8","0.2","","","","","","","","","","","","","74","J","0","img/none_selected_demo.jpg","true","0","80_20_practice"
"824","","bandit","21","201464","0.0-19.0-1.0","65061698","wem/bandit_either","A3CWEIEY3TGJFX","either","5","","","","","","","0","0","1","0.8","","0.5","0.5","","","","","","","0.8","0.2","","","","","","","","","74","J","0","img/none_selected_demo.jpg","true","0","80_20_practice"
"586","","bandit","22","203559","0.0-19.0-2.0","65061698","wem/bandit_either","A3CWEIEY3TGJFX","either","5","","","","","","","1","0","0","0.8","","0.5","0.5","","","","","","","0.8","0.2","","","","","","","","","74","J","0","img/none_selected_demo.jpg","true","0","80_20_practice"
"478","","bandit","23","205543","0.0-19.0-3.0","65061698","wem/bandit_either","A3CWEIEY3TGJFX","either","5","","","","","","","0","0","1","","0.8","0.5","0.5","","","0.8","0.2","","","","","","","","","","","","","74","J","0","img/none_selected_demo.jpg","true","0","80_20_practice"
"366","","bandit","24","207416","0.0-19.0-4.0","65061698","wem/bandit_either","A3CWEIEY3TGJFX","either","5","","","","","","","1","0","0","0.8","","0.5","0.5","","","","","","","0.8","0.2","","","","","","","","","74","J","0","img/none_selected_demo.jpg","true","0","80_20_practice"
"317","","bandit","25","209240","0.0-19.0-5.0","65061698","wem/bandit_either","A3CWEIEY3TGJFX","either","5","","","","","","","0","1","0","","0.8","0.5","0.5","","","0.8","0.2","","","","","","","","","","","","","74","J","0","img/none_selected_demo.jpg","true","0","80_20_practice"
"398","","bandit","26","211143","0.0-19.0-6.0","65061698","wem/bandit_either","A3CWEIEY3TGJFX","either","5","","","","","","","0","0","1","","0.8","0.5","0.5","","","0.8","0.2","","","","","","","","","","","","","74","J","0","img/none_selected_demo.jpg","true","0","80_20_practice"
"324","","bandit","27","212977","0.0-19.0-7.0","65061698","wem/bandit_either","A3CWEIEY3TGJFX","either","5","","","","","","","1","0","0","0.8","","0.5","0.5","","","","","","","0.8","0.2","","","","","","","","","74","J","0","img/none_selected_demo.jpg","true","0","80_20_practice"
"371","","bandit","28","214859","0.0-19.0-8.0","65061698","wem/bandit_either","A3CWEIEY3TGJFX","either","5","","","","","","","1","0","0","0.8","","0.5","0.5","","","","","","","0.8","0.2","","","","","","","","","74","J","0","img/none_selected_demo.jpg","true","0","80_20_practice"
"290","","bandit","29","216656","0.0-19.0-9.0","65061698","wem/bandit_either","A3CWEIEY3TGJFX","either","5","","","","","","","0","0","1","","0.8","0.5","0.5","","","0.8","0.2","","","","","","","","","","","","","74","J","0","img/none_selected_demo.jpg","true","0","80_20_practice"
"375","","bandit","30","218537","0.0-19.0-10.0","65061698","wem/bandit_either","A3CWEIEY3TGJFX","either","5","","","","","","","0","0","1","0.2","","0.5","0.5","","","","","","","0.8","0.2","","","","","","","","","75","K","1","","true","0","80_20_practice"
"276","","bandit","31","220322","0.0-19.0-11.0","65061698","wem/bandit_either","A3CWEIEY3TGJFX","either","5","","","","","","","0","0","1","","0.2","0.5","0.5","","","0.8","0.2","","","","","","","","","","","","","75","K","1","","true","0","80_20_practice"
"320","","bandit","32","222154","0.0-19.0-12.0","65061698","wem/bandit_either","A3CWEIEY3TGJFX","either","5","","","","","","","0","0","1","0.2","","0.5","0.5","","","","","","","0.8","0.2","","","","","","","","","75","K","1","","true","0","80_20_practice"
"280","","bandit","33","223945","0.0-19.0-13.0","65061698","wem/bandit_either","A3CWEIEY3TGJFX","either","5","","","","","","","0","0","1","0.2","","0.5","0.5","","","","","","","0.8","0.2","","","","","","","","","75","K","1","","true","0","80_20_practice"
"171","","bandit","34","225624","0.0-19.0-14.0","65061698","wem/bandit_either","A3CWEIEY3TGJFX","either","5","","","","","","","0","0","1","","0.2","0.5","0.5","","","0.8","0.2","","","","","","","","","","","","","75","K","1","","true","0","80_20_practice"
"308","","bandit","35","227442","0.0-19.0-15.0","65061698","wem/bandit_either","A3CWEIEY3TGJFX","either","5","","","","","","","0","0","1","0.2","","0.5","0.5","","","","","","","0.8","0.2","","","","","","","","","75","K","1","","true","0","80_20_practice"
"349","","bandit","36","229302","0.0-19.0-16.0","65061698","wem/bandit_either","A3CWEIEY3TGJFX","either","5","","","","","","","0","0","1","","0.2","0.5","0.5","","","0.8","0.2","","","","","","","","","","","","","75","K","1","","true","0","80_20_practice"
"222","","bandit","37","231033","0.0-19.0-17.0","65061698","wem/bandit_either","A3CWEIEY3TGJFX","either","5","","","","","","","0","1","0","","0.8","0.5","0.5","","","0.8","0.2","","","","","","","","","","","","","74","J","0","img/none_selected_demo.jpg","true","0","80_20_practice"
"354","","bandit","38","232896","0.0-19.0-18.0","65061698","wem/bandit_either","A3CWEIEY3TGJFX","either","5","","","","","","","0","1","0","","0.8","0.5","0.5","","","0.8","0.2","","","","","","","","","","","","","74","J","0","img/none_selected_demo.jpg","true","0","80_20_practice"
"300","","bandit","39","234705","0.0-19.0-19.0","65061698","wem/bandit_either","A3CWEIEY3TGJFX","either","5","","","","","","","0","1","0","","0.8","0.5","0.5","","","0.8","0.2","","","","","","","","","","","","","74","J","0","img/none_selected_demo.jpg","true","0","80_20_practice"
"3537","","text","40","238245","0.0-20.0","65061698","wem/bandit_either","A3CWEIEY3TGJFX","either","5","32","","","","","","","","","","","","","","","","","","","","","","","","","","","","","","","","","","",""
"558","","bandit","41","240313","0.0-21.0-0.0","65061698","wem/bandit_either","A3CWEIEY3TGJFX","either","5","","","","","","","1","0","0","1","0","","","","","0","1","","","1","0","","","","","","","","","74","J","0","img/none_selected_demo.jpg","true","0",""
"8870","","text","42","249186","0.0-22.0","65061698","wem/bandit_either","A3CWEIEY3TGJFX","either","5","32","","","","","","","","","","","","","","","","","","","","","","","","","","","","","","","","","","",""
"4211","","text","43","253400","0.0-23.0","65061698","wem/bandit_either","A3CWEIEY3TGJFX","either","5","32","","","","","","","","","","","","","","","","","","","","","","","","","","","","","","","","","","",""
"3888","","text","44","257290","0.0-24.0","65061698","wem/bandit_either","A3CWEIEY3TGJFX","either","5","32","","","","","","","","","","","","","","","","","","","","","","","","","","","","","","","","","","",""
"4148","","text","45","261442","0.0-25.0","65061698","wem/bandit_either","A3CWEIEY3TGJFX","either","5","32","","","","","","","","","","","","","","","","","","","","","","","","","","","","","","","","","","",""
"11408","","text","46","272852","0.0-26.0","65061698","wem/bandit_either","A3CWEIEY3TGJFX","either","5","32","","","","","","","","","","","","","","","","","","","","","","","","","","","","","","","","","","",""
"4680","","text","47","277537","0.0-27.0","65061698","wem/bandit_either","A3CWEIEY3TGJFX","either","5","32","","","","","","","","","","","","","","","","","","","","","","","","","","","","","","","","","","",""
"5123","","text","48","282663","0.0-28.0","65061698","wem/bandit_either","A3CWEIEY3TGJFX","either","5","32","","","","","","","","","","","","","","","","","","","","","","","","","","","","","","","","","","",""
"3344","","text","49","286011","0.0-29.0","65061698","wem/bandit_either","A3CWEIEY3TGJFX","either","5","32","","","","","","","","","","","","","","","","","","","","","","","","","","","","","","","","","","",""
"9733","","text","50","295745","0.0-30.0","65061698","wem/bandit_either","A3CWEIEY3TGJFX","either","5","32","","","","","","","","","","","","","","","","","","","","","","","","","","","","","","","","","","",""
"1743","","text","51","297492","0.0-31.0","65061698","wem/bandit_either","A3CWEIEY3TGJFX","either","5","32","","","","","","","","","","","","","","","","","","","","","","","","","","","","","","","","","","",""
"2377","","text","52","299873","0.0-32.0","65061698","wem/bandit_either","A3CWEIEY3TGJFX","either","5","32","","","","","","","","","","","","","","","","","","","","","","","","","","","","","","","","","","",""
"974","","bandit","53","302362","0.0-33.0-0.0","65061698","wem/bandit_either","A3CWEIEY3TGJFX","either","5","","","","","","","0","1","0","","0.8","0.5","0.5","0.5","0.5","0.8","0.2","0.6","0.2","","","","","","","","","","","72","H","0","img/none_selected.jpg","true","0","full_practice"
"342","","bandit","54","304213","0.0-33.0-1.0","65061698","wem/bandit_either","A3CWEIEY3TGJFX","either","5","","","","","","","0","0","1","","0.2","0.5","0.5","0.5","0.5","0.8","0.2","0.6","0.2","","","","","","","","","","","74","J","1","","true","0","full_practice"
"1055","","bandit","55","306775","0.0-33.0-2.0","65061698","wem/bandit_either","A3CWEIEY3TGJFX","either","5","","","","","","","0","1","0","","0.6","0.5","0.5","0.5","0.5","0.8","0.2","0.6","0.2","","","","","","","","","","","75","K","2","","true","0","full_practice"
"331","","bandit","56","308616","0.0-33.0-3.0","65061698","wem/bandit_either","A3CWEIEY3TGJFX","either","5","","","","","","","0","0","1","","0.2","0.5","0.5","0.5","0.5","0.8","0.2","0.6","0.2","","","","","","","","","","","76","L","3","","true","0","full_practice"
"387","","bandit","57","310512","0.0-33.0-4.0","65061698","wem/bandit_either","A3CWEIEY3TGJFX","either","5","","","","","","","0","0","1","0.2","","0.5","0.5","0.5","0.5","","","","","0.8","0.2","0.6","0.2","","","","","","","76","L","3","","true","0","full_practice"
"314","","bandit","58","312337","0.0-33.0-5.0","65061698","wem/bandit_either","A3CWEIEY3TGJFX","either","5","","","","","","","0","0","1","0.2","","0.5","0.5","0.5","0.5","","","","","0.8","0.2","0.6","0.2","","","","","","","76","L","3","","true","0","full_practice"
"233","","bandit","59","314080","0.0-33.0-6.0","65061698","wem/bandit_either","A3CWEIEY3TGJFX","either","5","","","","","","","0","1","0","","0.8","0.5","0.5","0.5","0.5","0.8","0.2","0.6","0.2","","","","","","","","","","","72","H","0","img/none_selected.jpg","true","0","full_practice"
"348","","bandit","60","315934","0.0-33.0-7.0","65061698","wem/bandit_either","A3CWEIEY3TGJFX","either","5","","","","","","","1","0","0","0.8","","0.5","0.5","0.5","0.5","","","","","0.8","0.2","0.6","0.2","","","","","","","72","H","0","img/none_selected.jpg","true","0","full_practice"
"310","","bandit","61","317749","0.0-33.0-8.0","65061698","wem/bandit_either","A3CWEIEY3TGJFX","either","5","","","","","","","0","1","0","","0.8","0.5","0.5","0.5","0.5","0.8","0.2","0.6","0.2","","","","","","","","","","","72","H","0","img/none_selected.jpg","true","0","full_practice"
"319","","bandit","62","319576","0.0-33.0-9.0","65061698","wem/bandit_either","A3CWEIEY3TGJFX","either","5","","","","","","","0","0","1","","0.2","0.5","0.5","0.5","0.5","0.8","0.2","0.6","0.2","","","","","","","","","","","74","J","1","","true","0","full_practice"
"302","","bandit","63","321384","0.0-33.0-10.0","65061698","wem/bandit_either","A3CWEIEY3TGJFX","either","5","","","","","","","1","0","0","0.2","","0.5","0.5","0.5","0.5","","","","","0.8","0.2","0.6","0.2","","","","","","","74","J","1","","true","0","full_practice"
"313","","bandit","64","323206","0.0-33.0-11.0","65061698","wem/bandit_either","A3CWEIEY3TGJFX","either","5","","","","","","","0","0","1","","0.2","0.5","0.5","0.5","0.5","0.8","0.2","0.6","0.2","","","","","","","","","","","74","J","1","","true","0","full_practice"
"350","","bandit","65","325064","0.0-33.0-12.0","65061698","wem/bandit_either","A3CWEIEY3TGJFX","either","5","","","","","","","0","0","1","0.2","","0.5","0.5","0.5","0.5","","","","","0.8","0.2","0.6","0.2","","","","","","","74","J","1","","true","0","full_practice"
"306","","bandit","66","326879","0.0-33.0-13.0","65061698","wem/bandit_either","A3CWEIEY3TGJFX","either","5","","","","","","","0","0","1","0.2","","0.5","0.5","0.5","0.5","","","","","0.8","0.2","0.6","0.2","","","","","","","74","J","1","","true","0","full_practice"
"307","","bandit","67","328710","0.0-33.0-14.0","65061698","wem/bandit_either","A3CWEIEY3TGJFX","either","5","","","","","","","0","0","1","0.2","","0.5","0.5","0.5","0.5","","","","","0.8","0.2","0.6","0.2","","","","","","","74","J","1","","true","0","full_practice"
"77","","bandit","68","330295","0.0-33.0-15.0","65061698","wem/bandit_either","A3CWEIEY3TGJFX","either","5","","","","","","","1","0","0","0.6","","0.5","0.5","0.5","0.5","","","","","0.8","0.2","0.6","0.2","","","","","","","75","K","2","","true","0","full_practice"
"306","","bandit","69","332108","0.0-33.0-16.0","65061698","wem/bandit_either","A3CWEIEY3TGJFX","either","5","","","","","","","0","0","1","","0.6","0.5","0.5","0.5","0.5","0.8","0.2","0.6","0.2","","","","","","","","","","","75","K","2","","true","0","full_practice"
"314","","bandit","70","333931","0.0-33.0-17.0","65061698","wem/bandit_either","A3CWEIEY3TGJFX","either","5","","","","","","","0","1","0","","0.6","0.5","0.5","0.5","0.5","0.8","0.2","0.6","0.2","","","","","","","","","","","75","K","2","","true","0","full_practice"
"286","","bandit","71","335730","0.0-33.0-18.0","65061698","wem/bandit_either","A3CWEIEY3TGJFX","either","5","","","","","","","0","1","0","","0.6","0.5","0.5","0.5","0.5","0.8","0.2","0.6","0.2","","","","","","","","","","","75","K","2","","true","0","full_practice"
"240","","bandit","72","337480","0.0-33.0-19.0","65061698","wem/bandit_either","A3CWEIEY3TGJFX","either","5","","","","","","","0","0","1","","0.2","0.5","0.5","0.5","0.5","0.8","0.2","0.6","0.2","","","","","","","","","","","76","L","3","","true","0","full_practice"
"3254","","text","73","340746","0.0-34.0","65061698","wem/bandit_either","A3CWEIEY3TGJFX","either","5","32","","","","","","","","","","","","","","","","","","","","","","","","","","","","","","","","","","",""
"10311","","text","74","352061","0.0-35.0","65061698","wem/bandit_either","A3CWEIEY3TGJFX","either","5","32","","","","","","","","","","","","","","","","","","","","","","","","","","","","","","","","","","",""
"13835","","text","75","365905","0.0-36.0","65061698","wem/bandit_either","A3CWEIEY3TGJFX","either","5","32","","","","","","","","","","","","","","","","","","","","","","","","","","","","","","","","","","",""
"4806","","text","76","370721","0.0-37.0","65061698","wem/bandit_either","A3CWEIEY3TGJFX","either","5","32","","","","","","","","","","","","","","","","","","","","","","","","","","","","","","","","","","",""
"6690","","text","77","377413","0.0-38.0","65061698","wem/bandit_either","A3CWEIEY3TGJFX","either","5","32","","","","","","","","","","","","","","","","","","","","","","","","","","","","","","","","","","",""
"5022","","text","78","382441","0.0-39.0","65061698","wem/bandit_either","A3CWEIEY3TGJFX","either","5","32","","","","","","","","","","","","","","","","","","","","","","","","","","","","","","","","","","",""
"1898","","bandit","79","385848","0.0-40.0-0.0","65061698","wem/bandit_either","A3CWEIEY3TGJFX","either","5","","","","","","","0","0","1","0.1165465043","","0.4","0.6","0.2","0.8","","","","","0.1165465043","0.4265570961","0.3897275569","0.3340388524","","","","","","","72","H","0","img/none_selected.jpg","","1","main_expt"
"356","","bandit","80","387711","0.0-41.0-0.0","65061698","wem/bandit_either","A3CWEIEY3TGJFX","either","5","","","","","","","0","0","1","0.08371899021","","0.4","0.6","0.2","0.8","","","","","0.08371899021","0.4177099958","0.3911966266","0.3223834482","","","","","","","72","H","0","img/none_selected.jpg","","2","main_expt"
"600","","bandit","81","389818","0.0-42.0-0.0","65061698","wem/bandit_either","A3CWEIEY3TGJFX","either","5","","","","","","","0","0","1","","0.4192185534","0.4","0.6","0.2","0.8","0.04339790364","0.4192185534","0.4074861021","0.3585509001","","","","","","","","","","","74","J","1","","","3","main_expt"
"366","","bandit","82","391711","0.0-43.0-0.0","65061698","wem/bandit_either","A3CWEIEY3TGJFX","either","5","","","","","","","0","1","0","","0.4241610434","0.4","0.6","0.2","0.8","0.04073472785","0.4241610434","0.3965638453","0.3416436242","","","","","","","","","","","74","J","1","","","4","main_expt"
"419","","bandit","83","393641","0.0-44.0-0.0","65061698","wem/bandit_either","A3CWEIEY3TGJFX","either","5","","","","","","","0","1","0","","0.3688269119","0.4","0.6","0.2","0.8","0.04731773769","0.4284837315","0.3688269119","0.3444758892","","","","","","","","","","","75","K","2","","","5","main_expt"
"291","","bandit","84","395440","0.0-45.0-0.0","65061698","wem/bandit_either","A3CWEIEY3TGJFX","either","5","","","","","","","0","0","1","","0.3865867917","0.4","0.6","0.2","0.8","0.05617088868","0.4328708062","0.3865867917","0.3574177426","","","","","","","","","","","75","K","2","","","6","main_expt"
"286","","bandit","85","397241","0.0-46.0-0.0","65061698","wem/bandit_either","A3CWEIEY3TGJFX","either","5","","","","","","","1","0","0","0.3634052143","","0.4","0.6","0.2","0.8","","","","","0.05606577856","0.4176545671","0.4294719924","0.3634052143","","","","","","","76","L","3","","","7","main_expt"
"336","","bandit","86","399087","0.0-47.0-0.0","65061698","wem/bandit_either","A3CWEIEY3TGJFX","either","5","","","","","","","0","0","1","0.3675420607","","0.4","0.6","0.2","0.8","","","","","0.09244853328","0.4022395488","0.4210378118","0.3675420607","","","","","","","76","L","3","","","8","main_expt"
"317","","bandit","87","400916","0.0-48.0-0.0","65061698","wem/bandit_either","A3CWEIEY3TGJFX","either","5","","","","","","","0","0","1","0.3921196104","","0.4","0.6","0.2","0.8","","","","","0.1271341085","0.3929004949","0.4502112583","0.3921196104","","","","","","","76","L","3","","","9","main_expt"
"222","","bandit","88","402648","0.0-49.0-0.0","65061698","wem/bandit_either","A3CWEIEY3TGJFX","either","5","","","","","","","0","1","0","","0.4026182126","0.4","0.6","0.2","0.8","0.1370717255","0.3863711448","0.4452653155","0.4026182126","","","","","","","","","","","76","L","3","","","10","main_expt"
"360","","bandit","89","404521","0.0-50.0-0.0","65061698","wem/bandit_either","A3CWEIEY3TGJFX","either","5","","","","","","","0","1","0","","0.4205849279","0.4","0.6","0.2","0.8","0.1275050207","0.4205849279","0.4352349267","0.3543069494","","","","","","","","","","","74","J","1","","","11","main_expt"
"279","","bandit","90","406310","0.0-51.0-0.0","65061698","wem/bandit_either","A3CWEIEY3TGJFX","either","5","","","","","","","1","0","0","0.3504097904","","0.4","0.6","0.2","0.8","","","","","0.122317004","0.4525069231","0.4029030639","0.3504097904","","","","","","","76","L","3","","","12","main_expt"
"315","","bandit","91","408136","0.0-52.0-0.0","65061698","wem/bandit_either","A3CWEIEY3TGJFX","either","5","","","","","","","0","0","1","0.2787441393","","0.4","0.6","0.2","0.8","","","","","0.1251711411","0.4485799753","0.4198147105","0.2787441393","","","","","","","76","L","3","","","13","main_expt"
"316","","bandit","92","409960","0.0-53.0-0.0","65061698","wem/bandit_either","A3CWEIEY3TGJFX","either","5","","","","","","","0","0","1","0.2723245106","","0.4","0.6","0.2","0.8","","","","","0.1380641988","0.4504049656","0.3761312174","0.2723245106","","","","","","","76","L","3","","","14","main_expt"
"322","","bandit","93","411796","0.0-54.0-0.0","65061698","wem/bandit_either","A3CWEIEY3TGJFX","either","5","","","","","","","1","0","0","0.3687644442","","0.4","0.6","0.2","0.8","","","","","0.2010812313","0.4281165459","0.4017507227","0.3687644442","","","","","","","76","L","3","","","15","main_expt"
"258","","bandit","94","413567","0.0-55.0-0.0","65061698","wem/bandit_either","A3CWEIEY3TGJFX","either","5","","","","","","","0","1","0","","0.3992289848","0.4","0.6","0.2","0.8","0.1747275657","0.4035101098","0.3859888637","0.3992289848","","","","","","","","","","","76","L","3","","","16","main_expt"
"300","","bandit","95","415374","0.0-56.0-0.0","65061698","wem/bandit_either","A3CWEIEY3TGJFX","either","5","","","","","","","0","0","1","","0.4067061876","0.4","0.6","0.2","0.8","0.1816524112","0.4063691663","0.3706978481","0.4067061876","","","","","","","","","","","76","L","3","","","17","main_expt"
"210","","bandit","96","417096","0.0-57.0-0.0","65061698","wem/bandit_either","A3CWEIEY3TGJFX","either","5","","","","","","","0","0","1","0.3969002131","","0.4","0.6","0.2","0.8","","","","","0.1700798448","0.4201618032","0.3323991027","0.3969002131","","","","","","","76","L","3","","","18","main_expt"
"3","","bandit","97","418609","0.0-58.0-0.0","65061698","wem/bandit_either","A3CWEIEY3TGJFX","either","5","","","","","","","0","0","1","0.3930099592","","0.4","0.6","0.2","0.8","","","","","0.1998500639","0.3868389751","0.3301718366","0.3930099592","","","","","","","76","L","3","","","19","main_expt"
"43","","bandit","98","420161","0.0-59.0-0.0","65061698","wem/bandit_either","A3CWEIEY3TGJFX","either","5","","","","","","","1","0","0","0.3791602553","","0.4","0.6","0.2","0.8","","","","","0.2418808817","0.3868875991","0.3714618997","0.3791602553","","","","","","","76","L","3","","","20","main_expt"
"209","","bandit","99","421883","0.0-60.0-0.0","65061698","wem/bandit_either","A3CWEIEY3TGJFX","either","5","","","","","","","1","0","0","0.4127515201","","0.4","0.6","0.2","0.8","","","","","0.2293341009","0.4253770554","0.3621694591","0.4127515201","","","","","","","76","L","3","","","21","main_expt"
"293","","bandit","100","423689","0.0-61.0-0.0","65061698","wem/bandit_either","A3CWEIEY3TGJFX","either","5","","","","","","","1","0","0","0.4164833055","","0.4","0.6","0.2","0.8","","","","","0.2074184163","0.4285762007","0.3648829928","0.4164833055","","","","","","","76","L","3","","","22","main_expt"
"168","","bandit","101","425369","0.0-62.0-0.0","65061698","wem/bandit_either","A3CWEIEY3TGJFX","either","5","","","","","","","0","0","1","0.4143027846","","0.4","0.6","0.2","0.8","","","","","0.1832507358","0.4082522222","0.2856994719","0.4143027846","","","","","","","76","L","3","","","23","main_expt"
"144","","bandit","102","427024","0.0-63.0-0.0","65061698","wem/bandit_either","A3CWEIEY3TGJFX","either","5","","","","","","","0","1","0","","0.3649270698","0.4","0.6","0.2","0.8","0.1469425149","0.4027270218","0.3152516524","0.3649270698","","","","","","","","","","","76","L","3","","","24","main_expt"
"177","","bandit","103","428712","0.0-64.0-0.0","65061698","wem/bandit_either","A3CWEIEY3TGJFX","either","5","","","","","","","0","0","1","0.392676409","","0.4","0.6","0.2","0.8","","","","","0.102794739","0.4100212433","0.2778145345","0.392676409","","","","","","","76","L","3","","","25","main_expt"
"140","","bandit","104","430359","0.0-65.0-0.0","65061698","wem/bandit_either","A3CWEIEY3TGJFX","either","5","","","","","","","1","0","0","0.4031565401","","0.4","0.6","0.2","0.8","","","","","0.1173732637","0.4190791169","0.3170506137","0.4031565401","","","","","","","76","L","3","","","26","main_expt"
"171","","bandit","105","432065","0.0-66.0-0.0","65061698","wem/bandit_either","A3CWEIEY3TGJFX","either","5","","","","","","","0","0","1","","0.4245959001","0.4","0.6","0.2","0.8","0.08835016803","0.4527212376","0.3223143746","0.4245959001","","","","","","","","","","","76","L","3","","","27","main_expt"
"98","","bandit","106","433709","0.0-67.0-0.0","65061698","wem/bandit_either","A3CWEIEY3TGJFX","either","5","","","","","","","1","0","0","0.4232885055","","0.4","0.6","0.2","0.8","","","","","0.1134440288","0.4480998813","0.3234472479","0.4232885055","","","","","","","76","L","3","","","28","main_expt"
"366","","bandit","107","435585","0.0-68.0-0.0","65061698","wem/bandit_either","A3CWEIEY3TGJFX","either","5","","","","","","","1","0","0","0.4495512981","","0.4","0.6","0.2","0.8","","","","","0.1982905849","0.4628669208","0.2881425904","0.4495512981","","","","","","","76","L","3","","","29","main_expt"
"393","","bandit","108","437489","0.0-69.0-0.0","65061698","wem/bandit_either","A3CWEIEY3TGJFX","either","5","","","","","","","1","0","0","0.4485299892","","0.4","0.6","0.2","0.8","","","","","0.2366655967","0.4565655028","0.2326555855","0.4485299892","","","","","","","76","L","3","","","30","main_expt"
"437","","bandit","109","439441","0.0-70.0-0.0","65061698","wem/bandit_either","A3CWEIEY3TGJFX","either","5","","","","","","","1","0","0","0.4599237238","","0.4","0.6","0.2","0.8","","","","","0.1622470467","0.4686031056","0.2364604256","0.4599237238","","","","","","","76","L","3","","","31","main_expt"
"614","","bandit","110","441568","0.0-71.0-0.0","65061698","wem/bandit_either","A3CWEIEY3TGJFX","either","5","","","","","","","0","1","0","","0.4508116693","0.4","0.6","0.2","0.8","0.1771911602","0.4659582456","0.2451982598","0.4508116693","","","","","","","","","","","76","L","3","","","32","main_expt"
"420","","bandit","111","443500","0.0-72.0-0.0","65061698","wem/bandit_either","A3CWEIEY3TGJFX","either","5","","","","","","","0","0","1","0.45101727","","0.4","0.6","0.2","0.8","","","","","0.1622836308","0.4810757035","0.2360369815","0.45101727","","","","","","","76","L","3","","","33","main_expt"
"387","","bandit","112","445400","0.0-73.0-0.0","65061698","wem/bandit_either","A3CWEIEY3TGJFX","either","5","","","","","","","1","0","0","0.4340174653","","0.4","0.6","0.2","0.8","","","","","0.1655985557","0.4842727378","0.2317763892","0.4340174653","","","","","","","76","L","3","","","34","main_expt"
"311","","bandit","113","447224","0.0-74.0-0.0","65061698","wem/bandit_either","A3CWEIEY3TGJFX","either","5","","","","","","","1","0","0","0.4040147441","","0.4","0.6","0.2","0.8","","","","","0.1492797185","0.4745470136","0.2527891731","0.4040147441","","","","","","","76","L","3","","","35","main_expt"
"276","","bandit","114","449007","0.0-75.0-0.0","65061698","wem/bandit_either","A3CWEIEY3TGJFX","either","5","","","","","","","1","0","0","0.4268829696","","0.4","0.6","0.2","0.8","","","","","0.1504543003","0.4440965139","0.2641283143","0.4268829696","","","","","","","76","L","3","","","36","main_expt"
"382","","bandit","115","450903","0.0-76.0-0.0","65061698","wem/bandit_either","A3CWEIEY3TGJFX","either","5","","","","","","","0","0","1","","0.4562327564","0.4","0.6","0.2","0.8","0.1064249526","0.4544425755","0.2309310423","0.4562327564","","","","","","","","","","","76","L","3","","","37","main_expt"
"388","","bandit","116","452799","0.0-77.0-0.0","65061698","wem/bandit_either","A3CWEIEY3TGJFX","either","5","","","","","","","0","0","1","0.4481627861","","0.4","0.6","0.2","0.8","","","","","0.1346530267","0.4700138218","0.2093170459","0.4481627861","","","","","","","76","L","3","","","38","main_expt"
"283","","bandit","117","454592","0.0-78.0-0.0","65061698","wem/bandit_either","A3CWEIEY3TGJFX","either","5","","","","","","","0","0","1","0.4475890948","","0.4","0.6","0.2","0.8","","","","","0.1303494481","0.466948448","0.1398625959","0.4475890948","","","","","","","76","L","3","","","39","main_expt"
"363","","bandit","118","456463","0.0-79.0-0.0","65061698","wem/bandit_either","A3CWEIEY3TGJFX","either","5","","","","","","","0","0","1","0.4501575696","","0.4","0.6","0.2","0.8","","","","","0.1492074344","0.4679256248","0.09690087606","0.4501575696","","","","","","","76","L","3","","","40","main_expt"
"277","","bandit","119","458248","0.0-80.0-0.0","65061698","wem/bandit_either","A3CWEIEY3TGJFX","either","5","","","","","","","1","0","0","0.4121884666","","0.4","0.6","0.2","0.8","","","","","0.1370672299","0.445537573","0.1129569356","0.4121884666","","","","","","","76","L","3","","","41","main_expt"
"328","","bandit","120","460088","0.0-81.0-0.0","65061698","wem/bandit_either","A3CWEIEY3TGJFX","either","5","","","","","","","0","0","1","0.4379939247","","0.4","0.6","0.2","0.8","","","","","0.08144147181","0.4521531226","0.1227033228","0.4379939247","","","","","","","76","L","3","","","42","main_expt"
"275","","bandit","121","461871","0.0-82.0-0.0","65061698","wem/bandit_either","A3CWEIEY3TGJFX","either","5","","","","","","","1","0","0","0.4271747655","","0.4","0.6","0.2","0.8","","","","","0.06793865388","0.4695072217","0.08393287497","0.4271747655","","","","","","","76","L","3","","","43","main_expt"
"297","","bandit","122","463711","0.0-83.0-0.0","65061698","wem/bandit_either","A3CWEIEY3TGJFX","either","5","","","","","","","1","0","0","0.4480494518","","0.4","0.6","0.2","0.8","","","","","0.05295344446","0.4807409838","0.06260074275","0.4480494518","","","","","","","76","L","3","","","44","main_expt"
"290","","bandit","123","465517","0.0-84.0-0.0","65061698","wem/bandit_either","A3CWEIEY3TGJFX","either","5","","","","","","","0","0","1","0.4269729589","","0.4","0.6","0.2","0.8","","","","","0.02744239742","0.4507048108","0.08062123592","0.4269729589","","","","","","","76","L","3","","","45","main_expt"
"370","","bandit","124","467399","0.0-85.0-0.0","65061698","wem/bandit_either","A3CWEIEY3TGJFX","either","5","","","","","","","0","0","1","0.4475746277","","0.4","0.6","0.2","0.8","","","","","0.02347437243","0.4382321206","0.1110847749","0.4475746277","","","","","","","76","L","3","","","46","main_expt"
"495","","bandit","125","469407","0.0-86.0-0.0","65061698","wem/bandit_either","A3CWEIEY3TGJFX","either","5","","","","","","","0","0","1","0.4295618238","","0.4","0.6","0.2","0.8","","","","","0.02418160198","0.4393937913","0.05346849493","0.4295618238","","","","","","","76","L","3","","","47","main_expt"
"308","","bandit","126","471223","0.0-87.0-0.0","65061698","wem/bandit_either","A3CWEIEY3TGJFX","either","5","","","","","","","0","0","1","0.4431907244","","0.4","0.6","0.2","0.8","","","","","0.01182676654","0.440318131","0.04499733497","0.4431907244","","","","","","","76","L","3","","","48","main_expt"
"308","","bandit","127","473039","0.0-88.0-0.0","65061698","wem/bandit_either","A3CWEIEY3TGJFX","either","5","","","","","","","0","0","1","0.4187732916","","0.4","0.6","0.2","0.8","","","","","0.0186287842","0.4362102412","0.07378534534","0.4187732916","","","","","","","76","L","3","","","49","main_expt"
"308","","bandit","128","474855","0.0-89.0-0.0","65061698","wem/bandit_either","A3CWEIEY3TGJFX","either","5","","","","","","","1","0","0","0.356579213","","0.4","0.6","0.2","0.8","","","","","0.02550629551","0.44488671","0.06168845619","0.356579213","","","","","","","76","L","3","","","50","main_expt"
"283","","bandit","129","476652","0.0-90.0-0.0","65061698","wem/bandit_either","A3CWEIEY3TGJFX","either","5","","","","","","","0","0","1","0.2629404955","","0.4","0.6","0.2","0.8","","","","","0.04366809707","0.4633405548","0.1062028567","0.2629404955","","","","","","","76","L","3","","","51","main_expt"
"275","","bandit","130","478441","0.0-91.0-0.0","65061698","wem/bandit_either","A3CWEIEY3TGJFX","either","5","","","","","","","0","0","1","0.2919747068","","0.4","0.6","0.2","0.8","","","","","0.04357168116","0.4528043762","0.1379608546","0.2919747068","","","","","","","76","L","3","","","52","main_expt"
"338","","bandit","131","480288","0.0-92.0-0.0","65061698","wem/bandit_either","A3CWEIEY3TGJFX","either","5","","","","","","","0","0","1","0.3809901122","","0.4","0.6","0.2","0.8","","","","","0.03899227154","0.4390431751","0.1356826849","0.3809901122","","","","","","","76","L","3","","","53","main_expt"
"275","","bandit","132","482073","0.0-93.0-0.0","65061698","wem/bandit_either","A3CWEIEY3TGJFX","either","5","","","","","","","1","0","0","0.3452518694","","0.4","0.6","0.2","0.8","","","","","0.04009146386","0.4549270822","0.1038772241","0.3452518694","","","","","","","76","L","3","","","54","main_expt"
"80","","bandit","133","483663","0.0-94.0-0.0","65061698","wem/bandit_either","A3CWEIEY3TGJFX","either","5","","","","","","","0","1","0","","0.3263112327","0.4","0.6","0.2","0.8","0.0155768565","0.4710341864","0.1689791829","0.3263112327","","","","","","","","","","","76","L","3","","","55","main_expt"
"342","","bandit","134","485519","0.0-95.0-0.0","65061698","wem/bandit_either","A3CWEIEY3TGJFX","either","5","","","","","","","0","0","1","0.3308963945","","0.4","0.6","0.2","0.8","","","","","0.02112461672","0.4745834276","0.1108888145","0.3308963945","","","","","","","76","L","3","","","56","main_expt"
"131","","bandit","135","487162","0.0-96.0-0.0","65061698","wem/bandit_either","A3CWEIEY3TGJFX","either","5","","","","","","","1","0","0","0.3150326571","","0.4","0.6","0.2","0.8","","","","","0.0126553198","0.489318572","0.1206542402","0.3150326571","","","","","","","76","L","3","","","57","main_expt"
"307","","bandit","136","488994","0.0-97.0-0.0","65061698","wem/bandit_either","A3CWEIEY3TGJFX","either","5","","","","","","","0","0","1","0.3049116772","","0.4","0.6","0.2","0.8","","","","","0.01131359515","0.480037986","0.09707343937","0.3049116772","","","","","","","76","L","3","","","58","main_expt"
"253","","bandit","137","490760","0.0-98.0-0.0","65061698","wem/bandit_either","A3CWEIEY3TGJFX","either","5","","","","","","","0","0","1","0.3050987947","","0.4","0.6","0.2","0.8","","","","","0.01030075821","0.4593461039","0.1044384952","0.3050987947","","","","","","","76","L","3","","","59","main_expt"
"152","","bandit","138","492425","0.0-99.0-0.0","65061698","wem/bandit_either","A3CWEIEY3TGJFX","either","5","","","","","","","0","0","1","0.3274009355","","0.4","0.6","0.2","0.8","","","","","0.005868957973","0.446051488","0.08890369623","0.3274009355","","","","","","","76","L","3","","","60","main_expt"
"262","","bandit","139","494200","0.0-100.0-0.0","65061698","wem/bandit_either","A3CWEIEY3TGJFX","either","5","","","","","","","1","0","0","0.3428943983","","0.4","0.6","0.2","0.8","","","","","0.004361943215","0.4391285327","0.08921221942","0.3428943983","","","","","","","76","L","3","","","61","main_expt"
"346","","bandit","140","496088","0.0-101.0-0.0","65061698","wem/bandit_either","A3CWEIEY3TGJFX","either","5","","","","","","","0","0","1","0.3549763931","","0.4","0.6","0.2","0.8","","","","","0.005208412743","0.4063883723","0.09812025034","0.3549763931","","","","","","","76","L","3","","","62","main_expt"
"295","","bandit","141","497891","0.0-102.0-0.0","65061698","wem/bandit_either","A3CWEIEY3TGJFX","either","5","","","","","","","0","0","1","","0.3496678451","0.4","0.6","0.2","0.8","0.006461011255","0.4330387396","0.09006279409","0.3496678451","","","","","","","","","","","76","L","3","","","63","main_expt"
"339","","bandit","142","499744","0.0-103.0-0.0","65061698","wem/bandit_either","A3CWEIEY3TGJFX","either","5","","","","","","","1","0","0","0.3188537263","","0.4","0.6","0.2","0.8","","","","","0.01267926231","0.4207902426","0.1118976224","0.3188537263","","","","","","","76","L","3","","","64","main_expt"
"328","","bandit","143","501584","0.0-104.0-0.0","65061698","wem/bandit_either","A3CWEIEY3TGJFX","either","5","","","","","","","1","0","0","0.3191795336","","0.4","0.6","0.2","0.8","","","","","0.009732787917","0.3719582347","0.1053817613","0.3191795336","","","","","","","76","L","3","","","65","main_expt"
"293","","bandit","144","503393","0.0-105.0-0.0","65061698","wem/bandit_either","A3CWEIEY3TGJFX","either","5","","","","","","","0","0","1","0.268616347","","0.4","0.6","0.2","0.8","","","","","0.01092542651","0.3748569955","0.1307356695","0.268616347","","","","","","","76","L","3","","","66","main_expt"
"413","","bandit","145","505321","0.0-106.0-0.0","65061698","wem/bandit_either","A3CWEIEY3TGJFX","either","5","","","","","","","0","0","1","","0.259194563","0.4","0.6","0.2","0.8","0.02125534741","0.335252031","0.1418436428","0.259194563","","","","","","","","","","","76","L","3","","","67","main_expt"
"299","","bandit","146","507137","0.0-107.0-0.0","65061698","wem/bandit_either","A3CWEIEY3TGJFX","either","5","","","","","","","0","0","1","0.2281204868","","0.4","0.6","0.2","0.8","","","","","0.02360283027","0.3199157278","0.1459089566","0.2281204868","","","","","","","76","L","3","","","68","main_expt"
"278","","bandit","147","508924","0.0-108.0-0.0","65061698","wem/bandit_either","A3CWEIEY3TGJFX","either","5","","","","","","","0","0","1","","0.2195844169","0.4","0.6","0.2","0.8","0.02539305756","0.3068525281","0.1809721424","0.2195844169","","","","","","","","","","","76","L","3","","","69","main_expt"
"403","","bandit","148","510840","0.0-109.0-0.0","65061698","wem/bandit_either","A3CWEIEY3TGJFX","either","5","","","","","","","0","0","1","","0.1784068974","0.4","0.6","0.2","0.8","0.05014388586","0.3181076016","0.1784068974","0.1883338509","","","","","","","","","","","75","K","2","","","70","main_expt"
"307","","bandit","149","512655","0.0-110.0-0.0","65061698","wem/bandit_either","A3CWEIEY3TGJFX","either","5","","","","","","","0","0","1","","0.04209054697","0.4","0.6","0.2","0.8","0.04209054697","0.2926426422","0.1973023396","0.1639708178","","","","","","","","","","","72","H","0","img/none_selected.jpg","","71","main_expt"
"316","","bandit","150","514481","0.0-111.0-0.0","65061698","wem/bandit_either","A3CWEIEY3TGJFX","either","5","","","","","","","0","0","1","0.05611199342","","0.4","0.6","0.2","0.8","","","","","0.05611199342","0.2380263643","0.2436342847","0.1312842785","","","","","","","72","H","0","img/none_selected.jpg","","72","main_expt"
"356","","bandit","151","516351","0.0-112.0-0.0","65061698","wem/bandit_either","A3CWEIEY3TGJFX","either","5","","","","","","","0","0","1","0.1992173182","","0.4","0.6","0.2","0.8","","","","","0.05293238473","0.2407197948","0.1992173182","0.1805041857","","","","","","","75","K","2","","","73","main_expt"
"357","","bandit","152","518222","0.0-113.0-0.0","65061698","wem/bandit_either","A3CWEIEY3TGJFX","either","5","","","","","","","0","0","1","0.2317468449","","0.4","0.6","0.2","0.8","","","","","0.0318456884","0.2317468449","0.2347098304","0.1739557812","","","","","","","74","J","1","","","74","main_expt"
"334","","bandit","153","520067","0.0-114.0-0.0","65061698","wem/bandit_either","A3CWEIEY3TGJFX","either","5","","","","","","","0","0","1","","0.2545997551","0.4","0.6","0.2","0.8","0.03873230677","0.2545997551","0.2641442137","0.2434916027","","","","","","","","","","","74","J","1","","","75","main_expt"
"312","","bandit","154","521886","0.0-115.0-0.0","65061698","wem/bandit_either","A3CWEIEY3TGJFX","either","5","","","","","","","0","0","1","0.2438468568","","0.4","0.6","0.2","0.8","","","","","0.03304947682","0.2890845388","0.3192644053","0.2438468568","","","","","","","76","L","3","","","76","main_expt"
"300","","bandit","155","523694","0.0-116.0-0.0","65061698","wem/bandit_either","A3CWEIEY3TGJFX","either","5","","","","","","","0","0","1","0.2425324642","","0.4","0.6","0.2","0.8","","","","","0.02607887458","0.2386362654","0.3351132613","0.2425324642","","","","","","","76","L","3","","","77","main_expt"
"300","","bandit","156","525502","0.0-117.0-0.0","65061698","wem/bandit_either","A3CWEIEY3TGJFX","either","5","","","","","","","0","0","1","0.205588479","","0.4","0.6","0.2","0.8","","","","","0.02492981692","0.2673679704","0.3086784207","0.205588479","","","","","","","76","L","3","","","78","main_expt"
"318","","bandit","157","527336","0.0-118.0-0.0","65061698","wem/bandit_either","A3CWEIEY3TGJFX","either","5","","","","","","","0","0","1","","0.213062191","0.4","0.6","0.2","0.8","0.01824110002","0.2813811921","0.3076482073","0.213062191","","","","","","","","","","","76","L","3","","","79","main_expt"
"180","","bandit","158","529032","0.0-119.0-0.0","65061698","wem/bandit_either","A3CWEIEY3TGJFX","either","5","","","","","","","0","0","1","0.1852926048","","0.4","0.6","0.2","0.8","","","","","0.0202176162","0.2419447949","0.3605025214","0.1852926048","","","","","","","76","L","3","","","80","main_expt"
"249","","bandit","159","530796","0.0-120.0-0.0","65061698","wem/bandit_either","A3CWEIEY3TGJFX","either","5","","","","","","","0","0","1","0.2332942271","","0.4","0.6","0.2","0.8","","","","","0.0252752587","0.323481111","0.3286166321","0.2332942271","","","","","","","76","L","3","","","81","main_expt"
"291","","bandit","160","532600","0.0-121.0-0.0","65061698","wem/bandit_either","A3CWEIEY3TGJFX","either","5","","","","","","","0","0","1","0.2087797338","","0.4","0.6","0.2","0.8","","","","","0.05668457717","0.3097244961","0.3459677762","0.2087797338","","","","","","","76","L","3","","","82","main_expt"
"261","","bandit","161","534375","0.0-122.0-0.0","65061698","wem/bandit_either","A3CWEIEY3TGJFX","either","5","","","","","","","0","0","1","0.2049979043","","0.4","0.6","0.2","0.8","","","","","0.07760530004","0.2787498647","0.3092751195","0.2049979043","","","","","","","76","L","3","","","83","main_expt"
"123","","bandit","162","536006","0.0-123.0-0.0","65061698","wem/bandit_either","A3CWEIEY3TGJFX","either","5","","","","","","","0","0","1","0.3044630387","","0.4","0.6","0.2","0.8","","","","","0.03696005566","0.2589524449","0.3044630387","0.2151780091","","","","","","","75","K","2","","","84","main_expt"
"204","","bandit","163","537719","0.0-124.0-0.0","65061698","wem/bandit_either","A3CWEIEY3TGJFX","either","5","","","","","","","0","0","1","","0.2812480587","0.4","0.6","0.2","0.8","0.04177257934","0.2769318636","0.2812480587","0.1497615914","","","","","","","","","","","75","K","2","","","85","main_expt"
"343","","bandit","164","539575","0.0-125.0-0.0","65061698","wem/bandit_either","A3CWEIEY3TGJFX","either","5","","","","","","","0","1","0","","0.2506532223","0.4","0.6","0.2","0.8","0.0385770192","0.2849222391","0.2506532223","0.1223687677","","","","","","","","","","","75","K","2","","","86","main_expt"
"293","","bandit","165","541380","0.0-126.0-0.0","65061698","wem/bandit_either","A3CWEIEY3TGJFX","either","5","","","","","","","0","0","1","","0.2269900387","0.4","0.6","0.2","0.8","0.03720252147","0.3131087309","0.2269900387","0.1472857413","","","","","","","","","","","75","K","2","","","87","main_expt"
"320","","bandit","166","543215","0.0-127.0-0.0","65061698","wem/bandit_either","A3CWEIEY3TGJFX","either","5","","","","","","","0","0","1","","0.1504729919","0.4","0.6","0.2","0.8","0.06746059371","0.3038587512","0.1504729919","0.1252586248","","","","","","","","","","","75","K","2","","","88","main_expt"
"142","","bandit","167","544872","0.0-128.0-0.0","65061698","wem/bandit_either","A3CWEIEY3TGJFX","either","5","","","","","","","0","0","1","","0.1382070302","0.4","0.6","0.2","0.8","0.04069757945","0.3308022157","0.1382070302","0.1194927994","","","","","","","","","","","75","K","2","","","89","main_expt"
"226","","bandit","168","546607","0.0-129.0-0.0","65061698","wem/bandit_either","A3CWEIEY3TGJFX","either","5","","","","","","","0","0","1","","0.3574922351","0.4","0.6","0.2","0.8","0.07325379503","0.3574922351","0.1364765349","0.1589750007","","","","","","","","","","","74","J","1","","","90","main_expt"
"118","","bandit","169","548241","0.0-130.0-0.0","65061698","wem/bandit_either","A3CWEIEY3TGJFX","either","5","","","","","","","0","0","1","","0.3729517688","0.4","0.6","0.2","0.8","0.06877471811","0.3729517688","0.09318196272","0.1859960426","","","","","","","","","","","74","J","1","","","91","main_expt"
"106","","bandit","170","549865","0.0-131.0-0.0","65061698","wem/bandit_either","A3CWEIEY3TGJFX","either","5","","","","","","","0","0","1","","0.398352994","0.4","0.6","0.2","0.8","0.04115987362","0.398352994","0.06946097624","0.192419488","","","","","","","","","","","74","J","1","","","92","main_expt"
"606","","bandit","171","551986","0.0-132.0-0.0","65061698","wem/bandit_either","A3CWEIEY3TGJFX","either","5","","","","","","","0","1","0","","0.4135860398","0.4","0.6","0.2","0.8","0.07078892783","0.4135860398","0.08102832817","0.1716033463","","","","","","","","","","","74","J","1","","","93","main_expt"
"295","","bandit","172","553791","0.0-133.0-0.0","65061698","wem/bandit_either","A3CWEIEY3TGJFX","either","5","","","","","","","0","0","1","0.3786880174","","0.4","0.6","0.2","0.8","","","","","0.05572868433","0.3786880174","0.1271360848","0.1935897604","","","","","","","74","J","1","","","94","main_expt"
"141","","bandit","173","555448","0.0-134.0-0.0","65061698","wem/bandit_either","A3CWEIEY3TGJFX","either","5","","","","","","","0","0","1","0.3823424718","","0.4","0.6","0.2","0.8","","","","","0.05056929995","0.3823424718","0.1097592989","0.2193228015","","","","","","","74","J","1","","","95","main_expt"
"254","","bandit","174","557216","0.0-135.0-0.0","65061698","wem/bandit_either","A3CWEIEY3TGJFX","either","5","","","","","","","1","0","0","0.3642725552","","0.4","0.6","0.2","0.8","","","","","0.04159874267","0.3642725552","0.1085490834","0.3262643469","","","","","","","74","J","1","","","96","main_expt"
"332","","bandit","175","559081","0.0-136.0-0.0","65061698","wem/bandit_either","A3CWEIEY3TGJFX","either","5","","","","","","","1","0","0","0.3197717944","","0.4","0.6","0.2","0.8","","","","","0.03654451862","0.3197717944","0.1049812554","0.3207405496","","","","","","","74","J","1","","","97","main_expt"
"299","","bandit","176","560896","0.0-137.0-0.0","65061698","wem/bandit_either","A3CWEIEY3TGJFX","either","5","","","","","","","0","0","1","","0.2514424369","0.4","0.6","0.2","0.8","0.04190300095","0.2514424369","0.08177978443","0.3712856991","","","","","","","","","","","74","J","1","","","98","main_expt"
"463","","bandit","177","562874","0.0-138.0-0.0","65061698","wem/bandit_either","A3CWEIEY3TGJFX","either","5","","","","","","","0","0","1","","0.2926772137","0.4","0.6","0.2","0.8","0.08742990617","0.2926772137","0.07574087804","0.3740145378","","","","","","","","","","","74","J","1","","","99","main_expt"
"228","","bandit","178","564617","0.0-139.0-0.0","65061698","wem/bandit_either","A3CWEIEY3TGJFX","either","5","","","","","","","0","0","1","","0.234485335","0.4","0.6","0.2","0.8","0.08966523481","0.234485335","0.07829319678","0.3776295542","","","","","","","","","","","74","J","1","","","100","main_expt"
"410","","bandit","179","566538","0.0-140.0-0.0","65061698","wem/bandit_either","A3CWEIEY3TGJFX","either","5","","","","","","","0","0","1","","0.250352175","0.4","0.6","0.2","0.8","0.07849065771","0.250352175","0.07919243683","0.3592666398","","","","","","","","","","","74","J","1","","","101","main_expt"
"395","","bandit","180","568447","0.0-141.0-0.0","65061698","wem/bandit_either","A3CWEIEY3TGJFX","either","5","","","","","","","1","0","0","0.2139972863","","0.4","0.6","0.2","0.8","","","","","0.1054267613","0.2139972863","0.1052753188","0.3412191773","","","","","","","74","J","1","","","102","main_expt"
"349","","bandit","181","570310","0.0-142.0-0.0","65061698","wem/bandit_either","A3CWEIEY3TGJFX","either","5","","","","","","","0","0","1","","0.20092706","0.4","0.6","0.2","0.8","0.1120981937","0.20092706","0.1248526142","0.3133100433","","","","","","","","","","","74","J","1","","","103","main_expt"
"259","","bandit","182","572080","0.0-143.0-0.0","65061698","wem/bandit_either","A3CWEIEY3TGJFX","either","5","","","","","","","0","0","1","0.3219148419","","0.4","0.6","0.2","0.8","","","","","0.1034740879","0.2305366804","0.142969925","0.3219148419","","","","","","","76","L","3","","","104","main_expt"
"271","","bandit","183","573866","0.0-144.0-0.0","65061698","wem/bandit_either","A3CWEIEY3TGJFX","either","5","","","","","","","0","0","1","0.2102135581","","0.4","0.6","0.2","0.8","","","","","0.07597240327","0.2102135581","0.13947254","0.3300892518","","","","","","","74","J","1","","","105","main_expt"
"338","","bandit","184","575720","0.0-145.0-0.0","65061698","wem/bandit_either","A3CWEIEY3TGJFX","either","5","","","","","","","0","0","1","","0.2219457329","0.4","0.6","0.2","0.8","0.1124257427","0.2219457329","0.1329526997","0.3401839058","","","","","","","","","","","74","J","1","","","106","main_expt"
"227","","bandit","185","577463","0.0-146.0-0.0","65061698","wem/bandit_either","A3CWEIEY3TGJFX","either","5","","","","","","","0","1","0","","0.1133168519","0.4","0.6","0.2","0.8","0.1133168519","0.3048423019","0.1727290233","0.3784706915","","","","","","","","","","","72","H","0","img/none_selected.jpg","","107","main_expt"
"314","","bandit","186","579286","0.0-147.0-0.0","65061698","wem/bandit_either","A3CWEIEY3TGJFX","either","5","","","","","","","0","0","1","0.258150515","","0.4","0.6","0.2","0.8","","","","","0.1752395656","0.258150515","0.1864487031","0.3945753887","","","","","","","74","J","1","","","108","main_expt"
"149","","bandit","187","580952","0.0-148.0-0.0","65061698","wem/bandit_either","A3CWEIEY3TGJFX","either","5","","","","","","","1","0","0","0.1862973424","","0.4","0.6","0.2","0.8","","","","","0.1862973424","0.1859129148","0.2463216238","0.356827327","","","","","","","72","H","0","img/none_selected.jpg","","109","main_expt"
"345","","bandit","188","582809","0.0-149.0-0.0","65061698","wem/bandit_either","A3CWEIEY3TGJFX","either","5","","","","","","","0","0","1","0.2015845776","","0.4","0.6","0.2","0.8","","","","","0.2015845776","0.1371624404","0.2431522628","0.2344179837","","","","","","","72","H","0","img/none_selected.jpg","","110","main_expt"
"308","","bandit","189","584632","0.0-150.0-0.0","65061698","wem/bandit_either","A3CWEIEY3TGJFX","either","5","","","","","","","0","0","1","0.2003651753","","0.4","0.6","0.2","0.8","","","","","0.2003651753","0.1258232978","0.1757476643","0.2644823096","","","","","","","72","H","0","img/none_selected.jpg","","111","main_expt"
"340","","bandit","190","586487","0.0-151.0-0.0","65061698","wem/bandit_either","A3CWEIEY3TGJFX","either","5","","","","","","","0","1","0","","0.21392293","0.4","0.6","0.2","0.8","0.21392293","0.1529967373","0.2451518953","0.28311182","","","","","","","","","","","72","H","0","img/none_selected.jpg","","112","main_expt"
"331","","bandit","191","588327","0.0-152.0-0.0","65061698","wem/bandit_either","A3CWEIEY3TGJFX","either","5","","","","","","","0","0","1","0.1606798039","","0.4","0.6","0.2","0.8","","","","","0.1606798039","0.148248117","0.2407836715","0.2413269532","","","","","","","72","H","0","img/none_selected.jpg","","113","main_expt"
"314","","bandit","192","590151","0.0-153.0-0.0","65061698","wem/bandit_either","A3CWEIEY3TGJFX","either","5","","","","","","","0","0","1","","0.2095980235","0.4","0.6","0.2","0.8","0.2095980235","0.1562208239","0.3099317417","0.3100969134","","","","","","","","","","","72","H","0","img/none_selected.jpg","","114","main_expt"
"138","","bandit","193","591798","0.0-154.0-0.0","65061698","wem/bandit_either","A3CWEIEY3TGJFX","either","5","","","","","","","0","0","1","0.2138032898","","0.4","0.6","0.2","0.8","","","","","0.2550279667","0.2138032898","0.3180754701","0.329842252","","","","","","","74","J","1","","","115","main_expt"
"643","","bandit","194","593951","0.0-155.0-0.0","65061698","wem/bandit_either","A3CWEIEY3TGJFX","either","5","","","","","","","0","0","1","0.2471764387","","0.4","0.6","0.2","0.8","","","","","0.2471764387","0.2331260325","0.2919742107","0.3223706096","","","","","","","72","H","0","img/none_selected.jpg","","116","main_expt"
"169","","bandit","195","595636","0.0-156.0-0.0","65061698","wem/bandit_either","A3CWEIEY3TGJFX","either","5","","","","","","","0","0","1","","0.2730878341","0.4","0.6","0.2","0.8","0.2730878341","0.1826309729","0.2799774295","0.3098408215","","","","","","","","","","","72","H","0","img/none_selected.jpg","","117","main_expt"
"153","","bandit","196","597304","0.0-157.0-0.0","65061698","wem/bandit_either","A3CWEIEY3TGJFX","either","5","","","","","","","0","1","0","","0.2071462199","0.4","0.6","0.2","0.8","0.2071462199","0.1511269107","0.2646714695","0.2974554567","","","","","","","","","","","72","H","0","img/none_selected.jpg","","118","main_expt"
"249","","bandit","197","599071","0.0-158.0-0.0","65061698","wem/bandit_either","A3CWEIEY3TGJFX","either","5","","","","","","","0","1","0","","0.2275232499","0.4","0.6","0.2","0.8","0.2275232499","0.1559979654","0.3179839519","0.3598468986","","","","","","","","","","","72","H","0","img/none_selected.jpg","","119","main_expt"
"348","","bandit","198","600927","0.0-159.0-0.0","65061698","wem/bandit_either","A3CWEIEY3TGJFX","either","5","","","","","","","1","0","0","0.2767559596","","0.4","0.6","0.2","0.8","","","","","0.2767559596","0.1463004055","0.3302262658","0.2984373086","","","","","","","72","H","0","img/none_selected.jpg","","120","main_expt"
"307","","bandit","199","602743","0.0-160.0-0.0","65061698","wem/bandit_either","A3CWEIEY3TGJFX","either","5","","","","","","","0","0","1","","0.3448590315","0.4","0.6","0.2","0.8","0.3448590315","0.1418195479","0.3500549905","0.2973090059","","","","","","","","","","","72","H","0","img/none_selected.jpg","","121","main_expt"
"308","","bandit","200","604560","0.0-161.0-0.0","65061698","wem/bandit_either","A3CWEIEY3TGJFX","either","5","","","","","","","0","0","1","","0.3593301016","0.4","0.6","0.2","0.8","0.3593301016","0.1270782113","0.2686616284","0.3382791822","","","","","","","","","","","72","H","0","img/none_selected.jpg","","122","main_expt"
"203","","bandit","201","606281","0.0-162.0-0.0","65061698","wem/bandit_either","A3CWEIEY3TGJFX","either","5","","","","","","","0","0","1","","0.3680529171","0.4","0.6","0.2","0.8","0.3680529171","0.1207154071","0.2277230314","0.3154347028","","","","","","","","","","","72","H","0","img/none_selected.jpg","","123","main_expt"
"291","","bandit","202","608087","0.0-163.0-0.0","65061698","wem/bandit_either","A3CWEIEY3TGJFX","either","5","","","","","","","0","0","1","0.3476523483","","0.4","0.6","0.2","0.8","","","","","0.3476523483","0.1229329119","0.3287090939","0.2966737815","","","","","","","72","H","0","img/none_selected.jpg","","124","main_expt"
"323","","bandit","203","609920","0.0-164.0-0.0","65061698","wem/bandit_either","A3CWEIEY3TGJFX","either","5","","","","","","","0","1","0","","0.3564603465","0.4","0.6","0.2","0.8","0.3564603465","0.09241122996","0.3687339586","0.3094831126","","","","","","","","","","","72","H","0","img/none_selected.jpg","","125","main_expt"
"321","","bandit","204","611751","0.0-165.0-0.0","65061698","wem/bandit_either","A3CWEIEY3TGJFX","either","5","","","","","","","1","0","0","0.3550684458","","0.4","0.6","0.2","0.8","","","","","0.3550684458","0.08418962236","0.3836195774","0.2488993205","","","","","","","72","H","0","img/none_selected.jpg","","126","main_expt"
"387","","bandit","205","613649","0.0-166.0-0.0","65061698","wem/bandit_either","A3CWEIEY3TGJFX","either","5","","","","","","","0","0","1","","0.3235559827","0.4","0.6","0.2","0.8","0.3235559827","0.154715772","0.3617365958","0.1953487027","","","","","","","","","","","72","H","0","img/none_selected.jpg","","127","main_expt"
"361","","bandit","206","615529","0.0-167.0-0.0","65061698","wem/bandit_either","A3CWEIEY3TGJFX","either","5","","","","","","","0","0","1","","0.312087491","0.4","0.6","0.2","0.8","0.312087491","0.1556709078","0.3235283493","0.2171889907","","","","","","","","","","","72","H","0","img/none_selected.jpg","","128","main_expt"
"221","","bandit","207","617268","0.0-168.0-0.0","65061698","wem/bandit_either","A3CWEIEY3TGJFX","either","5","","","","","","","0","0","1","","0.2843272188","0.4","0.6","0.2","0.8","0.2843272188","0.1214200615","0.3453830546","0.2467699801","","","","","","","","","","","72","H","0","img/none_selected.jpg","","129","main_expt"
"369","","bandit","208","619152","0.0-169.0-0.0","65061698","wem/bandit_either","A3CWEIEY3TGJFX","either","5","","","","","","","1","0","0","0.2128416856","","0.4","0.6","0.2","0.8","","","","","0.2128416856","0.1377283829","0.3242747857","0.2814443482","","","","","","","72","H","0","img/none_selected.jpg","","130","main_expt"
"427","","bandit","209","621091","0.0-170.0-0.0","65061698","wem/bandit_either","A3CWEIEY3TGJFX","either","5","","","","","","","0","0","1","0.2403879813","","0.4","0.6","0.2","0.8","","","","","0.2403879813","0.1397421628","0.3417201858","0.2834176508","","","","","","","72","H","0","img/none_selected.jpg","","131","main_expt"
"333","","bandit","210","622944","0.0-171.0-0.0","65061698","wem/bandit_either","A3CWEIEY3TGJFX","either","5","","","","","","","0","0","1","0.2811421594","","0.4","0.6","0.2","0.8","","","","","0.2811421594","0.1061875113","0.3498614837","0.2429908031","","","","","","","72","H","0","img/none_selected.jpg","","132","main_expt"
"380","","bandit","211","624840","0.0-172.0-0.0","65061698","wem/bandit_either","A3CWEIEY3TGJFX","either","5","","","","","","","0","1","0","","0.3002858371","0.4","0.6","0.2","0.8","0.3002858371","0.07774811701","0.3134828643","0.3053559495","","","","","","","","","","","72","H","0","img/none_selected.jpg","","133","main_expt"
"403","","bandit","212","626759","0.0-173.0-0.0","65061698","wem/bandit_either","A3CWEIEY3TGJFX","either","5","","","","","","","0","0","1","","0.277406375","0.4","0.6","0.2","0.8","0.277406375","0.08211281178","0.3554593188","0.2693478067","","","","","","","","","","","72","H","0","img/none_selected.jpg","","134","main_expt"
"400","","bandit","213","628717","0.0-174.0-0.0","65061698","wem/bandit_either","A3CWEIEY3TGJFX","either","5","","","","","","","0","0","1","0.2897147582","","0.4","0.6","0.2","0.8","","","","","0.2897147582","0.1123817552","0.3150900126","0.3369166079","","","","","","","72","H","0","img/none_selected.jpg","","135","main_expt"
"333","","bandit","214","630561","0.0-175.0-0.0","65061698","wem/bandit_either","A3CWEIEY3TGJFX","either","5","","","","","","","0","1","0","","0.3590576628","0.4","0.6","0.2","0.8","0.3590576628","0.1478339482","0.3199395785","0.268603144","","","","","","","","","","","72","H","0","img/none_selected.jpg","","136","main_expt"
"400","","bandit","215","632484","0.0-176.0-0.0","65061698","wem/bandit_either","A3CWEIEY3TGJFX","either","5","","","","","","","1","0","0","0.3822427384","","0.4","0.6","0.2","0.8","","","","","0.3822427384","0.1374936615","0.33362357","0.2373427956","","","","","","","72","H","0","img/none_selected.jpg","","137","main_expt"
"415","","bandit","216","634416","0.0-177.0-0.0","65061698","wem/bandit_either","A3CWEIEY3TGJFX","either","5","","","","","","","0","0","1","0.3410071165","","0.4","0.6","0.2","0.8","","","","","0.3410071165","0.159761955","0.3611324022","0.2206869265","","","","","","","72","H","0","img/none_selected.jpg","","138","main_expt"
"339","","bandit","217","636272","0.0-178.0-0.0","65061698","wem/bandit_either","A3CWEIEY3TGJFX","either","5","","","","","","","0","1","0","","0.3738014659","0.4","0.6","0.2","0.8","0.3738014659","0.1363721132","0.3504145086","0.2177966349","","","","","","","","","","","72","H","0","img/none_selected.jpg","","139","main_expt"
"334","","bandit","218","638120","0.0-179.0-0.0","65061698","wem/bandit_either","A3CWEIEY3TGJFX","either","5","","","","","","","0","0","1","","0.422575493","0.4","0.6","0.2","0.8","0.422575493","0.1031445192","0.309774603","0.2387685432","","","","","","","","","","","72","H","0","img/none_selected.jpg","","140","main_expt"
"421","","bandit","219","640052","0.0-180.0-0.0","65061698","wem/bandit_either","A3CWEIEY3TGJFX","either","5","","","","","","","0","0","1","0.4439129864","","0.4","0.6","0.2","0.8","","","","","0.4439129864","0.09805286369","0.3506531288","0.2575087366","","","","","","","72","H","0","img/none_selected.jpg","","141","main_expt"
"279","","bandit","220","641839","0.0-181.0-0.0","65061698","wem/bandit_either","A3CWEIEY3TGJFX","either","5","","","","","","","0","0","1","","0.4323802182","0.4","0.6","0.2","0.8","0.4323802182","0.1149002948","0.2965027242","0.2392038972","","","","","","","","","","","72","H","0","img/none_selected.jpg","","142","main_expt"
"354","","bandit","221","643712","0.0-182.0-0.0","65061698","wem/bandit_either","A3CWEIEY3TGJFX","either","5","","","","","","","1","0","0","0.4358412593","","0.4","0.6","0.2","0.8","","","","","0.4358412593","0.1209542099","0.2087517366","0.2216470548","","","","","","","72","H","0","img/none_selected.jpg","","143","main_expt"
"394","","bandit","222","645615","0.0-183.0-0.0","65061698","wem/bandit_either","A3CWEIEY3TGJFX","either","5","","","","","","","0","0","1","","0.4407373256","0.4","0.6","0.2","0.8","0.4407373256","0.1202521083","0.2313605626","0.2224896139","","","","","","","","","","","72","H","0","img/none_selected.jpg","","144","main_expt"
"379","","bandit","223","647511","0.0-184.0-0.0","65061698","wem/bandit_either","A3CWEIEY3TGJFX","either","5","","","","","","","0","0","1","0.4661091035","","0.4","0.6","0.2","0.8","","","","","0.4661091035","0.1619743669","0.1785565547","0.1925605464","","","","","","","72","H","0","img/none_selected.jpg","","145","main_expt"
"435","","bandit","224","649464","0.0-185.0-0.0","65061698","wem/bandit_either","A3CWEIEY3TGJFX","either","5","","","","","","","0","0","1","0.4637097668","","0.4","0.6","0.2","0.8","","","","","0.4637097668","0.1664631043","0.1770660648","0.2069800611","","","","","","","72","H","0","img/none_selected.jpg","","146","main_expt"
"446","","bandit","225","651427","0.0-186.0-0.0","65061698","wem/bandit_either","A3CWEIEY3TGJFX","either","5","","","","","","","0","0","1","0.4700491642","","0.4","0.6","0.2","0.8","","","","","0.4700491642","0.1669241763","0.1063371611","0.2489662189","","","","","","","72","H","0","img/none_selected.jpg","","147","main_expt"
"381","","bandit","226","653329","0.0-187.0-0.0","65061698","wem/bandit_either","A3CWEIEY3TGJFX","either","5","","","","","","","1","0","0","0.4648109734","","0.4","0.6","0.2","0.8","","","","","0.4648109734","0.1581456949","0.1216370817","0.1946464158","","","","","","","72","H","0","img/none_selected.jpg","","148","main_expt"
"327","","bandit","227","655167","0.0-188.0-0.0","65061698","wem/bandit_either","A3CWEIEY3TGJFX","either","5","","","","","","","1","0","0","0.4635511513","","0.4","0.6","0.2","0.8","","","","","0.4635511513","0.1698392466","0.1024256959","0.1826562491","","","","","","","72","H","0","img/none_selected.jpg","","149","main_expt"
"322","","bandit","228","657000","0.0-189.0-0.0","65061698","wem/bandit_either","A3CWEIEY3TGJFX","either","5","","","","","","","0","1","0","","0.4445017148","0.4","0.6","0.2","0.8","0.4445017148","0.2140114634","0.1371094633","0.1750473563","","","","","","","","","","","72","H","0","img/none_selected.jpg","","150","main_expt"
"337","","bandit","229","658849","0.0-190.0-0.0","65061698","wem/bandit_either","A3CWEIEY3TGJFX","either","5","","","","","","","0","0","1","","0.4434799742","0.4","0.6","0.2","0.8","0.4434799742","0.2392960001","0.1702433702","0.1109536645","","","","","","","","","","","72","H","0","img/none_selected.jpg","","151","main_expt"
"345","","bandit","230","660704","0.0-191.0-0.0","65061698","wem/bandit_either","A3CWEIEY3TGJFX","either","5","","","","","","","1","0","0","0.4451665291","","0.4","0.6","0.2","0.8","","","","","0.4451665291","0.2095863317","0.1860489046","0.1143086707","","","","","","","72","H","0","img/none_selected.jpg","","152","main_expt"
"358","","bandit","231","662571","0.0-192.0-0.0","65061698","wem/bandit_either","A3CWEIEY3TGJFX","either","5","","","","","","","0","0","1","","0.4401532833","0.4","0.6","0.2","0.8","0.4401532833","0.2543258611","0.2117094388","0.1236290712","","","","","","","","","","","72","H","0","img/none_selected.jpg","","153","main_expt"
"175","","bandit","232","664264","0.0-193.0-0.0","65061698","wem/bandit_either","A3CWEIEY3TGJFX","either","5","","","","","","","0","0","1","","0.4516855879","0.4","0.6","0.2","0.8","0.4516855879","0.2602259906","0.2072389033","0.1600695342","","","","","","","","","","","72","H","0","img/none_selected.jpg","","154","main_expt"
"333","","bandit","233","666113","0.0-194.0-0.0","65061698","wem/bandit_either","A3CWEIEY3TGJFX","either","5","","","","","","","0","1","0","","0.4480264808","0.4","0.6","0.2","0.8","0.4480264808","0.2750581274","0.1986333914","0.1770288166","","","","","","","","","","","72","H","0","img/none_selected.jpg","","155","main_expt"
"512","","bandit","234","668134","0.0-195.0-0.0","65061698","wem/bandit_either","A3CWEIEY3TGJFX","either","5","","","","","","","0","1","0","","0.4260414265","0.4","0.6","0.2","0.8","0.4260414265","0.2438045727","0.2054640346","0.1761817894","","","","","","","","","","","72","H","0","img/none_selected.jpg","","156","main_expt"
"379","","bandit","235","670032","0.0-196.0-0.0","65061698","wem/bandit_either","A3CWEIEY3TGJFX","either","5","","","","","","","0","0","1","","0.4365201507","0.4","0.6","0.2","0.8","0.4365201507","0.2857025143","0.1810715383","0.1998830888","","","","","","","","","","","72","H","0","img/none_selected.jpg","","157","main_expt"
"378","","bandit","236","671928","0.0-197.0-0.0","65061698","wem/bandit_either","A3CWEIEY3TGJFX","either","5","","","","","","","0","0","1","0.4076244479","","0.4","0.6","0.2","0.8","","","","","0.4076244479","0.2887719476","0.2118906364","0.2150354531","","","","","","","72","H","0","img/none_selected.jpg","","158","main_expt"
"228","","bandit","237","673707","0.0-198.0-0.0","65061698","wem/bandit_either","A3CWEIEY3TGJFX","either","5","","","","","","","0","0","1","0.403953851","","0.4","0.6","0.2","0.8","","","","","0.403953851","0.2859462397","0.2293976715","0.2221069796","","","","","","","72","H","0","img/none_selected.jpg","","159","main_expt"
"383","","bandit","238","675607","0.0-199.0-0.0","65061698","wem/bandit_either","A3CWEIEY3TGJFX","either","5","","","","","","","0","1","0","","0.2627335039","0.4","0.6","0.2","0.8","0.4282135537","0.207432816","0.2186051381","0.2627335039","","","","","","","","","","","76","L","3","","","160","main_expt"
"308","","bandit","239","677430","0.0-200.0-0.0","65061698","wem/bandit_either","A3CWEIEY3TGJFX","either","5","","","","","","","1","0","0","0.2922457848","","0.4","0.6","0.2","0.8","","","","","0.4479073124","0.1611694724","0.2175927206","0.2922457848","","","","","","","76","L","3","","","161","main_expt"
"244","","bandit","240","679184","0.0-201.0-0.0","65061698","wem/bandit_either","A3CWEIEY3TGJFX","either","5","","","","","","","1","0","0","0.3040212123","","0.4","0.6","0.2","0.8","","","","","0.4456201243","0.14378348","0.2370404117","0.3040212123","","","","","","","76","L","3","","","162","main_expt"
"250","","bandit","241","680954","0.0-202.0-0.0","65061698","wem/bandit_either","A3CWEIEY3TGJFX","either","5","","","","","","","0","0","1","0.2933359027","","0.4","0.6","0.2","0.8","","","","","0.4384930657","0.1707099899","0.2778780432","0.2933359027","","","","","","","76","L","3","","","163","main_expt"
"157","","bandit","242","682632","0.0-203.0-0.0","65061698","wem/bandit_either","A3CWEIEY3TGJFX","either","5","","","","","","","0","0","1","0.2388203062","","0.4","0.6","0.2","0.8","","","","","0.4231568034","0.1933693166","0.2643388611","0.2388203062","","","","","","","76","L","3","","","164","main_expt"
"90","","bandit","243","684233","0.0-204.0-0.0","65061698","wem/bandit_either","A3CWEIEY3TGJFX","either","5","","","","","","","0","0","1","0.2646204916","","0.4","0.6","0.2","0.8","","","","","0.4412535734","0.2406324952","0.1967204453","0.2646204916","","","","","","","76","L","3","","","165","main_expt"
"480","","bandit","244","686232","0.0-205.0-0.0","65061698","wem/bandit_either","A3CWEIEY3TGJFX","either","5","","","","","","","0","0","1","","0.2591758032","0.4","0.6","0.2","0.8","0.438364003","0.2650462377","0.1567937345","0.2591758032","","","","","","","","","","","76","L","3","","","166","main_expt"
"184","","bandit","245","687937","0.0-206.0-0.0","65061698","wem/bandit_either","A3CWEIEY3TGJFX","either","5","","","","","","","0","0","1","","0.1955934818","0.4","0.6","0.2","0.8","0.4290991351","0.245875583","0.1201482918","0.1955934818","","","","","","","","","","","76","L","3","","","167","main_expt"
"82","","bandit","246","689529","0.0-207.0-0.0","65061698","wem/bandit_either","A3CWEIEY3TGJFX","either","5","","","","","","","0","0","1","0.257303599","","0.4","0.6","0.2","0.8","","","","","0.4510860662","0.257303599","0.0936051119","0.2090603634","","","","","","","74","J","1","","","168","main_expt"
"522","","bandit","247","691559","0.0-208.0-0.0","65061698","wem/bandit_either","A3CWEIEY3TGJFX","either","5","","","","","","","0","0","1","","0.08775096918","0.4","0.6","0.2","0.8","0.4491424364","0.2993732043","0.08775096918","0.2678479696","","","","","","","","","","","75","K","2","","","169","main_expt"
"280","","bandit","248","693360","0.0-209.0-0.0","65061698","wem/bandit_either","A3CWEIEY3TGJFX","either","5","","","","","","","0","0","1","","0.4332244901","0.4","0.6","0.2","0.8","0.4332244901","0.3388977639","0.06743429675","0.2532125956","","","","","","","","","","","72","H","0","img/none_selected.jpg","","170","main_expt"
"475","","bandit","249","695348","0.0-210.0-0.0","65061698","wem/bandit_either","A3CWEIEY3TGJFX","either","5","","","","","","","0","1","0","","0.4405036994","0.4","0.6","0.2","0.8","0.4405036994","0.2947926635","0.05979118822","0.2568627054","","","","","","","","","","","72","H","0","img/none_selected.jpg","","171","main_expt"
"390","","bandit","250","697256","0.0-211.0-0.0","65061698","wem/bandit_either","A3CWEIEY3TGJFX","either","5","","","","","","","1","0","0","0.4358521759","","0.4","0.6","0.2","0.8","","","","","0.4358521759","0.2892529657","0.03200499914","0.2451563353","","","","","","","72","H","0","img/none_selected.jpg","","172","main_expt"
"266","","bandit","251","699040","0.0-212.0-0.0","65061698","wem/bandit_either","A3CWEIEY3TGJFX","either","5","","","","","","","0","0","1","","0.4471617722","0.4","0.6","0.2","0.8","0.4471617722","0.2571917514","0.04613358223","0.3003395367","","","","","","","","","","","72","H","0","img/none_selected.jpg","","173","main_expt"
"264","","bandit","252","700824","0.0-213.0-0.0","65061698","wem/bandit_either","A3CWEIEY3TGJFX","either","5","","","","","","","1","0","0","0.4560251174","","0.4","0.6","0.2","0.8","","","","","0.4560251174","0.244173221","0.05969677181","0.2545998681","","","","","","","72","H","0","img/none_selected.jpg","","174","main_expt"
"282","","bandit","253","702624","0.0-214.0-0.0","65061698","wem/bandit_either","A3CWEIEY3TGJFX","either","5","","","","","","","0","0","1","","0.4379349024","0.4","0.6","0.2","0.8","0.4379349024","0.2038098688","0.05930066603","0.3383135611","","","","","","","","","","","72","H","0","img/none_selected.jpg","","175","main_expt"
"384","","bandit","254","704529","0.0-215.0-0.0","65061698","wem/bandit_either","A3CWEIEY3TGJFX","either","5","","","","","","","0","1","0","","0.4328841116","0.4","0.6","0.2","0.8","0.4328841116","0.2053823003","0.08110879181","0.3880627729","","","","","","","","","","","72","H","0","img/none_selected.jpg","","176","main_expt"
"273","","bandit","255","706323","0.0-216.0-0.0","65061698","wem/bandit_either","A3CWEIEY3TGJFX","either","5","","","","","","","0","0","1","0.3965365967","","0.4","0.6","0.2","0.8","","","","","0.3965365967","0.2193083282","0.07611568943","0.3920994557","","","","","","","72","H","0","img/none_selected.jpg","","177","main_expt"
"397","","bandit","256","708240","0.0-217.0-0.0","65061698","wem/bandit_either","A3CWEIEY3TGJFX","either","5","","","","","","","0","0","1","","0.3899234309","0.4","0.6","0.2","0.8","0.3899234309","0.1904263594","0.1220467165","0.3882277994","","","","","","","","","","","72","H","0","img/none_selected.jpg","","178","main_expt"
"464","","bandit","257","710222","0.0-218.0-0.0","65061698","wem/bandit_either","A3CWEIEY3TGJFX","either","5","","","","","","","0","0","1","","0.4238443777","0.4","0.6","0.2","0.8","0.4238443777","0.2212788648","0.1698853315","0.3939691408","","","","","","","","","","","72","H","0","img/none_selected.jpg","","179","main_expt"
"491","","bandit","258","712225","0.0-219.0-0.0","65061698","wem/bandit_either","A3CWEIEY3TGJFX","either","5","","","","","","","0","1","0","","0.4487400994","0.4","0.6","0.2","0.8","0.4487400994","0.2640717145","0.1374762061","0.4074656662","","","","","","","","","","","72","H","0","img/none_selected.jpg","","180","main_expt"
"476","","bandit","259","714225","0.0-220.0-0.0","65061698","wem/bandit_either","A3CWEIEY3TGJFX","either","5","","","","","","","0","0","1","","0.4314573438","0.4","0.6","0.2","0.8","0.4314573438","0.2426483564","0.09961924189","0.3724421945","","","","","","","","","","","72","H","0","img/none_selected.jpg","","181","main_expt"
"526","","bandit","260","716264","0.0-221.0-0.0","65061698","wem/bandit_either","A3CWEIEY3TGJFX","either","5","","","","","","","0","1","0","","0.4458059303","0.4","0.6","0.2","0.8","0.4458059303","0.2001563476","0.1391043194","0.2998177931","","","","","","","","","","","72","H","0","img/none_selected.jpg","","182","main_expt"
"515","","bandit","261","718300","0.0-222.0-0.0","65061698","wem/bandit_either","A3CWEIEY3TGJFX","either","5","","","","","","","0","0","1","0.4485460149","","0.4","0.6","0.2","0.8","","","","","0.4485460149","0.2167094124","0.1336424596","0.3629728763","","","","","","","72","H","0","img/none_selected.jpg","","183","main_expt"
"310","","bandit","262","720129","0.0-223.0-0.0","65061698","wem/bandit_either","A3CWEIEY3TGJFX","either","5","","","","","","","0","0","1","","0.4078350507","0.4","0.6","0.2","0.8","0.4078350507","0.2402813617","0.115911235","0.3763603645","","","","","","","","","","","72","H","0","img/none_selected.jpg","","184","main_expt"
"263","","bandit","263","721905","0.0-224.0-0.0","65061698","wem/bandit_either","A3CWEIEY3TGJFX","either","5","","","","","","","0","0","1","0.3805788675","","0.4","0.6","0.2","0.8","","","","","0.3805788675","0.2745112141","0.1394203739","0.3472982705","","","","","","","72","H","0","img/none_selected.jpg","","185","main_expt"
"390","","bandit","264","723806","0.0-225.0-0.0","65061698","wem/bandit_either","A3CWEIEY3TGJFX","either","5","","","","","","","0","0","1","0.4236809331","","0.4","0.6","0.2","0.8","","","","","0.4236809331","0.2774566956","0.1557479742","0.3095995051","","","","","","","72","H","0","img/none_selected.jpg","","186","main_expt"
"441","","bandit","265","725759","0.0-226.0-0.0","65061698","wem/bandit_either","A3CWEIEY3TGJFX","either","5","","","","","","","0","0","1","0.2567332284","","0.4","0.6","0.2","0.8","","","","","0.4058627081","0.2876011691","0.1823611596","0.2567332284","","","","","","","76","L","3","","","187","main_expt"
"241","","bandit","266","727512","0.0-227.0-0.0","65061698","wem/bandit_either","A3CWEIEY3TGJFX","either","5","","","","","","","0","0","1","0.2555256861","","0.4","0.6","0.2","0.8","","","","","0.3913346521","0.2947112378","0.1854179297","0.2555256861","","","","","","","76","L","3","","","188","main_expt"
"339","","bandit","267","729362","0.0-228.0-0.0","65061698","wem/bandit_either","A3CWEIEY3TGJFX","either","5","","","","","","","0","0","1","","0.2009875262","0.4","0.6","0.2","0.8","0.3760164219","0.2581494","0.1875645599","0.2009875262","","","","","","","","","","","76","L","3","","","189","main_expt"
"277","","bandit","268","731160","0.0-229.0-0.0","65061698","wem/bandit_either","A3CWEIEY3TGJFX","either","5","","","","","","","0","0","1","0.2055488595","","0.4","0.6","0.2","0.8","","","","","0.3327352817","0.1756323468","0.2018323604","0.2055488595","","","","","","","76","L","3","","","190","main_expt"
"360","","bandit","269","733030","0.0-230.0-0.0","65061698","wem/bandit_either","A3CWEIEY3TGJFX","either","5","","","","","","","0","0","1","","0.221094727","0.4","0.6","0.2","0.8","0.3015177445","0.2521570866","0.221094727","0.1506387864","","","","","","","","","","","75","K","2","","","191","main_expt"
"330","","bandit","270","734873","0.0-231.0-0.0","65061698","wem/bandit_either","A3CWEIEY3TGJFX","either","5","","","","","","","0","0","1","","0.2320570195","0.4","0.6","0.2","0.8","0.2773298268","0.2964739449","0.2320570195","0.2027442266","","","","","","","","","","","75","K","2","","","192","main_expt"
"276","","bandit","271","736718","0.0-232.0-0.0","65061698","wem/bandit_either","A3CWEIEY3TGJFX","either","5","","","","","","","0","0","1","0.2948950962","","0.4","0.6","0.2","0.8","","","","","0.2836613797","0.2612966838","0.2948950962","0.1969137872","","","","","","","75","K","2","","","193","main_expt"
"211","","bandit","272","738440","0.0-233.0-0.0","65061698","wem/bandit_either","A3CWEIEY3TGJFX","either","5","","","","","","","1","0","0","0.2602906927","","0.4","0.6","0.2","0.8","","","","","0.2799350415","0.3292914436","0.2602906927","0.2114994946","","","","","","","75","K","2","","","194","main_expt"
"264","","bandit","273","740224","0.0-234.0-0.0","65061698","wem/bandit_either","A3CWEIEY3TGJFX","either","5","","","","","","","0","0","1","","0.2068597772","0.4","0.6","0.2","0.8","0.2068597772","0.4070308407","0.1771499101","0.2467939011","","","","","","","","","","","72","H","0","img/none_selected.jpg","","195","main_expt"
"1","","bandit","274","741744","0.0-235.0-0.0","65061698","wem/bandit_either","A3CWEIEY3TGJFX","either","5","","","","","","","0","0","1","0.3494820729","","0.4","0.6","0.2","0.8","","","","","0.2679469531","0.3494820729","0.1746274925","0.2731811988","","","","","","","74","J","1","","","196","main_expt"
"264","","bandit","275","743520","0.0-236.0-0.0","65061698","wem/bandit_either","A3CWEIEY3TGJFX","either","5","","","","","","","0","0","1","","0.3571939809","0.4","0.6","0.2","0.8","0.2448078588","0.3571939809","0.193224684","0.2512114903","","","","","","","","","","","74","J","1","","","197","main_expt"
"152","","bandit","276","745193","0.0-237.0-0.0","65061698","wem/bandit_either","A3CWEIEY3TGJFX","either","5","","","","","","","0","0","1","0.382430028","","0.4","0.6","0.2","0.8","","","","","0.2433987968","0.382430028","0.1771509929","0.190651112","","","","","","","74","J","1","","","198","main_expt"
"237","","bandit","277","746951","0.0-238.0-0.0","65061698","wem/bandit_either","A3CWEIEY3TGJFX","either","5","","","","","","","0","0","1","0.3353474301","","0.4","0.6","0.2","0.8","","","","","0.2653624242","0.3353474301","0.2466668772","0.1701189695","","","","","","","74","J","1","","","199","main_expt"
"49","","bandit","278","748519","0.0-239.0-0.0","65061698","wem/bandit_either","A3CWEIEY3TGJFX","either","5","","","","","","","0","1","0","","0.2477816141","0.4","0.6","0.2","0.8","0.2551376492","0.3321976498","0.2477816141","0.1656975488","","","","","","","","","","","75","K","2","","","200","main_expt"
"309","","bandit","279","750348","0.0-240.0-0.0","65061698","wem/bandit_either","A3CWEIEY3TGJFX","either","5","","","","","","","0","0","1","","0.2744817861","0.4","0.6","0.2","0.8","0.2660639347","0.3218117355","0.2744817861","0.1647298582","","","","","","","","","","","75","K","2","","","201","main_expt"
"309","","bandit","280","752168","0.0-241.0-0.0","65061698","wem/bandit_either","A3CWEIEY3TGJFX","either","5","","","","","","","0","0","1","","0.3043062986","0.4","0.6","0.2","0.8","0.2220900594","0.2949214693","0.3043062986","0.1242041815","","","","","","","","","","","75","K","2","","","202","main_expt"
"145","","bandit","281","753826","0.0-242.0-0.0","65061698","wem/bandit_either","A3CWEIEY3TGJFX","either","5","","","","","","","0","0","1","","0.272185569","0.4","0.6","0.2","0.8","0.1543353204","0.300077299","0.272185569","0.1684487429","","","","","","","","","","","75","K","2","","","203","main_expt"
"255","","bandit","282","755595","0.0-243.0-0.0","65061698","wem/bandit_either","A3CWEIEY3TGJFX","either","5","","","","","","","0","0","1","0.2610767704","","0.4","0.6","0.2","0.8","","","","","0.1605482003","0.2866085977","0.2610767704","0.1666409686","","","","","","","75","K","2","","","204","main_expt"
"193","","bandit","283","757313","0.0-244.0-0.0","65061698","wem/bandit_either","A3CWEIEY3TGJFX","either","5","","","","","","","1","0","0","0.2832615928","","0.4","0.6","0.2","0.8","","","","","0.1406914754","0.2695546272","0.2832615928","0.2197286508","","","","","","","75","K","2","","","205","main_expt"
"223","","bandit","284","759058","0.0-245.0-0.0","65061698","wem/bandit_either","A3CWEIEY3TGJFX","either","5","","","","","","","0","0","1","0.300913322","","0.4","0.6","0.2","0.8","","","","","0.1138947463","0.2622178416","0.300913322","0.2754509052","","","","","","","75","K","2","","","206","main_expt"
"322","","bandit","285","760902","0.0-246.0-0.0","65061698","wem/bandit_either","A3CWEIEY3TGJFX","either","5","","","","","","","0","0","1","","0.3260258847","0.4","0.6","0.2","0.8","0.1096702189","0.2498186578","0.3260258847","0.2664869377","","","","","","","","","","","75","K","2","","","207","main_expt"
"417","","bandit","286","762842","0.0-247.0-0.0","65061698","wem/bandit_either","A3CWEIEY3TGJFX","either","5","","","","","","","0","1","0","","0.3173829003","0.4","0.6","0.2","0.8","0.09922356593","0.2335358635","0.3173829003","0.2686565688","","","","","","","","","","","75","K","2","","","208","main_expt"
"374","","bandit","287","764737","0.0-248.0-0.0","65061698","wem/bandit_either","A3CWEIEY3TGJFX","either","5","","","","","","","0","0","1","0.3153846937","","0.4","0.6","0.2","0.8","","","","","0.101567507","0.2638942681","0.3153846937","0.2380255957","","","","","","","75","K","2","","","209","main_expt"
"401","","bandit","288","766649","0.0-249.0-0.0","65061698","wem/bandit_either","A3CWEIEY3TGJFX","either","5","","","","","","","0","0","1","0.3010876552","","0.4","0.6","0.2","0.8","","","","","0.08675379402","0.2526926237","0.3010876552","0.2507768727","","","","","","","75","K","2","","","210","main_expt"
"553","","bandit","289","768721","0.0-250.0-0.0","65061698","wem/bandit_either","A3CWEIEY3TGJFX","either","5","","","","","","","0","1","0","","0.2864900033","0.4","0.6","0.2","0.8","0.07512021269","0.2740367769","0.2864900033","0.2685142319","","","","","","","","","","","75","K","2","","","211","main_expt"
"481","","bandit","290","770713","0.0-251.0-0.0","65061698","wem/bandit_either","A3CWEIEY3TGJFX","either","5","","","","","","","0","0","1","","0.3163372434","0.4","0.6","0.2","0.8","0.08144254236","0.2440836191","0.3163372434","0.260511483","","","","","","","","","","","75","K","2","","","212","main_expt"
"276","","bandit","291","772501","0.0-252.0-0.0","65061698","wem/bandit_either","A3CWEIEY3TGJFX","either","5","","","","","","","0","0","1","0.2701305136","","0.4","0.6","0.2","0.8","","","","","0.06585574052","0.2341903104","0.2701305136","0.2579605047","","","","","","","75","K","2","","","213","main_expt"
"404","","bandit","292","774425","0.0-253.0-0.0","65061698","wem/bandit_either","A3CWEIEY3TGJFX","either","5","","","","","","","0","0","1","","0.302599165","0.4","0.6","0.2","0.8","0.08686614453","0.2097526345","0.302599165","0.2470456849","","","","","","","","","","","75","K","2","","","214","main_expt"
"400","","bandit","293","776335","0.0-254.0-0.0","65061698","wem/bandit_either","A3CWEIEY3TGJFX","either","5","","","","","","","0","0","1","0.1068548489","","0.4","0.6","0.2","0.8","","","","","0.1068548489","0.1796882487","0.2968005471","0.3285383036","","","","","","","72","H","0","img/none_selected.jpg","","215","main_expt"
"377","","bandit","294","778224","0.0-255.0-0.0","65061698","wem/bandit_either","A3CWEIEY3TGJFX","either","5","","","","","","","0","0","1","","0.1211736082","0.4","0.6","0.2","0.8","0.1211736082","0.2237900511","0.2835536598","0.3780044773","","","","","","","","","","","72","H","0","img/none_selected.jpg","","216","main_expt"
"417","","bandit","295","780153","0.0-256.0-0.0","65061698","wem/bandit_either","A3CWEIEY3TGJFX","either","5","","","","","","","0","0","1","","0.09343701815","0.4","0.6","0.2","0.8","0.09343701815","0.2265358539","0.2520762718","0.3939228946","","","","","","","","","","","72","H","0","img/none_selected.jpg","","217","main_expt"
"287","","bandit","296","781952","0.0-257.0-0.0","65061698","wem/bandit_either","A3CWEIEY3TGJFX","either","5","","","","","","","0","0","1","0.1001055386","","0.4","0.6","0.2","0.8","","","","","0.1001055386","0.2364013437","0.2562699476","0.3198270803","","","","","","","72","H","0","img/none_selected.jpg","","218","main_expt"
"312","","bandit","297","783778","0.0-258.0-0.0","65061698","wem/bandit_either","A3CWEIEY3TGJFX","either","5","","","","","","","1","0","0","0.3502502288","","0.4","0.6","0.2","0.8","","","","","0.09524874014","0.2810560361","0.3002431464","0.3502502288","","","","","","","76","L","3","","","219","main_expt"
"326","","bandit","298","785616","0.0-259.0-0.0","65061698","wem/bandit_either","A3CWEIEY3TGJFX","either","5","","","","","","","0","0","1","0.3402456168","","0.4","0.6","0.2","0.8","","","","","0.1304899995","0.3027429446","0.3365413303","0.3402456168","","","","","","","76","L","3","","","220","main_expt"
"376","","bandit","299","787513","0.0-260.0-0.0","65061698","wem/bandit_either","A3CWEIEY3TGJFX","either","5","","","","","","","0","0","1","0.3770059732","","0.4","0.6","0.2","0.8","","","","","0.1272814923","0.3132134988","0.2946103072","0.3770059732","","","","","","","76","L","3","","","221","main_expt"
"549","","bandit","300","789584","0.0-261.0-0.0","65061698","wem/bandit_either","A3CWEIEY3TGJFX","either","5","","","","","","","0","1","0","","0.3864421123","0.4","0.6","0.2","0.8","0.1654407056","0.2424821827","0.3267284332","0.3864421123","","","","","","","","","","","76","L","3","","","222","main_expt"
"351","","bandit","301","791448","0.0-262.0-0.0","65061698","wem/bandit_either","A3CWEIEY3TGJFX","either","5","","","","","","","1","0","0","0.4205211408","","0.4","0.6","0.2","0.8","","","","","0.1788325852","0.2595367495","0.3175152631","0.4205211408","","","","","","","76","L","3","","","223","main_expt"
"296","","bandit","302","793257","0.0-263.0-0.0","65061698","wem/bandit_either","A3CWEIEY3TGJFX","either","5","","","","","","","1","0","0","0.4131889957","","0.4","0.6","0.2","0.8","","","","","0.1736623033","0.328819141","0.3192400935","0.4131889957","","","","","","","76","L","3","","","224","main_expt"
"315","","bandit","303","795089","0.0-264.0-0.0","65061698","wem/bandit_either","A3CWEIEY3TGJFX","either","5","","","","","","","0","0","1","","0.4001513574","0.4","0.6","0.2","0.8","0.1721911447","0.356121412","0.3096750449","0.4001513574","","","","","","","","","","","76","L","3","","","225","main_expt"
"351","","bandit","304","796951","0.0-265.0-0.0","65061698","wem/bandit_either","A3CWEIEY3TGJFX","either","5","","","","","","","0","0","1","0.3963688582","","0.4","0.6","0.2","0.8","","","","","0.2133818582","0.3394019192","0.3142833063","0.3963688582","","","","","","","76","L","3","","","226","main_expt"
"392","","bandit","305","798865","0.0-266.0-0.0","65061698","wem/bandit_either","A3CWEIEY3TGJFX","either","5","","","","","","","1","0","0","0.3979714495","","0.4","0.6","0.2","0.8","","","","","0.2620007467","0.2860553004","0.3096885674","0.3979714495","","","","","","","76","L","3","","","227","main_expt"
"461","","bandit","306","800849","0.0-267.0-0.0","65061698","wem/bandit_either","A3CWEIEY3TGJFX","either","5","","","","","","","1","0","0","0.3811043637","","0.4","0.6","0.2","0.8","","","","","0.2961930455","0.2967856672","0.3048295172","0.3811043637","","","","","","","76","L","3","","","228","main_expt"
"351","","bandit","307","802724","0.0-268.0-0.0","65061698","wem/bandit_either","A3CWEIEY3TGJFX","either","5","","","","","","","0","0","1","0.3488149186","","0.4","0.6","0.2","0.8","","","","","0.3081123415","0.2857745529","0.2553920021","0.3488149186","","","","","","","76","L","3","","","229","main_expt"
"377","","bandit","308","804620","0.0-269.0-0.0","65061698","wem/bandit_either","A3CWEIEY3TGJFX","either","5","","","","","","","0","0","1","0.2883621188","","0.4","0.6","0.2","0.8","","","","","0.3027177586","0.2589404948","0.2783794412","0.2883621188","","","","","","","76","L","3","","","230","main_expt"
"406","","bandit","309","806549","0.0-270.0-0.0","65061698","wem/bandit_either","A3CWEIEY3TGJFX","either","5","","","","","","","0","0","1","0.2444465504","","0.4","0.6","0.2","0.8","","","","","0.2495346478","0.2628441024","0.2735536708","0.2444465504","","","","","","","76","L","3","","","231","main_expt"
"690","","bandit","310","808762","0.0-271.0-0.0","65061698","wem/bandit_either","A3CWEIEY3TGJFX","either","5","","","","","","","0","0","1","0.2996930955","","0.4","0.6","0.2","0.8","","","","","0.2185872191","0.276537748","0.2262440502","0.2996930955","","","","","","","76","L","3","","","232","main_expt"
"420","","bandit","311","810707","0.0-272.0-0.0","65061698","wem/bandit_either","A3CWEIEY3TGJFX","either","5","","","","","","","0","0","1","0.3103031796","","0.4","0.6","0.2","0.8","","","","","0.1874863907","0.2485723575","0.2171974885","0.3103031796","","","","","","","76","L","3","","","233","main_expt"
"382","","bandit","312","812601","0.0-273.0-0.0","65061698","wem/bandit_either","A3CWEIEY3TGJFX","either","5","","","","","","","0","0","1","0.2971988612","","0.4","0.6","0.2","0.8","","","","","0.2165838284","0.2172766866","0.2951485073","0.2971988612","","","","","","","76","L","3","","","234","main_expt"
"344","","bandit","313","814464","0.0-274.0-0.0","65061698","wem/bandit_either","A3CWEIEY3TGJFX","either","5","","","","","","","0","0","1","","0.3135740045","0.4","0.6","0.2","0.8","0.1791302586","0.221542824","0.3135740045","0.3266576642","","","","","","","","","","","75","K","2","","","235","main_expt"
"397","","bandit","314","816376","0.0-275.0-0.0","65061698","wem/bandit_either","A3CWEIEY3TGJFX","either","5","","","","","","","0","0","1","","0.2945285262","0.4","0.6","0.2","0.8","0.2463713802","0.2200573756","0.2945285262","0.3596878827","","","","","","","","","","","75","K","2","","","236","main_expt"
"394","","bandit","315","818300","0.0-276.0-0.0","65061698","wem/bandit_either","A3CWEIEY3TGJFX","either","5","","","","","","","0","1","0","","0.2797454337","0.4","0.6","0.2","0.8","0.2204623923","0.2146478317","0.2797454337","0.3951370387","","","","","","","","","","","75","K","2","","","237","main_expt"
"404","","bandit","316","820216","0.0-277.0-0.0","65061698","wem/bandit_either","A3CWEIEY3TGJFX","either","5","","","","","","","0","0","1","0.266453507","","0.4","0.6","0.2","0.8","","","","","0.2316256556","0.2237656472","0.266453507","0.3863552979","","","","","","","75","K","2","","","238","main_expt"
"317","","bandit","317","822057","0.0-278.0-0.0","65061698","wem/bandit_either","A3CWEIEY3TGJFX","either","5","","","","","","","0","0","1","","0.310831157","0.4","0.6","0.2","0.8","0.2406304147","0.2302611888","0.310831157","0.3962704677","","","","","","","","","","","75","K","2","","","239","main_expt"
"653","","bandit","318","824232","0.0-279.0-0.0","65061698","wem/bandit_either","A3CWEIEY3TGJFX","either","5","","","","","","","0","1","0","","0.331950591","0.4","0.6","0.2","0.8","0.2624476398","0.2253069634","0.331950591","0.3926977495","","","","","","","","","","","75","K","2","","","240","main_expt"
"360","","bandit","319","826106","0.0-280.0-0.0","65061698","wem/bandit_either","A3CWEIEY3TGJFX","either","5","","","","","","","0","0","1","","0.3223776605","0.4","0.6","0.2","0.8","0.2627099727","0.2523404353","0.3223776605","0.3381110468","","","","","","","","","","","75","K","2","","","241","main_expt"
"92","","bandit","320","827715","0.0-281.0-0.0","65061698","wem/bandit_either","A3CWEIEY3TGJFX","either","5","","","","","","","0","0","1","","0.3389272588","0.4","0.6","0.2","0.8","0.2262339403","0.238450381","0.3389272588","0.3213381148","","","","","","","","","","","75","K","2","","","242","main_expt"
"324","","bandit","321","829565","0.0-282.0-0.0","65061698","wem/bandit_either","A3CWEIEY3TGJFX","either","5","","","","","","","0","1","0","","0.4023830898","0.4","0.6","0.2","0.8","0.2511573395","0.2476478509","0.4023830898","0.3395415742","","","","","","","","","","","75","K","2","","","243","main_expt"
"330","","bandit","322","831418","0.0-283.0-0.0","65061698","wem/bandit_either","A3CWEIEY3TGJFX","either","5","","","","","","","0","0","1","","0.4072225753","0.4","0.6","0.2","0.8","0.3112309098","0.2603762171","0.4072225753","0.3077285799","","","","","","","","","","","75","K","2","","","244","main_expt"
"150","","bandit","323","833090","0.0-284.0-0.0","65061698","wem/bandit_either","A3CWEIEY3TGJFX","either","5","","","","","","","0","1","0","","0.4047901721","0.4","0.6","0.2","0.8","0.3169667097","0.2778117757","0.4047901721","0.269997398","","","","","","","","","","","75","K","2","","","245","main_expt"
"299","","bandit","324","834914","0.0-285.0-0.0","65061698","wem/bandit_either","A3CWEIEY3TGJFX","either","5","","","","","","","1","0","0","0.4245844383","","0.4","0.6","0.2","0.8","","","","","0.3774934029","0.2571702875","0.4245844383","0.2896792764","","","","","","","75","K","2","","","246","main_expt"
"423","","bandit","325","836850","0.0-286.0-0.0","65061698","wem/bandit_either","A3CWEIEY3TGJFX","either","5","","","","","","","0","0","1","","0.4425022826","0.4","0.6","0.2","0.8","0.3592590195","0.2790325972","0.4425022826","0.3079745892","","","","","","","","","","","75","K","2","","","247","main_expt"
"517","","bandit","326","838890","0.0-287.0-0.0","65061698","wem/bandit_either","A3CWEIEY3TGJFX","either","5","","","","","","","0","0","1","","0.4454461089","0.4","0.6","0.2","0.8","0.3659800935","0.2665328125","0.4454461089","0.2306801962","","","","","","","","","","","75","K","2","","","248","main_expt"
"317","","bandit","327","840731","0.0-288.0-0.0","65061698","wem/bandit_either","A3CWEIEY3TGJFX","either","5","","","","","","","0","0","1","","0.4565985803","0.4","0.6","0.2","0.8","0.3940863056","0.2666328085","0.4565985803","0.2363838343","","","","","","","","","","","75","K","2","","","249","main_expt"
"342","","bandit","328","842586","0.0-289.0-0.0","65061698","wem/bandit_either","A3CWEIEY3TGJFX","either","5","","","","","","","1","0","0","0.2865845142","","0.4","0.6","0.2","0.8","","","","","0.3652193683","0.2637425143","0.4666950096","0.2865845142","","","","","","","76","L","3","","","250","main_expt"
"286","","bandit","329","844386","0.0-290.0-0.0","65061698","wem/bandit_either","A3CWEIEY3TGJFX","either","5","","","","","","","0","0","1","","0.3527425442","0.4","0.6","0.2","0.8","0.3118516898","0.3041279159","0.4491167865","0.3527425442","","","","","","","","","","","76","L","3","","","251","main_expt"
"528","","bandit","330","846441","0.0-291.0-0.0","65061698","wem/bandit_either","A3CWEIEY3TGJFX","either","5","","","","","","","0","0","1","0.3236638898","","0.4","0.6","0.2","0.8","","","","","0.3291033061","0.3054217384","0.4512042396","0.3236638898","","","","","","","76","L","3","","","252","main_expt"
"398","","bandit","331","848361","0.0-292.0-0.0","65061698","wem/bandit_either","A3CWEIEY3TGJFX","either","5","","","","","","","0","0","1","0.2905162115","","0.4","0.6","0.2","0.8","","","","","0.35413613","0.3241125582","0.4572977034","0.2905162115","","","","","","","76","L","3","","","253","main_expt"
