"rt","responses","trial_type","trial_index","time_elapsed","internal_node_id","subjID","study","MID","cond","drift","key_press","expt_phase","target","like","value","connected","gems","bombs","no_reward","GemPrChosen","BombPrChosen","GainOverPainPr_0","GainOverPainPr_1","GainOverPainPr_2","GainOverPainPr_3","LosePr_0","LosePr_1","LosePr_2","LosePr_3","WinPr_0","WinPr_1","WinPr_2","WinPr_3","Q0","Q1","Q2","gender","age","ethnicity","respCharCode","respKey","respChoiceNum","respChoice","practice","trial_counter","trial_label"
"9535","{""Q0"":""A2YJQUHFIXNOY0""}","survey-text","0","9546","0.0-0.0","68126342","wem/bandit_either","A2YJQUHFIXNOY0","either","2","","","","","","","","","","","","","","","","","","","","","","","","","","","","","","","","","","","",""
"31457","","text","1","42009","0.0-1.0","68126342","wem/bandit_either","A2YJQUHFIXNOY0","either","2","32","","","","","","","","","","","","","","","","","","","","","","","","","","","","","","","","","","",""
"53380","","text","2","95391","0.0-2.0","68126342","wem/bandit_either","A2YJQUHFIXNOY0","either","2","32","","","","","","","","","","","","","","","","","","","","","","","","","","","","","","","","","","",""
"14733","","text","3","110126","0.0-3.0","68126342","wem/bandit_either","A2YJQUHFIXNOY0","either","2","32","","","","","","","","","","","","","","","","","","","","","","","","","","","","","","","","","","",""
"39503","","text","4","149632","0.0-4.0","68126342","wem/bandit_either","A2YJQUHFIXNOY0","either","2","32","","","","","","","","","","","","","","","","","","","","","","","","","","","","","","","","","","",""
"18616","","text","5","168250","0.0-5.0","68126342","wem/bandit_either","A2YJQUHFIXNOY0","either","2","32","","","","","","","","","","","","","","","","","","","","","","","","","","","","","","","","","","",""
"5238","","text","6","173492","0.0-6.0","68126342","wem/bandit_either","A2YJQUHFIXNOY0","either","2","32","","","","","","","","","","","","","","","","","","","","","","","","","","","","","","","","","","",""
"5045","","text","7","178539","0.0-7.0","68126342","wem/bandit_either","A2YJQUHFIXNOY0","either","2","32","","","","","","","","","","","","","","","","","","","","","","","","","","","","","","","","","","",""
"6113","","identification","8","184707","0.0-8.0-0.0","68126342","wem/bandit_either","A2YJQUHFIXNOY0","either","2","","identification_pre","the village of Zur","","","","","","","","","","","","","","","","","","","","","","","","","","","","","","","","",""
"4749","","identification","9","190480","0.0-8.0-1.0","68126342","wem/bandit_either","A2YJQUHFIXNOY0","either","2","","identification_pre","the village of Nyx","","","","","","","","","","","","","","","","","","","","","","","","","","","","","","","","",""
"4175","","text","10","195659","0.0-9.0","68126342","wem/bandit_either","A2YJQUHFIXNOY0","either","2","32","","","","","","","","","","","","","","","","","","","","","","","","","","","","","","","","","","",""
"2395","","text","11","198057","0.0-10.0","68126342","wem/bandit_either","A2YJQUHFIXNOY0","either","2","32","","","","","","","","","","","","","","","","","","","","","","","","","","","","","","","","","","",""
"1281","","text","12","199343","0.0-11.0","68126342","wem/bandit_either","A2YJQUHFIXNOY0","either","2","32","","","","","","","","","","","","","","","","","","","","","","","","","","","","","","","","","","",""
"3751","","text","13","203096","0.0-12.0","68126342","wem/bandit_either","A2YJQUHFIXNOY0","either","2","32","","","","","","","","","","","","","","","","","","","","","","","","","","","","","","","","","","",""
"2057","","bandit","14","206666","0.0-13.0-0.0","68126342","wem/bandit_either","A2YJQUHFIXNOY0","either","2","","","","","","","0","0","1","0","0","","","","","0","","","","0","","","","","","","","","","74","J","0","img/none_selected_demo.jpg","true","0",""
"956","","bandit","15","209131","0.0-14.0-0.0","68126342","wem/bandit_either","A2YJQUHFIXNOY0","either","2","","","","","","","0","0","1","0","0","","","","","0","","","","0","","","","","","","","","","75","K","0","img/none_selected_demo.jpg","true","0",""
"7346","","text","16","216480","0.0-15.0","68126342","wem/bandit_either","A2YJQUHFIXNOY0","either","2","32","","","","","","","","","","","","","","","","","","","","","","","","","","","","","","","","","","",""
"6155","","text","17","222637","0.0-16.0","68126342","wem/bandit_either","A2YJQUHFIXNOY0","either","2","32","","","","","","","","","","","","","","","","","","","","","","","","","","","","","","","","","","",""
"4304","","text","18","226942","0.0-17.0","68126342","wem/bandit_either","A2YJQUHFIXNOY0","either","2","32","","","","","","","","","","","","","","","","","","","","","","","","","","","","","","","","","","",""
"3448","","text","19","230392","0.0-18.0","68126342","wem/bandit_either","A2YJQUHFIXNOY0","either","2","32","","","","","","","","","","","","","","","","","","","","","","","","","","","","","","","","","","",""
"1018","","bandit","20","232920","0.0-19.0-0.0","68126342","wem/bandit_either","A2YJQUHFIXNOY0","either","2","","","","","","","0","0","1","0.8","","0.5","0.5","","","","","","","0.8","0.2","","","","","","","","","74","J","0","img/none_selected_demo.jpg","true","0","80_20_practice"
"437","","bandit","21","234867","0.0-19.0-1.0","68126342","wem/bandit_either","A2YJQUHFIXNOY0","either","2","","","","","","","0","0","1","0.8","","0.5","0.5","","","","","","","0.8","0.2","","","","","","","","","74","J","0","img/none_selected_demo.jpg","true","0","80_20_practice"
"300","","bandit","22","236675","0.0-19.0-2.0","68126342","wem/bandit_either","A2YJQUHFIXNOY0","either","2","","","","","","","0","0","1","","0.2","0.5","0.5","","","0.8","0.2","","","","","","","","","","","","","75","K","1","","true","0","80_20_practice"
"263","","bandit","23","238448","0.0-19.0-3.0","68126342","wem/bandit_either","A2YJQUHFIXNOY0","either","2","","","","","","","0","0","1","","0.2","0.5","0.5","","","0.8","0.2","","","","","","","","","","","","","75","K","1","","true","0","80_20_practice"
"375","","bandit","24","240331","0.0-19.0-4.0","68126342","wem/bandit_either","A2YJQUHFIXNOY0","either","2","","","","","","","0","1","0","","0.8","0.5","0.5","","","0.8","0.2","","","","","","","","","","","","","74","J","0","img/none_selected_demo.jpg","true","0","80_20_practice"
"405","","bandit","25","242247","0.0-19.0-5.0","68126342","wem/bandit_either","A2YJQUHFIXNOY0","either","2","","","","","","","0","1","0","","0.8","0.5","0.5","","","0.8","0.2","","","","","","","","","","","","","74","J","0","img/none_selected_demo.jpg","true","0","80_20_practice"
"226","","bandit","26","243979","0.0-19.0-6.0","68126342","wem/bandit_either","A2YJQUHFIXNOY0","either","2","","","","","","","0","1","0","","0.8","0.5","0.5","","","0.8","0.2","","","","","","","","","","","","","74","J","0","img/none_selected_demo.jpg","true","0","80_20_practice"
"319","","bandit","27","245808","0.0-19.0-7.0","68126342","wem/bandit_either","A2YJQUHFIXNOY0","either","2","","","","","","","0","0","1","0.2","","0.5","0.5","","","","","","","0.8","0.2","","","","","","","","","75","K","1","","true","0","80_20_practice"
"435","","bandit","28","247751","0.0-19.0-8.0","68126342","wem/bandit_either","A2YJQUHFIXNOY0","either","2","","","","","","","0","0","1","","0.2","0.5","0.5","","","0.8","0.2","","","","","","","","","","","","","75","K","1","","true","0","80_20_practice"
"237","","bandit","29","249497","0.0-19.0-9.0","68126342","wem/bandit_either","A2YJQUHFIXNOY0","either","2","","","","","","","0","0","1","0.2","","0.5","0.5","","","","","","","0.8","0.2","","","","","","","","","75","K","1","","true","0","80_20_practice"
"106","","bandit","30","251110","0.0-19.0-10.0","68126342","wem/bandit_either","A2YJQUHFIXNOY0","either","2","","","","","","","0","1","0","","0.8","0.5","0.5","","","0.8","0.2","","","","","","","","","","","","","74","J","0","img/none_selected_demo.jpg","true","0","80_20_practice"
"252","","bandit","31","252867","0.0-19.0-11.0","68126342","wem/bandit_either","A2YJQUHFIXNOY0","either","2","","","","","","","0","1","0","","0.8","0.5","0.5","","","0.8","0.2","","","","","","","","","","","","","74","J","0","img/none_selected_demo.jpg","true","0","80_20_practice"
"231","","bandit","32","254607","0.0-19.0-12.0","68126342","wem/bandit_either","A2YJQUHFIXNOY0","either","2","","","","","","","0","1","0","","0.8","0.5","0.5","","","0.8","0.2","","","","","","","","","","","","","74","J","0","img/none_selected_demo.jpg","true","0","80_20_practice"
"138","","bandit","33","256257","0.0-19.0-13.0","68126342","wem/bandit_either","A2YJQUHFIXNOY0","either","2","","","","","","","1","0","0","0.8","","0.5","0.5","","","","","","","0.8","0.2","","","","","","","","","74","J","0","img/none_selected_demo.jpg","true","0","80_20_practice"
"263","","bandit","34","258032","0.0-19.0-14.0","68126342","wem/bandit_either","A2YJQUHFIXNOY0","either","2","","","","","","","0","1","0","","0.8","0.5","0.5","","","0.8","0.2","","","","","","","","","","","","","74","J","0","img/none_selected_demo.jpg","true","0","80_20_practice"
"247","","bandit","35","259786","0.0-19.0-15.0","68126342","wem/bandit_either","A2YJQUHFIXNOY0","either","2","","","","","","","1","0","0","0.8","","0.5","0.5","","","","","","","0.8","0.2","","","","","","","","","74","J","0","img/none_selected_demo.jpg","true","0","80_20_practice"
"263","","bandit","36","261562","0.0-19.0-16.0","68126342","wem/bandit_either","A2YJQUHFIXNOY0","either","2","","","","","","","0","0","1","0.8","","0.5","0.5","","","","","","","0.8","0.2","","","","","","","","","74","J","0","img/none_selected_demo.jpg","true","0","80_20_practice"
"358","","bandit","37","263426","0.0-19.0-17.0","68126342","wem/bandit_either","A2YJQUHFIXNOY0","either","2","","","","","","","0","1","0","","0.8","0.5","0.5","","","0.8","0.2","","","","","","","","","","","","","74","J","0","img/none_selected_demo.jpg","true","0","80_20_practice"
"284","","bandit","38","265219","0.0-19.0-18.0","68126342","wem/bandit_either","A2YJQUHFIXNOY0","either","2","","","","","","","1","0","0","0.8","","0.5","0.5","","","","","","","0.8","0.2","","","","","","","","","74","J","0","img/none_selected_demo.jpg","true","0","80_20_practice"
"269","","bandit","39","266996","0.0-19.0-19.0","68126342","wem/bandit_either","A2YJQUHFIXNOY0","either","2","","","","","","","1","0","0","0.8","","0.5","0.5","","","","","","","0.8","0.2","","","","","","","","","74","J","0","img/none_selected_demo.jpg","true","0","80_20_practice"
"2185","","text","40","269183","0.0-20.0","68126342","wem/bandit_either","A2YJQUHFIXNOY0","either","2","32","","","","","","","","","","","","","","","","","","","","","","","","","","","","","","","","","","",""
"1419","","bandit","41","272111","0.0-21.0-0.0","68126342","wem/bandit_either","A2YJQUHFIXNOY0","either","2","","","","","","","1","0","0","1","0","","","","","0","1","","","1","0","","","","","","","","","74","J","0","img/none_selected_demo.jpg","true","0",""
"2079","","text","42","274193","0.0-22.0","68126342","wem/bandit_either","A2YJQUHFIXNOY0","either","2","32","","","","","","","","","","","","","","","","","","","","","","","","","","","","","","","","","","",""
"2458","","text","43","276655","0.0-23.0","68126342","wem/bandit_either","A2YJQUHFIXNOY0","either","2","32","","","","","","","","","","","","","","","","","","","","","","","","","","","","","","","","","","",""
"2876","","text","44","279534","0.0-24.0","68126342","wem/bandit_either","A2YJQUHFIXNOY0","either","2","32","","","","","","","","","","","","","","","","","","","","","","","","","","","","","","","","","","",""
"2161","","text","45","281699","0.0-25.0","68126342","wem/bandit_either","A2YJQUHFIXNOY0","either","2","32","","","","","","","","","","","","","","","","","","","","","","","","","","","","","","","","","","",""
"22055","","text","46","303758","0.0-26.0","68126342","wem/bandit_either","A2YJQUHFIXNOY0","either","2","32","","","","","","","","","","","","","","","","","","","","","","","","","","","","","","","","","","",""
"2942","","text","47","306704","0.0-27.0","68126342","wem/bandit_either","A2YJQUHFIXNOY0","either","2","32","","","","","","","","","","","","","","","","","","","","","","","","","","","","","","","","","","",""
"15995","","text","48","322707","0.0-28.0","68126342","wem/bandit_either","A2YJQUHFIXNOY0","either","2","32","","","","","","","","","","","","","","","","","","","","","","","","","","","","","","","","","","",""
"7302","","text","49","330013","0.0-29.0","68126342","wem/bandit_either","A2YJQUHFIXNOY0","either","2","32","","","","","","","","","","","","","","","","","","","","","","","","","","","","","","","","","","",""
"3120","","text","50","333136","0.0-30.0","68126342","wem/bandit_either","A2YJQUHFIXNOY0","either","2","32","","","","","","","","","","","","","","","","","","","","","","","","","","","","","","","","","","",""
"1677","","text","51","334816","0.0-31.0","68126342","wem/bandit_either","A2YJQUHFIXNOY0","either","2","32","","","","","","","","","","","","","","","","","","","","","","","","","","","","","","","","","","",""
"5826","","text","52","340645","0.0-32.0","68126342","wem/bandit_either","A2YJQUHFIXNOY0","either","2","32","","","","","","","","","","","","","","","","","","","","","","","","","","","","","","","","","","",""
"1008","","bandit","53","343166","0.0-33.0-0.0","68126342","wem/bandit_either","A2YJQUHFIXNOY0","either","2","","","","","","","0","1","0","","0.8","0.5","0.5","0.5","0.5","0.8","0.2","0.6","0.2","","","","","","","","","","","72","H","0","img/none_selected.jpg","true","0","full_practice"
"408","","bandit","54","345090","0.0-33.0-1.0","68126342","wem/bandit_either","A2YJQUHFIXNOY0","either","2","","","","","","","0","0","1","","0.2","0.5","0.5","0.5","0.5","0.8","0.2","0.6","0.2","","","","","","","","","","","74","J","1","","true","0","full_practice"
"495","","bandit","55","347092","0.0-33.0-2.0","68126342","wem/bandit_either","A2YJQUHFIXNOY0","either","2","","","","","","","0","1","0","","0.2","0.5","0.5","0.5","0.5","0.8","0.2","0.6","0.2","","","","","","","","","","","74","J","1","","true","0","full_practice"
"300","","bandit","56","348899","0.0-33.0-3.0","68126342","wem/bandit_either","A2YJQUHFIXNOY0","either","2","","","","","","","0","0","1","0.2","","0.5","0.5","0.5","0.5","","","","","0.8","0.2","0.6","0.2","","","","","","","74","J","1","","true","0","full_practice"
"277","","bandit","57","350685","0.0-33.0-4.0","68126342","wem/bandit_either","A2YJQUHFIXNOY0","either","2","","","","","","","0","0","1","","0.8","0.5","0.5","0.5","0.5","0.8","0.2","0.6","0.2","","","","","","","","","","","72","H","0","img/none_selected.jpg","true","0","full_practice"
"203","","bandit","58","352401","0.0-33.0-5.0","68126342","wem/bandit_either","A2YJQUHFIXNOY0","either","2","","","","","","","1","0","0","0.8","","0.5","0.5","0.5","0.5","","","","","0.8","0.2","0.6","0.2","","","","","","","72","H","0","img/none_selected.jpg","true","0","full_practice"
"292","","bandit","59","354204","0.0-33.0-6.0","68126342","wem/bandit_either","A2YJQUHFIXNOY0","either","2","","","","","","","1","0","0","0.6","","0.5","0.5","0.5","0.5","","","","","0.8","0.2","0.6","0.2","","","","","","","75","K","2","","true","0","full_practice"
"299","","bandit","60","356016","0.0-33.0-7.0","68126342","wem/bandit_either","A2YJQUHFIXNOY0","either","2","","","","","","","1","0","0","0.6","","0.5","0.5","0.5","0.5","","","","","0.8","0.2","0.6","0.2","","","","","","","75","K","2","","true","0","full_practice"
"247","","bandit","61","357770","0.0-33.0-8.0","68126342","wem/bandit_either","A2YJQUHFIXNOY0","either","2","","","","","","","0","1","0","","0.6","0.5","0.5","0.5","0.5","0.8","0.2","0.6","0.2","","","","","","","","","","","75","K","2","","true","0","full_practice"
"20","","bandit","62","359304","0.0-33.0-9.0","68126342","wem/bandit_either","A2YJQUHFIXNOY0","either","2","","","","","","","0","0","1","","0.6","0.5","0.5","0.5","0.5","0.8","0.2","0.6","0.2","","","","","","","","","","","75","K","2","","true","0","full_practice"
"387","","bandit","63","361201","0.0-33.0-10.0","68126342","wem/bandit_either","A2YJQUHFIXNOY0","either","2","","","","","","","0","0","1","0.2","","0.5","0.5","0.5","0.5","","","","","0.8","0.2","0.6","0.2","","","","","","","76","L","3","","true","0","full_practice"
"131","","bandit","64","362844","0.0-33.0-11.0","68126342","wem/bandit_either","A2YJQUHFIXNOY0","either","2","","","","","","","0","0","1","0.2","","0.5","0.5","0.5","0.5","","","","","0.8","0.2","0.6","0.2","","","","","","","74","J","1","","true","0","full_practice"
"186","","bandit","65","364543","0.0-33.0-12.0","68126342","wem/bandit_either","A2YJQUHFIXNOY0","either","2","","","","","","","0","1","0","","0.8","0.5","0.5","0.5","0.5","0.8","0.2","0.6","0.2","","","","","","","","","","","72","H","0","img/none_selected.jpg","true","0","full_practice"
"59","","bandit","66","366113","0.0-33.0-13.0","68126342","wem/bandit_either","A2YJQUHFIXNOY0","either","2","","","","","","","0","0","1","","0.6","0.5","0.5","0.5","0.5","0.8","0.2","0.6","0.2","","","","","","","","","","","75","K","2","","true","0","full_practice"
"239","","bandit","67","367860","0.0-33.0-14.0","68126342","wem/bandit_either","A2YJQUHFIXNOY0","either","2","","","","","","","0","1","0","","0.8","0.5","0.5","0.5","0.5","0.8","0.2","0.6","0.2","","","","","","","","","","","72","H","0","img/none_selected.jpg","true","0","full_practice"
"631","","bandit","68","370001","0.0-33.0-15.0","68126342","wem/bandit_either","A2YJQUHFIXNOY0","either","2","","","","","","","0","1","0","","0.8","0.5","0.5","0.5","0.5","0.8","0.2","0.6","0.2","","","","","","","","","","","72","H","0","img/none_selected.jpg","true","0","full_practice"
"273","","bandit","69","371790","0.0-33.0-16.0","68126342","wem/bandit_either","A2YJQUHFIXNOY0","either","2","","","","","","","0","0","1","","0.2","0.5","0.5","0.5","0.5","0.8","0.2","0.6","0.2","","","","","","","","","","","74","J","1","","true","0","full_practice"
"292","","bandit","70","373593","0.0-33.0-17.0","68126342","wem/bandit_either","A2YJQUHFIXNOY0","either","2","","","","","","","1","0","0","0.8","","0.5","0.5","0.5","0.5","","","","","0.8","0.2","0.6","0.2","","","","","","","72","H","0","img/none_selected.jpg","true","0","full_practice"
"82","","bandit","71","375188","0.0-33.0-18.0","68126342","wem/bandit_either","A2YJQUHFIXNOY0","either","2","","","","","","","0","1","0","","0.6","0.5","0.5","0.5","0.5","0.8","0.2","0.6","0.2","","","","","","","","","","","75","K","2","","true","0","full_practice"
"423","","bandit","72","377122","0.0-33.0-19.0","68126342","wem/bandit_either","A2YJQUHFIXNOY0","either","2","","","","","","","0","0","1","0.6","","0.5","0.5","0.5","0.5","","","","","0.8","0.2","0.6","0.2","","","","","","","75","K","2","","true","0","full_practice"
"1941","","text","73","379075","0.0-34.0","68126342","wem/bandit_either","A2YJQUHFIXNOY0","either","2","32","","","","","","","","","","","","","","","","","","","","","","","","","","","","","","","","","","",""
"7565","","text","74","387645","0.0-35.0","68126342","wem/bandit_either","A2YJQUHFIXNOY0","either","2","32","","","","","","","","","","","","","","","","","","","","","","","","","","","","","","","","","","",""
"9951","","text","75","397601","0.0-36.0","68126342","wem/bandit_either","A2YJQUHFIXNOY0","either","2","32","","","","","","","","","","","","","","","","","","","","","","","","","","","","","","","","","","",""
"4682","","text","76","402287","0.0-37.0","68126342","wem/bandit_either","A2YJQUHFIXNOY0","either","2","32","","","","","","","","","","","","","","","","","","","","","","","","","","","","","","","","","","",""
"5280","","text","77","407571","0.0-38.0","68126342","wem/bandit_either","A2YJQUHFIXNOY0","either","2","32","","","","","","","","","","","","","","","","","","","","","","","","","","","","","","","","","","",""
"4048","","text","78","411622","0.0-39.0","68126342","wem/bandit_either","A2YJQUHFIXNOY0","either","2","32","","","","","","","","","","","","","","","","","","","","","","","","","","","","","","","","","","",""
"977","","bandit","79","414108","0.0-40.0-0.0","68126342","wem/bandit_either","A2YJQUHFIXNOY0","either","2","","","","","","","0","0","1","0.3653736811","","0.8","0.4","0.6","0.2","","","","","0.3653736811","0.362799796","0.4781977867","0.326135308","","","","","","","72","H","0","img/none_selected.jpg","","1","main_expt"
"342","","bandit","80","415965","0.0-41.0-0.0","68126342","wem/bandit_either","A2YJQUHFIXNOY0","either","2","","","","","","","0","0","1","","0.3999069229","0.8","0.4","0.6","0.2","0.3999069229","0.3891507205","0.4765481994","0.3564958201","","","","","","","","","","","72","H","0","img/none_selected.jpg","","2","main_expt"
"273","","bandit","81","417750","0.0-42.0-0.0","68126342","wem/bandit_either","A2YJQUHFIXNOY0","either","2","","","","","","","0","0","1","","0.3151339382","0.8","0.4","0.6","0.2","0.4363582421","0.3151339382","0.4722158263","0.3309056029","","","","","","","","","","","74","J","1","","","3","main_expt"
"245","","bandit","82","419507","0.0-43.0-0.0","68126342","wem/bandit_either","A2YJQUHFIXNOY0","either","2","","","","","","","0","0","1","","0.250648122","0.8","0.4","0.6","0.2","0.4300921111","0.250648122","0.4609570051","0.308467875","","","","","","","","","","","74","J","1","","","4","main_expt"
"91","","bandit","83","421107","0.0-44.0-0.0","68126342","wem/bandit_either","A2YJQUHFIXNOY0","either","2","","","","","","","1","0","0","0.4707799186","","0.8","0.4","0.6","0.2","","","","","0.3863220662","0.2382585344","0.4707799186","0.3349995635","","","","","","","75","K","2","","","5","main_expt"
"263","","bandit","84","422877","0.0-45.0-0.0","68126342","wem/bandit_either","A2YJQUHFIXNOY0","either","2","","","","","","","1","0","0","0.4676743975","","0.8","0.4","0.6","0.2","","","","","0.4192648028","0.2088101903","0.4676743975","0.3743101545","","","","","","","75","K","2","","","6","main_expt"
"250","","bandit","85","424638","0.0-46.0-0.0","68126342","wem/bandit_either","A2YJQUHFIXNOY0","either","2","","","","","","","0","0","1","","0.4767364015","0.8","0.4","0.6","0.2","0.4218548145","0.1884279889","0.4767364015","0.377506125","","","","","","","","","","","75","K","2","","","7","main_expt"
"3","","bandit","86","426154","0.0-47.0-0.0","68126342","wem/bandit_either","A2YJQUHFIXNOY0","either","2","","","","","","","0","0","1","0.4837409877","","0.8","0.4","0.6","0.2","","","","","0.4298914749","0.2297930851","0.4837409877","0.3452849142","","","","","","","75","K","2","","","8","main_expt"
"187","","bandit","87","427857","0.0-48.0-0.0","68126342","wem/bandit_either","A2YJQUHFIXNOY0","either","2","","","","","","","0","0","1","","0.4825212187","0.8","0.4","0.6","0.2","0.4215440671","0.2219539873","0.4825212187","0.2713567333","","","","","","","","","","","75","K","2","","","9","main_expt"
"325","","bandit","88","429694","0.0-49.0-0.0","68126342","wem/bandit_either","A2YJQUHFIXNOY0","either","2","","","","","","","0","0","1","","0.2712708503","0.8","0.4","0.6","0.2","0.3991616263","0.2398128751","0.4791264729","0.2712708503","","","","","","","","","","","76","L","3","","","10","main_expt"
"83","","bandit","89","431283","0.0-50.0-0.0","68126342","wem/bandit_either","A2YJQUHFIXNOY0","either","2","","","","","","","1","0","0","0.2551733424","","0.8","0.4","0.6","0.2","","","","","0.4002673883","0.2551733424","0.4762013833","0.2635531688","","","","","","","74","J","1","","","11","main_expt"
"324","","bandit","90","433115","0.0-51.0-0.0","68126342","wem/bandit_either","A2YJQUHFIXNOY0","either","2","","","","","","","0","0","1","","0.2593424883","0.8","0.4","0.6","0.2","0.368629831","0.2593424883","0.4729837645","0.2669056975","","","","","","","","","","","74","J","1","","","12","main_expt"
"71","","bandit","91","434696","0.0-52.0-0.0","68126342","wem/bandit_either","A2YJQUHFIXNOY0","either","2","","","","","","","0","0","1","0.2493591627","","0.8","0.4","0.6","0.2","","","","","0.4189726289","0.2493591627","0.4749786695","0.3204456557","","","","","","","74","J","1","","","13","main_expt"
"383","","bandit","92","436591","0.0-53.0-0.0","68126342","wem/bandit_either","A2YJQUHFIXNOY0","either","2","","","","","","","0","0","1","0.4352425359","","0.8","0.4","0.6","0.2","","","","","0.4352425359","0.2686446846","0.4810115094","0.3466526728","","","","","","","72","H","0","img/none_selected.jpg","","14","main_expt"
"570","","bandit","93","438675","0.0-54.0-0.0","68126342","wem/bandit_either","A2YJQUHFIXNOY0","either","2","","","","","","","1","0","0","0.3819090161","","0.8","0.4","0.6","0.2","","","","","0.3819090161","0.2690169042","0.4705329286","0.3736671224","","","","","","","72","H","0","img/none_selected.jpg","","15","main_expt"
"305","","bandit","94","440497","0.0-55.0-0.0","68126342","wem/bandit_either","A2YJQUHFIXNOY0","either","2","","","","","","","0","0","1","0.3737760256","","0.8","0.4","0.6","0.2","","","","","0.3737760256","0.2518303543","0.4687419894","0.3778143907","","","","","","","72","H","0","img/none_selected.jpg","","16","main_expt"
"296","","bandit","95","442308","0.0-56.0-0.0","68126342","wem/bandit_either","A2YJQUHFIXNOY0","either","2","","","","","","","1","0","0","0.4151791473","","0.8","0.4","0.6","0.2","","","","","0.4151791473","0.2406549936","0.4594180265","0.3845750066","","","","","","","72","H","0","img/none_selected.jpg","","17","main_expt"
"291","","bandit","96","444110","0.0-57.0-0.0","68126342","wem/bandit_either","A2YJQUHFIXNOY0","either","2","","","","","","","0","0","1","0.4137363134","","0.8","0.4","0.6","0.2","","","","","0.4137363134","0.2670149403","0.425397146","0.4041286345","","","","","","","72","H","0","img/none_selected.jpg","","18","main_expt"
"287","","bandit","97","445912","0.0-58.0-0.0","68126342","wem/bandit_either","A2YJQUHFIXNOY0","either","2","","","","","","","0","0","1","0.4084056464","","0.8","0.4","0.6","0.2","","","","","0.4084056464","0.2658482338","0.4201246927","0.4127350431","","","","","","","72","H","0","img/none_selected.jpg","","19","main_expt"
"112","","bandit","98","447537","0.0-59.0-0.0","68126342","wem/bandit_either","A2YJQUHFIXNOY0","either","2","","","","","","","0","1","0","","0.2452433766","0.8","0.4","0.6","0.2","0.4129175496","0.2452433766","0.3954271328","0.4107359536","","","","","","","","","","","74","J","1","","","20","main_expt"
"248","","bandit","99","449302","0.0-60.0-0.0","68126342","wem/bandit_either","A2YJQUHFIXNOY0","either","2","","","","","","","1","0","0","0.2298761452","","0.8","0.4","0.6","0.2","","","","","0.3888488162","0.2298761452","0.4196431029","0.3954861765","","","","","","","74","J","1","","","21","main_expt"
"295","","bandit","100","451113","0.0-61.0-0.0","68126342","wem/bandit_either","A2YJQUHFIXNOY0","either","2","","","","","","","1","0","0","0.266827693","","0.8","0.4","0.6","0.2","","","","","0.3873149631","0.266827693","0.3843335182","0.3805979297","","","","","","","74","J","1","","","22","main_expt"
"250","","bandit","101","452878","0.0-62.0-0.0","68126342","wem/bandit_either","A2YJQUHFIXNOY0","either","2","","","","","","","0","0","1","0.2519769849","","0.8","0.4","0.6","0.2","","","","","0.3659772031","0.2519769849","0.3839977458","0.425451992","","","","","","","74","J","1","","","23","main_expt"
"244","","bandit","102","454630","0.0-63.0-0.0","68126342","wem/bandit_either","A2YJQUHFIXNOY0","either","2","","","","","","","1","0","0","0.3338939571","","0.8","0.4","0.6","0.2","","","","","0.3594327093","0.2447613107","0.3338939571","0.4699447661","","","","","","","75","K","2","","","24","main_expt"
"124","","bandit","103","456269","0.0-64.0-0.0","68126342","wem/bandit_either","A2YJQUHFIXNOY0","either","2","","","","","","","0","0","1","0.2350413847","","0.8","0.4","0.6","0.2","","","","","0.3719143394","0.2350413847","0.324486952","0.4484050393","","","","","","","74","J","1","","","25","main_expt"
"74","","bandit","104","457862","0.0-65.0-0.0","68126342","wem/bandit_either","A2YJQUHFIXNOY0","either","2","","","","","","","0","0","1","0.3095710384","","0.8","0.4","0.6","0.2","","","","","0.3690014044","0.207774486","0.3095710384","0.4190234423","","","","","","","75","K","2","","","26","main_expt"
"241","","bandit","105","459615","0.0-66.0-0.0","68126342","wem/bandit_either","A2YJQUHFIXNOY0","either","2","","","","","","","0","0","1","","0.2164182795","0.8","0.4","0.6","0.2","0.3940030818","0.2164182795","0.3355629191","0.4251478254","","","","","","","","","","","74","J","1","","","27","main_expt"
"20","","bandit","106","461146","0.0-67.0-0.0","68126342","wem/bandit_either","A2YJQUHFIXNOY0","either","2","","","","","","","0","0","1","","0.4287328697","0.8","0.4","0.6","0.2","0.4111080327","0.2164031865","0.3668681485","0.4287328697","","","","","","","","","","","76","L","3","","","28","main_expt"
"317","","bandit","107","462972","0.0-68.0-0.0","68126342","wem/bandit_either","A2YJQUHFIXNOY0","either","2","","","","","","","0","0","1","0.41290056","","0.8","0.4","0.6","0.2","","","","","0.41290056","0.2770000278","0.343198694","0.4106025245","","","","","","","72","H","0","img/none_selected.jpg","","29","main_expt"
"400","","bandit","108","464880","0.0-69.0-0.0","68126342","wem/bandit_either","A2YJQUHFIXNOY0","either","2","","","","","","","0","0","1","","0.3937480262","0.8","0.4","0.6","0.2","0.3937480262","0.2354797847","0.326069126","0.3942494676","","","","","","","","","","","72","H","0","img/none_selected.jpg","","30","main_expt"
"349","","bandit","109","466738","0.0-70.0-0.0","68126342","wem/bandit_either","A2YJQUHFIXNOY0","either","2","","","","","","","0","0","1","0.2692030882","","0.8","0.4","0.6","0.2","","","","","0.3997016236","0.2692030882","0.3390127419","0.4285056211","","","","","","","74","J","1","","","31","main_expt"
"33","","bandit","110","468280","0.0-71.0-0.0","68126342","wem/bandit_either","A2YJQUHFIXNOY0","either","2","","","","","","","0","0","1","","0.2471118655","0.8","0.4","0.6","0.2","0.3574295763","0.2471118655","0.3360649894","0.4249454459","","","","","","","","","","","74","J","1","","","32","main_expt"
"3","","bandit","111","469794","0.0-72.0-0.0","68126342","wem/bandit_either","A2YJQUHFIXNOY0","either","2","","","","","","","0","0","1","","0.3052602024","0.8","0.4","0.6","0.2","0.3877818659","0.2879199001","0.3052602024","0.416417765","","","","","","","","","","","75","K","2","","","33","main_expt"
"248","","bandit","112","471558","0.0-73.0-0.0","68126342","wem/bandit_either","A2YJQUHFIXNOY0","either","2","","","","","","","0","0","1","","0.3594788954","0.8","0.4","0.6","0.2","0.3799496232","0.3180115212","0.3594788954","0.4623714429","","","","","","","","","","","75","K","2","","","34","main_expt"
"42","","bandit","113","473112","0.0-74.0-0.0","68126342","wem/bandit_either","A2YJQUHFIXNOY0","either","2","","","","","","","0","0","1","0.380235832","","0.8","0.4","0.6","0.2","","","","","0.3577573403","0.2524306687","0.380235832","0.4591977302","","","","","","","75","K","2","","","35","main_expt"
"306","","bandit","114","474931","0.0-75.0-0.0","68126342","wem/bandit_either","A2YJQUHFIXNOY0","either","2","","","","","","","0","1","0","","0.4686235256","0.8","0.4","0.6","0.2","0.3895375856","0.2351869563","0.3459989602","0.4686235256","","","","","","","","","","","76","L","3","","","36","main_expt"
"287","","bandit","115","476731","0.0-76.0-0.0","68126342","wem/bandit_either","A2YJQUHFIXNOY0","either","2","","","","","","","0","1","0","","0.4571547709","0.8","0.4","0.6","0.2","0.3783527007","0.2629170466","0.3320905149","0.4571547709","","","","","","","","","","","76","L","3","","","37","main_expt"
"326","","bandit","116","478567","0.0-77.0-0.0","68126342","wem/bandit_either","A2YJQUHFIXNOY0","either","2","","","","","","","0","1","0","","0.4688430709","0.8","0.4","0.6","0.2","0.284076782","0.3090194305","0.3471020919","0.4688430709","","","","","","","","","","","76","L","3","","","38","main_expt"
"503","","bandit","117","480585","0.0-78.0-0.0","68126342","wem/bandit_either","A2YJQUHFIXNOY0","either","2","","","","","","","0","0","1","","0.4612923778","0.8","0.4","0.6","0.2","0.3388972186","0.2845371228","0.3401763967","0.4612923778","","","","","","","","","","","76","L","3","","","39","main_expt"
"254","","bandit","118","482355","0.0-79.0-0.0","68126342","wem/bandit_either","A2YJQUHFIXNOY0","either","2","","","","","","","0","1","0","","0.4576194683","0.8","0.4","0.6","0.2","0.2663655232","0.3076259244","0.3260487483","0.4576194683","","","","","","","","","","","76","L","3","","","40","main_expt"
"322","","bandit","119","484192","0.0-80.0-0.0","68126342","wem/bandit_either","A2YJQUHFIXNOY0","either","2","","","","","","","0","1","0","","0.4473921051","0.8","0.4","0.6","0.2","0.2608266697","0.2888769276","0.3390218734","0.4473921051","","","","","","","","","","","76","L","3","","","41","main_expt"
"377","","bandit","120","486092","0.0-81.0-0.0","68126342","wem/bandit_either","A2YJQUHFIXNOY0","either","2","","","","","","","0","0","1","0.425470286","","0.8","0.4","0.6","0.2","","","","","0.2287676803","0.2639198141","0.2889680017","0.425470286","","","","","","","76","L","3","","","42","main_expt"
"216","","bandit","121","487823","0.0-82.0-0.0","68126342","wem/bandit_either","A2YJQUHFIXNOY0","either","2","","","","","","","0","1","0","","0.4030522017","0.8","0.4","0.6","0.2","0.2043112358","0.2255441472","0.2784828801","0.4030522017","","","","","","","","","","","76","L","3","","","43","main_expt"
"345","","bandit","122","489682","0.0-83.0-0.0","68126342","wem/bandit_either","A2YJQUHFIXNOY0","either","2","","","","","","","1","0","0","0.4106315797","","0.8","0.4","0.6","0.2","","","","","0.1957049551","0.2050272072","0.2805729819","0.4106315797","","","","","","","76","L","3","","","44","main_expt"
"279","","bandit","123","491470","0.0-84.0-0.0","68126342","wem/bandit_either","A2YJQUHFIXNOY0","either","2","","","","","","","0","1","0","","0.4258527362","0.8","0.4","0.6","0.2","0.2207366272","0.239455925","0.2195119073","0.4258527362","","","","","","","","","","","76","L","3","","","45","main_expt"
"244","","bandit","124","493221","0.0-85.0-0.0","68126342","wem/bandit_either","A2YJQUHFIXNOY0","either","2","","","","","","","0","1","0","","0.4425966235","0.8","0.4","0.6","0.2","0.1727988076","0.2414778298","0.2657932304","0.4425966235","","","","","","","","","","","76","L","3","","","46","main_expt"
"216","","bandit","125","494947","0.0-86.0-0.0","68126342","wem/bandit_either","A2YJQUHFIXNOY0","either","2","","","","","","","1","0","0","0.4428977597","","0.8","0.4","0.6","0.2","","","","","0.1446735631","0.1884211613","0.2678398397","0.4428977597","","","","","","","76","L","3","","","47","main_expt"
"300","","bandit","126","496757","0.0-87.0-0.0","68126342","wem/bandit_either","A2YJQUHFIXNOY0","either","2","","","","","","","0","0","1","","0.4479964269","0.8","0.4","0.6","0.2","0.1681765936","0.1755274282","0.2866904938","0.4479964269","","","","","","","","","","","76","L","3","","","48","main_expt"
"623","","bandit","127","498890","0.0-88.0-0.0","68126342","wem/bandit_either","A2YJQUHFIXNOY0","either","2","","","","","","","0","0","1","","0.4660387519","0.8","0.4","0.6","0.2","0.1473883531","0.1646396384","0.2803848884","0.4660387519","","","","","","","","","","","76","L","3","","","49","main_expt"
"376","","bandit","128","500780","0.0-89.0-0.0","68126342","wem/bandit_either","A2YJQUHFIXNOY0","either","2","","","","","","","0","0","1","0.4345757832","","0.8","0.4","0.6","0.2","","","","","0.1378170987","0.2024226619","0.2587411269","0.4345757832","","","","","","","76","L","3","","","50","main_expt"
"150","","bandit","129","502448","0.0-90.0-0.0","68126342","wem/bandit_either","A2YJQUHFIXNOY0","either","2","","","","","","","0","0","1","0.2212901065","","0.8","0.4","0.6","0.2","","","","","0.1430360168","0.1976760068","0.2212901065","0.4450950844","","","","","","","75","K","2","","","51","main_expt"
"284","","bandit","130","504242","0.0-91.0-0.0","68126342","wem/bandit_either","A2YJQUHFIXNOY0","either","2","","","","","","","0","0","1","0.1796352224","","0.8","0.4","0.6","0.2","","","","","0.1731798725","0.1796352224","0.236006857","0.4475354499","","","","","","","74","J","1","","","52","main_expt"
"411","","bandit","131","506162","0.0-92.0-0.0","68126342","wem/bandit_either","A2YJQUHFIXNOY0","either","2","","","","","","","0","0","1","0.1312409056","","0.8","0.4","0.6","0.2","","","","","0.1312409056","0.2451732725","0.2660825342","0.4627294295","","","","","","","72","H","0","img/none_selected.jpg","","53","main_expt"
"823","","bandit","132","508501","0.0-93.0-0.0","68126342","wem/bandit_either","A2YJQUHFIXNOY0","either","2","","","","","","","0","0","1","","0.44829207","0.8","0.4","0.6","0.2","0.1862053218","0.2621482643","0.2458345041","0.44829207","","","","","","","","","","","76","L","3","","","54","main_expt"
"232","","bandit","133","510250","0.0-94.0-0.0","68126342","wem/bandit_either","A2YJQUHFIXNOY0","either","2","","","","","","","0","0","1","","0.2265690781","0.8","0.4","0.6","0.2","0.1733563037","0.2441780383","0.2265690781","0.4505537928","","","","","","","","","","","75","K","2","","","55","main_expt"
"75","","bandit","134","511848","0.0-95.0-0.0","68126342","wem/bandit_either","A2YJQUHFIXNOY0","either","2","","","","","","","0","1","0","","0.2741820357","0.8","0.4","0.6","0.2","0.1728369204","0.199729785","0.2741820357","0.4686400132","","","","","","","","","","","75","K","2","","","56","main_expt"
"313","","bandit","135","513680","0.0-96.0-0.0","68126342","wem/bandit_either","A2YJQUHFIXNOY0","either","2","","","","","","","0","0","1","","0.2937641054","0.8","0.4","0.6","0.2","0.09176359954","0.1945085845","0.2937641054","0.4572679106","","","","","","","","","","","75","K","2","","","57","main_expt"
"116","","bandit","136","515307","0.0-97.0-0.0","68126342","wem/bandit_either","A2YJQUHFIXNOY0","either","2","","","","","","","1","0","0","0.2949827607","","0.8","0.4","0.6","0.2","","","","","0.04991422033","0.2614759052","0.2949827607","0.4300169527","","","","","","","75","K","2","","","58","main_expt"
"284","","bandit","137","517100","0.0-98.0-0.0","68126342","wem/bandit_either","A2YJQUHFIXNOY0","either","2","","","","","","","0","0","1","","0.2710075273","0.8","0.4","0.6","0.2","0.053239915","0.2426118991","0.2710075273","0.4050829606","","","","","","","","","","","75","K","2","","","59","main_expt"
"305","","bandit","138","518916","0.0-99.0-0.0","68126342","wem/bandit_either","A2YJQUHFIXNOY0","either","2","","","","","","","0","0","1","0.2766623035","","0.8","0.4","0.6","0.2","","","","","0.06994226662","0.2623750897","0.2766623035","0.4070720156","","","","","","","75","K","2","","","60","main_expt"
"287","","bandit","139","520714","0.0-100.0-0.0","68126342","wem/bandit_either","A2YJQUHFIXNOY0","either","2","","","","","","","0","1","0","","0.2574592035","0.8","0.4","0.6","0.2","0.07064832373","0.2139103784","0.2574592035","0.3895400789","","","","","","","","","","","75","K","2","","","61","main_expt"
"208","","bandit","140","522439","0.0-101.0-0.0","68126342","wem/bandit_either","A2YJQUHFIXNOY0","either","2","","","","","","","0","0","1","0.2425209234","","0.8","0.4","0.6","0.2","","","","","0.08925217872","0.2566580444","0.2425209234","0.4050708951","","","","","","","75","K","2","","","62","main_expt"
"33","","bandit","141","523982","0.0-102.0-0.0","68126342","wem/bandit_either","A2YJQUHFIXNOY0","either","2","","","","","","","1","0","0","0.2393402704","","0.8","0.4","0.6","0.2","","","","","0.08505035955","0.2393402704","0.2294211584","0.3765761212","","","","","","","74","J","1","","","63","main_expt"
"302","","bandit","142","525801","0.0-103.0-0.0","68126342","wem/bandit_either","A2YJQUHFIXNOY0","either","2","","","","","","","0","0","1","","0.300105392","0.8","0.4","0.6","0.2","0.09892528285","0.300105392","0.2350173232","0.3859881554","","","","","","","","","","","74","J","1","","","64","main_expt"
"205","","bandit","143","527522","0.0-104.0-0.0","68126342","wem/bandit_either","A2YJQUHFIXNOY0","either","2","","","","","","","0","1","0","","0.2584268813","0.8","0.4","0.6","0.2","0.1428545766","0.2584268813","0.2775473173","0.3817039273","","","","","","","","","","","74","J","1","","","65","main_expt"
"275","","bandit","144","529308","0.0-105.0-0.0","68126342","wem/bandit_either","A2YJQUHFIXNOY0","either","2","","","","","","","0","0","1","0.2536378703","","0.8","0.4","0.6","0.2","","","","","0.120440259","0.2536378703","0.298861572","0.3622232449","","","","","","","74","J","1","","","66","main_expt"
"259","","bandit","145","531077","0.0-106.0-0.0","68126342","wem/bandit_either","A2YJQUHFIXNOY0","either","2","","","","","","","0","1","0","","0.2548884231","0.8","0.4","0.6","0.2","0.2019700983","0.2548884231","0.3043747659","0.3768721334","","","","","","","","","","","74","J","1","","","67","main_expt"
"317","","bandit","146","532911","0.0-107.0-0.0","68126342","wem/bandit_either","A2YJQUHFIXNOY0","either","2","","","","","","","0","0","1","0.2105458193","","0.8","0.4","0.6","0.2","","","","","0.1467862533","0.2105458193","0.2533072519","0.3826604183","","","","","","","74","J","1","","","68","main_expt"
"318","","bandit","147","534748","0.0-108.0-0.0","68126342","wem/bandit_either","A2YJQUHFIXNOY0","either","2","","","","","","","0","0","1","","0.2901666962","0.8","0.4","0.6","0.2","0.09022805221","0.2901666962","0.2451677402","0.3981811202","","","","","","","","","","","74","J","1","","","69","main_expt"
"185","","bandit","148","536449","0.0-109.0-0.0","68126342","wem/bandit_either","A2YJQUHFIXNOY0","either","2","","","","","","","0","0","1","0.1128827508","","0.8","0.4","0.6","0.2","","","","","0.1128827508","0.2973761433","0.2403061491","0.3936557204","","","","","","","72","H","0","img/none_selected.jpg","","70","main_expt"
"161","","bandit","149","538124","0.0-110.0-0.0","68126342","wem/bandit_either","A2YJQUHFIXNOY0","either","2","","","","","","","0","0","1","0.1184182172","","0.8","0.4","0.6","0.2","","","","","0.1184182172","0.2737706179","0.1917576795","0.3949471057","","","","","","","72","H","0","img/none_selected.jpg","","71","main_expt"
"271","","bandit","150","539904","0.0-111.0-0.0","68126342","wem/bandit_either","A2YJQUHFIXNOY0","either","2","","","","","","","0","0","1","","0.1038133506","0.8","0.4","0.6","0.2","0.1038133506","0.3005227265","0.1894079546","0.3888869603","","","","","","","","","","","72","H","0","img/none_selected.jpg","","72","main_expt"
"282","","bandit","151","541695","0.0-112.0-0.0","68126342","wem/bandit_either","A2YJQUHFIXNOY0","either","2","","","","","","","0","0","1","0.235909594","","0.8","0.4","0.6","0.2","","","","","0.07830871569","0.3205676235","0.235909594","0.4015056825","","","","","","","75","K","2","","","73","main_expt"
"270","","bandit","152","543481","0.0-113.0-0.0","68126342","wem/bandit_either","A2YJQUHFIXNOY0","either","2","","","","","","","0","0","1","","0.4200542591","0.8","0.4","0.6","0.2","0.09226686474","0.3040473008","0.2772030277","0.4200542591","","","","","","","","","","","76","L","3","","","74","main_expt"
"186","","bandit","153","545188","0.0-114.0-0.0","68126342","wem/bandit_either","A2YJQUHFIXNOY0","either","2","","","","","","","0","0","1","0.07948082514","","0.8","0.4","0.6","0.2","","","","","0.07948082514","0.2686744794","0.2237268092","0.4353174817","","","","","","","72","H","0","img/none_selected.jpg","","75","main_expt"
"64","","bandit","154","546766","0.0-115.0-0.0","68126342","wem/bandit_either","A2YJQUHFIXNOY0","either","2","","","","","","","0","0","1","","0.258707356","0.8","0.4","0.6","0.2","0.1279570505","0.258707356","0.1739375455","0.4196821318","","","","","","","","","","","74","J","1","","","76","main_expt"
"303","","bandit","155","548580","0.0-116.0-0.0","68126342","wem/bandit_either","A2YJQUHFIXNOY0","either","2","","","","","","","0","0","1","","0.3010070056","0.8","0.4","0.6","0.2","0.1202820049","0.3010070056","0.1648796623","0.3787369199","","","","","","","","","","","74","J","1","","","77","main_expt"
"3","","bandit","156","550099","0.0-117.0-0.0","68126342","wem/bandit_either","A2YJQUHFIXNOY0","either","2","","","","","","","0","0","1","","0.1637798684","0.8","0.4","0.6","0.2","0.1054071572","0.2648586626","0.1637798684","0.4314930014","","","","","","","","","","","75","K","2","","","78","main_expt"
"296","","bandit","157","551904","0.0-118.0-0.0","68126342","wem/bandit_either","A2YJQUHFIXNOY0","either","2","","","","","","","1","0","0","0.1490076182","","0.8","0.4","0.6","0.2","","","","","0.1403095361","0.1984114041","0.1490076182","0.4155078174","","","","","","","75","K","2","","","79","main_expt"
"314","","bandit","158","553728","0.0-119.0-0.0","68126342","wem/bandit_either","A2YJQUHFIXNOY0","either","2","","","","","","","0","0","1","","0.1093198388","0.8","0.4","0.6","0.2","0.1891235553","0.180325551","0.1093198388","0.4226243671","","","","","","","","","","","75","K","2","","","80","main_expt"
"345","","bandit","159","555587","0.0-120.0-0.0","68126342","wem/bandit_either","A2YJQUHFIXNOY0","either","2","","","","","","","1","0","0","0.08868186825","","0.8","0.4","0.6","0.2","","","","","0.1858030354","0.224531153","0.08868186825","0.4474166549","","","","","","","75","K","2","","","81","main_expt"
"894","","bandit","160","557995","0.0-121.0-0.0","68126342","wem/bandit_either","A2YJQUHFIXNOY0","either","2","","","","","","","0","0","1","","0.1073880826","0.8","0.4","0.6","0.2","0.2476542501","0.221125015","0.1073880826","0.4636297045","","","","","","","","","","","75","K","2","","","82","main_expt"
"238","","bandit","161","559750","0.0-122.0-0.0","68126342","wem/bandit_either","A2YJQUHFIXNOY0","either","2","","","","","","","1","0","0","0.1022587498","","0.8","0.4","0.6","0.2","","","","","0.2188241074","0.2143237207","0.1022587498","0.467509749","","","","","","","75","K","2","","","83","main_expt"
"330","","bandit","162","561596","0.0-123.0-0.0","68126342","wem/bandit_either","A2YJQUHFIXNOY0","either","2","","","","","","","0","0","1","0.1085807699","","0.8","0.4","0.6","0.2","","","","","0.2754771977","0.2097367537","0.1085807699","0.4551111531","","","","","","","75","K","2","","","84","main_expt"
"512","","bandit","163","563617","0.0-124.0-0.0","68126342","wem/bandit_either","A2YJQUHFIXNOY0","either","2","","","","","","","0","0","1","","0.4621419017","0.8","0.4","0.6","0.2","0.2965575968","0.1661536269","0.1263918358","0.4621419017","","","","","","","","","","","76","L","3","","","85","main_expt"
"80","","bandit","164","565205","0.0-125.0-0.0","68126342","wem/bandit_either","A2YJQUHFIXNOY0","either","2","","","","","","","0","0","1","0.1481941301","","0.8","0.4","0.6","0.2","","","","","0.257129161","0.1364458955","0.1481941301","0.4612050897","","","","","","","75","K","2","","","86","main_expt"
"340","","bandit","165","567055","0.0-126.0-0.0","68126342","wem/bandit_either","A2YJQUHFIXNOY0","either","2","","","","","","","0","0","1","0.1447872846","","0.8","0.4","0.6","0.2","","","","","0.2338967043","0.08235553135","0.1447872846","0.4334675206","","","","","","","75","K","2","","","87","main_expt"
"282","","bandit","166","568847","0.0-127.0-0.0","68126342","wem/bandit_either","A2YJQUHFIXNOY0","either","2","","","","","","","0","1","0","","0.0754832669","0.8","0.4","0.6","0.2","0.2161535794","0.0754832669","0.1391637727","0.4397617206","","","","","","","","","","","74","J","1","","","88","main_expt"
"610","","bandit","167","570972","0.0-128.0-0.0","68126342","wem/bandit_either","A2YJQUHFIXNOY0","either","2","","","","","","","0","0","1","0.109361408","","0.8","0.4","0.6","0.2","","","","","0.2043146745","0.109361408","0.1476089376","0.4635478967","","","","","","","74","J","1","","","89","main_expt"
"336","","bandit","168","572818","0.0-129.0-0.0","68126342","wem/bandit_either","A2YJQUHFIXNOY0","either","2","","","","","","","0","0","1","","0.07391079866","0.8","0.4","0.6","0.2","0.2346009907","0.07391079866","0.2081489191","0.4234969579","","","","","","","","","","","74","J","1","","","90","main_expt"
"329","","bandit","169","574660","0.0-130.0-0.0","68126342","wem/bandit_either","A2YJQUHFIXNOY0","either","2","","","","","","","0","0","1","","0.1164594673","0.8","0.4","0.6","0.2","0.2333967219","0.1164594673","0.1834039029","0.4267507071","","","","","","","","","","","74","J","1","","","91","main_expt"
"325","","bandit","170","576502","0.0-131.0-0.0","68126342","wem/bandit_either","A2YJQUHFIXNOY0","either","2","","","","","","","0","0","1","0.2150480475","","0.8","0.4","0.6","0.2","","","","","0.2150480475","0.113043345","0.2027314649","0.4089505196","","","","","","","72","H","0","img/none_selected.jpg","","92","main_expt"
"337","","bandit","171","578360","0.0-132.0-0.0","68126342","wem/bandit_either","A2YJQUHFIXNOY0","either","2","","","","","","","0","0","1","","0.2588080464","0.8","0.4","0.6","0.2","0.2588080464","0.1714352716","0.1738894496","0.4112501448","","","","","","","","","","","72","H","0","img/none_selected.jpg","","93","main_expt"
"122","","bandit","172","579991","0.0-133.0-0.0","68126342","wem/bandit_either","A2YJQUHFIXNOY0","either","2","","","","","","","0","0","1","0.2748849181","","0.8","0.4","0.6","0.2","","","","","0.2748849181","0.1253024032","0.2484708832","0.452415855","","","","","","","72","H","0","img/none_selected.jpg","","94","main_expt"
"121","","bandit","173","581639","0.0-134.0-0.0","68126342","wem/bandit_either","A2YJQUHFIXNOY0","either","2","","","","","","","1","0","0","0.2914685715","","0.8","0.4","0.6","0.2","","","","","0.2791739054","0.1401284447","0.2914685715","0.4589197587","","","","","","","75","K","2","","","95","main_expt"
"314","","bandit","174","583470","0.0-135.0-0.0","68126342","wem/bandit_either","A2YJQUHFIXNOY0","either","2","","","","","","","0","0","1","","0.2417524935","0.8","0.4","0.6","0.2","0.3149564315","0.1320491369","0.2417524935","0.4481870348","","","","","","","","","","","75","K","2","","","96","main_expt"
"281","","bandit","175","585268","0.0-136.0-0.0","68126342","wem/bandit_either","A2YJQUHFIXNOY0","either","2","","","","","","","0","0","1","","0.2492821404","0.8","0.4","0.6","0.2","0.372564007","0.1518453759","0.2492821404","0.4597072186","","","","","","","","","","","75","K","2","","","97","main_expt"
"339","","bandit","176","587125","0.0-137.0-0.0","68126342","wem/bandit_either","A2YJQUHFIXNOY0","either","2","","","","","","","0","0","1","","0.3002958449","0.8","0.4","0.6","0.2","0.393328365","0.2173959583","0.3002958449","0.4705619112","","","","","","","","","","","75","K","2","","","98","main_expt"
"1382","","bandit","177","590020","0.0-138.0-0.0","68126342","wem/bandit_either","A2YJQUHFIXNOY0","either","2","","","","","","","0","1","0","","0.4800968761","0.8","0.4","0.6","0.2","0.421239771","0.2618725657","0.3544832656","0.4800968761","","","","","","","","","","","76","L","3","","","99","main_expt"
"321","","bandit","178","591858","0.0-139.0-0.0","68126342","wem/bandit_either","A2YJQUHFIXNOY0","either","2","","","","","","","0","1","0","","0.4780143146","0.8","0.4","0.6","0.2","0.4130759476","0.2487788848","0.3810954338","0.4780143146","","","","","","","","","","","76","L","3","","","100","main_expt"
"382","","bandit","179","593761","0.0-140.0-0.0","68126342","wem/bandit_either","A2YJQUHFIXNOY0","either","2","","","","","","","0","0","1","","0.4849002763","0.8","0.4","0.6","0.2","0.4089462913","0.2890792313","0.4042362267","0.4849002763","","","","","","","","","","","76","L","3","","","101","main_expt"
"265","","bandit","180","595543","0.0-141.0-0.0","68126342","wem/bandit_either","A2YJQUHFIXNOY0","either","2","","","","","","","0","1","0","","0.4886078379","0.8","0.4","0.6","0.2","0.370330464","0.3136369757","0.4594696392","0.4886078379","","","","","","","","","","","76","L","3","","","102","main_expt"
"1022","","bandit","181","598082","0.0-142.0-0.0","68126342","wem/bandit_either","A2YJQUHFIXNOY0","either","2","","","","","","","0","1","0","","0.47121906","0.8","0.4","0.6","0.2","0.3306315663","0.2364671533","0.4588766667","0.47121906","","","","","","","","","","","76","L","3","","","103","main_expt"
"2838","","bandit","182","602431","0.0-143.0-0.0","68126342","wem/bandit_either","A2YJQUHFIXNOY0","either","2","","","","","","","0","1","0","","0.4760763377","0.8","0.4","0.6","0.2","0.354634178","0.2202486688","0.4372785745","0.4760763377","","","","","","","","","","","76","L","3","","","104","main_expt"
"524","","bandit","183","604472","0.0-144.0-0.0","68126342","wem/bandit_either","A2YJQUHFIXNOY0","either","2","","","","","","","0","0","1","","0.4701389446","0.8","0.4","0.6","0.2","0.3896605338","0.1854418088","0.4063887309","0.4701389446","","","","","","","","","","","76","L","3","","","105","main_expt"
"213","","bandit","184","606197","0.0-145.0-0.0","68126342","wem/bandit_either","A2YJQUHFIXNOY0","either","2","","","","","","","0","0","1","","0.471324938","0.8","0.4","0.6","0.2","0.414339711","0.1596754559","0.3778019321","0.471324938","","","","","","","","","","","76","L","3","","","106","main_expt"
"317","","bandit","185","608030","0.0-146.0-0.0","68126342","wem/bandit_either","A2YJQUHFIXNOY0","either","2","","","","","","","0","0","1","","0.4786694594","0.8","0.4","0.6","0.2","0.4164239898","0.137099288","0.3614143111","0.4786694594","","","","","","","","","","","76","L","3","","","107","main_expt"
"8","","bandit","186","609554","0.0-147.0-0.0","68126342","wem/bandit_either","A2YJQUHFIXNOY0","either","2","","","","","","","0","1","0","","0.3681250399","0.8","0.4","0.6","0.2","0.3836571442","0.1443984823","0.3681250399","0.4810065258","","","","","","","","","","","75","K","2","","","108","main_expt"
"356","","bandit","187","611419","0.0-148.0-0.0","68126342","wem/bandit_either","A2YJQUHFIXNOY0","either","2","","","","","","","1","0","0","0.3446081275","","0.8","0.4","0.6","0.2","","","","","0.3881214568","0.1409511773","0.3446081275","0.4816764674","","","","","","","75","K","2","","","109","main_expt"
"277","","bandit","188","613209","0.0-149.0-0.0","68126342","wem/bandit_either","A2YJQUHFIXNOY0","either","2","","","","","","","1","0","0","0.3681270965","","0.8","0.4","0.6","0.2","","","","","0.4266873791","0.1787750665","0.3681270965","0.4882082215","","","","","","","75","K","2","","","110","main_expt"
"266","","bandit","189","614985","0.0-150.0-0.0","68126342","wem/bandit_either","A2YJQUHFIXNOY0","either","2","","","","","","","0","1","0","","0.391379093","0.8","0.4","0.6","0.2","0.4475699482","0.1862786225","0.391379093","0.478642168","","","","","","","","","","","75","K","2","","","111","main_expt"
"251","","bandit","190","616748","0.0-151.0-0.0","68126342","wem/bandit_either","A2YJQUHFIXNOY0","either","2","","","","","","","1","0","0","0.4131544452","","0.8","0.4","0.6","0.2","","","","","0.4190314983","0.1654620982","0.4131544452","0.4841415165","","","","","","","75","K","2","","","112","main_expt"
"233","","bandit","191","618494","0.0-152.0-0.0","68126342","wem/bandit_either","A2YJQUHFIXNOY0","either","2","","","","","","","0","0","1","0.3963985948","","0.8","0.4","0.6","0.2","","","","","0.3666128881","0.1582981878","0.3963985948","0.4883212127","","","","","","","75","K","2","","","113","main_expt"
"402","","bandit","192","620415","0.0-153.0-0.0","68126342","wem/bandit_either","A2YJQUHFIXNOY0","either","2","","","","","","","0","0","1","","0.4117985871","0.8","0.4","0.6","0.2","0.3866259854","0.1922757069","0.4117985871","0.4883790739","","","","","","","","","","","75","K","2","","","114","main_expt"
"308","","bandit","193","622240","0.0-154.0-0.0","68126342","wem/bandit_either","A2YJQUHFIXNOY0","either","2","","","","","","","1","0","0","0.394381103","","0.8","0.4","0.6","0.2","","","","","0.354161152","0.185618385","0.394381103","0.4902011966","","","","","","","75","K","2","","","115","main_expt"
"501","","bandit","194","624251","0.0-155.0-0.0","68126342","wem/bandit_either","A2YJQUHFIXNOY0","either","2","","","","","","","0","0","1","0.3762408663","","0.8","0.4","0.6","0.2","","","","","0.3170745426","0.2057277395","0.3762408663","0.4844723045","","","","","","","75","K","2","","","116","main_expt"
"675","","bandit","195","626436","0.0-156.0-0.0","68126342","wem/bandit_either","A2YJQUHFIXNOY0","either","2","","","","","","","0","0","1","","0.3823674378","0.8","0.4","0.6","0.2","0.304536318","0.2288411079","0.3823674378","0.4895589844","","","","","","","","","","","75","K","2","","","117","main_expt"
"288","","bandit","196","628240","0.0-157.0-0.0","68126342","wem/bandit_either","A2YJQUHFIXNOY0","either","2","","","","","","","0","1","0","","0.2207517482","0.8","0.4","0.6","0.2","0.3411026949","0.2207517482","0.4050195855","0.4899729034","","","","","","","","","","","74","J","1","","","118","main_expt"
"364","","bandit","197","630125","0.0-158.0-0.0","68126342","wem/bandit_either","A2YJQUHFIXNOY0","either","2","","","","","","","0","0","1","","0.1955286499","0.8","0.4","0.6","0.2","0.3447942488","0.1955286499","0.4227562767","0.4947041593","","","","","","","","","","","74","J","1","","","119","main_expt"
"277","","bandit","198","631921","0.0-159.0-0.0","68126342","wem/bandit_either","A2YJQUHFIXNOY0","either","2","","","","","","","0","1","0","","0.2427950695","0.8","0.4","0.6","0.2","0.3686185352","0.2427950695","0.4163810796","0.4916865355","","","","","","","","","","","74","J","1","","","120","main_expt"
"259","","bandit","199","633693","0.0-160.0-0.0","68126342","wem/bandit_either","A2YJQUHFIXNOY0","either","2","","","","","","","0","1","0","","0.2479682904","0.8","0.4","0.6","0.2","0.3547669752","0.2479682904","0.406821829","0.4860386064","","","","","","","","","","","74","J","1","","","121","main_expt"
"246","","bandit","200","635449","0.0-161.0-0.0","68126342","wem/bandit_either","A2YJQUHFIXNOY0","either","2","","","","","","","0","0","1","0.3081985406","","0.8","0.4","0.6","0.2","","","","","0.365994073","0.3081985406","0.3999449125","0.483083859","","","","","","","74","J","1","","","122","main_expt"
"150","","bandit","201","637109","0.0-162.0-0.0","68126342","wem/bandit_either","A2YJQUHFIXNOY0","either","2","","","","","","","0","0","1","","0.3089359708","0.8","0.4","0.6","0.2","0.3120596142","0.3089359708","0.366626489","0.4791491275","","","","","","","","","","","74","J","1","","","123","main_expt"
"123","","bandit","202","638745","0.0-163.0-0.0","68126342","wem/bandit_either","A2YJQUHFIXNOY0","either","2","","","","","","","0","0","1","0.3298338218","","0.8","0.4","0.6","0.2","","","","","0.302161917","0.3298338218","0.3706278578","0.4776777384","","","","","","","74","J","1","","","124","main_expt"
"51","","bandit","203","640314","0.0-164.0-0.0","68126342","wem/bandit_either","A2YJQUHFIXNOY0","either","2","","","","","","","0","1","0","","0.2795250441","0.8","0.4","0.6","0.2","0.2794370347","0.2795250441","0.3545504723","0.478983255","","","","","","","","","","","74","J","1","","","125","main_expt"
"241","","bandit","204","642068","0.0-165.0-0.0","68126342","wem/bandit_either","A2YJQUHFIXNOY0","either","2","","","","","","","0","0","1","0.2184127205","","0.8","0.4","0.6","0.2","","","","","0.2466154908","0.2184127205","0.3106298006","0.4724726719","","","","","","","74","J","1","","","126","main_expt"
"31","","bandit","205","643610","0.0-166.0-0.0","68126342","wem/bandit_either","A2YJQUHFIXNOY0","either","2","","","","","","","0","0","1","","0.2488858907","0.8","0.4","0.6","0.2","0.2712823261","0.2488858907","0.3351405197","0.4796244369","","","","","","","","","","","74","J","1","","","127","main_expt"
"228","","bandit","206","645359","0.0-167.0-0.0","68126342","wem/bandit_either","A2YJQUHFIXNOY0","either","2","","","","","","","0","0","1","0.2850827173","","0.8","0.4","0.6","0.2","","","","","0.2095517986","0.2850827173","0.2984422464","0.4825212971","","","","","","","74","J","1","","","128","main_expt"
"211","","bandit","207","647091","0.0-168.0-0.0","68126342","wem/bandit_either","A2YJQUHFIXNOY0","either","2","","","","","","","1","0","0","0.1986866195","","0.8","0.4","0.6","0.2","","","","","0.1986866195","0.2867242009","0.2027892291","0.4877535013","","","","","","","72","H","0","img/none_selected.jpg","","129","main_expt"
"329","","bandit","208","648930","0.0-169.0-0.0","68126342","wem/bandit_either","A2YJQUHFIXNOY0","either","2","","","","","","","0","0","1","0.172959111","","0.8","0.4","0.6","0.2","","","","","0.172959111","0.2509552002","0.13768179","0.4833646461","","","","","","","72","H","0","img/none_selected.jpg","","130","main_expt"
"276","","bandit","209","650720","0.0-170.0-0.0","68126342","wem/bandit_either","A2YJQUHFIXNOY0","either","2","","","","","","","0","0","1","0.163172462","","0.8","0.4","0.6","0.2","","","","","0.163172462","0.2172434631","0.1352832961","0.4790990265","","","","","","","72","H","0","img/none_selected.jpg","","131","main_expt"
"287","","bandit","210","652528","0.0-171.0-0.0","68126342","wem/bandit_either","A2YJQUHFIXNOY0","either","2","","","","","","","0","0","1","0.161148659","","0.8","0.4","0.6","0.2","","","","","0.161148659","0.158295755","0.08660982753","0.4882311922","","","","","","","72","H","0","img/none_selected.jpg","","132","main_expt"
"281","","bandit","211","654330","0.0-172.0-0.0","68126342","wem/bandit_either","A2YJQUHFIXNOY0","either","2","","","","","","","0","0","1","","0.1735641072","0.8","0.4","0.6","0.2","0.1735641072","0.185310911","0.1020907376","0.4889625365","","","","","","","","","","","72","H","0","img/none_selected.jpg","","133","main_expt"
"146","","bandit","212","655997","0.0-173.0-0.0","68126342","wem/bandit_either","A2YJQUHFIXNOY0","either","2","","","","","","","0","0","1","","0.1597390633","0.8","0.4","0.6","0.2","0.1597390633","0.1966535246","0.1231499397","0.4916783795","","","","","","","","","","","72","H","0","img/none_selected.jpg","","134","main_expt"
"835","","bandit","213","658351","0.0-174.0-0.0","68126342","wem/bandit_either","A2YJQUHFIXNOY0","either","2","","","","","","","0","0","1","","0.4904315354","0.8","0.4","0.6","0.2","0.1460070414","0.2290191974","0.1524236556","0.4904315354","","","","","","","","","","","76","L","3","","","135","main_expt"
"328","","bandit","214","660200","0.0-175.0-0.0","68126342","wem/bandit_either","A2YJQUHFIXNOY0","either","2","","","","","","","0","1","0","","0.491666595","0.8","0.4","0.6","0.2","0.105474526","0.2929229053","0.1954247664","0.491666595","","","","","","","","","","","76","L","3","","","136","main_expt"
"492","","bandit","215","662211","0.0-176.0-0.0","68126342","wem/bandit_either","A2YJQUHFIXNOY0","either","2","","","","","","","0","1","0","","0.4917142499","0.8","0.4","0.6","0.2","0.08835118593","0.2780805385","0.1833989084","0.4917142499","","","","","","","","","","","76","L","3","","","137","main_expt"
"357","","bandit","216","664079","0.0-177.0-0.0","68126342","wem/bandit_either","A2YJQUHFIXNOY0","either","2","","","","","","","0","1","0","","0.4870170403","0.8","0.4","0.6","0.2","0.06418360449","0.217224157","0.1490533902","0.4870170403","","","","","","","","","","","76","L","3","","","138","main_expt"
"328","","bandit","217","665927","0.0-178.0-0.0","68126342","wem/bandit_either","A2YJQUHFIXNOY0","either","2","","","","","","","0","0","1","","0.4834992155","0.8","0.4","0.6","0.2","0.03554325754","0.2323391466","0.1318817547","0.4834992155","","","","","","","","","","","76","L","3","","","139","main_expt"
"381","","bandit","218","667836","0.0-179.0-0.0","68126342","wem/bandit_either","A2YJQUHFIXNOY0","either","2","","","","","","","0","1","0","","0.4927392517","0.8","0.4","0.6","0.2","0.04477370895","0.244475209","0.1877412345","0.4927392517","","","","","","","","","","","76","L","3","","","140","main_expt"
"683","","bandit","219","670038","0.0-180.0-0.0","68126342","wem/bandit_either","A2YJQUHFIXNOY0","either","2","","","","","","","0","0","1","","0.4872377518","0.8","0.4","0.6","0.2","0.03780119019","0.232604034","0.2363671377","0.4872377518","","","","","","","","","","","76","L","3","","","141","main_expt"
"311","","bandit","220","671862","0.0-181.0-0.0","68126342","wem/bandit_either","A2YJQUHFIXNOY0","either","2","","","","","","","0","1","0","","0.4846254936","0.8","0.4","0.6","0.2","0.03149913875","0.2447345556","0.2546402356","0.4846254936","","","","","","","","","","","76","L","3","","","142","main_expt"
"268","","bandit","221","673649","0.0-182.0-0.0","68126342","wem/bandit_either","A2YJQUHFIXNOY0","either","2","","","","","","","0","1","0","","0.4815328815","0.8","0.4","0.6","0.2","0.04191513266","0.26413271","0.2825544685","0.4815328815","","","","","","","","","","","76","L","3","","","143","main_expt"
"1335","","bandit","222","676506","0.0-183.0-0.0","68126342","wem/bandit_either","A2YJQUHFIXNOY0","either","2","","","","","","","0","1","0","","0.4854048375","0.8","0.4","0.6","0.2","0.05613120157","0.1988203511","0.2731230023","0.4854048375","","","","","","","","","","","76","L","3","","","144","main_expt"
"1100","","bandit","223","679126","0.0-184.0-0.0","68126342","wem/bandit_either","A2YJQUHFIXNOY0","either","2","","","","","","","0","1","0","","0.4813029389","0.8","0.4","0.6","0.2","0.03827589539","0.217822638","0.2943814715","0.4813029389","","","","","","","","","","","76","L","3","","","145","main_expt"
"2426","","bandit","224","683074","0.0-185.0-0.0","68126342","wem/bandit_either","A2YJQUHFIXNOY0","either","2","","","","","","","0","0","1","","0.4884824202","0.8","0.4","0.6","0.2","0.02861175853","0.2009042904","0.328634005","0.4884824202","","","","","","","","","","","76","L","3","","","146","main_expt"
"563","","bandit","225","685153","0.0-186.0-0.0","68126342","wem/bandit_either","A2YJQUHFIXNOY0","either","2","","","","","","","1","0","0","0.3511209141","","0.8","0.4","0.6","0.2","","","","","0.02140640811","0.2080446297","0.3511209141","0.4835291327","","","","","","","75","K","2","","","147","main_expt"
"379","","bandit","226","687044","0.0-187.0-0.0","68126342","wem/bandit_either","A2YJQUHFIXNOY0","either","2","","","","","","","0","0","1","0.3874996206","","0.8","0.4","0.6","0.2","","","","","0.0202041473","0.1536700415","0.3874996206","0.4716003481","","","","","","","75","K","2","","","148","main_expt"
"112","","bandit","227","688666","0.0-188.0-0.0","68126342","wem/bandit_either","A2YJQUHFIXNOY0","either","2","","","","","","","0","0","1","","0.1593661633","0.8","0.4","0.6","0.2","0.01154190459","0.1593661633","0.3476646045","0.4341886607","","","","","","","","","","","74","J","1","","","149","main_expt"
"144","","bandit","228","690331","0.0-189.0-0.0","68126342","wem/bandit_either","A2YJQUHFIXNOY0","either","2","","","","","","","0","0","1","","0.3323010919","0.8","0.4","0.6","0.2","0.01291237021","0.144955896","0.3323010919","0.4014438172","","","","","","","","","","","75","K","2","","","150","main_expt"
"195","","bandit","229","692039","0.0-190.0-0.0","68126342","wem/bandit_either","A2YJQUHFIXNOY0","either","2","","","","","","","0","0","1","0.0137789916","","0.8","0.4","0.6","0.2","","","","","0.0137789916","0.2123564028","0.3954477196","0.3980713407","","","","","","","72","H","0","img/none_selected.jpg","","151","main_expt"
"268","","bandit","230","693818","0.0-191.0-0.0","68126342","wem/bandit_either","A2YJQUHFIXNOY0","either","2","","","","","","","0","1","0","","0.4002357887","0.8","0.4","0.6","0.2","0.01985271471","0.2301890466","0.4186327087","0.4002357887","","","","","","","","","","","76","L","3","","","152","main_expt"
"671","","bandit","231","696000","0.0-192.0-0.0","68126342","wem/bandit_either","A2YJQUHFIXNOY0","either","2","","","","","","","0","1","0","","0.388677987","0.8","0.4","0.6","0.2","0.02951100453","0.2295153641","0.4029566754","0.388677987","","","","","","","","","","","76","L","3","","","153","main_expt"
"411","","bandit","232","697922","0.0-193.0-0.0","68126342","wem/bandit_either","A2YJQUHFIXNOY0","either","2","","","","","","","0","1","0","","0.3817747688","0.8","0.4","0.6","0.2","0.02325572033","0.2163321136","0.4037751878","0.3817747688","","","","","","","","","","","76","L","3","","","154","main_expt"
"312","","bandit","233","699757","0.0-194.0-0.0","68126342","wem/bandit_either","A2YJQUHFIXNOY0","either","2","","","","","","","0","1","0","","0.327727533","0.8","0.4","0.6","0.2","0.03925092562","0.2257858177","0.4078727314","0.327727533","","","","","","","","","","","76","L","3","","","155","main_expt"
"326","","bandit","234","701604","0.0-195.0-0.0","68126342","wem/bandit_either","A2YJQUHFIXNOY0","either","2","","","","","","","0","1","0","","0.2821504166","0.8","0.4","0.6","0.2","0.05532081832","0.2077891775","0.3941681487","0.2821504166","","","","","","","","","","","76","L","3","","","156","main_expt"
"240","","bandit","235","703370","0.0-196.0-0.0","68126342","wem/bandit_either","A2YJQUHFIXNOY0","either","2","","","","","","","0","0","1","","0.2784527126","0.8","0.4","0.6","0.2","0.05983660039","0.1742908387","0.3417147062","0.2784527126","","","","","","","","","","","76","L","3","","","157","main_expt"
"11","","bandit","236","704900","0.0-197.0-0.0","68126342","wem/bandit_either","A2YJQUHFIXNOY0","either","2","","","","","","","1","0","0","0.2963220618","","0.8","0.4","0.6","0.2","","","","","0.09347744845","0.162057643","0.2963220618","0.2857058734","","","","","","","75","K","2","","","158","main_expt"
"355","","bandit","237","706773","0.0-198.0-0.0","68126342","wem/bandit_either","A2YJQUHFIXNOY0","either","2","","","","","","","0","0","1","","0.2961528309","0.8","0.4","0.6","0.2","0.09649648717","0.1805514511","0.2961528309","0.2349295223","","","","","","","","","","","75","K","2","","","159","main_expt"
"314","","bandit","238","708597","0.0-199.0-0.0","68126342","wem/bandit_either","A2YJQUHFIXNOY0","either","2","","","","","","","0","0","1","0.2842772575","","0.8","0.4","0.6","0.2","","","","","0.08382429791","0.1724629995","0.2842772575","0.2275717407","","","","","","","75","K","2","","","160","main_expt"
"173","","bandit","239","710296","0.0-200.0-0.0","68126342","wem/bandit_either","A2YJQUHFIXNOY0","either","2","","","","","","","0","0","1","","0.2559884592","0.8","0.4","0.6","0.2","0.1466352983","0.1660992999","0.2747674873","0.2559884592","","","","","","","","","","","76","L","3","","","161","main_expt"
"361","","bandit","240","712178","0.0-201.0-0.0","68126342","wem/bandit_either","A2YJQUHFIXNOY0","either","2","","","","","","","0","0","1","","0.2281832109","0.8","0.4","0.6","0.2","0.1569467617","0.2281832109","0.2993190406","0.2670526618","","","","","","","","","","","74","J","1","","","162","main_expt"
"136","","bandit","241","713826","0.0-202.0-0.0","68126342","wem/bandit_either","A2YJQUHFIXNOY0","either","2","","","","","","","0","0","1","","0.2144285545","0.8","0.4","0.6","0.2","0.1437935099","0.2144285545","0.3102408377","0.2618894379","","","","","","","","","","","74","J","1","","","163","main_expt"
"624","","bandit","242","715972","0.0-203.0-0.0","68126342","wem/bandit_either","A2YJQUHFIXNOY0","either","2","","","","","","","0","0","1","0.1503677763","","0.8","0.4","0.6","0.2","","","","","0.1503677763","0.2131293933","0.2607878409","0.2977476978","","","","","","","72","H","0","img/none_selected.jpg","","164","main_expt"
"461","","bandit","243","717955","0.0-204.0-0.0","68126342","wem/bandit_either","A2YJQUHFIXNOY0","either","2","","","","","","","0","0","1","0.1574825995","","0.8","0.4","0.6","0.2","","","","","0.1574825995","0.251698227","0.2470054868","0.3138636066","","","","","","","72","H","0","img/none_selected.jpg","","165","main_expt"
"198","","bandit","244","719663","0.0-205.0-0.0","68126342","wem/bandit_either","A2YJQUHFIXNOY0","either","2","","","","","","","0","0","1","0.2831539445","","0.8","0.4","0.6","0.2","","","","","0.1500633275","0.2831539445","0.2629624785","0.3204338644","","","","","","","74","J","1","","","166","main_expt"
"354","","bandit","245","721528","0.0-206.0-0.0","68126342","wem/bandit_either","A2YJQUHFIXNOY0","either","2","","","","","","","0","0","1","0.2745713682","","0.8","0.4","0.6","0.2","","","","","0.1137242654","0.2496169508","0.2745713682","0.3600517585","","","","","","","75","K","2","","","167","main_expt"
"104","","bandit","246","723144","0.0-207.0-0.0","68126342","wem/bandit_either","A2YJQUHFIXNOY0","either","2","","","","","","","0","0","1","","0.3678373827","0.8","0.4","0.6","0.2","0.145192941","0.2315540067","0.2557249153","0.3678373827","","","","","","","","","","","76","L","3","","","168","main_expt"
"284","","bandit","247","724946","0.0-208.0-0.0","68126342","wem/bandit_either","A2YJQUHFIXNOY0","either","2","","","","","","","0","0","1","0.3421512568","","0.8","0.4","0.6","0.2","","","","","0.1863479632","0.1825517174","0.2016321063","0.3421512568","","","","","","","76","L","3","","","169","main_expt"
"260","","bandit","248","726719","0.0-209.0-0.0","68126342","wem/bandit_either","A2YJQUHFIXNOY0","either","2","","","","","","","0","0","1","","0.2210696627","0.8","0.4","0.6","0.2","0.142304713","0.2535959064","0.2210696627","0.3917895485","","","","","","","","","","","75","K","2","","","170","main_expt"
"138","","bandit","249","728370","0.0-210.0-0.0","68126342","wem/bandit_either","A2YJQUHFIXNOY0","either","2","","","","","","","0","0","1","","0.3004284576","0.8","0.4","0.6","0.2","0.1739768979","0.3004284576","0.1627904758","0.3206692194","","","","","","","","","","","74","J","1","","","171","main_expt"
"417","","bandit","250","730308","0.0-211.0-0.0","68126342","wem/bandit_either","A2YJQUHFIXNOY0","either","2","","","","","","","0","0","1","","0.2172659048","0.8","0.4","0.6","0.2","0.2172659048","0.2716191145","0.1421076649","0.3198600846","","","","","","","","","","","72","H","0","img/none_selected.jpg","","172","main_expt"
"322","","bandit","251","732148","0.0-212.0-0.0","68126342","wem/bandit_either","A2YJQUHFIXNOY0","either","2","","","","","","","0","0","1","0.3253138029","","0.8","0.4","0.6","0.2","","","","","0.2419731025","0.3253138029","0.165050165","0.2641483633","","","","","","","74","J","1","","","173","main_expt"
"471","","bandit","252","734131","0.0-213.0-0.0","68126342","wem/bandit_either","A2YJQUHFIXNOY0","either","2","","","","","","","0","0","1","","0.1406738207","0.8","0.4","0.6","0.2","0.2239571331","0.3419591401","0.1406738207","0.2248062597","","","","","","","","","","","75","K","2","","","174","main_expt"
"202","","bandit","253","735856","0.0-214.0-0.0","68126342","wem/bandit_either","A2YJQUHFIXNOY0","either","2","","","","","","","0","0","1","0.138310495","","0.8","0.4","0.6","0.2","","","","","0.2311410243","0.3442692367","0.138310495","0.2370379408","","","","","","","75","K","2","","","175","main_expt"
"159","","bandit","254","737541","0.0-215.0-0.0","68126342","wem/bandit_either","A2YJQUHFIXNOY0","either","2","","","","","","","0","0","1","","0.2157433706","0.8","0.4","0.6","0.2","0.2610077479","0.3397266539","0.1675243642","0.2157433706","","","","","","","","","","","76","L","3","","","176","main_expt"
"433","","bandit","255","739495","0.0-216.0-0.0","68126342","wem/bandit_either","A2YJQUHFIXNOY0","either","2","","","","","","","0","0","1","","0.2014791824","0.8","0.4","0.6","0.2","0.2780938204","0.2997078274","0.1919885971","0.2014791824","","","","","","","","","","","76","L","3","","","177","main_expt"
"126","","bandit","256","741143","0.0-217.0-0.0","68126342","wem/bandit_either","A2YJQUHFIXNOY0","either","2","","","","","","","0","1","0","","0.2365392944","0.8","0.4","0.6","0.2","0.3151752793","0.3064007527","0.2365392944","0.1913564418","","","","","","","","","","","75","K","2","","","178","main_expt"
"244","","bandit","257","742911","0.0-218.0-0.0","68126342","wem/bandit_either","A2YJQUHFIXNOY0","either","2","","","","","","","0","0","1","0.2509455726","","0.8","0.4","0.6","0.2","","","","","0.2799621139","0.3533432679","0.2509455726","0.1980728016","","","","","","","75","K","2","","","179","main_expt"
"345","","bandit","258","744774","0.0-219.0-0.0","68126342","wem/bandit_either","A2YJQUHFIXNOY0","either","2","","","","","","","0","0","1","0.2767223981","","0.8","0.4","0.6","0.2","","","","","0.3170936092","0.3652522579","0.2767223981","0.1833491223","","","","","","","75","K","2","","","180","main_expt"
"280","","bandit","259","746576","0.0-220.0-0.0","68126342","wem/bandit_either","A2YJQUHFIXNOY0","either","2","","","","","","","0","1","0","","0.314600373","0.8","0.4","0.6","0.2","0.28101752","0.3383156657","0.314600373","0.1342686697","","","","","","","","","","","75","K","2","","","181","main_expt"
"398","","bandit","260","748497","0.0-221.0-0.0","68126342","wem/bandit_either","A2YJQUHFIXNOY0","either","2","","","","","","","1","0","0","0.3943610609","","0.8","0.4","0.6","0.2","","","","","0.3043342224","0.2902116232","0.3943610609","0.1636660304","","","","","","","75","K","2","","","182","main_expt"
"254","","bandit","261","750272","0.0-222.0-0.0","68126342","wem/bandit_either","A2YJQUHFIXNOY0","either","2","","","","","","","0","0","1","","0.3586422101","0.8","0.4","0.6","0.2","0.3192524042","0.3026157476","0.3586422101","0.136761637","","","","","","","","","","","75","K","2","","","183","main_expt"
"230","","bandit","262","752018","0.0-223.0-0.0","68126342","wem/bandit_either","A2YJQUHFIXNOY0","either","2","","","","","","","0","0","1","0.3879999062","","0.8","0.4","0.6","0.2","","","","","0.3332516821","0.3360229169","0.3879999062","0.1685989701","","","","","","","75","K","2","","","184","main_expt"
"241","","bandit","263","753772","0.0-224.0-0.0","68126342","wem/bandit_either","A2YJQUHFIXNOY0","either","2","","","","","","","0","1","0","","0.3831340227","0.8","0.4","0.6","0.2","0.3228184693","0.3336456265","0.3831340227","0.1663529744","","","","","","","","","","","75","K","2","","","185","main_expt"
"317","","bandit","264","755602","0.0-225.0-0.0","68126342","wem/bandit_either","A2YJQUHFIXNOY0","either","2","","","","","","","1","0","0","0.3999004662","","0.8","0.4","0.6","0.2","","","","","0.3111703144","0.3308881938","0.3999004662","0.1916836285","","","","","","","75","K","2","","","186","main_expt"
"322","","bandit","265","757440","0.0-226.0-0.0","68126342","wem/bandit_either","A2YJQUHFIXNOY0","either","2","","","","","","","0","0","1","0.3875363153","","0.8","0.4","0.6","0.2","","","","","0.3353611299","0.325530054","0.3875363153","0.1686829448","","","","","","","75","K","2","","","187","main_expt"
"281","","bandit","266","759236","0.0-227.0-0.0","68126342","wem/bandit_either","A2YJQUHFIXNOY0","either","2","","","","","","","0","0","1","0.3875691392","","0.8","0.4","0.6","0.2","","","","","0.3646937268","0.3055482451","0.3875691392","0.1461675531","","","","","","","75","K","2","","","188","main_expt"
"60","","bandit","267","760818","0.0-228.0-0.0","68126342","wem/bandit_either","A2YJQUHFIXNOY0","either","2","","","","","","","0","0","1","0.4166866882","","0.8","0.4","0.6","0.2","","","","","0.3891323825","0.3002345065","0.4166866882","0.1382971047","","","","","","","75","K","2","","","189","main_expt"
"173","","bandit","268","762518","0.0-229.0-0.0","68126342","wem/bandit_either","A2YJQUHFIXNOY0","either","2","","","","","","","0","0","1","0.2693931213","","0.8","0.4","0.6","0.2","","","","","0.3860741766","0.2693931213","0.4124474499","0.1898135375","","","","","","","74","J","1","","","190","main_expt"
"272","","bandit","269","764314","0.0-230.0-0.0","68126342","wem/bandit_either","A2YJQUHFIXNOY0","either","2","","","","","","","0","0","1","0.3009284261","","0.8","0.4","0.6","0.2","","","","","0.3864243721","0.3009284261","0.3638199534","0.1264917812","","","","","","","74","J","1","","","191","main_expt"
"44","","bandit","270","765873","0.0-231.0-0.0","68126342","wem/bandit_either","A2YJQUHFIXNOY0","either","2","","","","","","","0","0","1","","0.3157917784","0.8","0.4","0.6","0.2","0.400448014","0.3157917784","0.3711146034","0.1185409567","","","","","","","","","","","74","J","1","","","192","main_expt"
"158","","bandit","271","767555","0.0-232.0-0.0","68126342","wem/bandit_either","A2YJQUHFIXNOY0","either","2","","","","","","","0","0","1","0.3895367297","","0.8","0.4","0.6","0.2","","","","","0.3895367297","0.2999212614","0.3654165885","0.09837948322","","","","","","","72","H","0","img/none_selected.jpg","","193","main_expt"
"418","","bandit","272","769485","0.0-233.0-0.0","68126342","wem/bandit_either","A2YJQUHFIXNOY0","either","2","","","","","","","0","0","1","0.4032313792","","0.8","0.4","0.6","0.2","","","","","0.4032313792","0.3287494418","0.3537818584","0.137690802","","","","","","","72","H","0","img/none_selected.jpg","","194","main_expt"
"239","","bandit","273","771242","0.0-234.0-0.0","68126342","wem/bandit_either","A2YJQUHFIXNOY0","either","2","","","","","","","0","0","1","","0.1683354775","0.8","0.4","0.6","0.2","0.337234763","0.3031978913","0.3597494918","0.1683354775","","","","","","","","","","","76","L","3","","","195","main_expt"
"299","","bandit","274","773064","0.0-235.0-0.0","68126342","wem/bandit_either","A2YJQUHFIXNOY0","either","2","","","","","","","0","0","1","","0.1561951964","0.8","0.4","0.6","0.2","0.3950764453","0.2901303692","0.3479121901","0.1561951964","","","","","","","","","","","76","L","3","","","196","main_expt"
"322","","bandit","275","774908","0.0-236.0-0.0","68126342","wem/bandit_either","A2YJQUHFIXNOY0","either","2","","","","","","","0","0","1","","0.3596292454","0.8","0.4","0.6","0.2","0.4193743727","0.2444781728","0.3596292454","0.1329868482","","","","","","","","","","","75","K","2","","","197","main_expt"
"272","","bandit","276","776715","0.0-237.0-0.0","68126342","wem/bandit_either","A2YJQUHFIXNOY0","either","2","","","","","","","1","0","0","0.3555371828","","0.8","0.4","0.6","0.2","","","","","0.4375347816","0.2140047665","0.3555371828","0.1730826789","","","","","","","75","K","2","","","198","main_expt"
"260","","bandit","277","778494","0.0-238.0-0.0","68126342","wem/bandit_either","A2YJQUHFIXNOY0","either","2","","","","","","","0","0","1","","0.4016486285","0.8","0.4","0.6","0.2","0.4315030007","0.2077842613","0.4016486285","0.1385649096","","","","","","","","","","","75","K","2","","","199","main_expt"
"343","","bandit","278","780359","0.0-239.0-0.0","68126342","wem/bandit_either","A2YJQUHFIXNOY0","either","2","","","","","","","0","0","1","","0.3871107612","0.8","0.4","0.6","0.2","0.4340108373","0.180488049","0.3871107612","0.1941139053","","","","","","","","","","","75","K","2","","","200","main_expt"
"138","","bandit","279","782020","0.0-240.0-0.0","68126342","wem/bandit_either","A2YJQUHFIXNOY0","either","2","","","","","","","0","0","1","0.3856539452","","0.8","0.4","0.6","0.2","","","","","0.441078118","0.2084987087","0.3856539452","0.1825013029","","","","","","","75","K","2","","","201","main_expt"
"122","","bandit","280","783666","0.0-241.0-0.0","68126342","wem/bandit_either","A2YJQUHFIXNOY0","either","2","","","","","","","0","0","1","","0.162440572","0.8","0.4","0.6","0.2","0.4143682719","0.1869669721","0.358588673","0.162440572","","","","","","","","","","","76","L","3","","","202","main_expt"
"153","","bandit","281","785330","0.0-242.0-0.0","68126342","wem/bandit_either","A2YJQUHFIXNOY0","either","2","","","","","","","0","0","1","","0.1914238456","0.8","0.4","0.6","0.2","0.4280720422","0.1383076553","0.3460881607","0.1914238456","","","","","","","","","","","76","L","3","","","203","main_expt"
"56","","bandit","282","786911","0.0-243.0-0.0","68126342","wem/bandit_either","A2YJQUHFIXNOY0","either","2","","","","","","","0","0","1","","0.1656187697","0.8","0.4","0.6","0.2","0.4113524858","0.1656187697","0.3091432968","0.1849793247","","","","","","","","","","","74","J","1","","","204","main_expt"
"382","","bandit","283","788808","0.0-244.0-0.0","68126342","wem/bandit_either","A2YJQUHFIXNOY0","either","2","","","","","","","0","0","1","0.1699285253","","0.8","0.4","0.6","0.2","","","","","0.4151465815","0.1699285253","0.3016396897","0.1722293799","","","","","","","74","J","1","","","205","main_expt"
"167","","bandit","284","790496","0.0-245.0-0.0","68126342","wem/bandit_either","A2YJQUHFIXNOY0","either","2","","","","","","","0","1","0","","0.3300702997","0.8","0.4","0.6","0.2","0.4002359997","0.161732949","0.3300702997","0.1625694713","","","","","","","","","","","75","K","2","","","206","main_expt"
"346","","bandit","285","792367","0.0-246.0-0.0","68126342","wem/bandit_either","A2YJQUHFIXNOY0","either","2","","","","","","","0","0","1","0.2648848683","","0.8","0.4","0.6","0.2","","","","","0.3692387261","0.1699017951","0.2648848683","0.1079769143","","","","","","","75","K","2","","","207","main_expt"
"298","","bandit","286","794189","0.0-247.0-0.0","68126342","wem/bandit_either","A2YJQUHFIXNOY0","either","2","","","","","","","0","0","1","","0.1592107695","0.8","0.4","0.6","0.2","0.3283471685","0.1592107695","0.2502792914","0.1380178959","","","","","","","","","","","74","J","1","","","208","main_expt"
"298","","bandit","287","796010","0.0-248.0-0.0","68126342","wem/bandit_either","A2YJQUHFIXNOY0","either","2","","","","","","","1","0","0","0.2924758898","","0.8","0.4","0.6","0.2","","","","","0.2924758898","0.1659907122","0.2770073026","0.1538506734","","","","","","","72","H","0","img/none_selected.jpg","","209","main_expt"
"269","","bandit","288","797808","0.0-249.0-0.0","68126342","wem/bandit_either","A2YJQUHFIXNOY0","either","2","","","","","","","0","0","1","","0.2279470939","0.8","0.4","0.6","0.2","0.2279470939","0.229525517","0.3451435735","0.1406222791","","","","","","","","","","","72","H","0","img/none_selected.jpg","","210","main_expt"
"117","","bandit","289","799450","0.0-250.0-0.0","68126342","wem/bandit_either","A2YJQUHFIXNOY0","either","2","","","","","","","0","1","0","","0.2131844406","0.8","0.4","0.6","0.2","0.2131844406","0.2434605193","0.3514478275","0.08987887408","","","","","","","","","","","72","H","0","img/none_selected.jpg","","211","main_expt"
"320","","bandit","290","801291","0.0-251.0-0.0","68126342","wem/bandit_either","A2YJQUHFIXNOY0","either","2","","","","","","","0","0","1","0.1601793481","","0.8","0.4","0.6","0.2","","","","","0.1601793481","0.1633214123","0.3579324364","0.1277875359","","","","","","","72","H","0","img/none_selected.jpg","","212","main_expt"
"315","","bandit","291","803142","0.0-252.0-0.0","68126342","wem/bandit_either","A2YJQUHFIXNOY0","either","2","","","","","","","1","0","0","0.1354109392","","0.8","0.4","0.6","0.2","","","","","0.1354109392","0.1014835246","0.3231243524","0.134271297","","","","","","","72","H","0","img/none_selected.jpg","","213","main_expt"
"1158","","bandit","292","805820","0.0-253.0-0.0","68126342","wem/bandit_either","A2YJQUHFIXNOY0","either","2","","","","","","","0","0","1","","0.1142105534","0.8","0.4","0.6","0.2","0.1142105534","0.09587264096","0.2798540136","0.1385204111","","","","","","","","","","","72","H","0","img/none_selected.jpg","","214","main_expt"
"279","","bandit","293","807622","0.0-254.0-0.0","68126342","wem/bandit_either","A2YJQUHFIXNOY0","either","2","","","","","","","0","0","1","","0.1031311673","0.8","0.4","0.6","0.2","0.1031311673","0.08342689115","0.2469391402","0.1089132689","","","","","","","","","","","72","H","0","img/none_selected.jpg","","215","main_expt"
"61","","bandit","294","809207","0.0-255.0-0.0","68126342","wem/bandit_either","A2YJQUHFIXNOY0","either","2","","","","","","","1","0","0","0.05361264496","","0.8","0.4","0.6","0.2","","","","","0.1031732366","0.05361264496","0.3211823944","0.1299508563","","","","","","","74","J","1","","","216","main_expt"
"291","","bandit","295","811026","0.0-256.0-0.0","68126342","wem/bandit_either","A2YJQUHFIXNOY0","either","2","","","","","","","0","0","1","0.09912420903","","0.8","0.4","0.6","0.2","","","","","0.1188097379","0.09912420903","0.3545519007","0.131109262","","","","","","","74","J","1","","","217","main_expt"
"351","","bandit","296","812900","0.0-257.0-0.0","68126342","wem/bandit_either","A2YJQUHFIXNOY0","either","2","","","","","","","0","0","1","0.1021137889","","0.8","0.4","0.6","0.2","","","","","0.1096623481","0.1021137889","0.3781539282","0.1039495344","","","","","","","74","J","1","","","218","main_expt"
"25","","bandit","297","814449","0.0-258.0-0.0","68126342","wem/bandit_either","A2YJQUHFIXNOY0","either","2","","","","","","","0","0","1","","0.1025207236","0.8","0.4","0.6","0.2","0.08679630722","0.1025207236","0.3674409598","0.09488552944","","","","","","","","","","","74","J","1","","","219","main_expt"
"44","","bandit","298","816025","0.0-259.0-0.0","68126342","wem/bandit_either","A2YJQUHFIXNOY0","either","2","","","","","","","0","0","1","0.315237632","","0.8","0.4","0.6","0.2","","","","","0.1482089448","0.1049734862","0.315237632","0.1311925698","","","","","","","75","K","2","","","220","main_expt"
"314","","bandit","299","817848","0.0-260.0-0.0","68126342","wem/bandit_either","A2YJQUHFIXNOY0","either","2","","","","","","","0","0","1","0.3572442142","","0.8","0.4","0.6","0.2","","","","","0.217172314","0.08244295151","0.3572442142","0.08224132258","","","","","","","75","K","2","","","221","main_expt"
"528","","bandit","300","819890","0.0-261.0-0.0","68126342","wem/bandit_either","A2YJQUHFIXNOY0","either","2","","","","","","","0","1","0","","0.2796125419","0.8","0.4","0.6","0.2","0.2227738938","0.09815111748","0.2796125419","0.06870998364","","","","","","","","","","","75","K","2","","","222","main_expt"
"257","","bandit","301","821673","0.0-262.0-0.0","68126342","wem/bandit_either","A2YJQUHFIXNOY0","either","2","","","","","","","0","0","1","0.2265565182","","0.8","0.4","0.6","0.2","","","","","0.2768694491","0.09925351505","0.2265565182","0.111762886","","","","","","","75","K","2","","","223","main_expt"
"253","","bandit","302","823452","0.0-263.0-0.0","68126342","wem/bandit_either","A2YJQUHFIXNOY0","either","2","","","","","","","0","0","1","","0.09652303785","0.8","0.4","0.6","0.2","0.2895694018","0.07842644678","0.1727872262","0.09652303785","","","","","","","","","","","76","L","3","","","224","main_expt"
"477","","bandit","303","825457","0.0-264.0-0.0","68126342","wem/bandit_either","A2YJQUHFIXNOY0","either","2","","","","","","","0","0","1","","0.09424892582","0.8","0.4","0.6","0.2","0.3515154126","0.05284632075","0.1580797834","0.09424892582","","","","","","","","","","","76","L","3","","","225","main_expt"
"359","","bandit","304","827338","0.0-265.0-0.0","68126342","wem/bandit_either","A2YJQUHFIXNOY0","either","2","","","","","","","0","0","1","0.1206031336","","0.8","0.4","0.6","0.2","","","","","0.3960872924","0.06788221328","0.1206031336","0.1094697254","","","","","","","75","K","2","","","226","main_expt"
"641","","bandit","305","829494","0.0-266.0-0.0","68126342","wem/bandit_either","A2YJQUHFIXNOY0","either","2","","","","","","","0","0","1","0.1218099769","","0.8","0.4","0.6","0.2","","","","","0.3301105445","0.04226868229","0.1218099769","0.1055794081","","","","","","","75","K","2","","","227","main_expt"
"880","","bandit","306","831888","0.0-267.0-0.0","68126342","wem/bandit_either","A2YJQUHFIXNOY0","either","2","","","","","","","1","0","0","0.06174471126","","0.8","0.4","0.6","0.2","","","","","0.3679650562","0.06174471126","0.08458740206","0.1210232629","","","","","","","74","J","1","","","228","main_expt"
"778","","bandit","307","834191","0.0-268.0-0.0","68126342","wem/bandit_either","A2YJQUHFIXNOY0","either","2","","","","","","","0","0","1","0.06122033102","","0.8","0.4","0.6","0.2","","","","","0.3413725311","0.06122033102","0.06311990622","0.1249199002","","","","","","","74","J","1","","","229","main_expt"
"502","","bandit","308","836220","0.0-269.0-0.0","68126342","wem/bandit_either","A2YJQUHFIXNOY0","either","2","","","","","","","0","0","1","","0.09369367087","0.8","0.4","0.6","0.2","0.3652503211","0.09369367087","0.04674316758","0.1423167866","","","","","","","","","","","74","J","1","","","230","main_expt"
"394","","bandit","309","838140","0.0-270.0-0.0","68126342","wem/bandit_either","A2YJQUHFIXNOY0","either","2","","","","","","","0","0","1","","0.1378364932","0.8","0.4","0.6","0.2","0.3774172636","0.1378364932","0.06697327866","0.1441411413","","","","","","","","","","","74","J","1","","","231","main_expt"
"517","","bandit","310","840170","0.0-271.0-0.0","68126342","wem/bandit_either","A2YJQUHFIXNOY0","either","2","","","","","","","0","0","1","0.1138343256","","0.8","0.4","0.6","0.2","","","","","0.3507397895","0.1138343256","0.08617656909","0.1132866493","","","","","","","74","J","1","","","232","main_expt"
"443","","bandit","311","842135","0.0-272.0-0.0","68126342","wem/bandit_either","A2YJQUHFIXNOY0","either","2","","","","","","","0","1","0","","0.3228668676","0.8","0.4","0.6","0.2","0.3228668676","0.1602674987","0.08388286328","0.07587191469","","","","","","","","","","","72","H","0","img/none_selected.jpg","","233","main_expt"
"1132","","bandit","312","844783","0.0-273.0-0.0","68126342","wem/bandit_either","A2YJQUHFIXNOY0","either","2","","","","","","","0","0","1","0.3219168209","","0.8","0.4","0.6","0.2","","","","","0.3219168209","0.1399599793","0.08303297831","0.08330376307","","","","","","","72","H","0","img/none_selected.jpg","","234","main_expt"
"185","","bandit","313","846483","0.0-274.0-0.0","68126342","wem/bandit_either","A2YJQUHFIXNOY0","either","2","","","","","","","0","0","1","0.1577883936","","0.8","0.4","0.6","0.2","","","","","0.2907257894","0.1577883936","0.08228619446","0.07960395758","","","","","","","74","J","1","","","235","main_expt"
"2","","bandit","314","848009","0.0-275.0-0.0","68126342","wem/bandit_either","A2YJQUHFIXNOY0","either","2","","","","","","","0","0","1","","0.07856112713","0.8","0.4","0.6","0.2","0.2879125653","0.1206463377","0.07856112713","0.06703487678","","","","","","","","","","","75","K","2","","","236","main_expt"
"216","","bandit","315","849741","0.0-276.0-0.0","68126342","wem/bandit_either","A2YJQUHFIXNOY0","either","2","","","","","","","1","0","0","0.07970276757","","0.8","0.4","0.6","0.2","","","","","0.3055933028","0.1224948263","0.09394336493","0.07970276757","","","","","","","76","L","3","","","237","main_expt"
"295","","bandit","316","851552","0.0-277.0-0.0","68126342","wem/bandit_either","A2YJQUHFIXNOY0","either","2","","","","","","","0","0","1","0.05589422377","","0.8","0.4","0.6","0.2","","","","","0.3197806133","0.1163601633","0.1044036833","0.05589422377","","","","","","","76","L","3","","","238","main_expt"
"346","","bandit","317","853411","0.0-278.0-0.0","68126342","wem/bandit_either","A2YJQUHFIXNOY0","either","2","","","","","","","0","0","1","","0.07304711058","0.8","0.4","0.6","0.2","0.2699970134","0.09302868556","0.1010835707","0.07304711058","","","","","","","","","","","76","L","3","","","239","main_expt"
"198","","bandit","318","855120","0.0-279.0-0.0","68126342","wem/bandit_either","A2YJQUHFIXNOY0","either","2","","","","","","","0","0","1","","0.1196592177","0.8","0.4","0.6","0.2","0.2594796501","0.1142909623","0.1196592177","0.05193691484","","","","","","","","","","","75","K","2","","","240","main_expt"
"0","","bandit","319","856647","0.0-280.0-0.0","68126342","wem/bandit_either","A2YJQUHFIXNOY0","either","2","","","","","","","0","0","1","0.06844812817","","0.8","0.4","0.6","0.2","","","","","0.252227353","0.1694552561","0.127320561","0.06844812817","","","","","","","76","L","3","","","241","main_expt"
"14","","bandit","320","858186","0.0-281.0-0.0","68126342","wem/bandit_either","A2YJQUHFIXNOY0","either","2","","","","","","","0","0","1","","0.10641745","0.8","0.4","0.6","0.2","0.301231011","0.1828807391","0.10641745","0.07869989264","","","","","","","","","","","75","K","2","","","242","main_expt"
"297","","bandit","321","860005","0.0-282.0-0.0","68126342","wem/bandit_either","A2YJQUHFIXNOY0","either","2","","","","","","","0","0","1","","0.1236361748","0.8","0.4","0.6","0.2","0.2903867436","0.1236361748","0.131785075","0.06084245892","","","","","","","","","","","74","J","1","","","243","main_expt"
"72","","bandit","322","861606","0.0-283.0-0.0","68126342","wem/bandit_either","A2YJQUHFIXNOY0","either","2","","","","","","","1","0","0","0.2659167858","","0.8","0.4","0.6","0.2","","","","","0.2659167858","0.1131162958","0.1150513838","0.04982625113","","","","","","","72","H","0","img/none_selected.jpg","","244","main_expt"
"348","","bandit","323","863477","0.0-284.0-0.0","68126342","wem/bandit_either","A2YJQUHFIXNOY0","either","2","","","","","","","0","0","1","0.254087564","","0.8","0.4","0.6","0.2","","","","","0.254087564","0.08611006768","0.1651966394","0.04708965441","","","","","","","72","H","0","img/none_selected.jpg","","245","main_expt"
"362","","bandit","324","865356","0.0-285.0-0.0","68126342","wem/bandit_either","A2YJQUHFIXNOY0","either","2","","","","","","","1","0","0","0.2551799517","","0.8","0.4","0.6","0.2","","","","","0.2551799517","0.1123216353","0.1555796254","0.0280961865","","","","","","","72","H","0","img/none_selected.jpg","","246","main_expt"
"309","","bandit","325","867179","0.0-286.0-0.0","68126342","wem/bandit_either","A2YJQUHFIXNOY0","either","2","","","","","","","0","0","1","","0.2629335529","0.8","0.4","0.6","0.2","0.2629335529","0.09475638668","0.1703980626","0.04499456282","","","","","","","","","","","72","H","0","img/none_selected.jpg","","247","main_expt"
"288","","bandit","326","868993","0.0-287.0-0.0","68126342","wem/bandit_either","A2YJQUHFIXNOY0","either","2","","","","","","","0","0","1","0.2393496224","","0.8","0.4","0.6","0.2","","","","","0.2393496224","0.08309477664","0.1502680902","0.03910304398","","","","","","","72","H","0","img/none_selected.jpg","","248","main_expt"
"254","","bandit","327","870761","0.0-288.0-0.0","68126342","wem/bandit_either","A2YJQUHFIXNOY0","either","2","","","","","","","0","0","1","","0.2612635012","0.8","0.4","0.6","0.2","0.2612635012","0.09118761135","0.1515252412","0.02658952892","","","","","","","","","","","72","H","0","img/none_selected.jpg","","249","main_expt"
"293","","bandit","328","872568","0.0-289.0-0.0","68126342","wem/bandit_either","A2YJQUHFIXNOY0","either","2","","","","","","","0","0","1","","0.1173751119","0.8","0.4","0.6","0.2","0.2729339083","0.1173751119","0.164479444","0.02715120894","","","","","","","","","","","74","J","1","","","250","main_expt"
"394","","bandit","329","874487","0.0-290.0-0.0","68126342","wem/bandit_either","A2YJQUHFIXNOY0","either","2","","","","","","","0","0","1","","0.10167128","0.8","0.4","0.6","0.2","0.2394547858","0.10167128","0.1036013708","0.02468122838","","","","","","","","","","","74","J","1","","","251","main_expt"
"367","","bandit","330","876377","0.0-291.0-0.0","68126342","wem/bandit_either","A2YJQUHFIXNOY0","either","2","","","","","","","1","0","0","0.1206404305","","0.8","0.4","0.6","0.2","","","","","0.1971678968","0.1297907712","0.1206404305","0.01934001153","","","","","","","75","K","2","","","252","main_expt"
"240","","bandit","331","878143","0.0-292.0-0.0","68126342","wem/bandit_either","A2YJQUHFIXNOY0","either","2","","","","","","","0","0","1","0.144481093","","0.8","0.4","0.6","0.2","","","","","0.2194815642","0.08555329314","0.144481093","0.01552303999","","","","","","","75","K","2","","","253","main_expt"
"201","","bandit","332","879869","0.0-293.0-0.0","68126342","wem/bandit_either","A2YJQUHFIXNOY0","either","2","","","","","","","0","0","1","","0.1495858552","0.8","0.4","0.6","0.2","0.2365987297","0.05661737176","0.1495858552","0.02294208798","","","","","","","","","","","75","K","2","","","254","main_expt"
"172","","bandit","333","881569","0.0-294.0-0.0","68126342","wem/bandit_either","A2YJQUHFIXNOY0","either","2","","","","","","","0","0","1","","0.04453848373","0.8","0.4","0.6","0.2","0.2300386291","0.04453848373","0.1670870388","0.03654195668","","","","","","","","","","","74","J","1","","","255","main_expt"
