"rt","responses","trial_type","trial_index","time_elapsed","internal_node_id","subjID","study","MID","cond","drift","key_press","expt_phase","target","like","value","connected","gems","bombs","no_reward","GemPrChosen","BombPrChosen","GainOverPainPr_0","GainOverPainPr_1","GainOverPainPr_2","GainOverPainPr_3","LosePr_0","LosePr_1","LosePr_2","LosePr_3","WinPr_0","WinPr_1","WinPr_2","WinPr_3","Q0","Q1","Q2","gender","age","ethnicity","respCharCode","respKey","respChoiceNum","respChoice","practice","trial_counter","trial_label"
"3105","{""Q0"":""A1BWR5RBQDZQ16""}","survey-text","0","3113","0.0-0.0","69753694","wem/bandit_either","A1BWR5RBQDZQ16","either","4","","","","","","","","","","","","","","","","","","","","","","","","","","","","","","","","","","","",""
"11586","","text","1","15703","0.0-1.0","69753694","wem/bandit_either","A1BWR5RBQDZQ16","either","4","32","","","","","","","","","","","","","","","","","","","","","","","","","","","","","","","","","","",""
"4933","","text","2","20639","0.0-2.0","69753694","wem/bandit_either","A1BWR5RBQDZQ16","either","4","32","","","","","","","","","","","","","","","","","","","","","","","","","","","","","","","","","","",""
"1611","","text","3","22254","0.0-3.0","69753694","wem/bandit_either","A1BWR5RBQDZQ16","either","4","32","","","","","","","","","","","","","","","","","","","","","","","","","","","","","","","","","","",""
"741","","text","4","22997","0.0-4.0","69753694","wem/bandit_either","A1BWR5RBQDZQ16","either","4","32","","","","","","","","","","","","","","","","","","","","","","","","","","","","","","","","","","",""
"5592","","text","5","28592","0.0-5.0","69753694","wem/bandit_either","A1BWR5RBQDZQ16","either","4","32","","","","","","","","","","","","","","","","","","","","","","","","","","","","","","","","","","",""
"628","","text","6","29221","0.0-6.0","69753694","wem/bandit_either","A1BWR5RBQDZQ16","either","4","32","","","","","","","","","","","","","","","","","","","","","","","","","","","","","","","","","","",""
"559","","text","7","29782","0.0-7.0","69753694","wem/bandit_either","A1BWR5RBQDZQ16","either","4","32","","","","","","","","","","","","","","","","","","","","","","","","","","","","","","","","","","",""
"5585","","identification","8","35397","0.0-8.0-0.0","69753694","wem/bandit_either","A1BWR5RBQDZQ16","either","4","","identification_pre","the village of Zur","","","","","","","","","","","","","","","","","","","","","","","","","","","","","","","","",""
"3897","","identification","9","40313","0.0-8.0-1.0","69753694","wem/bandit_either","A1BWR5RBQDZQ16","either","4","","identification_pre","the village of Nyx","","","","","","","","","","","","","","","","","","","","","","","","","","","","","","","","",""
"6043","","text","10","47358","0.0-9.0","69753694","wem/bandit_either","A1BWR5RBQDZQ16","either","4","32","","","","","","","","","","","","","","","","","","","","","","","","","","","","","","","","","","",""
"501","","text","11","47862","0.0-10.0","69753694","wem/bandit_either","A1BWR5RBQDZQ16","either","4","32","","","","","","","","","","","","","","","","","","","","","","","","","","","","","","","","","","",""
"1094","","text","12","48959","0.0-11.0","69753694","wem/bandit_either","A1BWR5RBQDZQ16","either","4","32","","","","","","","","","","","","","","","","","","","","","","","","","","","","","","","","","","",""
"4276","","text","13","53238","0.0-12.0","69753694","wem/bandit_either","A1BWR5RBQDZQ16","either","4","32","","","","","","","","","","","","","","","","","","","","","","","","","","","","","","","","","","",""
"2898","","bandit","14","57645","0.0-13.0-0.0","69753694","wem/bandit_either","A1BWR5RBQDZQ16","either","4","","","","","","","0","0","1","0","0","","","","","0","","","","0","","","","","","","","","","74","J","0","img/none_selected_demo.jpg","true","0",""
"933","","bandit","15","60085","0.0-14.0-0.0","69753694","wem/bandit_either","A1BWR5RBQDZQ16","either","4","","","","","","","0","0","1","0","0","","","","","0","","","","0","","","","","","","","","","75","K","0","img/none_selected_demo.jpg","true","0",""
"1911","","text","16","61998","0.0-15.0","69753694","wem/bandit_either","A1BWR5RBQDZQ16","either","4","32","","","","","","","","","","","","","","","","","","","","","","","","","","","","","","","","","","",""
"597","","text","17","62598","0.0-16.0","69753694","wem/bandit_either","A1BWR5RBQDZQ16","either","4","32","","","","","","","","","","","","","","","","","","","","","","","","","","","","","","","","","","",""
"966","","text","18","63566","0.0-17.0","69753694","wem/bandit_either","A1BWR5RBQDZQ16","either","4","32","","","","","","","","","","","","","","","","","","","","","","","","","","","","","","","","","","",""
"678","","text","19","64246","0.0-18.0","69753694","wem/bandit_either","A1BWR5RBQDZQ16","either","4","32","","","","","","","","","","","","","","","","","","","","","","","","","","","","","","","","","","",""
"629","","bandit","20","66381","0.0-19.0-0.0","69753694","wem/bandit_either","A1BWR5RBQDZQ16","either","4","","","","","","","0","0","1","0.2","","0.5","0.5","","","","","","","0.8","0.2","","","","","","","","","75","K","1","","true","0","80_20_practice"
"365","","bandit","21","68252","0.0-19.0-1.0","69753694","wem/bandit_either","A1BWR5RBQDZQ16","either","4","","","","","","","0","1","0","","0.8","0.5","0.5","","","0.8","0.2","","","","","","","","","","","","","74","J","0","img/none_selected_demo.jpg","true","0","80_20_practice"
"406","","bandit","22","70162","0.0-19.0-2.0","69753694","wem/bandit_either","A1BWR5RBQDZQ16","either","4","","","","","","","0","1","0","","0.8","0.5","0.5","","","0.8","0.2","","","","","","","","","","","","","74","J","0","img/none_selected_demo.jpg","true","0","80_20_practice"
"382","","bandit","23","72052","0.0-19.0-3.0","69753694","wem/bandit_either","A1BWR5RBQDZQ16","either","4","","","","","","","1","0","0","0.2","","0.5","0.5","","","","","","","0.8","0.2","","","","","","","","","75","K","1","","true","0","80_20_practice"
"406","","bandit","24","73963","0.0-19.0-4.0","69753694","wem/bandit_either","A1BWR5RBQDZQ16","either","4","","","","","","","0","1","0","","0.2","0.5","0.5","","","0.8","0.2","","","","","","","","","","","","","75","K","1","","true","0","80_20_practice"
"366","","bandit","25","75835","0.0-19.0-5.0","69753694","wem/bandit_either","A1BWR5RBQDZQ16","either","4","","","","","","","0","1","0","","0.2","0.5","0.5","","","0.8","0.2","","","","","","","","","","","","","75","K","1","","true","0","80_20_practice"
"199","","bandit","26","77538","0.0-19.0-6.0","69753694","wem/bandit_either","A1BWR5RBQDZQ16","either","4","","","","","","","0","0","1","","0.2","0.5","0.5","","","0.8","0.2","","","","","","","","","","","","","75","K","1","","true","0","80_20_practice"
"477","","bandit","27","79523","0.0-19.0-7.0","69753694","wem/bandit_either","A1BWR5RBQDZQ16","either","4","","","","","","","0","0","1","0.8","","0.5","0.5","","","","","","","0.8","0.2","","","","","","","","","74","J","0","img/none_selected_demo.jpg","true","0","80_20_practice"
"391","","bandit","28","81419","0.0-19.0-8.0","69753694","wem/bandit_either","A1BWR5RBQDZQ16","either","4","","","","","","","0","1","0","","0.8","0.5","0.5","","","0.8","0.2","","","","","","","","","","","","","74","J","0","img/none_selected_demo.jpg","true","0","80_20_practice"
"38","","bandit","29","82962","0.0-19.0-9.0","69753694","wem/bandit_either","A1BWR5RBQDZQ16","either","4","","","","","","","0","1","0","","0.8","0.5","0.5","","","0.8","0.2","","","","","","","","","","","","","74","J","0","img/none_selected_demo.jpg","true","0","80_20_practice"
"189","","bandit","30","84660","0.0-19.0-10.0","69753694","wem/bandit_either","A1BWR5RBQDZQ16","either","4","","","","","","","0","1","0","","0.8","0.5","0.5","","","0.8","0.2","","","","","","","","","","","","","74","J","0","img/none_selected_demo.jpg","true","0","80_20_practice"
"285","","bandit","31","86452","0.0-19.0-11.0","69753694","wem/bandit_either","A1BWR5RBQDZQ16","either","4","","","","","","","0","0","1","","0.8","0.5","0.5","","","0.8","0.2","","","","","","","","","","","","","74","J","0","img/none_selected_demo.jpg","true","0","80_20_practice"
"86","","bandit","32","88044","0.0-19.0-12.0","69753694","wem/bandit_either","A1BWR5RBQDZQ16","either","4","","","","","","","0","0","1","","0.2","0.5","0.5","","","0.8","0.2","","","","","","","","","","","","","75","K","1","","true","0","80_20_practice"
"582","","bandit","33","90131","0.0-19.0-13.0","69753694","wem/bandit_either","A1BWR5RBQDZQ16","either","4","","","","","","","0","0","1","0.2","","0.5","0.5","","","","","","","0.8","0.2","","","","","","","","","75","K","1","","true","0","80_20_practice"
"228","","bandit","34","91872","0.0-19.0-14.0","69753694","wem/bandit_either","A1BWR5RBQDZQ16","either","4","","","","","","","0","0","1","0.2","","0.5","0.5","","","","","","","0.8","0.2","","","","","","","","","75","K","1","","true","0","80_20_practice"
"1554","","bandit","35","94933","0.0-19.0-15.0","69753694","wem/bandit_either","A1BWR5RBQDZQ16","either","4","","","","","","","1","0","0","0.2","","0.5","0.5","","","","","","","0.8","0.2","","","","","","","","","75","K","1","","true","0","80_20_practice"
"669","","bandit","36","97107","0.0-19.0-16.0","69753694","wem/bandit_either","A1BWR5RBQDZQ16","either","4","","","","","","","0","1","0","","0.8","0.5","0.5","","","0.8","0.2","","","","","","","","","","","","","74","J","0","img/none_selected_demo.jpg","true","0","80_20_practice"
"662","","bandit","37","99276","0.0-19.0-17.0","69753694","wem/bandit_either","A1BWR5RBQDZQ16","either","4","","","","","","","1","0","0","0.8","","0.5","0.5","","","","","","","0.8","0.2","","","","","","","","","74","J","0","img/none_selected_demo.jpg","true","0","80_20_practice"
"565","","bandit","38","101346","0.0-19.0-18.0","69753694","wem/bandit_either","A1BWR5RBQDZQ16","either","4","","","","","","","0","0","1","","0.2","0.5","0.5","","","0.8","0.2","","","","","","","","","","","","","75","K","1","","true","0","80_20_practice"
"328","","bandit","39","103178","0.0-19.0-19.0","69753694","wem/bandit_either","A1BWR5RBQDZQ16","either","4","","","","","","","1","0","0","0.2","","0.5","0.5","","","","","","","0.8","0.2","","","","","","","","","75","K","1","","true","0","80_20_practice"
"3833","","text","40","107014","0.0-20.0","69753694","wem/bandit_either","A1BWR5RBQDZQ16","either","4","32","","","","","","","","","","","","","","","","","","","","","","","","","","","","","","","","","","",""
"1635","","bandit","41","110154","0.0-21.0-0.0","69753694","wem/bandit_either","A1BWR5RBQDZQ16","either","4","","","","","","","0","1","0","0","1","","","","","0","1","","","1","0","","","","","","","","","75","K","1","","true","0",""
"215","","text","42","110374","0.0-22.0","69753694","wem/bandit_either","A1BWR5RBQDZQ16","either","4","74","","","","","","","","","","","","","","","","","","","","","","","","","","","","","","","","","","",""
"1981","","text","43","112358","0.0-23.0","69753694","wem/bandit_either","A1BWR5RBQDZQ16","either","4","32","","","","","","","","","","","","","","","","","","","","","","","","","","","","","","","","","","",""
"375","","text","44","112736","0.0-24.0","69753694","wem/bandit_either","A1BWR5RBQDZQ16","either","4","32","","","","","","","","","","","","","","","","","","","","","","","","","","","","","","","","","","",""
"394","","text","45","113133","0.0-25.0","69753694","wem/bandit_either","A1BWR5RBQDZQ16","either","4","32","","","","","","","","","","","","","","","","","","","","","","","","","","","","","","","","","","",""
"493","","text","46","113630","0.0-26.0","69753694","wem/bandit_either","A1BWR5RBQDZQ16","either","4","32","","","","","","","","","","","","","","","","","","","","","","","","","","","","","","","","","","",""
"1965","","text","47","115598","0.0-27.0","69753694","wem/bandit_either","A1BWR5RBQDZQ16","either","4","32","","","","","","","","","","","","","","","","","","","","","","","","","","","","","","","","","","",""
"573","","text","48","116174","0.0-28.0","69753694","wem/bandit_either","A1BWR5RBQDZQ16","either","4","32","","","","","","","","","","","","","","","","","","","","","","","","","","","","","","","","","","",""
"1016","","text","49","117193","0.0-29.0","69753694","wem/bandit_either","A1BWR5RBQDZQ16","either","4","32","","","","","","","","","","","","","","","","","","","","","","","","","","","","","","","","","","",""
"688","","text","50","117887","0.0-30.0","69753694","wem/bandit_either","A1BWR5RBQDZQ16","either","4","32","","","","","","","","","","","","","","","","","","","","","","","","","","","","","","","","","","",""
"779","","text","51","118672","0.0-31.0","69753694","wem/bandit_either","A1BWR5RBQDZQ16","either","4","32","","","","","","","","","","","","","","","","","","","","","","","","","","","","","","","","","","",""
"3194","","text","52","121872","0.0-32.0","69753694","wem/bandit_either","A1BWR5RBQDZQ16","either","4","32","","","","","","","","","","","","","","","","","","","","","","","","","","","","","","","","","","",""
"1447","","bandit","53","124836","0.0-33.0-0.0","69753694","wem/bandit_either","A1BWR5RBQDZQ16","either","4","","","","","","","0","1","0","","0.8","0.5","0.5","0.5","0.5","0.8","0.2","0.6","0.2","","","","","","","","","","","72","H","0","img/none_selected.jpg","true","0","full_practice"
"356","","bandit","54","126700","0.0-33.0-1.0","69753694","wem/bandit_either","A1BWR5RBQDZQ16","either","4","","","","","","","0","0","1","0.6","","0.5","0.5","0.5","0.5","","","","","0.8","0.2","0.6","0.2","","","","","","","75","K","2","","true","0","full_practice"
"297","","bandit","55","128508","0.0-33.0-2.0","69753694","wem/bandit_either","A1BWR5RBQDZQ16","either","4","","","","","","","1","0","0","0.2","","0.5","0.5","0.5","0.5","","","","","0.8","0.2","0.6","0.2","","","","","","","74","J","1","","true","0","full_practice"
"383","","bandit","56","130400","0.0-33.0-3.0","69753694","wem/bandit_either","A1BWR5RBQDZQ16","either","4","","","","","","","0","0","1","","0.2","0.5","0.5","0.5","0.5","0.8","0.2","0.6","0.2","","","","","","","","","","","76","L","3","","true","0","full_practice"
"338","","bandit","57","132246","0.0-33.0-4.0","69753694","wem/bandit_either","A1BWR5RBQDZQ16","either","4","","","","","","","1","0","0","0.8","","0.5","0.5","0.5","0.5","","","","","0.8","0.2","0.6","0.2","","","","","","","72","H","0","img/none_selected.jpg","true","0","full_practice"
"205","","bandit","58","133959","0.0-33.0-5.0","69753694","wem/bandit_either","A1BWR5RBQDZQ16","either","4","","","","","","","1","0","0","0.6","","0.5","0.5","0.5","0.5","","","","","0.8","0.2","0.6","0.2","","","","","","","75","K","2","","true","0","full_practice"
"421","","bandit","59","135892","0.0-33.0-6.0","69753694","wem/bandit_either","A1BWR5RBQDZQ16","either","4","","","","","","","0","0","1","0.2","","0.5","0.5","0.5","0.5","","","","","0.8","0.2","0.6","0.2","","","","","","","76","L","3","","true","0","full_practice"
"525","","bandit","60","137928","0.0-33.0-7.0","69753694","wem/bandit_either","A1BWR5RBQDZQ16","either","4","","","","","","","1","0","0","0.8","","0.5","0.5","0.5","0.5","","","","","0.8","0.2","0.6","0.2","","","","","","","72","H","0","img/none_selected.jpg","true","0","full_practice"
"357","","bandit","61","139798","0.0-33.0-8.0","69753694","wem/bandit_either","A1BWR5RBQDZQ16","either","4","","","","","","","0","0","1","","0.2","0.5","0.5","0.5","0.5","0.8","0.2","0.6","0.2","","","","","","","","","","","74","J","1","","true","0","full_practice"
"264","","bandit","62","141577","0.0-33.0-9.0","69753694","wem/bandit_either","A1BWR5RBQDZQ16","either","4","","","","","","","0","1","0","","0.8","0.5","0.5","0.5","0.5","0.8","0.2","0.6","0.2","","","","","","","","","","","72","H","0","img/none_selected.jpg","true","0","full_practice"
"191","","bandit","63","143279","0.0-33.0-10.0","69753694","wem/bandit_either","A1BWR5RBQDZQ16","either","4","","","","","","","0","0","1","0.2","","0.5","0.5","0.5","0.5","","","","","0.8","0.2","0.6","0.2","","","","","","","76","L","3","","true","0","full_practice"
"140","","bandit","64","144932","0.0-33.0-11.0","69753694","wem/bandit_either","A1BWR5RBQDZQ16","either","4","","","","","","","0","1","0","","0.8","0.5","0.5","0.5","0.5","0.8","0.2","0.6","0.2","","","","","","","","","","","72","H","0","img/none_selected.jpg","true","0","full_practice"
"299","","bandit","65","146743","0.0-33.0-12.0","69753694","wem/bandit_either","A1BWR5RBQDZQ16","either","4","","","","","","","1","0","0","0.8","","0.5","0.5","0.5","0.5","","","","","0.8","0.2","0.6","0.2","","","","","","","72","H","0","img/none_selected.jpg","true","0","full_practice"
"342","","bandit","66","148597","0.0-33.0-13.0","69753694","wem/bandit_either","A1BWR5RBQDZQ16","either","4","","","","","","","0","0","1","","0.2","0.5","0.5","0.5","0.5","0.8","0.2","0.6","0.2","","","","","","","","","","","76","L","3","","true","0","full_practice"
"298","","bandit","67","150413","0.0-33.0-14.0","69753694","wem/bandit_either","A1BWR5RBQDZQ16","either","4","","","","","","","0","1","0","","0.6","0.5","0.5","0.5","0.5","0.8","0.2","0.6","0.2","","","","","","","","","","","75","K","2","","true","0","full_practice"
"440","","bandit","68","152371","0.0-33.0-15.0","69753694","wem/bandit_either","A1BWR5RBQDZQ16","either","4","","","","","","","0","0","1","0.6","","0.5","0.5","0.5","0.5","","","","","0.8","0.2","0.6","0.2","","","","","","","75","K","2","","true","0","full_practice"
"297","","bandit","69","154181","0.0-33.0-16.0","69753694","wem/bandit_either","A1BWR5RBQDZQ16","either","4","","","","","","","0","0","1","0.2","","0.5","0.5","0.5","0.5","","","","","0.8","0.2","0.6","0.2","","","","","","","76","L","3","","true","0","full_practice"
"208","","bandit","70","155896","0.0-33.0-17.0","69753694","wem/bandit_either","A1BWR5RBQDZQ16","either","4","","","","","","","0","0","1","0.2","","0.5","0.5","0.5","0.5","","","","","0.8","0.2","0.6","0.2","","","","","","","74","J","1","","true","0","full_practice"
"144","","bandit","71","157547","0.0-33.0-18.0","69753694","wem/bandit_either","A1BWR5RBQDZQ16","either","4","","","","","","","1","0","0","0.8","","0.5","0.5","0.5","0.5","","","","","0.8","0.2","0.6","0.2","","","","","","","72","H","0","img/none_selected.jpg","true","0","full_practice"
"433","","bandit","72","159495","0.0-33.0-19.0","69753694","wem/bandit_either","A1BWR5RBQDZQ16","either","4","","","","","","","1","0","0","0.8","","0.5","0.5","0.5","0.5","","","","","0.8","0.2","0.6","0.2","","","","","","","72","H","0","img/none_selected.jpg","true","0","full_practice"
"2068","","text","73","161583","0.0-34.0","69753694","wem/bandit_either","A1BWR5RBQDZQ16","either","4","32","","","","","","","","","","","","","","","","","","","","","","","","","","","","","","","","","","",""
"2316","","text","74","164904","0.0-35.0","69753694","wem/bandit_either","A1BWR5RBQDZQ16","either","4","32","","","","","","","","","","","","","","","","","","","","","","","","","","","","","","","","","","",""
"615","","text","75","165526","0.0-36.0","69753694","wem/bandit_either","A1BWR5RBQDZQ16","either","4","32","","","","","","","","","","","","","","","","","","","","","","","","","","","","","","","","","","",""
"1213","","text","76","166743","0.0-37.0","69753694","wem/bandit_either","A1BWR5RBQDZQ16","either","4","32","","","","","","","","","","","","","","","","","","","","","","","","","","","","","","","","","","",""
"1633","","text","77","168383","0.0-38.0","69753694","wem/bandit_either","A1BWR5RBQDZQ16","either","4","32","","","","","","","","","","","","","","","","","","","","","","","","","","","","","","","","","","",""
"5058","","text","78","173449","0.0-39.0","69753694","wem/bandit_either","A1BWR5RBQDZQ16","either","4","32","","","","","","","","","","","","","","","","","","","","","","","","","","","","","","","","","","",""
"729","","bandit","79","175697","0.0-40.0-0.0","69753694","wem/bandit_either","A1BWR5RBQDZQ16","either","4","","","","","","","0","0","1","","0.3894728165","0.2","0.8","0.6","0.4","0.3894728165","0.2771551185","0.3242650943","0.3525715257","","","","","","","","","","","72","H","0","img/none_selected.jpg","","1","main_expt"
"297","","bandit","80","177512","0.0-41.0-0.0","69753694","wem/bandit_either","A1BWR5RBQDZQ16","either","4","","","","","","","0","0","1","0.3296228245","","0.2","0.8","0.6","0.4","","","","","0.363660736","0.3030893157","0.3296228245","0.390153736","","","","","","","75","K","2","","","2","main_expt"
"347","","bandit","81","179375","0.0-42.0-0.0","69753694","wem/bandit_either","A1BWR5RBQDZQ16","either","4","","","","","","","0","0","1","","0.3102780753","0.2","0.8","0.6","0.4","0.3842171554","0.3211059343","0.3102780753","0.3725447061","","","","","","","","","","","75","K","2","","","3","main_expt"
"349","","bandit","82","181238","0.0-43.0-0.0","69753694","wem/bandit_either","A1BWR5RBQDZQ16","either","4","","","","","","","0","0","1","0.3431524481","","0.2","0.8","0.6","0.4","","","","","0.3831963053","0.2804386453","0.2749892112","0.3431524481","","","","","","","76","L","3","","","4","main_expt"
"318","","bandit","83","183069","0.0-44.0-0.0","69753694","wem/bandit_either","A1BWR5RBQDZQ16","either","4","","","","","","","0","0","1","0.2609559086","","0.2","0.8","0.6","0.4","","","","","0.4056596471","0.2609559086","0.3037824898","0.3448007793","","","","","","","74","J","1","","","5","main_expt"
"325","","bandit","84","184902","0.0-45.0-0.0","69753694","wem/bandit_either","A1BWR5RBQDZQ16","either","4","","","","","","","0","0","1","","0.2259287768","0.2","0.8","0.6","0.4","0.4409946319","0.2259287768","0.3217417103","0.3980888019","","","","","","","","","","","74","J","1","","","6","main_expt"
"25","","bandit","85","186438","0.0-46.0-0.0","69753694","wem/bandit_either","A1BWR5RBQDZQ16","either","4","","","","","","","0","0","1","0.2433618728","","0.2","0.8","0.6","0.4","","","","","0.3821747998","0.2433618728","0.3018715163","0.3693121862","","","","","","","74","J","1","","","7","main_expt"
"269","","bandit","86","188221","0.0-47.0-0.0","69753694","wem/bandit_either","A1BWR5RBQDZQ16","either","4","","","","","","","0","0","1","","0.3841844813","0.2","0.8","0.6","0.4","0.3841844813","0.2025356769","0.3643645816","0.2933697555","","","","","","","","","","","72","H","0","img/none_selected.jpg","","8","main_expt"
"300","","bandit","87","190029","0.0-48.0-0.0","69753694","wem/bandit_either","A1BWR5RBQDZQ16","either","4","","","","","","","0","0","1","","0.3412237964","0.2","0.8","0.6","0.4","0.3412237964","0.1441028094","0.3418610374","0.3036212831","","","","","","","","","","","72","H","0","img/none_selected.jpg","","9","main_expt"
"404","","bandit","88","191944","0.0-49.0-0.0","69753694","wem/bandit_either","A1BWR5RBQDZQ16","either","4","","","","","","","0","1","0","","0.3256420777","0.2","0.8","0.6","0.4","0.3256420777","0.1736005971","0.3190157878","0.308020301","","","","","","","","","","","72","H","0","img/none_selected.jpg","","10","main_expt"
"556","","bandit","89","194016","0.0-50.0-0.0","69753694","wem/bandit_either","A1BWR5RBQDZQ16","either","4","","","","","","","1","0","0","0.3065973113","","0.2","0.8","0.6","0.4","","","","","0.3514007431","0.1836365694","0.2998731478","0.3065973113","","","","","","","76","L","3","","","11","main_expt"
"303","","bandit","90","195840","0.0-51.0-0.0","69753694","wem/bandit_either","A1BWR5RBQDZQ16","either","4","","","","","","","0","0","1","0.2143869662","","0.2","0.8","0.6","0.4","","","","","0.3722032088","0.2143869662","0.2942822571","0.3271859636","","","","","","","74","J","1","","","12","main_expt"
"218","","bandit","91","197570","0.0-52.0-0.0","69753694","wem/bandit_either","A1BWR5RBQDZQ16","either","4","","","","","","","0","0","1","0.1637139448","","0.2","0.8","0.6","0.4","","","","","0.3681707299","0.1637139448","0.3009212619","0.2761076709","","","","","","","74","J","1","","","13","main_expt"
"402","","bandit","92","199487","0.0-53.0-0.0","69753694","wem/bandit_either","A1BWR5RBQDZQ16","either","4","","","","","","","0","1","0","","0.3528222564","0.2","0.8","0.6","0.4","0.3528222564","0.1488535162","0.3227424667","0.2311164494","","","","","","","","","","","72","H","0","img/none_selected.jpg","","14","main_expt"
"283","","bandit","93","201287","0.0-54.0-0.0","69753694","wem/bandit_either","A1BWR5RBQDZQ16","either","4","","","","","","","0","1","0","","0.3547546862","0.2","0.8","0.6","0.4","0.3738838661","0.1332411271","0.3547546862","0.2905977425","","","","","","","","","","","75","K","2","","","15","main_expt"
"394","","bandit","94","203197","0.0-55.0-0.0","69753694","wem/bandit_either","A1BWR5RBQDZQ16","either","4","","","","","","","0","0","1","","0.2924554969","0.2","0.8","0.6","0.4","0.3385239332","0.09882415698","0.3241157583","0.2924554969","","","","","","","","","","","76","L","3","","","16","main_expt"
"361","","bandit","95","205067","0.0-56.0-0.0","69753694","wem/bandit_either","A1BWR5RBQDZQ16","either","4","","","","","","","0","0","1","","0.3111355138","0.2","0.8","0.6","0.4","0.3111355138","0.1069157009","0.3363410386","0.3114836302","","","","","","","","","","","72","H","0","img/none_selected.jpg","","17","main_expt"
"493","","bandit","96","207079","0.0-57.0-0.0","69753694","wem/bandit_either","A1BWR5RBQDZQ16","either","4","","","","","","","0","1","0","","0.3487767647","0.2","0.8","0.6","0.4","0.3487767647","0.134958137","0.3880947854","0.3215333475","","","","","","","","","","","72","H","0","img/none_selected.jpg","","18","main_expt"
"387","","bandit","97","208984","0.0-58.0-0.0","69753694","wem/bandit_either","A1BWR5RBQDZQ16","either","4","","","","","","","0","0","1","0.1230418706","","0.2","0.8","0.6","0.4","","","","","0.3010303499","0.1230418706","0.4116912081","0.2733398822","","","","","","","74","J","1","","","19","main_expt"
"554","","bandit","98","211046","0.0-59.0-0.0","69753694","wem/bandit_either","A1BWR5RBQDZQ16","either","4","","","","","","","1","0","0","0.09866604889","","0.2","0.8","0.6","0.4","","","","","0.2907203997","0.09866604889","0.3973894305","0.2351410235","","","","","","","74","J","1","","","20","main_expt"
"332","","bandit","99","212893","0.0-60.0-0.0","69753694","wem/bandit_either","A1BWR5RBQDZQ16","either","4","","","","","","","0","0","1","0.1021222834","","0.2","0.8","0.6","0.4","","","","","0.3088108907","0.1021222834","0.369037109","0.2257810982","","","","","","","74","J","1","","","21","main_expt"
"197","","bandit","100","214607","0.0-61.0-0.0","69753694","wem/bandit_either","A1BWR5RBQDZQ16","either","4","","","","","","","0","0","1","","0.2221856846","0.2","0.8","0.6","0.4","0.349202701","0.1234138809","0.4179468344","0.2221856846","","","","","","","","","","","76","L","3","","","22","main_expt"
"477","","bandit","101","216600","0.0-62.0-0.0","69753694","wem/bandit_either","A1BWR5RBQDZQ16","either","4","","","","","","","0","0","1","","0.2127124712","0.2","0.8","0.6","0.4","0.3785068464","0.1030640584","0.4276062926","0.2127124712","","","","","","","","","","","76","L","3","","","23","main_expt"
"4","","bandit","102","218119","0.0-63.0-0.0","69753694","wem/bandit_either","A1BWR5RBQDZQ16","either","4","","","","","","","0","0","1","0.4078122208","","0.2","0.8","0.6","0.4","","","","","0.4012919653","0.1261035851","0.4078122208","0.1882566648","","","","","","","75","K","2","","","24","main_expt"
"674","","bandit","103","220300","0.0-64.0-0.0","69753694","wem/bandit_either","A1BWR5RBQDZQ16","either","4","","","","","","","1","0","0","0.3950411191","","0.2","0.8","0.6","0.4","","","","","0.400899794","0.1796705612","0.3950411191","0.1273223766","","","","","","","75","K","2","","","25","main_expt"
"397","","bandit","104","222215","0.0-65.0-0.0","69753694","wem/bandit_either","A1BWR5RBQDZQ16","either","4","","","","","","","0","1","0","","0.4126274585","0.2","0.8","0.6","0.4","0.4126274585","0.2414651519","0.4322303329","0.15747458","","","","","","","","","","","72","H","0","img/none_selected.jpg","","26","main_expt"
"279","","bandit","105","224014","0.0-66.0-0.0","69753694","wem/bandit_either","A1BWR5RBQDZQ16","either","4","","","","","","","0","0","1","","0.3992263875","0.2","0.8","0.6","0.4","0.3992263875","0.2005374927","0.4353643722","0.1442684908","","","","","","","","","","","72","H","0","img/none_selected.jpg","","27","main_expt"
"293","","bandit","106","225830","0.0-67.0-0.0","69753694","wem/bandit_either","A1BWR5RBQDZQ16","either","4","","","","","","","0","0","1","","0.2255404594","0.2","0.8","0.6","0.4","0.3846584236","0.3197257227","0.4464017809","0.2255404594","","","","","","","","","","","76","L","3","","","28","main_expt"
"274","","bandit","107","227623","0.0-68.0-0.0","69753694","wem/bandit_either","A1BWR5RBQDZQ16","either","4","","","","","","","0","0","1","0.4417109462","","0.2","0.8","0.6","0.4","","","","","0.3561298134","0.3141869899","0.4417109462","0.2730951691","","","","","","","75","K","2","","","29","main_expt"
"49","","bandit","108","229190","0.0-69.0-0.0","69753694","wem/bandit_either","A1BWR5RBQDZQ16","either","4","","","","","","","1","0","0","0.3445991012","","0.2","0.8","0.6","0.4","","","","","0.3101363315","0.3445991012","0.4065908859","0.2890412698","","","","","","","74","J","1","","","30","main_expt"
"568","","bandit","109","231271","0.0-70.0-0.0","69753694","wem/bandit_either","A1BWR5RBQDZQ16","either","4","","","","","","","0","1","0","","0.3954582793","0.2","0.8","0.6","0.4","0.3322219809","0.3456655029","0.3954582793","0.3309226042","","","","","","","","","","","75","K","2","","","31","main_expt"
"307","","bandit","110","233097","0.0-71.0-0.0","69753694","wem/bandit_either","A1BWR5RBQDZQ16","either","4","","","","","","","0","0","1","0.3519301717","","0.2","0.8","0.6","0.4","","","","","0.3516269472","0.3826172224","0.3716723047","0.3519301717","","","","","","","76","L","3","","","32","main_expt"
"255","","bandit","111","234870","0.0-72.0-0.0","69753694","wem/bandit_either","A1BWR5RBQDZQ16","either","4","","","","","","","0","1","0","","0.3852085553","0.2","0.8","0.6","0.4","0.3852085553","0.3804083149","0.3799724366","0.3414953842","","","","","","","","","","","72","H","0","img/none_selected.jpg","","33","main_expt"
"323","","bandit","112","236712","0.0-73.0-0.0","69753694","wem/bandit_either","A1BWR5RBQDZQ16","either","4","","","","","","","1","0","0","0.3808178469","","0.2","0.8","0.6","0.4","","","","","0.4196644934","0.3808178469","0.409480615","0.2938412915","","","","","","","74","J","1","","","34","main_expt"
"121","","bandit","113","238351","0.0-74.0-0.0","69753694","wem/bandit_either","A1BWR5RBQDZQ16","either","4","","","","","","","0","1","0","","0.3869649509","0.2","0.8","0.6","0.4","0.420891004","0.376129724","0.3869649509","0.2256616696","","","","","","","","","","","75","K","2","","","35","main_expt"
"70","","bandit","114","239943","0.0-75.0-0.0","69753694","wem/bandit_either","A1BWR5RBQDZQ16","either","4","","","","","","","0","0","1","","0.2525957923","0.2","0.8","0.6","0.4","0.3808881167","0.4027809904","0.3045389962","0.2525957923","","","","","","","","","","","76","L","3","","","36","main_expt"
"106","","bandit","115","241570","0.0-76.0-0.0","69753694","wem/bandit_either","A1BWR5RBQDZQ16","either","4","","","","","","","0","0","1","","0.3634360393","0.2","0.8","0.6","0.4","0.3634360393","0.3715556026","0.2954217214","0.2333373749","","","","","","","","","","","72","H","0","img/none_selected.jpg","","37","main_expt"
"139","","bandit","116","243222","0.0-77.0-0.0","69753694","wem/bandit_either","A1BWR5RBQDZQ16","either","4","","","","","","","0","0","1","","0.354842885","0.2","0.8","0.6","0.4","0.3432691328","0.354842885","0.2749906923","0.2126884676","","","","","","","","","","","74","J","1","","","38","main_expt"
"42","","bandit","117","244781","0.0-78.0-0.0","69753694","wem/bandit_either","A1BWR5RBQDZQ16","either","4","","","","","","","0","0","1","0.2911873598","","0.2","0.8","0.6","0.4","","","","","0.3113322025","0.3066825603","0.2911873598","0.212498526","","","","","","","75","K","2","","","39","main_expt"
"1235","","bandit","118","247527","0.0-79.0-0.0","69753694","wem/bandit_either","A1BWR5RBQDZQ16","either","4","","","","","","","1","0","0","0.2031275136","","0.2","0.8","0.6","0.4","","","","","0.3298138996","0.3208648015","0.3066149412","0.2031275136","","","","","","","76","L","3","","","40","main_expt"
"407","","bandit","119","249459","0.0-80.0-0.0","69753694","wem/bandit_either","A1BWR5RBQDZQ16","either","4","","","","","","","0","0","1","0.3590557929","","0.2","0.8","0.6","0.4","","","","","0.3590557929","0.2774570704","0.2612722093","0.2409224204","","","","","","","72","H","0","img/none_selected.jpg","","41","main_expt"
"132","","bandit","120","251108","0.0-81.0-0.0","69753694","wem/bandit_either","A1BWR5RBQDZQ16","either","4","","","","","","","0","0","1","","0.3455434044","0.2","0.8","0.6","0.4","0.3455434044","0.3092882543","0.2579482203","0.2166695961","","","","","","","","","","","72","H","0","img/none_selected.jpg","","42","main_expt"
"155","","bandit","121","252777","0.0-82.0-0.0","69753694","wem/bandit_either","A1BWR5RBQDZQ16","either","4","","","","","","","1","0","0","0.4020043176","","0.2","0.8","0.6","0.4","","","","","0.4020043176","0.3161251671","0.2232302517","0.2314197793","","","","","","","72","H","0","img/none_selected.jpg","","43","main_expt"
"341","","bandit","122","254638","0.0-83.0-0.0","69753694","wem/bandit_either","A1BWR5RBQDZQ16","either","4","","","","","","","0","0","1","0.3032549762","","0.2","0.8","0.6","0.4","","","","","0.4088695108","0.3032549762","0.2435669349","0.1889371852","","","","","","","74","J","1","","","44","main_expt"
"144","","bandit","123","256303","0.0-84.0-0.0","69753694","wem/bandit_either","A1BWR5RBQDZQ16","either","4","","","","","","","0","0","1","0.1885724617","","0.2","0.8","0.6","0.4","","","","","0.3914045207","0.3012359134","0.1885724617","0.2152104473","","","","","","","75","K","2","","","45","main_expt"
"434","","bandit","124","258246","0.0-85.0-0.0","69753694","wem/bandit_either","A1BWR5RBQDZQ16","either","4","","","","","","","0","0","1","","0.2260726972","0.2","0.8","0.6","0.4","0.3682142312","0.2994346937","0.104230756","0.2260726972","","","","","","","","","","","76","L","3","","","46","main_expt"
"792","","bandit","125","260559","0.0-86.0-0.0","69753694","wem/bandit_either","A1BWR5RBQDZQ16","either","4","","","","","","","0","0","1","0.2330399618","","0.2","0.8","0.6","0.4","","","","","0.3462276735","0.3169549043","0.09013225529","0.2330399618","","","","","","","76","L","3","","","47","main_expt"
"98","","bandit","126","262167","0.0-87.0-0.0","69753694","wem/bandit_either","A1BWR5RBQDZQ16","either","4","","","","","","","0","0","1","","0.1066227192","0.2","0.8","0.6","0.4","0.3501405617","0.3137179834","0.1066227192","0.2769685944","","","","","","","","","","","75","K","2","","","48","main_expt"
"224","","bandit","127","263906","0.0-88.0-0.0","69753694","wem/bandit_either","A1BWR5RBQDZQ16","either","4","","","","","","","0","0","1","0.3026837323","","0.2","0.8","0.6","0.4","","","","","0.3607669766","0.3026837323","0.1273062614","0.2954986192","","","","","","","74","J","1","","","49","main_expt"
"676","","bandit","128","266103","0.0-89.0-0.0","69753694","wem/bandit_either","A1BWR5RBQDZQ16","either","4","","","","","","","0","1","0","","0.3776327681","0.2","0.8","0.6","0.4","0.3776327681","0.2690248343","0.08158159543","0.2730110453","","","","","","","","","","","72","H","0","img/none_selected.jpg","","50","main_expt"
"432","","bandit","129","268055","0.0-90.0-0.0","69753694","wem/bandit_either","A1BWR5RBQDZQ16","either","4","","","","","","","0","0","1","","0.3922012959","0.2","0.8","0.6","0.4","0.3922012959","0.2407215714","0.08035098666","0.2672659715","","","","","","","","","","","72","H","0","img/none_selected.jpg","","51","main_expt"
"125","","bandit","130","269701","0.0-91.0-0.0","69753694","wem/bandit_either","A1BWR5RBQDZQ16","either","4","","","","","","","1","0","0","0.2552972095","","0.2","0.8","0.6","0.4","","","","","0.3532085343","0.2758158767","0.1007468434","0.2552972095","","","","","","","76","L","3","","","52","main_expt"
"66","","bandit","131","271278","0.0-92.0-0.0","69753694","wem/bandit_either","A1BWR5RBQDZQ16","either","4","","","","","","","0","0","1","","0.1479770317","0.2","0.8","0.6","0.4","0.3597378762","0.2661511239","0.1479770317","0.1954439593","","","","","","","","","","","75","K","2","","","53","main_expt"
"435","","bandit","132","273228","0.0-93.0-0.0","69753694","wem/bandit_either","A1BWR5RBQDZQ16","either","4","","","","","","","0","0","1","","0.1450389045","0.2","0.8","0.6","0.4","0.3553644404","0.250303373","0.1450389045","0.1250298759","","","","","","","","","","","75","K","2","","","54","main_expt"
"552","","bandit","133","275293","0.0-94.0-0.0","69753694","wem/bandit_either","A1BWR5RBQDZQ16","either","4","","","","","","","0","0","1","0.1224949652","","0.2","0.8","0.6","0.4","","","","","0.3427354451","0.1850572083","0.1678096349","0.1224949652","","","","","","","76","L","3","","","55","main_expt"
"73","","bandit","134","276887","0.0-95.0-0.0","69753694","wem/bandit_either","A1BWR5RBQDZQ16","either","4","","","","","","","0","0","1","","0.3158877586","0.2","0.8","0.6","0.4","0.3158877586","0.2410157884","0.1748395718","0.1312048923","","","","","","","","","","","72","H","0","img/none_selected.jpg","","56","main_expt"
"111","","bandit","135","278509","0.0-96.0-0.0","69753694","wem/bandit_either","A1BWR5RBQDZQ16","either","4","","","","","","","0","0","1","0.2657224069","","0.2","0.8","0.6","0.4","","","","","0.3224611445","0.2657224069","0.146986137","0.14452077","","","","","","","74","J","1","","","57","main_expt"
"331","","bandit","136","280359","0.0-97.0-0.0","69753694","wem/bandit_either","A1BWR5RBQDZQ16","either","4","","","","","","","0","0","1","0.3378672788","","0.2","0.8","0.6","0.4","","","","","0.3378672788","0.2361308133","0.1316135006","0.1198415177","","","","","","","72","H","0","img/none_selected.jpg","","58","main_expt"
"382","","bandit","137","282260","0.0-98.0-0.0","69753694","wem/bandit_either","A1BWR5RBQDZQ16","either","4","","","","","","","0","0","1","","0.1674914914","0.2","0.8","0.6","0.4","0.3438075972","0.2078360154","0.1776120447","0.1674914914","","","","","","","","","","","76","L","3","","","59","main_expt"
"793","","bandit","138","284567","0.0-99.0-0.0","69753694","wem/bandit_either","A1BWR5RBQDZQ16","either","4","","","","","","","0","0","1","0.2034864675","","0.2","0.8","0.6","0.4","","","","","0.2950987239","0.2256957235","0.2034864675","0.147959707","","","","","","","75","K","2","","","60","main_expt"
"1359","","bandit","139","287446","0.0-100.0-0.0","69753694","wem/bandit_either","A1BWR5RBQDZQ16","either","4","","","","","","","0","0","1","","0.1217284172","0.2","0.8","0.6","0.4","0.2939622289","0.2713547376","0.1325668513","0.1217284172","","","","","","","","","","","76","L","3","","","61","main_expt"
"306","","bandit","140","289271","0.0-101.0-0.0","69753694","wem/bandit_either","A1BWR5RBQDZQ16","either","4","","","","","","","1","0","0","0.2800078023","","0.2","0.8","0.6","0.4","","","","","0.2907096119","0.2800078023","0.125492747","0.1392905859","","","","","","","74","J","1","","","62","main_expt"
"465","","bandit","141","291245","0.0-102.0-0.0","69753694","wem/bandit_either","A1BWR5RBQDZQ16","either","4","","","","","","","1","0","0","0.362183352","","0.2","0.8","0.6","0.4","","","","","0.2696382907","0.362183352","0.1081989139","0.1953314019","","","","","","","74","J","1","","","63","main_expt"
"730","","bandit","142","293487","0.0-103.0-0.0","69753694","wem/bandit_either","A1BWR5RBQDZQ16","either","4","","","","","","","0","1","0","","0.2618523415","0.2","0.8","0.6","0.4","0.2496415039","0.3354395381","0.09104284411","0.2618523415","","","","","","","","","","","76","L","3","","","64","main_expt"
"558","","bandit","143","295567","0.0-104.0-0.0","69753694","wem/bandit_either","A1BWR5RBQDZQ16","either","4","","","","","","","0","1","0","","0.2364994079","0.2","0.8","0.6","0.4","0.2364994079","0.2893845237","0.1264903162","0.2686672798","","","","","","","","","","","72","H","0","img/none_selected.jpg","","65","main_expt"
"394","","bandit","144","297481","0.0-105.0-0.0","69753694","wem/bandit_either","A1BWR5RBQDZQ16","either","4","","","","","","","0","0","1","","0.1665937301","0.2","0.8","0.6","0.4","0.2541683514","0.2355717356","0.1665937301","0.2451656397","","","","","","","","","","","75","K","2","","","66","main_expt"
"694","","bandit","145","299687","0.0-106.0-0.0","69753694","wem/bandit_either","A1BWR5RBQDZQ16","either","4","","","","","","","0","0","1","0.2848755716","","0.2","0.8","0.6","0.4","","","","","0.2985471382","0.2848755716","0.1740025863","0.2445320338","","","","","","","74","J","1","","","67","main_expt"
"247","","bandit","146","301454","0.0-107.0-0.0","69753694","wem/bandit_either","A1BWR5RBQDZQ16","either","4","","","","","","","0","0","1","","0.2261158315","0.2","0.8","0.6","0.4","0.3391290389","0.3341158043","0.2300011382","0.2261158315","","","","","","","","","","","76","L","3","","","68","main_expt"
"587","","bandit","147","303550","0.0-108.0-0.0","69753694","wem/bandit_either","A1BWR5RBQDZQ16","either","4","","","","","","","1","0","0","0.1627286519","","0.2","0.8","0.6","0.4","","","","","0.3114764975","0.3253412689","0.1768594062","0.1627286519","","","","","","","76","L","3","","","69","main_expt"
"422","","bandit","148","305492","0.0-109.0-0.0","69753694","wem/bandit_either","A1BWR5RBQDZQ16","either","4","","","","","","","0","1","0","","0.1301009224","0.2","0.8","0.6","0.4","0.3056328376","0.3280915152","0.1906145184","0.1301009224","","","","","","","","","","","76","L","3","","","70","main_expt"
"444","","bandit","149","307445","0.0-110.0-0.0","69753694","wem/bandit_either","A1BWR5RBQDZQ16","either","4","","","","","","","0","0","1","0.1356707761","","0.2","0.8","0.6","0.4","","","","","0.3445325487","0.3772643828","0.1451664327","0.1356707761","","","","","","","76","L","3","","","71","main_expt"
"432","","bandit","150","309399","0.0-111.0-0.0","69753694","wem/bandit_either","A1BWR5RBQDZQ16","either","4","","","","","","","0","0","1","","0.364612409","0.2","0.8","0.6","0.4","0.364612409","0.4074174212","0.1091447996","0.1045412551","","","","","","","","","","","72","H","0","img/none_selected.jpg","","72","main_expt"
"319","","bandit","151","311240","0.0-112.0-0.0","69753694","wem/bandit_either","A1BWR5RBQDZQ16","either","4","","","","","","","0","0","1","","0.1248737042","0.2","0.8","0.6","0.4","0.4454774056","0.3736299767","0.1248737042","0.0867882282","","","","","","","","","","","75","K","2","","","73","main_expt"
"355","","bandit","152","313118","0.0-113.0-0.0","69753694","wem/bandit_either","A1BWR5RBQDZQ16","either","4","","","","","","","0","0","1","0.1073746888","","0.2","0.8","0.6","0.4","","","","","0.4492830973","0.383211712","0.1073746888","0.1018359722","","","","","","","75","K","2","","","74","main_expt"
"250","","bandit","153","314875","0.0-114.0-0.0","69753694","wem/bandit_either","A1BWR5RBQDZQ16","either","4","","","","","","","0","1","0","","0.09443707336","0.2","0.8","0.6","0.4","0.449321966","0.3681962321","0.1051395745","0.09443707336","","","","","","","","","","","76","L","3","","","75","main_expt"
"489","","bandit","154","316878","0.0-115.0-0.0","69753694","wem/bandit_either","A1BWR5RBQDZQ16","either","4","","","","","","","0","0","1","0.4299726132","","0.2","0.8","0.6","0.4","","","","","0.4299726132","0.3574328021","0.09171451076","0.08768691443","","","","","","","72","H","0","img/none_selected.jpg","","76","main_expt"
"31","","bandit","155","318422","0.0-116.0-0.0","69753694","wem/bandit_either","A1BWR5RBQDZQ16","either","4","","","","","","","0","0","1","","0.1256070833","0.2","0.8","0.6","0.4","0.4349340462","0.4041720962","0.1256070833","0.07744448812","","","","","","","","","","","75","K","2","","","77","main_expt"
"209","","bandit","156","320149","0.0-117.0-0.0","69753694","wem/bandit_either","A1BWR5RBQDZQ16","either","4","","","","","","","0","0","1","0.4000946746","","0.2","0.8","0.6","0.4","","","","","0.4112950215","0.4000946746","0.1398604905","0.05712631425","","","","","","","74","J","1","","","78","main_expt"
"416","","bandit","157","322080","0.0-118.0-0.0","69753694","wem/bandit_either","A1BWR5RBQDZQ16","either","4","","","","","","","0","0","1","","0.03981704588","0.2","0.8","0.6","0.4","0.4123046053","0.425248604","0.1303191282","0.03981704588","","","","","","","","","","","76","L","3","","","79","main_expt"
"315","","bandit","158","323919","0.0-119.0-0.0","69753694","wem/bandit_either","A1BWR5RBQDZQ16","either","4","","","","","","","0","0","1","","0.4345430878","0.2","0.8","0.6","0.4","0.4345430878","0.4263383456","0.1491340647","0.02961196177","","","","","","","","","","","72","H","0","img/none_selected.jpg","","80","main_expt"
"420","","bandit","159","325862","0.0-120.0-0.0","69753694","wem/bandit_either","A1BWR5RBQDZQ16","either","4","","","","","","","0","0","1","","0.4255274095","0.2","0.8","0.6","0.4","0.4255274095","0.4377411966","0.1484119081","0.0408206899","","","","","","","","","","","72","H","0","img/none_selected.jpg","","81","main_expt"
"167","","bandit","160","327551","0.0-121.0-0.0","69753694","wem/bandit_either","A1BWR5RBQDZQ16","either","4","","","","","","","0","1","0","","0.4266934287","0.2","0.8","0.6","0.4","0.4266934287","0.4263216968","0.135460029","0.03491361241","","","","","","","","","","","72","H","0","img/none_selected.jpg","","82","main_expt"
"235","","bandit","161","329311","0.0-122.0-0.0","69753694","wem/bandit_either","A1BWR5RBQDZQ16","either","4","","","","","","","0","0","1","","0.09497461961","0.2","0.8","0.6","0.4","0.4321646522","0.4536492548","0.09497461961","0.01881925386","","","","","","","","","","","75","K","2","","","83","main_expt"
"351","","bandit","162","331183","0.0-123.0-0.0","69753694","wem/bandit_either","A1BWR5RBQDZQ16","either","4","","","","","","","0","0","1","0.03441768066","","0.2","0.8","0.6","0.4","","","","","0.43129245","0.4344769981","0.0956585677","0.03441768066","","","","","","","76","L","3","","","84","main_expt"
"557","","bandit","163","333262","0.0-124.0-0.0","69753694","wem/bandit_either","A1BWR5RBQDZQ16","either","4","","","","","","","0","0","1","","0.4307495417","0.2","0.8","0.6","0.4","0.4307495417","0.4167097255","0.08427930603","0.04015732792","","","","","","","","","","","72","H","0","img/none_selected.jpg","","85","main_expt"
"373","","bandit","164","335159","0.0-125.0-0.0","69753694","wem/bandit_either","A1BWR5RBQDZQ16","either","4","","","","","","","0","1","0","","0.4327415212","0.2","0.8","0.6","0.4","0.4327415212","0.4215971904","0.09540141202","0.0462821445","","","","","","","","","","","72","H","0","img/none_selected.jpg","","86","main_expt"
"444","","bandit","165","337124","0.0-126.0-0.0","69753694","wem/bandit_either","A1BWR5RBQDZQ16","either","4","","","","","","","1","0","0","0.3962725568","","0.2","0.8","0.6","0.4","","","","","0.4507305815","0.3962725568","0.06504543429","0.07236867375","","","","","","","74","J","1","","","87","main_expt"
"689","","bandit","166","339335","0.0-127.0-0.0","69753694","wem/bandit_either","A1BWR5RBQDZQ16","either","4","","","","","","","0","0","1","0.4038430626","","0.2","0.8","0.6","0.4","","","","","0.4571393315","0.4038430626","0.05894337134","0.1132918069","","","","","","","74","J","1","","","88","main_expt"
"336","","bandit","167","341205","0.0-128.0-0.0","69753694","wem/bandit_either","A1BWR5RBQDZQ16","either","4","","","","","","","0","0","1","","0.1466354559","0.2","0.8","0.6","0.4","0.4639779763","0.4247877058","0.06803635399","0.1466354559","","","","","","","","","","","76","L","3","","","89","main_expt"
"552","","bandit","168","343277","0.0-129.0-0.0","69753694","wem/bandit_either","A1BWR5RBQDZQ16","either","4","","","","","","","0","1","0","","0.1746819083","0.2","0.8","0.6","0.4","0.4620017245","0.4196700557","0.09657856289","0.1746819083","","","","","","","","","","","76","L","3","","","90","main_expt"
"271","","bandit","169","345069","0.0-130.0-0.0","69753694","wem/bandit_either","A1BWR5RBQDZQ16","either","4","","","","","","","0","1","0","","0.4492963398","0.2","0.8","0.6","0.4","0.4492963398","0.401758082","0.08522031428","0.1864657318","","","","","","","","","","","72","H","0","img/none_selected.jpg","","91","main_expt"
"49","","bandit","170","346630","0.0-131.0-0.0","69753694","wem/bandit_either","A1BWR5RBQDZQ16","either","4","","","","","","","0","0","1","0.07078380504","","0.2","0.8","0.6","0.4","","","","","0.462009279","0.3422099147","0.07078380504","0.2124622091","","","","","","","75","K","2","","","92","main_expt"
"386","","bandit","171","348544","0.0-132.0-0.0","69753694","wem/bandit_either","A1BWR5RBQDZQ16","either","4","","","","","","","0","0","1","","0.4363090379","0.2","0.8","0.6","0.4","0.4363090379","0.3279059742","0.0564278809","0.245786276","","","","","","","","","","","72","H","0","img/none_selected.jpg","","93","main_expt"
"284","","bandit","172","350352","0.0-133.0-0.0","69753694","wem/bandit_either","A1BWR5RBQDZQ16","either","4","","","","","","","0","1","0","","0.2316759231","0.2","0.8","0.6","0.4","0.4457519602","0.3155724737","0.06067733924","0.2316759231","","","","","","","","","","","76","L","3","","","94","main_expt"
"642","","bandit","173","352518","0.0-134.0-0.0","69753694","wem/bandit_either","A1BWR5RBQDZQ16","either","4","","","","","","","0","0","1","0.2231756969","","0.2","0.8","0.6","0.4","","","","","0.4231248902","0.3519625041","0.08632751489","0.2231756969","","","","","","","76","L","3","","","95","main_expt"
"345","","bandit","174","354374","0.0-135.0-0.0","69753694","wem/bandit_either","A1BWR5RBQDZQ16","either","4","","","","","","","0","0","1","0.3661455107","","0.2","0.8","0.6","0.4","","","","","0.4210676831","0.3661455107","0.08481729553","0.1957128212","","","","","","","74","J","1","","","96","main_expt"
"860","","bandit","175","356759","0.0-136.0-0.0","69753694","wem/bandit_either","A1BWR5RBQDZQ16","either","4","","","","","","","0","0","1","0.08386440452","","0.2","0.8","0.6","0.4","","","","","0.4022895305","0.3558031673","0.08386440452","0.1638116915","","","","","","","75","K","2","","","97","main_expt"
"146","","bandit","176","358430","0.0-137.0-0.0","69753694","wem/bandit_either","A1BWR5RBQDZQ16","either","4","","","","","","","0","0","1","","0.1405816365","0.2","0.8","0.6","0.4","0.4187351015","0.3558230887","0.0940701929","0.1405816365","","","","","","","","","","","76","L","3","","","98","main_expt"
"450","","bandit","177","360390","0.0-138.0-0.0","69753694","wem/bandit_either","A1BWR5RBQDZQ16","either","4","","","","","","","0","0","1","","0.1435678602","0.2","0.8","0.6","0.4","0.3981340028","0.3064708089","0.1285058524","0.1435678602","","","","","","","","","","","76","L","3","","","99","main_expt"
"522","","bandit","178","362421","0.0-139.0-0.0","69753694","wem/bandit_either","A1BWR5RBQDZQ16","either","4","","","","","","","0","1","0","","0.3520446815","0.2","0.8","0.6","0.4","0.3520446815","0.352498313","0.065882019","0.1478754355","","","","","","","","","","","72","H","0","img/none_selected.jpg","","100","main_expt"
"852","","bandit","179","364785","0.0-140.0-0.0","69753694","wem/bandit_either","A1BWR5RBQDZQ16","either","4","","","","","","","0","0","1","0.05692140794","","0.2","0.8","0.6","0.4","","","","","0.3715523215","0.3511810171","0.05692140794","0.1532559328","","","","","","","75","K","2","","","101","main_expt"
"1091","","bandit","180","367399","0.0-141.0-0.0","69753694","wem/bandit_either","A1BWR5RBQDZQ16","either","4","","","","","","","0","0","1","0.3246867477","","0.2","0.8","0.6","0.4","","","","","0.3966955113","0.3246867477","0.04322280369","0.15857411","","","","","","","74","J","1","","","102","main_expt"
"931","","bandit","181","369854","0.0-142.0-0.0","69753694","wem/bandit_either","A1BWR5RBQDZQ16","either","4","","","","","","","0","0","1","0.2827689756","","0.2","0.8","0.6","0.4","","","","","0.3865714765","0.2827689756","0.05121437093","0.1552377357","","","","","","","74","J","1","","","103","main_expt"
"604","","bandit","182","371981","0.0-143.0-0.0","69753694","wem/bandit_either","A1BWR5RBQDZQ16","either","4","","","","","","","0","0","1","0.3307995119","","0.2","0.8","0.6","0.4","","","","","0.3440646931","0.3307995119","0.06548077564","0.1584193753","","","","","","","74","J","1","","","104","main_expt"
"1511","","bandit","183","375015","0.0-144.0-0.0","69753694","wem/bandit_either","A1BWR5RBQDZQ16","either","4","","","","","","","0","0","1","0.330981063","","0.2","0.8","0.6","0.4","","","","","0.330981063","0.3078297571","0.07577357845","0.192058402","","","","","","","72","H","0","img/none_selected.jpg","","105","main_expt"
"420","","bandit","184","376955","0.0-145.0-0.0","69753694","wem/bandit_either","A1BWR5RBQDZQ16","either","4","","","","","","","0","0","1","","0.3317280627","0.2","0.8","0.6","0.4","0.3317280627","0.3202685942","0.09041352565","0.1562344916","","","","","","","","","","","72","H","0","img/none_selected.jpg","","106","main_expt"
"95","","bandit","185","378574","0.0-146.0-0.0","69753694","wem/bandit_either","A1BWR5RBQDZQ16","either","4","","","","","","","0","0","1","","0.1493116313","0.2","0.8","0.6","0.4","0.2760665195","0.3163418234","0.1184921167","0.1493116313","","","","","","","","","","","76","L","3","","","107","main_expt"
"675","","bandit","186","380772","0.0-147.0-0.0","69753694","wem/bandit_either","A1BWR5RBQDZQ16","either","4","","","","","","","0","0","1","","0.1057615429","0.2","0.8","0.6","0.4","0.2826301941","0.3425943818","0.1057615429","0.1357435498","","","","","","","","","","","75","K","2","","","108","main_expt"
"233","","bandit","187","382519","0.0-148.0-0.0","69753694","wem/bandit_either","A1BWR5RBQDZQ16","either","4","","","","","","","0","0","1","0.2852030557","","0.2","0.8","0.6","0.4","","","","","0.318117281","0.2852030557","0.1464484126","0.1164074326","","","","","","","74","J","1","","","109","main_expt"
"770","","bandit","188","384812","0.0-149.0-0.0","69753694","wem/bandit_either","A1BWR5RBQDZQ16","either","4","","","","","","","0","0","1","0.3392406975","","0.2","0.8","0.6","0.4","","","","","0.3358587519","0.3392406975","0.1641354829","0.1444451916","","","","","","","74","J","1","","","110","main_expt"
"550","","bandit","189","386878","0.0-150.0-0.0","69753694","wem/bandit_either","A1BWR5RBQDZQ16","either","4","","","","","","","0","0","1","0.1386891192","","0.2","0.8","0.6","0.4","","","","","0.3031660534","0.3023411017","0.1386891192","0.09905323685","","","","","","","75","K","2","","","111","main_expt"
"422","","bandit","190","388846","0.0-151.0-0.0","69753694","wem/bandit_either","A1BWR5RBQDZQ16","either","4","","","","","","","0","0","1","","0.09652445584","0.2","0.8","0.6","0.4","0.2773548355","0.296849772","0.1847512065","0.09652445584","","","","","","","","","","","76","L","3","","","112","main_expt"
"677","","bandit","191","391045","0.0-152.0-0.0","69753694","wem/bandit_either","A1BWR5RBQDZQ16","either","4","","","","","","","0","0","1","","0.2370758425","0.2","0.8","0.6","0.4","0.2370758425","0.2673419259","0.1304555333","0.09961189632","","","","","","","","","","","72","H","0","img/none_selected.jpg","","113","main_expt"
"7879","","bandit","192","400437","0.0-153.0-0.0","69753694","wem/bandit_either","A1BWR5RBQDZQ16","either","4","","","","","","","0","0","1","","0.1821928837","0.2","0.8","0.6","0.4","0.1821928837","0.2670531803","0.1770102637","0.1036139638","","","","","","","","","","","72","H","0","img/none_selected.jpg","","114","main_expt"
"392","","bandit","193","402340","0.0-154.0-0.0","69753694","wem/bandit_either","A1BWR5RBQDZQ16","either","4","","","","","","","0","0","1","0.0968506792","","0.2","0.8","0.6","0.4","","","","","0.1315453283","0.2825009356","0.1564651975","0.0968506792","","","","","","","76","L","3","","","115","main_expt"
"153","","bandit","194","404009","0.0-155.0-0.0","69753694","wem/bandit_either","A1BWR5RBQDZQ16","either","4","","","","","","","0","0","1","0.1665702367","","0.2","0.8","0.6","0.4","","","","","0.1102777544","0.3237719372","0.1665702367","0.08782875681","","","","","","","75","K","2","","","116","main_expt"
"281","","bandit","195","405815","0.0-156.0-0.0","69753694","wem/bandit_either","A1BWR5RBQDZQ16","either","4","","","","","","","0","0","1","0.1530687496","","0.2","0.8","0.6","0.4","","","","","0.1101610351","0.3154846423","0.1530687496","0.06031800864","","","","","","","75","K","2","","","117","main_expt"
"51","","bandit","196","407389","0.0-157.0-0.0","69753694","wem/bandit_either","A1BWR5RBQDZQ16","either","4","","","","","","","0","0","1","0.1674206906","","0.2","0.8","0.6","0.4","","","","","0.122460482","0.2584508078","0.1674206906","0.05633053331","","","","","","","75","K","2","","","118","main_expt"
"175","","bandit","197","409077","0.0-158.0-0.0","69753694","wem/bandit_either","A1BWR5RBQDZQ16","either","4","","","","","","","0","0","1","0.1990215448","","0.2","0.8","0.6","0.4","","","","","0.1451868924","0.2141905193","0.1990215448","0.07530514027","","","","","","","75","K","2","","","119","main_expt"
"83","","bandit","198","410686","0.0-159.0-0.0","69753694","wem/bandit_either","A1BWR5RBQDZQ16","either","4","","","","","","","0","0","1","0.2208640619","","0.2","0.8","0.6","0.4","","","","","0.09092593383","0.2341954374","0.2208640619","0.09639595661","","","","","","","75","K","2","","","120","main_expt"
"4","","bandit","199","412219","0.0-160.0-0.0","69753694","wem/bandit_either","A1BWR5RBQDZQ16","either","4","","","","","","","1","0","0","0.1886372651","","0.2","0.8","0.6","0.4","","","","","0.1080456108","0.1886372651","0.2602917539","0.1421799471","","","","","","","74","J","1","","","121","main_expt"
"435","","bandit","200","414176","0.0-161.0-0.0","69753694","wem/bandit_either","A1BWR5RBQDZQ16","either","4","","","","","","","0","0","1","","0.1597592322","0.2","0.8","0.6","0.4","0.1169053248","0.1597592322","0.2512498235","0.1624760489","","","","","","","","","","","74","J","1","","","122","main_expt"
"201","","bandit","201","415896","0.0-162.0-0.0","69753694","wem/bandit_either","A1BWR5RBQDZQ16","either","4","","","","","","","0","0","1","0.1895266442","","0.2","0.8","0.6","0.4","","","","","0.1571594809","0.1895266442","0.2266242761","0.1640214383","","","","","","","74","J","1","","","123","main_expt"
"378","","bandit","202","417798","0.0-163.0-0.0","69753694","wem/bandit_either","A1BWR5RBQDZQ16","either","4","","","","","","","0","0","1","","0.2042850732","0.2","0.8","0.6","0.4","0.2231804049","0.2042850732","0.2373824638","0.2014340991","","","","","","","","","","","74","J","1","","","124","main_expt"
"452","","bandit","203","419768","0.0-164.0-0.0","69753694","wem/bandit_either","A1BWR5RBQDZQ16","either","4","","","","","","","0","0","1","","0.2229229076","0.2","0.8","0.6","0.4","0.2232794356","0.1812515389","0.2538727107","0.2229229076","","","","","","","","","","","76","L","3","","","125","main_expt"
"650","","bandit","204","421941","0.0-165.0-0.0","69753694","wem/bandit_either","A1BWR5RBQDZQ16","either","4","","","","","","","0","0","1","0.2324712723","","0.2","0.8","0.6","0.4","","","","","0.2316903634","0.1694736183","0.290219491","0.2324712723","","","","","","","76","L","3","","","126","main_expt"
"346","","bandit","205","423797","0.0-166.0-0.0","69753694","wem/bandit_either","A1BWR5RBQDZQ16","either","4","","","","","","","0","1","0","","0.2337524142","0.2","0.8","0.6","0.4","0.2337524142","0.1624528765","0.2542505169","0.2628391623","","","","","","","","","","","72","H","0","img/none_selected.jpg","","127","main_expt"
"591","","bandit","206","425919","0.0-167.0-0.0","69753694","wem/bandit_either","A1BWR5RBQDZQ16","either","4","","","","","","","0","0","1","0.2198210178","","0.2","0.8","0.6","0.4","","","","","0.2198210178","0.1632982916","0.2582316027","0.2654356302","","","","","","","72","H","0","img/none_selected.jpg","","128","main_expt"
"153","","bandit","207","427597","0.0-168.0-0.0","69753694","wem/bandit_either","A1BWR5RBQDZQ16","either","4","","","","","","","0","0","1","0.2264598068","","0.2","0.8","0.6","0.4","","","","","0.2280168395","0.2264598068","0.3267566011","0.2070569149","","","","","","","74","J","1","","","129","main_expt"
"259","","bandit","208","429380","0.0-169.0-0.0","69753694","wem/bandit_either","A1BWR5RBQDZQ16","either","4","","","","","","","0","0","1","0.3323271388","","0.2","0.8","0.6","0.4","","","","","0.243895296","0.202760285","0.3323271388","0.2579182239","","","","","","","75","K","2","","","130","main_expt"
"279","","bandit","209","431174","0.0-170.0-0.0","69753694","wem/bandit_either","A1BWR5RBQDZQ16","either","4","","","","","","","0","0","1","0.2164454501","","0.2","0.8","0.6","0.4","","","","","0.2164454501","0.1585094705","0.2666668646","0.2329110821","","","","","","","72","H","0","img/none_selected.jpg","","131","main_expt"
"349","","bandit","210","433047","0.0-171.0-0.0","69753694","wem/bandit_either","A1BWR5RBQDZQ16","either","4","","","","","","","0","0","1","","0.200468731","0.2","0.8","0.6","0.4","0.200468731","0.1304261544","0.2359119393","0.2400232435","","","","","","","","","","","72","H","0","img/none_selected.jpg","","132","main_expt"
"617","","bandit","211","435191","0.0-172.0-0.0","69753694","wem/bandit_either","A1BWR5RBQDZQ16","either","4","","","","","","","0","0","1","0.2084798617","","0.2","0.8","0.6","0.4","","","","","0.2038597077","0.09339990826","0.2540740643","0.2084798617","","","","","","","76","L","3","","","133","main_expt"
"3","","bandit","212","436719","0.0-173.0-0.0","69753694","wem/bandit_either","A1BWR5RBQDZQ16","either","4","","","","","","","0","0","1","0.08524612959","","0.2","0.8","0.6","0.4","","","","","0.2263269307","0.08524612959","0.2414927735","0.2034544","","","","","","","74","J","1","","","134","main_expt"
"313","","bandit","213","438558","0.0-174.0-0.0","69753694","wem/bandit_either","A1BWR5RBQDZQ16","either","4","","","","","","","0","0","1","0.2632369982","","0.2","0.8","0.6","0.4","","","","","0.2686469146","0.0622033461","0.2632369982","0.2088958693","","","","","","","75","K","2","","","135","main_expt"
"312","","bandit","214","440381","0.0-175.0-0.0","69753694","wem/bandit_either","A1BWR5RBQDZQ16","either","4","","","","","","","0","0","1","","0.3170393738","0.2","0.8","0.6","0.4","0.3170393738","0.05632890875","0.3032623762","0.2573758916","","","","","","","","","","","72","H","0","img/none_selected.jpg","","136","main_expt"
"848","","bandit","215","442756","0.0-176.0-0.0","69753694","wem/bandit_either","A1BWR5RBQDZQ16","either","4","","","","","","","0","0","1","","0.338962466","0.2","0.8","0.6","0.4","0.338962466","0.06052980877","0.2984046037","0.2467438462","","","","","","","","","","","72","H","0","img/none_selected.jpg","","137","main_expt"
"403","","bandit","216","444673","0.0-177.0-0.0","69753694","wem/bandit_either","A1BWR5RBQDZQ16","either","4","","","","","","","0","0","1","","0.3586643031","0.2","0.8","0.6","0.4","0.3586643031","0.1038497792","0.3110629865","0.2221944767","","","","","","","","","","","72","H","0","img/none_selected.jpg","","138","main_expt"
"520","","bandit","217","446721","0.0-178.0-0.0","69753694","wem/bandit_either","A1BWR5RBQDZQ16","either","4","","","","","","","0","1","0","","0.3430902759","0.2","0.8","0.6","0.4","0.3430902759","0.08561062373","0.3048373826","0.2750517365","","","","","","","","","","","72","H","0","img/none_selected.jpg","","139","main_expt"
"804","","bandit","218","449038","0.0-179.0-0.0","69753694","wem/bandit_either","A1BWR5RBQDZQ16","either","4","","","","","","","0","0","1","0.08025295029","","0.2","0.8","0.6","0.4","","","","","0.3777112835","0.08025295029","0.3163642845","0.277474309","","","","","","","74","J","1","","","140","main_expt"
"1095","","bandit","219","451647","0.0-180.0-0.0","69753694","wem/bandit_either","A1BWR5RBQDZQ16","either","4","","","","","","","0","0","1","","0.2213861514","0.2","0.8","0.6","0.4","0.4276051364","0.09309891757","0.2213861514","0.2932007391","","","","","","","","","","","75","K","2","","","141","main_expt"
"674","","bandit","220","453846","0.0-181.0-0.0","69753694","wem/bandit_either","A1BWR5RBQDZQ16","either","4","","","","","","","0","0","1","","0.2492613222","0.2","0.8","0.6","0.4","0.4312347149","0.1107976638","0.2492613222","0.3001807938","","","","","","","","","","","75","K","2","","","142","main_expt"
"423","","bandit","221","455799","0.0-182.0-0.0","69753694","wem/bandit_either","A1BWR5RBQDZQ16","either","4","","","","","","","0","0","1","","0.3640878437","0.2","0.8","0.6","0.4","0.386657586","0.09575525052","0.2645663874","0.3640878437","","","","","","","","","","","76","L","3","","","143","main_expt"
"653","","bandit","222","457976","0.0-183.0-0.0","69753694","wem/bandit_either","A1BWR5RBQDZQ16","either","4","","","","","","","0","0","1","0.2706796495","","0.2","0.8","0.6","0.4","","","","","0.3409851627","0.07222794989","0.2928215939","0.2706796495","","","","","","","76","L","3","","","144","main_expt"
"171","","bandit","223","459669","0.0-184.0-0.0","69753694","wem/bandit_either","A1BWR5RBQDZQ16","either","4","","","","","","","0","0","1","0.2359726437","","0.2","0.8","0.6","0.4","","","","","0.3538709708","0.03203798906","0.3178979655","0.2359726437","","","","","","","76","L","3","","","145","main_expt"
"1259","","bandit","224","462456","0.0-185.0-0.0","69753694","wem/bandit_either","A1BWR5RBQDZQ16","either","4","","","","","","","0","0","1","0.03073079809","","0.2","0.8","0.6","0.4","","","","","0.2745956728","0.03073079809","0.2850957273","0.2200332621","","","","","","","74","J","1","","","146","main_expt"
"158","","bandit","225","464143","0.0-186.0-0.0","69753694","wem/bandit_either","A1BWR5RBQDZQ16","either","4","","","","","","","0","1","0","","0.2483519338","0.2","0.8","0.6","0.4","0.2375793476","0.05105424151","0.2483519338","0.1957794229","","","","","","","","","","","75","K","2","","","147","main_expt"
"845","","bandit","226","466509","0.0-187.0-0.0","69753694","wem/bandit_either","A1BWR5RBQDZQ16","either","4","","","","","","","0","0","1","0.2309770791","","0.2","0.8","0.6","0.4","","","","","0.2954602587","0.04045355104","0.2309770791","0.1790722045","","","","","","","75","K","2","","","148","main_expt"
"170","","bandit","227","468192","0.0-188.0-0.0","69753694","wem/bandit_either","A1BWR5RBQDZQ16","either","4","","","","","","","0","1","0","","0.3435099865","0.2","0.8","0.6","0.4","0.3435099865","0.06416506337","0.1759049641","0.2189150546","","","","","","","","","","","72","H","0","img/none_selected.jpg","","149","main_expt"
"616","","bandit","228","470334","0.0-189.0-0.0","69753694","wem/bandit_either","A1BWR5RBQDZQ16","either","4","","","","","","","0","0","1","","0.268900415","0.2","0.8","0.6","0.4","0.268900415","0.07819388902","0.1910702346","0.2119229637","","","","","","","","","","","72","H","0","img/none_selected.jpg","","150","main_expt"
"404","","bandit","229","472252","0.0-190.0-0.0","69753694","wem/bandit_either","A1BWR5RBQDZQ16","either","4","","","","","","","0","0","1","","0.1799178466","0.2","0.8","0.6","0.4","0.2326488896","0.1186979887","0.1799178466","0.2472398003","","","","","","","","","","","75","K","2","","","151","main_expt"
"666","","bandit","230","474447","0.0-191.0-0.0","69753694","wem/bandit_either","A1BWR5RBQDZQ16","either","4","","","","","","","0","1","0","","0.2148428051","0.2","0.8","0.6","0.4","0.2768057641","0.1084773402","0.1826140084","0.2148428051","","","","","","","","","","","76","L","3","","","152","main_expt"
"2074","","bandit","231","478039","0.0-192.0-0.0","69753694","wem/bandit_either","A1BWR5RBQDZQ16","either","4","","","","","","","0","0","1","0.1598057249","","0.2","0.8","0.6","0.4","","","","","0.2997660112","0.1314289417","0.147924298","0.1598057249","","","","","","","76","L","3","","","153","main_expt"
"365","","bandit","232","479916","0.0-193.0-0.0","69753694","wem/bandit_either","A1BWR5RBQDZQ16","either","4","","","","","","","0","0","1","0.1354051011","","0.2","0.8","0.6","0.4","","","","","0.3196464983","0.1354051011","0.1388357139","0.1489099923","","","","","","","74","J","1","","","154","main_expt"
"1432","","bandit","233","482864","0.0-194.0-0.0","69753694","wem/bandit_either","A1BWR5RBQDZQ16","either","4","","","","","","","0","0","1","","0.1658398244","0.2","0.8","0.6","0.4","0.3141654429","0.1085215933","0.1658398244","0.1502541116","","","","","","","","","","","75","K","2","","","155","main_expt"
"800","","bandit","234","485191","0.0-195.0-0.0","69753694","wem/bandit_either","A1BWR5RBQDZQ16","either","4","","","","","","","0","0","1","","0.2667217688","0.2","0.8","0.6","0.4","0.2667217688","0.1383379057","0.1104921729","0.1605084188","","","","","","","","","","","72","H","0","img/none_selected.jpg","","156","main_expt"
"1196","","bandit","235","487918","0.0-196.0-0.0","69753694","wem/bandit_either","A1BWR5RBQDZQ16","either","4","","","","","","","0","1","0","","0.2867075714","0.2","0.8","0.6","0.4","0.2867075714","0.1428990181","0.09530810267","0.1684101418","","","","","","","","","","","72","H","0","img/none_selected.jpg","","157","main_expt"
"683","","bandit","236","490113","0.0-197.0-0.0","69753694","wem/bandit_either","A1BWR5RBQDZQ16","either","4","","","","","","","0","1","0","","0.2788639118","0.2","0.8","0.6","0.4","0.2788639118","0.07455979893","0.1211627972","0.1807688322","","","","","","","","","","","72","H","0","img/none_selected.jpg","","158","main_expt"
"688","","bandit","237","492335","0.0-198.0-0.0","69753694","wem/bandit_either","A1BWR5RBQDZQ16","either","4","","","","","","","0","0","1","0.3020710819","","0.2","0.8","0.6","0.4","","","","","0.3020710819","0.1009372764","0.1012897464","0.1516426412","","","","","","","72","H","0","img/none_selected.jpg","","159","main_expt"
"624","","bandit","238","494488","0.0-199.0-0.0","69753694","wem/bandit_either","A1BWR5RBQDZQ16","either","4","","","","","","","0","0","1","","0.05118862797","0.2","0.8","0.6","0.4","0.3404227007","0.05118862797","0.1188035868","0.1638698877","","","","","","","","","","","74","J","1","","","160","main_expt"
"363","","bandit","239","496381","0.0-200.0-0.0","69753694","wem/bandit_either","A1BWR5RBQDZQ16","either","4","","","","","","","0","0","1","","0.1645359983","0.2","0.8","0.6","0.4","0.2876249865","0.05265847637","0.1606836622","0.1645359983","","","","","","","","","","","76","L","3","","","161","main_expt"
"393","","bandit","240","498287","0.0-201.0-0.0","69753694","wem/bandit_either","A1BWR5RBQDZQ16","either","4","","","","","","","0","0","1","0.07938684611","","0.2","0.8","0.6","0.4","","","","","0.2401308511","0.07938684611","0.1859884171","0.2509918509","","","","","","","74","J","1","","","162","main_expt"
"4","","bandit","241","499823","0.0-202.0-0.0","69753694","wem/bandit_either","A1BWR5RBQDZQ16","either","4","","","","","","","0","0","1","0.2528258464","","0.2","0.8","0.6","0.4","","","","","0.2486605046","0.0970900163","0.2528258464","0.1883685458","","","","","","","75","K","2","","","163","main_expt"
"168","","bandit","242","501518","0.0-203.0-0.0","69753694","wem/bandit_either","A1BWR5RBQDZQ16","either","4","","","","","","","0","0","1","","0.22675384","0.2","0.8","0.6","0.4","0.22675384","0.07401968201","0.2515292425","0.2179532334","","","","","","","","","","","72","H","0","img/none_selected.jpg","","164","main_expt"
"462","","bandit","243","503493","0.0-204.0-0.0","69753694","wem/bandit_either","A1BWR5RBQDZQ16","either","4","","","","","","","0","0","1","","0.2143704678","0.2","0.8","0.6","0.4","0.2841151948","0.06633104104","0.2068970429","0.2143704678","","","","","","","","","","","76","L","3","","","165","main_expt"
"816","","bandit","244","505837","0.0-205.0-0.0","69753694","wem/bandit_either","A1BWR5RBQDZQ16","either","4","","","","","","","0","0","1","0.2175899085","","0.2","0.8","0.6","0.4","","","","","0.2842980464","0.05309652092","0.1413778631","0.2175899085","","","","","","","76","L","3","","","166","main_expt"
"952","","bandit","245","508319","0.0-206.0-0.0","69753694","wem/bandit_either","A1BWR5RBQDZQ16","either","4","","","","","","","0","0","1","0.1999497975","","0.2","0.8","0.6","0.4","","","","","0.3007590714","0.07357446968","0.1999497975","0.2137120923","","","","","","","75","K","2","","","167","main_expt"
"439","","bandit","246","510287","0.0-207.0-0.0","69753694","wem/bandit_either","A1BWR5RBQDZQ16","either","4","","","","","","","0","0","1","0.1054325378","","0.2","0.8","0.6","0.4","","","","","0.2884936601","0.1054325378","0.1696145944","0.2331560811","","","","","","","74","J","1","","","168","main_expt"
"1230","","bandit","247","513052","0.0-208.0-0.0","69753694","wem/bandit_either","A1BWR5RBQDZQ16","either","4","","","","","","","1","0","0","0.1338518967","","0.2","0.8","0.6","0.4","","","","","0.2803439438","0.08536867429","0.1338518967","0.2367963754","","","","","","","75","K","2","","","169","main_expt"
"1136","","bandit","248","515717","0.0-209.0-0.0","69753694","wem/bandit_either","A1BWR5RBQDZQ16","either","4","","","","","","","1","0","0","0.3010437192","","0.2","0.8","0.6","0.4","","","","","0.3010437192","0.1083432756","0.1307598277","0.2378050175","","","","","","","72","H","0","img/none_selected.jpg","","170","main_expt"
"726","","bandit","249","517959","0.0-210.0-0.0","69753694","wem/bandit_either","A1BWR5RBQDZQ16","either","4","","","","","","","0","0","1","","0.3243802095","0.2","0.8","0.6","0.4","0.3243802095","0.09185370626","0.1200375331","0.2253696972","","","","","","","","","","","72","H","0","img/none_selected.jpg","","171","main_expt"
"167","","bandit","250","519655","0.0-211.0-0.0","69753694","wem/bandit_either","A1BWR5RBQDZQ16","either","4","","","","","","","0","0","1","","0.2903394368","0.2","0.8","0.6","0.4","0.3140094691","0.09458096772","0.07514546963","0.2903394368","","","","","","","","","","","76","L","3","","","172","main_expt"
"826","","bandit","251","522014","0.0-212.0-0.0","69753694","wem/bandit_either","A1BWR5RBQDZQ16","either","4","","","","","","","1","0","0","0.1016296913","","0.2","0.8","0.6","0.4","","","","","0.2433770114","0.1016296913","0.07704486673","0.2384828248","","","","","","","74","J","1","","","173","main_expt"
"1079","","bandit","252","524623","0.0-213.0-0.0","69753694","wem/bandit_either","A1BWR5RBQDZQ16","either","4","","","","","","","1","0","0","0.2823111034","","0.2","0.8","0.6","0.4","","","","","0.2080779891","0.117107939","0.04061738922","0.2823111034","","","","","","","76","L","3","","","174","main_expt"
"812","","bandit","253","526967","0.0-214.0-0.0","69753694","wem/bandit_either","A1BWR5RBQDZQ16","either","4","","","","","","","0","0","1","0.292147578","","0.2","0.8","0.6","0.4","","","","","0.2211365803","0.1254773658","0.02968316822","0.292147578","","","","","","","76","L","3","","","175","main_expt"
"756","","bandit","254","529255","0.0-215.0-0.0","69753694","wem/bandit_either","A1BWR5RBQDZQ16","either","4","","","","","","","0","0","1","0.04419366322","","0.2","0.8","0.6","0.4","","","","","0.231280906","0.1518856622","0.04419366322","0.2928295457","","","","","","","75","K","2","","","176","main_expt"
"949","","bandit","255","531741","0.0-216.0-0.0","69753694","wem/bandit_either","A1BWR5RBQDZQ16","either","4","","","","","","","0","0","1","","0.1689881391","0.2","0.8","0.6","0.4","0.1689881391","0.1502483312","0.04140429262","0.297241693","","","","","","","","","","","72","H","0","img/none_selected.jpg","","177","main_expt"
"1333","","bandit","256","534603","0.0-217.0-0.0","69753694","wem/bandit_either","A1BWR5RBQDZQ16","either","4","","","","","","","0","0","1","0.2073149786","","0.2","0.8","0.6","0.4","","","","","0.1699404395","0.2073149786","0.06103489621","0.276241128","","","","","","","74","J","1","","","178","main_expt"
"1345","","bandit","257","537463","0.0-218.0-0.0","69753694","wem/bandit_either","A1BWR5RBQDZQ16","either","4","","","","","","","0","0","1","0.1928578162","","0.2","0.8","0.6","0.4","","","","","0.1571972967","0.1928578162","0.053608248","0.2405339857","","","","","","","74","J","1","","","179","main_expt"
"750","","bandit","258","539744","0.0-219.0-0.0","69753694","wem/bandit_either","A1BWR5RBQDZQ16","either","4","","","","","","","0","1","0","","0.1567782565","0.2","0.8","0.6","0.4","0.1567782565","0.1412953234","0.06289379635","0.233428307","","","","","","","","","","","72","H","0","img/none_selected.jpg","","180","main_expt"
"585","","bandit","259","541862","0.0-220.0-0.0","69753694","wem/bandit_either","A1BWR5RBQDZQ16","either","4","","","","","","","0","1","0","","0.1492691696","0.2","0.8","0.6","0.4","0.1492691696","0.1258774719","0.07748386732","0.1459310114","","","","","","","","","","","72","H","0","img/none_selected.jpg","","181","main_expt"
"558","","bandit","260","543951","0.0-221.0-0.0","69753694","wem/bandit_either","A1BWR5RBQDZQ16","either","4","","","","","","","0","0","1","","0.1609613705","0.2","0.8","0.6","0.4","0.1609613705","0.1121960069","0.096714051","0.1796360657","","","","","","","","","","","72","H","0","img/none_selected.jpg","","182","main_expt"
"412","","bandit","261","545897","0.0-222.0-0.0","69753694","wem/bandit_either","A1BWR5RBQDZQ16","either","4","","","","","","","0","0","1","0.05351369794","","0.2","0.8","0.6","0.4","","","","","0.1982891881","0.08335286121","0.05351369794","0.1907874973","","","","","","","75","K","2","","","183","main_expt"
"478","","bandit","262","547887","0.0-223.0-0.0","69753694","wem/bandit_either","A1BWR5RBQDZQ16","either","4","","","","","","","0","0","1","","0.1451627339","0.2","0.8","0.6","0.4","0.1703318442","0.1085923678","0.08854511538","0.1451627339","","","","","","","","","","","76","L","3","","","184","main_expt"
"612","","bandit","263","550014","0.0-224.0-0.0","69753694","wem/bandit_either","A1BWR5RBQDZQ16","either","4","","","","","","","0","0","1","","0.136385666","0.2","0.8","0.6","0.4","0.09566746086","0.1113654269","0.136385666","0.1692531577","","","","","","","","","","","75","K","2","","","185","main_expt"
"624","","bandit","264","552151","0.0-225.0-0.0","69753694","wem/bandit_either","A1BWR5RBQDZQ16","either","4","","","","","","","0","0","1","","0.1383531569","0.2","0.8","0.6","0.4","0.1254261761","0.1383531569","0.1848043888","0.1885113298","","","","","","","","","","","74","J","1","","","186","main_expt"
"1379","","bandit","265","555063","0.0-226.0-0.0","69753694","wem/bandit_either","A1BWR5RBQDZQ16","either","4","","","","","","","0","0","1","0.1739713275","","0.2","0.8","0.6","0.4","","","","","0.1081798115","0.1739713275","0.1640989128","0.2088125345","","","","","","","74","J","1","","","187","main_expt"
"421","","bandit","266","557015","0.0-227.0-0.0","69753694","wem/bandit_either","A1BWR5RBQDZQ16","either","4","","","","","","","0","0","1","0.1926366302","","0.2","0.8","0.6","0.4","","","","","0.08529062399","0.1926366302","0.1301402021","0.2228369986","","","","","","","74","J","1","","","188","main_expt"
"477","","bandit","267","559020","0.0-228.0-0.0","69753694","wem/bandit_either","A1BWR5RBQDZQ16","either","4","","","","","","","0","0","1","0.2499935398","","0.2","0.8","0.6","0.4","","","","","0.07250281893","0.2499935398","0.1980942663","0.2567428292","","","","","","","74","J","1","","","189","main_expt"
"513","","bandit","268","561046","0.0-229.0-0.0","69753694","wem/bandit_either","A1BWR5RBQDZQ16","either","4","","","","","","","0","0","1","","0.07895395147","0.2","0.8","0.6","0.4","0.07895395147","0.2367317824","0.1842725295","0.3177850294","","","","","","","","","","","72","H","0","img/none_selected.jpg","","190","main_expt"
"406","","bandit","269","562976","0.0-230.0-0.0","69753694","wem/bandit_either","A1BWR5RBQDZQ16","either","4","","","","","","","0","0","1","","0.2876912335","0.2","0.8","0.6","0.4","0.06204701637","0.2515026666","0.2087081259","0.2876912335","","","","","","","","","","","76","L","3","","","191","main_expt"
"492","","bandit","270","564997","0.0-231.0-0.0","69753694","wem/bandit_either","A1BWR5RBQDZQ16","either","4","","","","","","","0","0","1","0.2451916405","","0.2","0.8","0.6","0.4","","","","","0.064067899","0.2451916405","0.1800110976","0.2383873749","","","","","","","74","J","1","","","192","main_expt"
"647","","bandit","271","567159","0.0-232.0-0.0","69753694","wem/bandit_either","A1BWR5RBQDZQ16","either","4","","","","","","","0","0","1","","0.1519186298","0.2","0.8","0.6","0.4","0.1286650472","0.2353451433","0.1519186298","0.24690957","","","","","","","","","","","75","K","2","","","193","main_expt"
"141","","bandit","272","568833","0.0-233.0-0.0","69753694","wem/bandit_either","A1BWR5RBQDZQ16","either","4","","","","","","","0","0","1","0.1746490116","","0.2","0.8","0.6","0.4","","","","","0.1746490116","0.307075739","0.1431656489","0.2728455101","","","","","","","72","H","0","img/none_selected.jpg","","194","main_expt"
"315","","bandit","273","570679","0.0-234.0-0.0","69753694","wem/bandit_either","A1BWR5RBQDZQ16","either","4","","","","","","","0","0","1","","0.129035247","0.2","0.8","0.6","0.4","0.129035247","0.3011001907","0.1868251083","0.2421292151","","","","","","","","","","","72","H","0","img/none_selected.jpg","","195","main_expt"
"197","","bandit","274","572399","0.0-235.0-0.0","69753694","wem/bandit_either","A1BWR5RBQDZQ16","either","4","","","","","","","1","0","0","0.176624335","","0.2","0.8","0.6","0.4","","","","","0.09052040682","0.2861216794","0.176624335","0.2598052724","","","","","","","75","K","2","","","196","main_expt"
"267","","bandit","275","574181","0.0-236.0-0.0","69753694","wem/bandit_either","A1BWR5RBQDZQ16","either","4","","","","","","","0","0","1","","0.2540930088","0.2","0.8","0.6","0.4","0.08675464884","0.2121549007","0.2383323772","0.2540930088","","","","","","","","","","","76","L","3","","","197","main_expt"
"13","","bandit","276","575726","0.0-237.0-0.0","69753694","wem/bandit_either","A1BWR5RBQDZQ16","either","4","","","","","","","1","0","0","0.260340052","","0.2","0.8","0.6","0.4","","","","","0.09429549835","0.260340052","0.260618614","0.2460150375","","","","","","","74","J","1","","","198","main_expt"
"6012","","bandit","277","583251","0.0-238.0-0.0","69753694","wem/bandit_either","A1BWR5RBQDZQ16","either","4","","","","","","","0","1","0","","0.09303778716","0.2","0.8","0.6","0.4","0.09303778716","0.3009562829","0.2935067364","0.2217343644","","","","","","","","","","","72","H","0","img/none_selected.jpg","","199","main_expt"
"248","","bandit","278","585011","0.0-239.0-0.0","69753694","wem/bandit_either","A1BWR5RBQDZQ16","either","4","","","","","","","0","0","1","","0.07354084322","0.2","0.8","0.6","0.4","0.07354084322","0.3430896668","0.362920627","0.2830302048","","","","","","","","","","","72","H","0","img/none_selected.jpg","","200","main_expt"
"391","","bandit","279","586915","0.0-240.0-0.0","69753694","wem/bandit_either","A1BWR5RBQDZQ16","either","4","","","","","","","0","0","1","","0.3175621279","0.2","0.8","0.6","0.4","0.08115367452","0.2973668079","0.3119044903","0.3175621279","","","","","","","","","","","76","L","3","","","201","main_expt"
"256","","bandit","280","588683","0.0-241.0-0.0","69753694","wem/bandit_either","A1BWR5RBQDZQ16","either","4","","","","","","","0","0","1","0.3219337599","","0.2","0.8","0.6","0.4","","","","","0.0774842685","0.3219337599","0.3095695708","0.3049471546","","","","","","","74","J","1","","","202","main_expt"
"2","","bandit","281","590199","0.0-242.0-0.0","69753694","wem/bandit_either","A1BWR5RBQDZQ16","either","4","","","","","","","0","0","1","","0.3229991028","0.2","0.8","0.6","0.4","0.09704724367","0.3229991028","0.3005459379","0.2975042969","","","","","","","","","","","74","J","1","","","203","main_expt"
"3","","bandit","282","591715","0.0-243.0-0.0","69753694","wem/bandit_either","A1BWR5RBQDZQ16","either","4","","","","","","","0","0","1","","0.1224111047","0.2","0.8","0.6","0.4","0.1224111047","0.3077995671","0.3116824409","0.2268457719","","","","","","","","","","","72","H","0","img/none_selected.jpg","","204","main_expt"
"167","","bandit","283","593784","0.0-244.0-0.0","69753694","wem/bandit_either","A1BWR5RBQDZQ16","either","4","","","","","","","0","0","1","0.2582085449","","0.2","0.8","0.6","0.4","","","","","0.1627664319","0.3070199156","0.3291635812","0.2582085449","","","","","","","76","L","3","","","205","main_expt"
"170","","bandit","284","596208","0.0-245.0-0.0","69753694","wem/bandit_either","A1BWR5RBQDZQ16","either","4","","","","","","","0","0","1","0.3109683939","","0.2","0.8","0.6","0.4","","","","","0.1604236747","0.3109683939","0.4008790519","0.2841247045","","","","","","","74","J","1","","","206","main_expt"
"153","","bandit","285","597875","0.0-246.0-0.0","69753694","wem/bandit_either","A1BWR5RBQDZQ16","either","4","","","","","","","0","0","1","0.3333225396","","0.2","0.8","0.6","0.4","","","","","0.126388554","0.2845075958","0.4202180382","0.3333225396","","","","","","","76","L","3","","","207","main_expt"
"120","","bandit","286","599508","0.0-247.0-0.0","69753694","wem/bandit_either","A1BWR5RBQDZQ16","either","4","","","","","","","0","0","1","","0.4168586074","0.2","0.8","0.6","0.4","0.1602309633","0.2419557814","0.4168586074","0.290219871","","","","","","","","","","","75","K","2","","","208","main_expt"
"3","","bandit","287","601034","0.0-248.0-0.0","69753694","wem/bandit_either","A1BWR5RBQDZQ16","either","4","","","","","","","0","1","0","","0.3949328033","0.2","0.8","0.6","0.4","0.2009997365","0.2449545816","0.3949328033","0.3426384504","","","","","","","","","","","75","K","2","","","209","main_expt"
"6","","bandit","288","602573","0.0-249.0-0.0","69753694","wem/bandit_either","A1BWR5RBQDZQ16","either","4","","","","","","","0","0","1","0.1997114924","","0.2","0.8","0.6","0.4","","","","","0.1997114924","0.2176860071","0.41782505","0.2932754766","","","","","","","72","H","0","img/none_selected.jpg","","210","main_expt"
"59","","bandit","289","604156","0.0-250.0-0.0","69753694","wem/bandit_either","A1BWR5RBQDZQ16","either","4","","","","","","","0","0","1","0.2460847292","","0.2","0.8","0.6","0.4","","","","","0.2631807131","0.2460847292","0.4377941382","0.2522206247","","","","","","","74","J","1","","","211","main_expt"
"68","","bandit","290","605747","0.0-251.0-0.0","69753694","wem/bandit_either","A1BWR5RBQDZQ16","either","4","","","","","","","0","0","1","","0.2323705111","0.2","0.8","0.6","0.4","0.2008991105","0.2017704833","0.4619006446","0.2323705111","","","","","","","","","","","76","L","3","","","212","main_expt"
"21","","bandit","291","607298","0.0-252.0-0.0","69753694","wem/bandit_either","A1BWR5RBQDZQ16","either","4","","","","","","","1","0","0","0.4508737721","","0.2","0.8","0.6","0.4","","","","","0.1656487101","0.1891715169","0.4508737721","0.2815580385","","","","","","","75","K","2","","","213","main_expt"
"161","","bandit","292","608973","0.0-253.0-0.0","69753694","wem/bandit_either","A1BWR5RBQDZQ16","either","4","","","","","","","0","0","1","0.4639731149","","0.2","0.8","0.6","0.4","","","","","0.213788386","0.1819308411","0.4639731149","0.2955812139","","","","","","","75","K","2","","","214","main_expt"
"166","","bandit","293","610654","0.0-254.0-0.0","69753694","wem/bandit_either","A1BWR5RBQDZQ16","either","4","","","","","","","0","0","1","","0.1406935411","0.2","0.8","0.6","0.4","0.2206736926","0.1406935411","0.4690757113","0.2988647484","","","","","","","","","","","74","J","1","","","215","main_expt"
"140","","bandit","294","612309","0.0-255.0-0.0","69753694","wem/bandit_either","A1BWR5RBQDZQ16","either","4","","","","","","","0","0","1","","0.3361974059","0.2","0.8","0.6","0.4","0.2270120675","0.206739756","0.4685680314","0.3361974059","","","","","","","","","","","76","L","3","","","216","main_expt"
"57","","bandit","295","613893","0.0-256.0-0.0","69753694","wem/bandit_either","A1BWR5RBQDZQ16","either","4","","","","","","","0","0","1","0.2764506131","","0.2","0.8","0.6","0.4","","","","","0.2561581829","0.178624692","0.4873952874","0.2764506131","","","","","","","76","L","3","","","217","main_expt"
"21","","bandit","296","615446","0.0-257.0-0.0","69753694","wem/bandit_either","A1BWR5RBQDZQ16","either","4","","","","","","","0","0","1","0.4790671899","","0.2","0.8","0.6","0.4","","","","","0.2785758431","0.2021641755","0.4790671899","0.299893698","","","","","","","75","K","2","","","218","main_expt"
"97","","bandit","297","617056","0.0-258.0-0.0","69753694","wem/bandit_either","A1BWR5RBQDZQ16","either","4","","","","","","","0","0","1","","0.2076996705","0.2","0.8","0.6","0.4","0.2707863597","0.2076996705","0.4769795117","0.3213687962","","","","","","","","","","","74","J","1","","","219","main_expt"
"46","","bandit","298","618618","0.0-259.0-0.0","69753694","wem/bandit_either","A1BWR5RBQDZQ16","either","4","","","","","","","0","0","1","0.4746148145","","0.2","0.8","0.6","0.4","","","","","0.2262269101","0.2479045362","0.4746148145","0.3782095139","","","","","","","75","K","2","","","220","main_expt"
"120","","bandit","299","620252","0.0-260.0-0.0","69753694","wem/bandit_either","A1BWR5RBQDZQ16","either","4","","","","","","","0","0","1","0.4789253058","","0.2","0.8","0.6","0.4","","","","","0.2522421151","0.251163546","0.4789253058","0.3572699546","","","","","","","75","K","2","","","221","main_expt"
"221","","bandit","300","621987","0.0-261.0-0.0","69753694","wem/bandit_either","A1BWR5RBQDZQ16","either","4","","","","","","","1","0","0","0.2653622565","","0.2","0.8","0.6","0.4","","","","","0.2323100388","0.2653622565","0.4765400837","0.332217079","","","","","","","74","J","1","","","222","main_expt"
"180","","bandit","301","623684","0.0-262.0-0.0","69753694","wem/bandit_either","A1BWR5RBQDZQ16","either","4","","","","","","","0","0","1","0.2034578964","","0.2","0.8","0.6","0.4","","","","","0.2013525365","0.2034578964","0.4872993944","0.3327789551","","","","","","","74","J","1","","","223","main_expt"
"3","","bandit","302","625205","0.0-263.0-0.0","69753694","wem/bandit_either","A1BWR5RBQDZQ16","either","4","","","","","","","0","1","0","","0.2017363432","0.2","0.8","0.6","0.4","0.2017363432","0.1176985371","0.4864577786","0.3720138676","","","","","","","","","","","72","H","0","img/none_selected.jpg","","224","main_expt"
"214","","bandit","303","626934","0.0-264.0-0.0","69753694","wem/bandit_either","A1BWR5RBQDZQ16","either","4","","","","","","","0","0","1","","0.08531446518","0.2","0.8","0.6","0.4","0.1608447522","0.08531446518","0.4815865163","0.4035982493","","","","","","","","","","","74","J","1","","","225","main_expt"
"58","","bandit","304","628510","0.0-265.0-0.0","69753694","wem/bandit_either","A1BWR5RBQDZQ16","either","4","","","","","","","0","0","1","0.0901010045","","0.2","0.8","0.6","0.4","","","","","0.2023183299","0.0901010045","0.4781941344","0.3538577565","","","","","","","74","J","1","","","226","main_expt"
"62","","bandit","305","630100","0.0-266.0-0.0","69753694","wem/bandit_either","A1BWR5RBQDZQ16","either","4","","","","","","","0","0","1","","0.1555458008","0.2","0.8","0.6","0.4","0.1555458008","0.06499555022","0.4742279627","0.4205879778","","","","","","","","","","","72","H","0","img/none_selected.jpg","","227","main_expt"
"149","","bandit","306","631766","0.0-267.0-0.0","69753694","wem/bandit_either","A1BWR5RBQDZQ16","either","4","","","","","","","0","0","1","","0.4597327255","0.2","0.8","0.6","0.4","0.1210896773","0.06967502077","0.4597327255","0.4082381823","","","","","","","","","","","75","K","2","","","228","main_expt"
"70","","bandit","307","633372","0.0-268.0-0.0","69753694","wem/bandit_either","A1BWR5RBQDZQ16","either","4","","","","","","","0","1","0","","0.1206830913","0.2","0.8","0.6","0.4","0.1206830913","0.07642173418","0.4733003713","0.4274963613","","","","","","","","","","","72","H","0","img/none_selected.jpg","","229","main_expt"
"48","","bandit","308","634949","0.0-269.0-0.0","69753694","wem/bandit_either","A1BWR5RBQDZQ16","either","4","","","","","","","0","0","1","","0.04973788902","0.2","0.8","0.6","0.4","0.1334008039","0.04973788902","0.4832022084","0.4362488765","","","","","","","","","","","74","J","1","","","230","main_expt"
"83","","bandit","309","636567","0.0-270.0-0.0","69753694","wem/bandit_either","A1BWR5RBQDZQ16","either","4","","","","","","","0","0","1","","0.07419495466","0.2","0.8","0.6","0.4","0.1048467088","0.07419495466","0.4802630573","0.4420629534","","","","","","","","","","","74","J","1","","","231","main_expt"
"33","","bandit","310","638139","0.0-271.0-0.0","69753694","wem/bandit_either","A1BWR5RBQDZQ16","either","4","","","","","","","1","0","0","0.4739318499","","0.2","0.8","0.6","0.4","","","","","0.1184002818","0.08125260149","0.4739318499","0.4287414635","","","","","","","75","K","2","","","232","main_expt"
"230","","bandit","311","639885","0.0-272.0-0.0","69753694","wem/bandit_either","A1BWR5RBQDZQ16","either","4","","","","","","","0","1","0","","0.4395511981","0.2","0.8","0.6","0.4","0.08533064469","0.06057073796","0.4709765286","0.4395511981","","","","","","","","","","","76","L","3","","","233","main_expt"
"209","","bandit","312","641621","0.0-273.0-0.0","69753694","wem/bandit_either","A1BWR5RBQDZQ16","either","4","","","","","","","0","0","1","","0.1190123434","0.2","0.8","0.6","0.4","0.1190123434","0.1037411708","0.4658145356","0.4479240545","","","","","","","","","","","72","H","0","img/none_selected.jpg","","234","main_expt"
"69","","bandit","313","643204","0.0-274.0-0.0","69753694","wem/bandit_either","A1BWR5RBQDZQ16","either","4","","","","","","","0","0","1","0.1267441937","","0.2","0.8","0.6","0.4","","","","","0.1392024459","0.1267441937","0.4312508187","0.4476644646","","","","","","","74","J","1","","","235","main_expt"
"137","","bandit","314","644861","0.0-275.0-0.0","69753694","wem/bandit_either","A1BWR5RBQDZQ16","either","4","","","","","","","1","0","0","0.4323277229","","0.2","0.8","0.6","0.4","","","","","0.1076242464","0.1002206095","0.4323277229","0.457106966","","","","","","","75","K","2","","","236","main_expt"
"76","","bandit","315","646454","0.0-276.0-0.0","69753694","wem/bandit_either","A1BWR5RBQDZQ16","either","4","","","","","","","0","0","1","","0.4097288684","0.2","0.8","0.6","0.4","0.1539911713","0.08353940566","0.4517679415","0.4097288684","","","","","","","","","","","76","L","3","","","237","main_expt"
"176","","bandit","316","648148","0.0-277.0-0.0","69753694","wem/bandit_either","A1BWR5RBQDZQ16","either","4","","","","","","","0","0","1","","0.1833253983","0.2","0.8","0.6","0.4","0.1833253983","0.07847158511","0.4476427196","0.4530646831","","","","","","","","","","","72","H","0","img/none_selected.jpg","","238","main_expt"
"59","","bandit","317","649743","0.0-278.0-0.0","69753694","wem/bandit_either","A1BWR5RBQDZQ16","either","4","","","","","","","0","0","1","0.1132310855","","0.2","0.8","0.6","0.4","","","","","0.185515968","0.1132310855","0.4421551546","0.4532148127","","","","","","","74","J","1","","","239","main_expt"
"45","","bandit","318","651325","0.0-279.0-0.0","69753694","wem/bandit_either","A1BWR5RBQDZQ16","either","4","","","","","","","0","1","0","","0.4205303603","0.2","0.8","0.6","0.4","0.2545144829","0.130249024","0.4205303603","0.4456906816","","","","","","","","","","","75","K","2","","","240","main_expt"
"63","","bandit","319","652926","0.0-280.0-0.0","69753694","wem/bandit_either","A1BWR5RBQDZQ16","either","4","","","","","","","0","0","1","0.4515134246","","0.2","0.8","0.6","0.4","","","","","0.1902236802","0.1356270161","0.4304808994","0.4515134246","","","","","","","76","L","3","","","241","main_expt"
"67","","bandit","320","654526","0.0-281.0-0.0","69753694","wem/bandit_either","A1BWR5RBQDZQ16","either","4","","","","","","","0","0","1","","0.2196571485","0.2","0.8","0.6","0.4","0.2196571485","0.1402569013","0.4318168925","0.4640222466","","","","","","","","","","","72","H","0","img/none_selected.jpg","","242","main_expt"
"16","","bandit","321","656078","0.0-282.0-0.0","69753694","wem/bandit_either","A1BWR5RBQDZQ16","either","4","","","","","","","0","0","1","0.1851652895","","0.2","0.8","0.6","0.4","","","","","0.2691755858","0.1851652895","0.4437639365","0.4305348251","","","","","","","74","J","1","","","243","main_expt"
"59","","bandit","322","657671","0.0-283.0-0.0","69753694","wem/bandit_either","A1BWR5RBQDZQ16","either","4","","","","","","","0","0","1","0.1871667761","","0.2","0.8","0.6","0.4","","","","","0.2689580194","0.1871667761","0.4444545885","0.4444417595","","","","","","","74","J","1","","","244","main_expt"
"675","","bandit","323","659885","0.0-284.0-0.0","69753694","wem/bandit_either","A1BWR5RBQDZQ16","either","4","","","","","","","0","0","1","0.1881322931","","0.2","0.8","0.6","0.4","","","","","0.1935089033","0.1881322931","0.445216333","0.4468105605","","","","","","","74","J","1","","","245","main_expt"
"3","","bandit","324","661401","0.0-285.0-0.0","69753694","wem/bandit_either","A1BWR5RBQDZQ16","either","4","","","","","","","0","0","1","0.4453418505","","0.2","0.8","0.6","0.4","","","","","0.1466547275","0.187853128","0.4767449203","0.4453418505","","","","","","","76","L","3","","","246","main_expt"
"17","","bandit","325","662934","0.0-286.0-0.0","69753694","wem/bandit_either","A1BWR5RBQDZQ16","either","4","","","","","","","0","1","0","","0.4530054638","0.2","0.8","0.6","0.4","0.1275107348","0.1952756904","0.4530054638","0.4426138654","","","","","","","","","","","75","K","2","","","247","main_expt"
"2","","bandit","326","664475","0.0-287.0-0.0","69753694","wem/bandit_either","A1BWR5RBQDZQ16","either","4","","","","","","","0","0","1","","0.464375056","0.2","0.8","0.6","0.4","0.107785627","0.1722543521","0.4326938674","0.464375056","","","","","","","","","","","76","L","3","","","248","main_expt"
"127","","bandit","327","666118","0.0-288.0-0.0","69753694","wem/bandit_either","A1BWR5RBQDZQ16","either","4","","","","","","","1","0","0","0.4416705694","","0.2","0.8","0.6","0.4","","","","","0.1169449123","0.1935833679","0.4276367863","0.4416705694","","","","","","","76","L","3","","","249","main_expt"
"54","","bandit","328","667709","0.0-289.0-0.0","69753694","wem/bandit_either","A1BWR5RBQDZQ16","either","4","","","","","","","0","0","1","0.1783221165","","0.2","0.8","0.6","0.4","","","","","0.1474950258","0.1783221165","0.4602627553","0.4352039605","","","","","","","74","J","1","","","250","main_expt"
"22","","bandit","329","669242","0.0-290.0-0.0","69753694","wem/bandit_either","A1BWR5RBQDZQ16","either","4","","","","","","","0","0","1","","0.1272017844","0.2","0.8","0.6","0.4","0.1272017844","0.2191654692","0.4429671406","0.4625669079","","","","","","","","","","","72","H","0","img/none_selected.jpg","","251","main_expt"
"150","","bandit","330","670908","0.0-291.0-0.0","69753694","wem/bandit_either","A1BWR5RBQDZQ16","either","4","","","","","","","0","0","1","0.2357097141","","0.2","0.8","0.6","0.4","","","","","0.1383509771","0.2357097141","0.4423062834","0.4714010403","","","","","","","74","J","1","","","252","main_expt"
"215","","bandit","331","672639","0.0-292.0-0.0","69753694","wem/bandit_either","A1BWR5RBQDZQ16","either","4","","","","","","","0","0","1","","0.4487775435","0.2","0.8","0.6","0.4","0.1251389104","0.214143541","0.4509963191","0.4487775435","","","","","","","","","","","76","L","3","","","253","main_expt"
"4","","bandit","332","674174","0.0-293.0-0.0","69753694","wem/bandit_either","A1BWR5RBQDZQ16","either","4","","","","","","","1","0","0","0.2603333519","","0.2","0.8","0.6","0.4","","","","","0.1660910957","0.2603333519","0.4552381636","0.4801031999","","","","","","","74","J","1","","","254","main_expt"
