"rt","responses","trial_type","trial_index","time_elapsed","internal_node_id","subjID","study","MID","cond","drift","key_press","expt_phase","target","like","value","connected","gems","bombs","no_reward","GemPrChosen","BombPrChosen","GainOverPainPr_0","GainOverPainPr_1","GainOverPainPr_2","GainOverPainPr_3","LosePr_0","LosePr_1","LosePr_2","LosePr_3","WinPr_0","WinPr_1","WinPr_2","WinPr_3","Q0","Q1","Q2","gender","age","ethnicity","respCharCode","respKey","respChoiceNum","respChoice","practice","trial_counter","trial_label"
"3609","{""Q0"":""A3P7AXWF57BHNX""}","survey-text","0","3631","0.0-0.0","71679354","wem/bandit_either","A3P7AXWF57BHNX","either","7","","","","","","","","","","","","","","","","","","","","","","","","","","","","","","","","","","","",""
"15361","","text","1","20011","0.0-1.0","71679354","wem/bandit_either","A3P7AXWF57BHNX","either","7","32","","","","","","","","","","","","","","","","","","","","","","","","","","","","","","","","","","",""
"8100","","text","2","28114","0.0-2.0","71679354","wem/bandit_either","A3P7AXWF57BHNX","either","7","32","","","","","","","","","","","","","","","","","","","","","","","","","","","","","","","","","","",""
"13482","","text","3","41600","0.0-3.0","71679354","wem/bandit_either","A3P7AXWF57BHNX","either","7","32","","","","","","","","","","","","","","","","","","","","","","","","","","","","","","","","","","",""
"11845","","text","4","53448","0.0-4.0","71679354","wem/bandit_either","A3P7AXWF57BHNX","either","7","32","","","","","","","","","","","","","","","","","","","","","","","","","","","","","","","","","","",""
"14511","","text","5","67962","0.0-5.0","71679354","wem/bandit_either","A3P7AXWF57BHNX","either","7","32","","","","","","","","","","","","","","","","","","","","","","","","","","","","","","","","","","",""
"6253","","text","6","74219","0.0-6.0","71679354","wem/bandit_either","A3P7AXWF57BHNX","either","7","32","","","","","","","","","","","","","","","","","","","","","","","","","","","","","","","","","","",""
"5745","","text","7","79968","0.0-7.0","71679354","wem/bandit_either","A3P7AXWF57BHNX","either","7","32","","","","","","","","","","","","","","","","","","","","","","","","","","","","","","","","","","",""
"10767","","identification","8","90804","0.0-8.0-0.0","71679354","wem/bandit_either","A3P7AXWF57BHNX","either","7","","identification_pre","the village of Zur","","","","","","","","","","","","","","","","","","","","","","","","","","","","","","","","",""
"3895","","identification","9","95757","0.0-8.0-1.0","71679354","wem/bandit_either","A3P7AXWF57BHNX","either","7","","identification_pre","the village of Nyx","","","","","","","","","","","","","","","","","","","","","","","","","","","","","","","","",""
"5220","","text","10","101994","0.0-9.0","71679354","wem/bandit_either","A3P7AXWF57BHNX","either","7","32","","","","","","","","","","","","","","","","","","","","","","","","","","","","","","","","","","",""
"1105","","text","11","103104","0.0-10.0","71679354","wem/bandit_either","A3P7AXWF57BHNX","either","7","32","","","","","","","","","","","","","","","","","","","","","","","","","","","","","","","","","","",""
"3870","","text","12","106981","0.0-11.0","71679354","wem/bandit_either","A3P7AXWF57BHNX","either","7","32","","","","","","","","","","","","","","","","","","","","","","","","","","","","","","","","","","",""
"4017","","text","13","111003","0.0-12.0","71679354","wem/bandit_either","A3P7AXWF57BHNX","either","7","32","","","","","","","","","","","","","","","","","","","","","","","","","","","","","","","","","","",""
"3753","","bandit","14","116291","0.0-13.0-0.0","71679354","wem/bandit_either","A3P7AXWF57BHNX","either","7","","","","","","","0","0","1","0","0","","","","","0","","","","0","","","","","","","","","","74","J","0","img/none_selected_demo.jpg","true","0",""
"1240","","bandit","15","119062","0.0-14.0-0.0","71679354","wem/bandit_either","A3P7AXWF57BHNX","either","7","","","","","","","0","0","1","0","0","","","","","0","","","","0","","","","","","","","","","75","K","0","img/none_selected_demo.jpg","true","0",""
"5718","","text","16","124785","0.0-15.0","71679354","wem/bandit_either","A3P7AXWF57BHNX","either","7","32","","","","","","","","","","","","","","","","","","","","","","","","","","","","","","","","","","",""
"12306","","text","17","137095","0.0-16.0","71679354","wem/bandit_either","A3P7AXWF57BHNX","either","7","32","","","","","","","","","","","","","","","","","","","","","","","","","","","","","","","","","","",""
"4612","","text","18","141712","0.0-17.0","71679354","wem/bandit_either","A3P7AXWF57BHNX","either","7","32","","","","","","","","","","","","","","","","","","","","","","","","","","","","","","","","","","",""
"5496","","text","19","147213","0.0-18.0","71679354","wem/bandit_either","A3P7AXWF57BHNX","either","7","32","","","","","","","","","","","","","","","","","","","","","","","","","","","","","","","","","","",""
"1381","","bandit","20","150132","0.0-19.0-0.0","71679354","wem/bandit_either","A3P7AXWF57BHNX","either","7","","","","","","","0","1","0","","0.8","0.5","0.5","","","0.8","0.2","","","","","","","","","","","","","74","J","0","img/none_selected_demo.jpg","true","0","80_20_practice"
"607","","bandit","21","152273","0.0-19.0-1.0","71679354","wem/bandit_either","A3P7AXWF57BHNX","either","7","","","","","","","1","0","0","0.8","","0.5","0.5","","","","","","","0.8","0.2","","","","","","","","","74","J","0","img/none_selected_demo.jpg","true","0","80_20_practice"
"790","","bandit","22","154598","0.0-19.0-2.0","71679354","wem/bandit_either","A3P7AXWF57BHNX","either","7","","","","","","","0","1","0","","0.8","0.5","0.5","","","0.8","0.2","","","","","","","","","","","","","74","J","0","img/none_selected_demo.jpg","true","0","80_20_practice"
"461","","bandit","23","156572","0.0-19.0-3.0","71679354","wem/bandit_either","A3P7AXWF57BHNX","either","7","","","","","","","0","0","1","","0.8","0.5","0.5","","","0.8","0.2","","","","","","","","","","","","","74","J","0","img/none_selected_demo.jpg","true","0","80_20_practice"
"334","","bandit","24","158432","0.0-19.0-4.0","71679354","wem/bandit_either","A3P7AXWF57BHNX","either","7","","","","","","","0","0","1","0.2","","0.5","0.5","","","","","","","0.8","0.2","","","","","","","","","75","K","1","","true","0","80_20_practice"
"333","","bandit","25","160294","0.0-19.0-5.0","71679354","wem/bandit_either","A3P7AXWF57BHNX","either","7","","","","","","","0","0","1","0.2","","0.5","0.5","","","","","","","0.8","0.2","","","","","","","","","75","K","1","","true","0","80_20_practice"
"306","","bandit","26","162133","0.0-19.0-6.0","71679354","wem/bandit_either","A3P7AXWF57BHNX","either","7","","","","","","","1","0","0","0.8","","0.5","0.5","","","","","","","0.8","0.2","","","","","","","","","74","J","0","img/none_selected_demo.jpg","true","0","80_20_practice"
"466","","bandit","27","164137","0.0-19.0-7.0","71679354","wem/bandit_either","A3P7AXWF57BHNX","either","7","","","","","","","0","1","0","","0.8","0.5","0.5","","","0.8","0.2","","","","","","","","","","","","","74","J","0","img/none_selected_demo.jpg","true","0","80_20_practice"
"378","","bandit","28","166052","0.0-19.0-8.0","71679354","wem/bandit_either","A3P7AXWF57BHNX","either","7","","","","","","","0","0","1","","0.8","0.5","0.5","","","0.8","0.2","","","","","","","","","","","","","74","J","0","img/none_selected_demo.jpg","true","0","80_20_practice"
"342","","bandit","29","167921","0.0-19.0-9.0","71679354","wem/bandit_either","A3P7AXWF57BHNX","either","7","","","","","","","0","0","1","","0.8","0.5","0.5","","","0.8","0.2","","","","","","","","","","","","","74","J","0","img/none_selected_demo.jpg","true","0","80_20_practice"
"312","","bandit","30","169772","0.0-19.0-10.0","71679354","wem/bandit_either","A3P7AXWF57BHNX","either","7","","","","","","","1","0","0","0.8","","0.5","0.5","","","","","","","0.8","0.2","","","","","","","","","74","J","0","img/none_selected_demo.jpg","true","0","80_20_practice"
"739","","bandit","31","172040","0.0-19.0-11.0","71679354","wem/bandit_either","A3P7AXWF57BHNX","either","7","","","","","","","0","1","0","","0.8","0.5","0.5","","","0.8","0.2","","","","","","","","","","","","","74","J","0","img/none_selected_demo.jpg","true","0","80_20_practice"
"320","","bandit","32","173898","0.0-19.0-12.0","71679354","wem/bandit_either","A3P7AXWF57BHNX","either","7","","","","","","","1","0","0","0.8","","0.5","0.5","","","","","","","0.8","0.2","","","","","","","","","74","J","0","img/none_selected_demo.jpg","true","0","80_20_practice"
"326","","bandit","33","175770","0.0-19.0-13.0","71679354","wem/bandit_either","A3P7AXWF57BHNX","either","7","","","","","","","0","1","0","","0.8","0.5","0.5","","","0.8","0.2","","","","","","","","","","","","","74","J","0","img/none_selected_demo.jpg","true","0","80_20_practice"
"364","","bandit","34","177673","0.0-19.0-14.0","71679354","wem/bandit_either","A3P7AXWF57BHNX","either","7","","","","","","","0","0","1","0.8","","0.5","0.5","","","","","","","0.8","0.2","","","","","","","","","74","J","0","img/none_selected_demo.jpg","true","0","80_20_practice"
"563","","bandit","35","179796","0.0-19.0-15.0","71679354","wem/bandit_either","A3P7AXWF57BHNX","either","7","","","","","","","1","0","0","0.8","","0.5","0.5","","","","","","","0.8","0.2","","","","","","","","","74","J","0","img/none_selected_demo.jpg","true","0","80_20_practice"
"360","","bandit","36","181704","0.0-19.0-16.0","71679354","wem/bandit_either","A3P7AXWF57BHNX","either","7","","","","","","","0","0","1","","0.8","0.5","0.5","","","0.8","0.2","","","","","","","","","","","","","74","J","0","img/none_selected_demo.jpg","true","0","80_20_practice"
"189","","bandit","37","183432","0.0-19.0-17.0","71679354","wem/bandit_either","A3P7AXWF57BHNX","either","7","","","","","","","1","0","0","0.8","","0.5","0.5","","","","","","","0.8","0.2","","","","","","","","","74","J","0","img/none_selected_demo.jpg","true","0","80_20_practice"
"406","","bandit","38","185366","0.0-19.0-18.0","71679354","wem/bandit_either","A3P7AXWF57BHNX","either","7","","","","","","","1","0","0","0.8","","0.5","0.5","","","","","","","0.8","0.2","","","","","","","","","74","J","0","img/none_selected_demo.jpg","true","0","80_20_practice"
"390","","bandit","39","187288","0.0-19.0-19.0","71679354","wem/bandit_either","A3P7AXWF57BHNX","either","7","","","","","","","0","0","1","0.2","","0.5","0.5","","","","","","","0.8","0.2","","","","","","","","","75","K","1","","true","0","80_20_practice"
"4468","","text","40","191766","0.0-20.0","71679354","wem/bandit_either","A3P7AXWF57BHNX","either","7","32","","","","","","","","","","","","","","","","","","","","","","","","","","","","","","","","","","",""
"3613","","bandit","41","196936","0.0-21.0-0.0","71679354","wem/bandit_either","A3P7AXWF57BHNX","either","7","","","","","","","1","0","0","1","0","","","","","0","1","","","1","0","","","","","","","","","74","J","0","img/none_selected_demo.jpg","true","0",""
"10007","","text","42","206954","0.0-22.0","71679354","wem/bandit_either","A3P7AXWF57BHNX","either","7","32","","","","","","","","","","","","","","","","","","","","","","","","","","","","","","","","","","",""
"4488","","text","43","211450","0.0-23.0","71679354","wem/bandit_either","A3P7AXWF57BHNX","either","7","32","","","","","","","","","","","","","","","","","","","","","","","","","","","","","","","","","","",""
"2583","","text","44","214038","0.0-24.0","71679354","wem/bandit_either","A3P7AXWF57BHNX","either","7","32","","","","","","","","","","","","","","","","","","","","","","","","","","","","","","","","","","",""
"2873","","text","45","216916","0.0-25.0","71679354","wem/bandit_either","A3P7AXWF57BHNX","either","7","32","","","","","","","","","","","","","","","","","","","","","","","","","","","","","","","","","","",""
"8292","","text","46","225214","0.0-26.0","71679354","wem/bandit_either","A3P7AXWF57BHNX","either","7","32","","","","","","","","","","","","","","","","","","","","","","","","","","","","","","","","","","",""
"3620","","text","47","228841","0.0-27.0","71679354","wem/bandit_either","A3P7AXWF57BHNX","either","7","32","","","","","","","","","","","","","","","","","","","","","","","","","","","","","","","","","","",""
"5198","","text","48","234044","0.0-28.0","71679354","wem/bandit_either","A3P7AXWF57BHNX","either","7","32","","","","","","","","","","","","","","","","","","","","","","","","","","","","","","","","","","",""
"5315","","text","49","239362","0.0-29.0","71679354","wem/bandit_either","A3P7AXWF57BHNX","either","7","32","","","","","","","","","","","","","","","","","","","","","","","","","","","","","","","","","","",""
"4596","","text","50","243963","0.0-30.0","71679354","wem/bandit_either","A3P7AXWF57BHNX","either","7","32","","","","","","","","","","","","","","","","","","","","","","","","","","","","","","","","","","",""
"2865","","text","51","246832","0.0-31.0","71679354","wem/bandit_either","A3P7AXWF57BHNX","either","7","32","","","","","","","","","","","","","","","","","","","","","","","","","","","","","","","","","","",""
"4547","","text","52","251384","0.0-32.0","71679354","wem/bandit_either","A3P7AXWF57BHNX","either","7","32","","","","","","","","","","","","","","","","","","","","","","","","","","","","","","","","","","",""
"596","","bandit","53","253519","0.0-33.0-0.0","71679354","wem/bandit_either","A3P7AXWF57BHNX","either","7","","","","","","","0","1","0","","0.8","0.5","0.5","0.5","0.5","0.8","0.2","0.6","0.2","","","","","","","","","","","72","H","0","img/none_selected.jpg","true","0","full_practice"
"347","","bandit","54","255382","0.0-33.0-1.0","71679354","wem/bandit_either","A3P7AXWF57BHNX","either","7","","","","","","","1","0","0","0.2","","0.5","0.5","0.5","0.5","","","","","0.8","0.2","0.6","0.2","","","","","","","74","J","1","","true","0","full_practice"
"463","","bandit","55","257373","0.0-33.0-2.0","71679354","wem/bandit_either","A3P7AXWF57BHNX","either","7","","","","","","","0","0","1","","0.2","0.5","0.5","0.5","0.5","0.8","0.2","0.6","0.2","","","","","","","","","","","76","L","3","","true","0","full_practice"
"369","","bandit","56","259274","0.0-33.0-3.0","71679354","wem/bandit_either","A3P7AXWF57BHNX","either","7","","","","","","","0","0","1","","0.2","0.5","0.5","0.5","0.5","0.8","0.2","0.6","0.2","","","","","","","","","","","74","J","1","","true","0","full_practice"
"305","","bandit","57","261122","0.0-33.0-4.0","71679354","wem/bandit_either","A3P7AXWF57BHNX","either","7","","","","","","","0","1","0","","0.8","0.5","0.5","0.5","0.5","0.8","0.2","0.6","0.2","","","","","","","","","","","72","H","0","img/none_selected.jpg","true","0","full_practice"
"317","","bandit","58","262975","0.0-33.0-5.0","71679354","wem/bandit_either","A3P7AXWF57BHNX","either","7","","","","","","","0","1","0","","0.8","0.5","0.5","0.5","0.5","0.8","0.2","0.6","0.2","","","","","","","","","","","72","H","0","img/none_selected.jpg","true","0","full_practice"
"366","","bandit","59","264903","0.0-33.0-6.0","71679354","wem/bandit_either","A3P7AXWF57BHNX","either","7","","","","","","","1","0","0","0.8","","0.5","0.5","0.5","0.5","","","","","0.8","0.2","0.6","0.2","","","","","","","72","H","0","img/none_selected.jpg","true","0","full_practice"
"367","","bandit","60","266810","0.0-33.0-7.0","71679354","wem/bandit_either","A3P7AXWF57BHNX","either","7","","","","","","","0","1","0","","0.6","0.5","0.5","0.5","0.5","0.8","0.2","0.6","0.2","","","","","","","","","","","75","K","2","","true","0","full_practice"
"421","","bandit","61","268770","0.0-33.0-8.0","71679354","wem/bandit_either","A3P7AXWF57BHNX","either","7","","","","","","","0","0","1","0.6","","0.5","0.5","0.5","0.5","","","","","0.8","0.2","0.6","0.2","","","","","","","75","K","2","","true","0","full_practice"
"360","","bandit","62","270712","0.0-33.0-9.0","71679354","wem/bandit_either","A3P7AXWF57BHNX","either","7","","","","","","","0","0","1","","0.2","0.5","0.5","0.5","0.5","0.8","0.2","0.6","0.2","","","","","","","","","","","76","L","3","","true","0","full_practice"
"254","","bandit","63","272494","0.0-33.0-10.0","71679354","wem/bandit_either","A3P7AXWF57BHNX","either","7","","","","","","","0","0","1","0.2","","0.5","0.5","0.5","0.5","","","","","0.8","0.2","0.6","0.2","","","","","","","74","J","1","","true","0","full_practice"
"356","","bandit","64","274379","0.0-33.0-11.0","71679354","wem/bandit_either","A3P7AXWF57BHNX","either","7","","","","","","","1","0","0","0.8","","0.5","0.5","0.5","0.5","","","","","0.8","0.2","0.6","0.2","","","","","","","72","H","0","img/none_selected.jpg","true","0","full_practice"
"323","","bandit","65","276239","0.0-33.0-12.0","71679354","wem/bandit_either","A3P7AXWF57BHNX","either","7","","","","","","","0","1","0","","0.8","0.5","0.5","0.5","0.5","0.8","0.2","0.6","0.2","","","","","","","","","","","72","H","0","img/none_selected.jpg","true","0","full_practice"
"249","","bandit","66","278051","0.0-33.0-13.0","71679354","wem/bandit_either","A3P7AXWF57BHNX","either","7","","","","","","","0","0","1","0.2","","0.5","0.5","0.5","0.5","","","","","0.8","0.2","0.6","0.2","","","","","","","74","J","1","","true","0","full_practice"
"274","","bandit","67","279874","0.0-33.0-14.0","71679354","wem/bandit_either","A3P7AXWF57BHNX","either","7","","","","","","","1","0","0","0.6","","0.5","0.5","0.5","0.5","","","","","0.8","0.2","0.6","0.2","","","","","","","75","K","2","","true","0","full_practice"
"433","","bandit","68","281842","0.0-33.0-15.0","71679354","wem/bandit_either","A3P7AXWF57BHNX","either","7","","","","","","","0","1","0","","0.2","0.5","0.5","0.5","0.5","0.8","0.2","0.6","0.2","","","","","","","","","","","76","L","3","","true","0","full_practice"
"288","","bandit","69","283661","0.0-33.0-16.0","71679354","wem/bandit_either","A3P7AXWF57BHNX","either","7","","","","","","","0","0","1","0.2","","0.5","0.5","0.5","0.5","","","","","0.8","0.2","0.6","0.2","","","","","","","76","L","3","","true","0","full_practice"
"282","","bandit","70","285492","0.0-33.0-17.0","71679354","wem/bandit_either","A3P7AXWF57BHNX","either","7","","","","","","","0","1","0","","0.6","0.5","0.5","0.5","0.5","0.8","0.2","0.6","0.2","","","","","","","","","","","75","K","2","","true","0","full_practice"
"226","","bandit","71","287280","0.0-33.0-18.0","71679354","wem/bandit_either","A3P7AXWF57BHNX","either","7","","","","","","","0","0","1","0.2","","0.5","0.5","0.5","0.5","","","","","0.8","0.2","0.6","0.2","","","","","","","74","J","1","","true","0","full_practice"
"340","","bandit","72","289160","0.0-33.0-19.0","71679354","wem/bandit_either","A3P7AXWF57BHNX","either","7","","","","","","","0","0","1","","0.8","0.5","0.5","0.5","0.5","0.8","0.2","0.6","0.2","","","","","","","","","","","72","H","0","img/none_selected.jpg","true","0","full_practice"
"3292","","text","73","292469","0.0-34.0","71679354","wem/bandit_either","A3P7AXWF57BHNX","either","7","32","","","","","","","","","","","","","","","","","","","","","","","","","","","","","","","","","","",""
"11177","","text","74","304680","0.0-35.0","71679354","wem/bandit_either","A3P7AXWF57BHNX","either","7","32","","","","","","","","","","","","","","","","","","","","","","","","","","","","","","","","","","",""
"15138","","text","75","319824","0.0-36.0","71679354","wem/bandit_either","A3P7AXWF57BHNX","either","7","32","","","","","","","","","","","","","","","","","","","","","","","","","","","","","","","","","","",""
"5035","","text","76","324871","0.0-37.0","71679354","wem/bandit_either","A3P7AXWF57BHNX","either","7","32","","","","","","","","","","","","","","","","","","","","","","","","","","","","","","","","","","",""
"5813","","text","77","330690","0.0-38.0","71679354","wem/bandit_either","A3P7AXWF57BHNX","either","7","32","","","","","","","","","","","","","","","","","","","","","","","","","","","","","","","","","","",""
"7916","","text","78","338611","0.0-39.0","71679354","wem/bandit_either","A3P7AXWF57BHNX","either","7","32","","","","","","","","","","","","","","","","","","","","","","","","","","","","","","","","","","",""
"783","","bandit","79","340924","0.0-40.0-0.0","71679354","wem/bandit_either","A3P7AXWF57BHNX","either","7","","","","","","","0","0","1","0.06530018083","","0.6","0.8","0.2","0.4","","","","","0.06530018083","0.01738065524","0.1480066451","0.1952616071","","","","","","","72","H","0","img/none_selected.jpg","","1","main_expt"
"307","","bandit","80","342782","0.0-41.0-0.0","71679354","wem/bandit_either","A3P7AXWF57BHNX","either","7","","","","","","","0","0","1","","0.0196943787","0.6","0.8","0.2","0.4","0.1011701763","0.0196943787","0.1053714073","0.1652234336","","","","","","","","","","","74","J","1","","","2","main_expt"
"165","","bandit","81","344473","0.0-42.0-0.0","71679354","wem/bandit_either","A3P7AXWF57BHNX","either","7","","","","","","","0","0","1","","0.1460078221","0.6","0.8","0.2","0.4","0.09486719381","0.01678573497","0.1460078221","0.1347382479","","","","","","","","","","","75","K","2","","","3","main_expt"
"249","","bandit","82","346255","0.0-43.0-0.0","71679354","wem/bandit_either","A3P7AXWF57BHNX","either","7","","","","","","","1","0","0","0.1684625442","","0.6","0.8","0.2","0.4","","","","","0.06705802814","0.02981965743","0.1866138214","0.1684625442","","","","","","","76","L","3","","","4","main_expt"
"306","","bandit","83","348095","0.0-44.0-0.0","71679354","wem/bandit_either","A3P7AXWF57BHNX","either","7","","","","","","","0","0","1","","0.1792029032","0.6","0.8","0.2","0.4","0.0822298525","0.02600208211","0.2445348717","0.1792029032","","","","","","","","","","","76","L","3","","","5","main_expt"
"373","","bandit","84","350001","0.0-45.0-0.0","71679354","wem/bandit_either","A3P7AXWF57BHNX","either","7","","","","","","","0","0","1","","0.2153873139","0.6","0.8","0.2","0.4","0.09162209411","0.02332436933","0.2546962146","0.2153873139","","","","","","","","","","","76","L","3","","","6","main_expt"
"268","","bandit","85","351837","0.0-46.0-0.0","71679354","wem/bandit_either","A3P7AXWF57BHNX","either","7","","","","","","","0","0","1","","0.2344841702","0.6","0.8","0.2","0.4","0.1028820098","0.02864040813","0.2344841702","0.1757762721","","","","","","","","","","","75","K","2","","","7","main_expt"
"269","","bandit","86","353638","0.0-47.0-0.0","71679354","wem/bandit_either","A3P7AXWF57BHNX","either","7","","","","","","","0","0","1","0.02951264166","","0.6","0.8","0.2","0.4","","","","","0.1532270122","0.02951264166","0.2473344203","0.2241229746","","","","","","","74","J","1","","","8","main_expt"
"356","","bandit","87","355532","0.0-48.0-0.0","71679354","wem/bandit_either","A3P7AXWF57BHNX","either","7","","","","","","","0","0","1","","0.2131450397","0.6","0.8","0.2","0.4","0.2131450397","0.02997011939","0.2642160399","0.2199426203","","","","","","","","","","","72","H","0","img/none_selected.jpg","","9","main_expt"
"332","","bandit","88","357396","0.0-49.0-0.0","71679354","wem/bandit_either","A3P7AXWF57BHNX","either","7","","","","","","","1","0","0","0.2985754635","","0.6","0.8","0.2","0.4","","","","","0.2985754635","0.02489651457","0.2104627424","0.1520686932","","","","","","","72","H","0","img/none_selected.jpg","","10","main_expt"
"370","","bandit","89","359293","0.0-50.0-0.0","71679354","wem/bandit_either","A3P7AXWF57BHNX","either","7","","","","","","","0","0","1","0.2924640086","","0.6","0.8","0.2","0.4","","","","","0.2924640086","0.01651058827","0.219372878","0.2013349999","","","","","","","72","H","0","img/none_selected.jpg","","11","main_expt"
"322","","bandit","90","361154","0.0-51.0-0.0","71679354","wem/bandit_either","A3P7AXWF57BHNX","either","7","","","","","","","0","0","1","0.3264291113","","0.6","0.8","0.2","0.4","","","","","0.3264291113","0.02341729431","0.2105839871","0.2156800105","","","","","","","72","H","0","img/none_selected.jpg","","12","main_expt"
"268","","bandit","91","362960","0.0-52.0-0.0","71679354","wem/bandit_either","A3P7AXWF57BHNX","either","7","","","","","","","0","0","1","0.0257410372","","0.6","0.8","0.2","0.4","","","","","0.3254913314","0.0257410372","0.2511698571","0.1833947696","","","","","","","74","J","1","","","13","main_expt"
"275","","bandit","92","364806","0.0-53.0-0.0","71679354","wem/bandit_either","A3P7AXWF57BHNX","either","7","","","","","","","1","0","0","0.2158977649","","0.6","0.8","0.2","0.4","","","","","0.3428504842","0.02570014082","0.2158977649","0.243643366","","","","","","","75","K","2","","","14","main_expt"
"290","","bandit","93","366647","0.0-54.0-0.0","71679354","wem/bandit_either","A3P7AXWF57BHNX","either","7","","","","","","","0","1","0","","0.2762480727","0.6","0.8","0.2","0.4","0.3244047679","0.04268316416","0.2762480727","0.2265365198","","","","","","","","","","","75","K","2","","","15","main_expt"
"279","","bandit","94","368460","0.0-55.0-0.0","71679354","wem/bandit_either","A3P7AXWF57BHNX","either","7","","","","","","","0","0","1","","0.3202890724","0.6","0.8","0.2","0.4","0.3025313629","0.04667408308","0.3202890724","0.2484951132","","","","","","","","","","","75","K","2","","","16","main_expt"
"304","","bandit","95","370313","0.0-56.0-0.0","71679354","wem/bandit_either","A3P7AXWF57BHNX","either","7","","","","","","","0","0","1","","0.3680552247","0.6","0.8","0.2","0.4","0.3291216938","0.0506688767","0.3680552247","0.2570267238","","","","","","","","","","","75","K","2","","","17","main_expt"
"502","","bandit","96","372368","0.0-57.0-0.0","71679354","wem/bandit_either","A3P7AXWF57BHNX","either","7","","","","","","","1","0","0","0.287418789","","0.6","0.8","0.2","0.4","","","","","0.2987881532","0.02988526167","0.3968593921","0.287418789","","","","","","","76","L","3","","","18","main_expt"
"340","","bandit","97","374246","0.0-58.0-0.0","71679354","wem/bandit_either","A3P7AXWF57BHNX","either","7","","","","","","","0","0","1","","0.2338710899","0.6","0.8","0.2","0.4","0.281207523","0.03476350355","0.4192996399","0.2338710899","","","","","","","","","","","76","L","3","","","19","main_expt"
"311","","bandit","98","376092","0.0-59.0-0.0","71679354","wem/bandit_either","A3P7AXWF57BHNX","either","7","","","","","","","0","0","1","0.2335293464","","0.6","0.8","0.2","0.4","","","","","0.291129981","0.0233687216","0.4362768361","0.2335293464","","","","","","","76","L","3","","","20","main_expt"
"245","","bandit","99","377872","0.0-60.0-0.0","71679354","wem/bandit_either","A3P7AXWF57BHNX","either","7","","","","","","","0","1","0","","0.2434826965","0.6","0.8","0.2","0.4","0.2729578326","0.01272547494","0.4599691003","0.2434826965","","","","","","","","","","","76","L","3","","","21","main_expt"
"288","","bandit","100","379714","0.0-61.0-0.0","71679354","wem/bandit_either","A3P7AXWF57BHNX","either","7","","","","","","","0","0","1","","0.2702300591","0.6","0.8","0.2","0.4","0.2805141014","0.01739491555","0.44353765","0.2702300591","","","","","","","","","","","76","L","3","","","22","main_expt"
"273","","bandit","101","381529","0.0-62.0-0.0","71679354","wem/bandit_either","A3P7AXWF57BHNX","either","7","","","","","","","0","1","0","","0.2424740502","0.6","0.8","0.2","0.4","0.3016389313","0.006692102231","0.4105594395","0.2424740502","","","","","","","","","","","76","L","3","","","23","main_expt"
"319","","bandit","102","383389","0.0-63.0-0.0","71679354","wem/bandit_either","A3P7AXWF57BHNX","either","7","","","","","","","1","0","0","0.1754503809","","0.6","0.8","0.2","0.4","","","","","0.2475621169","0.01209419849","0.4243351486","0.1754503809","","","","","","","76","L","3","","","24","main_expt"
"322","","bandit","103","385251","0.0-64.0-0.0","71679354","wem/bandit_either","A3P7AXWF57BHNX","either","7","","","","","","","0","0","1","","0.2023019753","0.6","0.8","0.2","0.4","0.2607476102","0.009734580702","0.4172780312","0.2023019753","","","","","","","","","","","76","L","3","","","25","main_expt"
"291","","bandit","104","387085","0.0-65.0-0.0","71679354","wem/bandit_either","A3P7AXWF57BHNX","either","7","","","","","","","0","0","1","","0.292589008","0.6","0.8","0.2","0.4","0.292589008","0.008596148908","0.3981062588","0.1887270612","","","","","","","","","","","72","H","0","img/none_selected.jpg","","26","main_expt"
"255","","bandit","105","388894","0.0-66.0-0.0","71679354","wem/bandit_either","A3P7AXWF57BHNX","either","7","","","","","","","0","0","1","0.2526986378","","0.6","0.8","0.2","0.4","","","","","0.2978950393","0.01380650739","0.3889188119","0.2526986378","","","","","","","76","L","3","","","27","main_expt"
"548","","bandit","106","390998","0.0-67.0-0.0","71679354","wem/bandit_either","A3P7AXWF57BHNX","either","7","","","","","","","0","0","1","0.2536033627","","0.6","0.8","0.2","0.4","","","","","0.337392419","0.01160852189","0.3699095679","0.2536033627","","","","","","","76","L","3","","","28","main_expt"
"258","","bandit","107","392811","0.0-68.0-0.0","71679354","wem/bandit_either","A3P7AXWF57BHNX","either","7","","","","","","","0","0","1","0.3830759015","","0.6","0.8","0.2","0.4","","","","","0.3830759015","0.02858314752","0.4087832773","0.258258936","","","","","","","72","H","0","img/none_selected.jpg","","29","main_expt"
"435","","bandit","108","394777","0.0-69.0-0.0","71679354","wem/bandit_either","A3P7AXWF57BHNX","either","7","","","","","","","0","0","1","","0.0265596094","0.6","0.8","0.2","0.4","0.3778881599","0.0265596094","0.4162513677","0.3152574144","","","","","","","","","","","74","J","1","","","30","main_expt"
"416","","bandit","109","396732","0.0-70.0-0.0","71679354","wem/bandit_either","A3P7AXWF57BHNX","either","7","","","","","","","0","1","0","","0.43337534","0.6","0.8","0.2","0.4","0.3585458117","0.02828816112","0.43337534","0.3508579725","","","","","","","","","","","75","K","2","","","31","main_expt"
"263","","bandit","110","398544","0.0-71.0-0.0","71679354","wem/bandit_either","A3P7AXWF57BHNX","either","7","","","","","","","0","0","1","0.4399105216","","0.6","0.8","0.2","0.4","","","","","0.3511664436","0.03857304495","0.4399105216","0.3902021543","","","","","","","75","K","2","","","32","main_expt"
"342","","bandit","111","400416","0.0-72.0-0.0","71679354","wem/bandit_either","A3P7AXWF57BHNX","either","7","","","","","","","0","0","1","","0.3859623535","0.6","0.8","0.2","0.4","0.3924960189","0.02642959278","0.3859623535","0.4112626521","","","","","","","","","","","75","K","2","","","33","main_expt"
"266","","bandit","112","402211","0.0-73.0-0.0","71679354","wem/bandit_either","A3P7AXWF57BHNX","either","7","","","","","","","0","0","1","","0.4231921331","0.6","0.8","0.2","0.4","0.3713907517","0.06800028167","0.4231921331","0.3912589523","","","","","","","","","","","75","K","2","","","34","main_expt"
"360","","bandit","113","404106","0.0-74.0-0.0","71679354","wem/bandit_either","A3P7AXWF57BHNX","either","7","","","","","","","0","1","0","","0.3663646496","0.6","0.8","0.2","0.4","0.3929004689","0.05710280771","0.3950458867","0.3663646496","","","","","","","","","","","76","L","3","","","35","main_expt"
"415","","bandit","114","406069","0.0-75.0-0.0","71679354","wem/bandit_either","A3P7AXWF57BHNX","either","7","","","","","","","0","0","1","","0.3045225128","0.6","0.8","0.2","0.4","0.3820467604","0.07756943076","0.4005306787","0.3045225128","","","","","","","","","","","76","L","3","","","36","main_expt"
"328","","bandit","115","407949","0.0-76.0-0.0","71679354","wem/bandit_either","A3P7AXWF57BHNX","either","7","","","","","","","0","0","1","0.2806474599","","0.6","0.8","0.2","0.4","","","","","0.3948022939","0.06074629621","0.3972735937","0.2806474599","","","","","","","76","L","3","","","37","main_expt"
"294","","bandit","116","409792","0.0-77.0-0.0","71679354","wem/bandit_either","A3P7AXWF57BHNX","either","7","","","","","","","0","0","1","","0.3769579019","0.6","0.8","0.2","0.4","0.3769579019","0.07063042774","0.38339591","0.3558759705","","","","","","","","","","","72","H","0","img/none_selected.jpg","","38","main_expt"
"334","","bandit","117","411663","0.0-78.0-0.0","71679354","wem/bandit_either","A3P7AXWF57BHNX","either","7","","","","","","","1","0","0","0.4030344636","","0.6","0.8","0.2","0.4","","","","","0.4030344636","0.06209293178","0.3906354184","0.3194138052","","","","","","","72","H","0","img/none_selected.jpg","","39","main_expt"
"343","","bandit","118","413577","0.0-79.0-0.0","71679354","wem/bandit_either","A3P7AXWF57BHNX","either","7","","","","","","","1","0","0","0.3622335218","","0.6","0.8","0.2","0.4","","","","","0.3622335218","0.06952578958","0.3623676206","0.3549086085","","","","","","","72","H","0","img/none_selected.jpg","","40","main_expt"
"356","","bandit","119","415484","0.0-80.0-0.0","71679354","wem/bandit_either","A3P7AXWF57BHNX","either","7","","","","","","","0","0","1","0.3911596719","","0.6","0.8","0.2","0.4","","","","","0.3911596719","0.1291245709","0.3873704927","0.3452113815","","","","","","","72","H","0","img/none_selected.jpg","","41","main_expt"
"580","","bandit","120","417625","0.0-81.0-0.0","71679354","wem/bandit_either","A3P7AXWF57BHNX","either","7","","","","","","","1","0","0","0.1174523948","","0.6","0.8","0.2","0.4","","","","","0.3921858285","0.1174523948","0.359823116","0.3522960267","","","","","","","74","J","1","","","42","main_expt"
"453","","bandit","121","419613","0.0-82.0-0.0","71679354","wem/bandit_either","A3P7AXWF57BHNX","either","7","","","","","","","0","0","1","0.1201484523","","0.6","0.8","0.2","0.4","","","","","0.3831213528","0.1201484523","0.3710191411","0.3093122096","","","","","","","74","J","1","","","43","main_expt"
"418","","bandit","122","421567","0.0-83.0-0.0","71679354","wem/bandit_either","A3P7AXWF57BHNX","either","7","","","","","","","0","0","1","0.09958360536","","0.6","0.8","0.2","0.4","","","","","0.3518708159","0.09958360536","0.3874065465","0.3026159556","","","","","","","74","J","1","","","44","main_expt"
"1127","","bandit","123","424257","0.0-84.0-0.0","71679354","wem/bandit_either","A3P7AXWF57BHNX","either","7","","","","","","","0","0","1","0.05173655998","","0.6","0.8","0.2","0.4","","","","","0.3122870636","0.05173655998","0.3851533971","0.3336294247","","","","","","","74","J","1","","","45","main_expt"
"579","","bandit","124","426378","0.0-85.0-0.0","71679354","wem/bandit_either","A3P7AXWF57BHNX","either","7","","","","","","","0","0","1","0.05945041096","","0.6","0.8","0.2","0.4","","","","","0.2635721956","0.05945041096","0.4055883719","0.3400222736","","","","","","","74","J","1","","","46","main_expt"
"260","","bandit","125","428175","0.0-86.0-0.0","71679354","wem/bandit_either","A3P7AXWF57BHNX","either","7","","","","","","","0","1","0","","0.3671593179","0.6","0.8","0.2","0.4","0.2856785865","0.04375763727","0.3671593179","0.328707825","","","","","","","","","","","75","K","2","","","47","main_expt"
"385","","bandit","126","430097","0.0-87.0-0.0","71679354","wem/bandit_either","A3P7AXWF57BHNX","either","7","","","","","","","0","1","0","","0.3198203038","0.6","0.8","0.2","0.4","0.2649087478","0.0666370861","0.3198203038","0.3307690822","","","","","","","","","","","75","K","2","","","48","main_expt"
"303","","bandit","127","431956","0.0-88.0-0.0","71679354","wem/bandit_either","A3P7AXWF57BHNX","either","7","","","","","","","0","1","0","","0.3111357295","0.6","0.8","0.2","0.4","0.2462979357","0.08266213623","0.3111357295","0.3438067684","","","","","","","","","","","75","K","2","","","49","main_expt"
"334","","bandit","128","433835","0.0-89.0-0.0","71679354","wem/bandit_either","A3P7AXWF57BHNX","either","7","","","","","","","0","0","1","","0.3196682981","0.6","0.8","0.2","0.4","0.2490076798","0.08795051988","0.3196682981","0.4037002216","","","","","","","","","","","75","K","2","","","50","main_expt"
"341","","bandit","129","435711","0.0-90.0-0.0","71679354","wem/bandit_either","A3P7AXWF57BHNX","either","7","","","","","","","0","0","1","","0.3088596379","0.6","0.8","0.2","0.4","0.305209751","0.07533366945","0.3088596379","0.3557518394","","","","","","","","","","","75","K","2","","","51","main_expt"
"305","","bandit","130","437554","0.0-91.0-0.0","71679354","wem/bandit_either","A3P7AXWF57BHNX","either","7","","","","","","","0","0","1","","0.3060924957","0.6","0.8","0.2","0.4","0.3087204988","0.06506638851","0.3060924957","0.3254324358","","","","","","","","","","","75","K","2","","","52","main_expt"
"353","","bandit","131","439435","0.0-92.0-0.0","71679354","wem/bandit_either","A3P7AXWF57BHNX","either","7","","","","","","","0","0","1","","0.2952150256","0.6","0.8","0.2","0.4","0.2984188648","0.06562792832","0.3229319808","0.2952150256","","","","","","","","","","","76","L","3","","","53","main_expt"
"298","","bandit","132","441270","0.0-93.0-0.0","71679354","wem/bandit_either","A3P7AXWF57BHNX","either","7","","","","","","","0","0","1","","0.300320608","0.6","0.8","0.2","0.4","0.3353917468","0.04630081711","0.3280138586","0.300320608","","","","","","","","","","","76","L","3","","","54","main_expt"
"295","","bandit","133","443132","0.0-94.0-0.0","71679354","wem/bandit_either","A3P7AXWF57BHNX","either","7","","","","","","","1","0","0","0.2985084879","","0.6","0.8","0.2","0.4","","","","","0.3259144651","0.03868373719","0.2777260571","0.2985084879","","","","","","","76","L","3","","","55","main_expt"
"433","","bandit","134","445121","0.0-95.0-0.0","71679354","wem/bandit_either","A3P7AXWF57BHNX","either","7","","","","","","","0","0","1","","0.2607009345","0.6","0.8","0.2","0.4","0.3259049121","0.06235362297","0.1791004868","0.2607009345","","","","","","","","","","","76","L","3","","","56","main_expt"
"412","","bandit","135","447063","0.0-96.0-0.0","71679354","wem/bandit_either","A3P7AXWF57BHNX","either","7","","","","","","","0","0","1","0.2565854794","","0.6","0.8","0.2","0.4","","","","","0.3687904078","0.04639461243","0.2182265394","0.2565854794","","","","","","","76","L","3","","","57","main_expt"
"99","","bandit","136","448755","0.0-97.0-0.0","71679354","wem/bandit_either","A3P7AXWF57BHNX","either","7","","","","","","","0","0","1","","0.3422038875","0.6","0.8","0.2","0.4","0.3422038875","0.08954448139","0.2970860181","0.319121847","","","","","","","","","","","72","H","0","img/none_selected.jpg","","58","main_expt"
"437","","bandit","137","450738","0.0-98.0-0.0","71679354","wem/bandit_either","A3P7AXWF57BHNX","either","7","","","","","","","1","0","0","0.3771421139","","0.6","0.8","0.2","0.4","","","","","0.3771421139","0.07390342289","0.3249685468","0.3269923399","","","","","","","72","H","0","img/none_selected.jpg","","59","main_expt"
"355","","bandit","138","452618","0.0-99.0-0.0","71679354","wem/bandit_either","A3P7AXWF57BHNX","either","7","","","","","","","0","0","1","","0.3620124399","0.6","0.8","0.2","0.4","0.3620124399","0.05801548519","0.2931470039","0.3150968823","","","","","","","","","","","72","H","0","img/none_selected.jpg","","60","main_expt"
"258","","bandit","139","454425","0.0-100.0-0.0","71679354","wem/bandit_either","A3P7AXWF57BHNX","either","7","","","","","","","0","0","1","0.07333263924","","0.6","0.8","0.2","0.4","","","","","0.3958116198","0.07333263924","0.2646536279","0.324539239","","","","","","","74","J","1","","","61","main_expt"
"184","","bandit","140","456143","0.0-101.0-0.0","71679354","wem/bandit_either","A3P7AXWF57BHNX","either","7","","","","","","","0","0","1","","0.242461968","0.6","0.8","0.2","0.4","0.3615218546","0.07563430262","0.242461968","0.3066306166","","","","","","","","","","","75","K","2","","","62","main_expt"
"394","","bandit","141","458067","0.0-102.0-0.0","71679354","wem/bandit_either","A3P7AXWF57BHNX","either","7","","","","","","","0","1","0","","0.3068900116","0.6","0.8","0.2","0.4","0.3574266064","0.06826526778","0.2206683029","0.3068900116","","","","","","","","","","","76","L","3","","","63","main_expt"
"459","","bandit","142","460067","0.0-103.0-0.0","71679354","wem/bandit_either","A3P7AXWF57BHNX","either","7","","","","","","","0","0","1","0.2936494982","","0.6","0.8","0.2","0.4","","","","","0.3541915859","0.1175271989","0.2288959862","0.2936494982","","","","","","","76","L","3","","","64","main_expt"
"141","","bandit","143","461753","0.0-104.0-0.0","71679354","wem/bandit_either","A3P7AXWF57BHNX","either","7","","","","","","","0","0","1","","0.2346523549","0.6","0.8","0.2","0.4","0.3339820985","0.1273865191","0.2346523549","0.290236101","","","","","","","","","","","75","K","2","","","65","main_expt"
"340","","bandit","144","463628","0.0-105.0-0.0","71679354","wem/bandit_either","A3P7AXWF57BHNX","either","7","","","","","","","0","0","1","","0.3195467083","0.6","0.8","0.2","0.4","0.3195467083","0.09075088943","0.1881688105","0.2512036594","","","","","","","","","","","72","H","0","img/none_selected.jpg","","66","main_expt"
"493","","bandit","145","465663","0.0-106.0-0.0","71679354","wem/bandit_either","A3P7AXWF57BHNX","either","7","","","","","","","0","0","1","0.08077075725","","0.6","0.8","0.2","0.4","","","","","0.3477383846","0.08077075725","0.231043846","0.263747572","","","","","","","74","J","1","","","67","main_expt"
"285","","bandit","146","467476","0.0-107.0-0.0","71679354","wem/bandit_either","A3P7AXWF57BHNX","either","7","","","","","","","0","0","1","0.08810311296","","0.6","0.8","0.2","0.4","","","","","0.3365352069","0.08810311296","0.2576664243","0.2892519303","","","","","","","74","J","1","","","68","main_expt"
"296","","bandit","147","469322","0.0-108.0-0.0","71679354","wem/bandit_either","A3P7AXWF57BHNX","either","7","","","","","","","0","0","1","0.1260156682","","0.6","0.8","0.2","0.4","","","","","0.3148812039","0.1260156682","0.2183283259","0.2383664846","","","","","","","74","J","1","","","69","main_expt"
"457","","bandit","148","471307","0.0-109.0-0.0","71679354","wem/bandit_either","A3P7AXWF57BHNX","either","7","","","","","","","0","0","1","0.08773951932","","0.6","0.8","0.2","0.4","","","","","0.3154014692","0.08773951932","0.2260484764","0.2497111545","","","","","","","74","J","1","","","70","main_expt"
"358","","bandit","149","473199","0.0-110.0-0.0","71679354","wem/bandit_either","A3P7AXWF57BHNX","either","7","","","","","","","0","0","1","0.1154304285","","0.6","0.8","0.2","0.4","","","","","0.219815459","0.1154304285","0.3196469567","0.2095843002","","","","","","","74","J","1","","","71","main_expt"
"306","","bandit","150","475064","0.0-111.0-0.0","71679354","wem/bandit_either","A3P7AXWF57BHNX","either","7","","","","","","","0","0","1","0.2623730272","","0.6","0.8","0.2","0.4","","","","","0.2623730272","0.10097247","0.3644141189","0.1972488467","","","","","","","72","H","0","img/none_selected.jpg","","72","main_expt"
"347","","bandit","151","476950","0.0-112.0-0.0","71679354","wem/bandit_either","A3P7AXWF57BHNX","either","7","","","","","","","0","0","1","0.2639805735","","0.6","0.8","0.2","0.4","","","","","0.2639805735","0.0746930591","0.4081842109","0.15494396","","","","","","","72","H","0","img/none_selected.jpg","","73","main_expt"
"333","","bandit","152","478815","0.0-113.0-0.0","71679354","wem/bandit_either","A3P7AXWF57BHNX","either","7","","","","","","","0","0","1","0.2770925356","","0.6","0.8","0.2","0.4","","","","","0.2770925356","0.1124392477","0.4506698749","0.1324790415","","","","","","","72","H","0","img/none_selected.jpg","","74","main_expt"
"288","","bandit","153","480647","0.0-114.0-0.0","71679354","wem/bandit_either","A3P7AXWF57BHNX","either","7","","","","","","","0","0","1","0.179195356","","0.6","0.8","0.2","0.4","","","","","0.2796652475","0.113494578","0.454520075","0.179195356","","","","","","","76","L","3","","","75","main_expt"
"716","","bandit","154","482899","0.0-115.0-0.0","71679354","wem/bandit_either","A3P7AXWF57BHNX","either","7","","","","","","","0","0","1","","0.215808919","0.6","0.8","0.2","0.4","0.3153427244","0.1469344428","0.466199952","0.215808919","","","","","","","","","","","76","L","3","","","76","main_expt"
"186","","bandit","155","484647","0.0-116.0-0.0","71679354","wem/bandit_either","A3P7AXWF57BHNX","either","7","","","","","","","0","1","0","","0.2312347408","0.6","0.8","0.2","0.4","0.3676911864","0.2152215887","0.4402141775","0.2312347408","","","","","","","","","","","76","L","3","","","77","main_expt"
"382","","bandit","156","486577","0.0-117.0-0.0","71679354","wem/bandit_either","A3P7AXWF57BHNX","either","7","","","","","","","0","0","1","","0.2197025874","0.6","0.8","0.2","0.4","0.3434277392","0.2055177618","0.4525957793","0.2197025874","","","","","","","","","","","76","L","3","","","78","main_expt"
"259","","bandit","157","488375","0.0-118.0-0.0","71679354","wem/bandit_either","A3P7AXWF57BHNX","either","7","","","","","","","0","0","1","","0.2227420924","0.6","0.8","0.2","0.4","0.3758616161","0.222262525","0.4630799716","0.2227420924","","","","","","","","","","","76","L","3","","","79","main_expt"
"249","","bandit","158","490160","0.0-119.0-0.0","71679354","wem/bandit_either","A3P7AXWF57BHNX","either","7","","","","","","","0","0","1","","0.423693353","0.6","0.8","0.2","0.4","0.3862393514","0.2700860438","0.423693353","0.2283057493","","","","","","","","","","","75","K","2","","","80","main_expt"
"35","","bandit","159","491723","0.0-120.0-0.0","71679354","wem/bandit_either","A3P7AXWF57BHNX","either","7","","","","","","","0","0","1","","0.2642688004","0.6","0.8","0.2","0.4","0.3593770893","0.2642688004","0.4319112677","0.2721525977","","","","","","","","","","","74","J","1","","","81","main_expt"
"332","","bandit","160","493583","0.0-121.0-0.0","71679354","wem/bandit_either","A3P7AXWF57BHNX","either","7","","","","","","","0","0","1","0.4035110645","","0.6","0.8","0.2","0.4","","","","","0.4035110645","0.2824164754","0.441827487","0.2850237184","","","","","","","72","H","0","img/none_selected.jpg","","82","main_expt"
"564","","bandit","161","495680","0.0-122.0-0.0","71679354","wem/bandit_either","A3P7AXWF57BHNX","either","7","","","","","","","0","0","1","","0.3719627038","0.6","0.8","0.2","0.4","0.3719627038","0.2819095575","0.4288861504","0.3236436683","","","","","","","","","","","72","H","0","img/none_selected.jpg","","83","main_expt"
"399","","bandit","162","497616","0.0-123.0-0.0","71679354","wem/bandit_either","A3P7AXWF57BHNX","either","7","","","","","","","0","0","1","0.3349288927","","0.6","0.8","0.2","0.4","","","","","0.3349288927","0.2589745902","0.4350385517","0.3339638593","","","","","","","72","H","0","img/none_selected.jpg","","84","main_expt"
"428","","bandit","163","499593","0.0-124.0-0.0","71679354","wem/bandit_either","A3P7AXWF57BHNX","either","7","","","","","","","1","0","0","0.3626504113","","0.6","0.8","0.2","0.4","","","","","0.3247899262","0.3626504113","0.4255505645","0.3795022601","","","","","","","74","J","1","","","85","main_expt"
"358","","bandit","164","501489","0.0-125.0-0.0","71679354","wem/bandit_either","A3P7AXWF57BHNX","either","7","","","","","","","0","0","1","","0.3598915268","0.6","0.8","0.2","0.4","0.3443557019","0.3598915268","0.4330938692","0.3835523064","","","","","","","","","","","74","J","1","","","86","main_expt"
"280","","bandit","165","503306","0.0-126.0-0.0","71679354","wem/bandit_either","A3P7AXWF57BHNX","either","7","","","","","","","1","0","0","0.3433052933","","0.6","0.8","0.2","0.4","","","","","0.3648776167","0.3433052933","0.4548398529","0.3772514457","","","","","","","74","J","1","","","87","main_expt"
"562","","bandit","166","505423","0.0-127.0-0.0","71679354","wem/bandit_either","A3P7AXWF57BHNX","either","7","","","","","","","0","0","1","0.4022938878","","0.6","0.8","0.2","0.4","","","","","0.3609631839","0.4022938878","0.4493124031","0.3766830519","","","","","","","74","J","1","","","88","main_expt"
"437","","bandit","167","507402","0.0-128.0-0.0","71679354","wem/bandit_either","A3P7AXWF57BHNX","either","7","","","","","","","1","0","0","0.4141493151","","0.6","0.8","0.2","0.4","","","","","0.3636167192","0.4141493151","0.4161110063","0.3537755119","","","","","","","74","J","1","","","89","main_expt"
"478","","bandit","168","509410","0.0-129.0-0.0","71679354","wem/bandit_either","A3P7AXWF57BHNX","either","7","","","","","","","0","0","1","0.4136124289","","0.6","0.8","0.2","0.4","","","","","0.3563441379","0.4136124289","0.405260856","0.3014761449","","","","","","","74","J","1","","","90","main_expt"
"374","","bandit","169","511312","0.0-130.0-0.0","71679354","wem/bandit_either","A3P7AXWF57BHNX","either","7","","","","","","","1","0","0","0.4184852842","","0.6","0.8","0.2","0.4","","","","","0.3389138503","0.4184852842","0.3827048226","0.2694038268","","","","","","","74","J","1","","","91","main_expt"
"510","","bandit","170","513394","0.0-131.0-0.0","71679354","wem/bandit_either","A3P7AXWF57BHNX","either","7","","","","","","","1","0","0","0.4456808576","","0.6","0.8","0.2","0.4","","","","","0.3263360165","0.4456808576","0.3552182969","0.2651536323","","","","","","","74","J","1","","","92","main_expt"
"319","","bandit","171","515235","0.0-132.0-0.0","71679354","wem/bandit_either","A3P7AXWF57BHNX","either","7","","","","","","","0","0","1","0.4355219805","","0.6","0.8","0.2","0.4","","","","","0.2844131911","0.4355219805","0.3286897504","0.1997208586","","","","","","","74","J","1","","","93","main_expt"
"289","","bandit","172","517088","0.0-133.0-0.0","71679354","wem/bandit_either","A3P7AXWF57BHNX","either","7","","","","","","","0","0","1","0.4609821192","","0.6","0.8","0.2","0.4","","","","","0.2978465223","0.4609821192","0.3422490236","0.2442555344","","","","","","","74","J","1","","","94","main_expt"
"624","","bandit","173","519276","0.0-134.0-0.0","71679354","wem/bandit_either","A3P7AXWF57BHNX","either","7","","","","","","","1","0","0","0.4419374505","","0.6","0.8","0.2","0.4","","","","","0.2638723705","0.4419374505","0.3160161054","0.2638839348","","","","","","","74","J","1","","","95","main_expt"
"553","","bandit","174","521379","0.0-135.0-0.0","71679354","wem/bandit_either","A3P7AXWF57BHNX","either","7","","","","","","","1","0","0","0.39438674","","0.6","0.8","0.2","0.4","","","","","0.2276010735","0.39438674","0.2945538732","0.2265245807","","","","","","","74","J","1","","","96","main_expt"
"363","","bandit","175","523286","0.0-136.0-0.0","71679354","wem/bandit_either","A3P7AXWF57BHNX","either","7","","","","","","","1","0","0","0.3617668419","","0.6","0.8","0.2","0.4","","","","","0.2045446072","0.3617668419","0.393563827","0.1969189177","","","","","","","74","J","1","","","97","main_expt"
"346","","bandit","176","525160","0.0-137.0-0.0","71679354","wem/bandit_either","A3P7AXWF57BHNX","either","7","","","","","","","0","0","1","0.3737913853","","0.6","0.8","0.2","0.4","","","","","0.2436418828","0.3737913853","0.4046254927","0.1761144245","","","","","","","74","J","1","","","98","main_expt"
"379","","bandit","177","527080","0.0-138.0-0.0","71679354","wem/bandit_either","A3P7AXWF57BHNX","either","7","","","","","","","1","0","0","0.4221129479","","0.6","0.8","0.2","0.4","","","","","0.2473144087","0.4221129479","0.3659012549","0.1211630765","","","","","","","74","J","1","","","99","main_expt"
"316","","bandit","178","528933","0.0-139.0-0.0","71679354","wem/bandit_either","A3P7AXWF57BHNX","either","7","","","","","","","0","1","0","","0.3857893684","0.6","0.8","0.2","0.4","0.2707360286","0.3857893684","0.400368336","0.1257326749","","","","","","","","","","","74","J","1","","","100","main_expt"
"374","","bandit","179","530843","0.0-140.0-0.0","71679354","wem/bandit_either","A3P7AXWF57BHNX","either","7","","","","","","","1","0","0","0.3635527264","","0.6","0.8","0.2","0.4","","","","","0.3250409822","0.3635527264","0.4367931528","0.09975532208","","","","","","","74","J","1","","","101","main_expt"
"384","","bandit","180","532788","0.0-141.0-0.0","71679354","wem/bandit_either","A3P7AXWF57BHNX","either","7","","","","","","","1","0","0","0.3738375489","","0.6","0.8","0.2","0.4","","","","","0.3088580598","0.3738375489","0.4371155326","0.1127414424","","","","","","","74","J","1","","","102","main_expt"
"587","","bandit","181","534939","0.0-142.0-0.0","71679354","wem/bandit_either","A3P7AXWF57BHNX","either","7","","","","","","","0","0","1","0.3860163181","","0.6","0.8","0.2","0.4","","","","","0.2901001995","0.3860163181","0.388648264","0.1232600734","","","","","","","74","J","1","","","103","main_expt"
"240","","bandit","182","536727","0.0-143.0-0.0","71679354","wem/bandit_either","A3P7AXWF57BHNX","either","7","","","","","","","1","0","0","0.390692362","","0.6","0.8","0.2","0.4","","","","","0.309645936","0.390692362","0.3718469433","0.08156843846","","","","","","","74","J","1","","","104","main_expt"
"418","","bandit","183","538679","0.0-144.0-0.0","71679354","wem/bandit_either","A3P7AXWF57BHNX","either","7","","","","","","","0","0","1","0.4139082553","","0.6","0.8","0.2","0.4","","","","","0.3386062745","0.4139082553","0.3920304628","0.08245659199","","","","","","","74","J","1","","","105","main_expt"
"267","","bandit","184","540475","0.0-145.0-0.0","71679354","wem/bandit_either","A3P7AXWF57BHNX","either","7","","","","","","","0","0","1","0.3295275825","","0.6","0.8","0.2","0.4","","","","","0.3827539061","0.3295275825","0.3733497125","0.1276639339","","","","","","","74","J","1","","","106","main_expt"
"317","","bandit","185","542340","0.0-146.0-0.0","71679354","wem/bandit_either","A3P7AXWF57BHNX","either","7","","","","","","","0","0","1","","0.3499712774","0.6","0.8","0.2","0.4","0.3401355396","0.3499712774","0.3878439861","0.1812689745","","","","","","","","","","","74","J","1","","","107","main_expt"
"393","","bandit","186","544269","0.0-147.0-0.0","71679354","wem/bandit_either","A3P7AXWF57BHNX","either","7","","","","","","","0","0","1","0.2666891207","","0.6","0.8","0.2","0.4","","","","","0.3258039352","0.2666891207","0.3529013302","0.2187982558","","","","","","","74","J","1","","","108","main_expt"
"325","","bandit","187","546144","0.0-148.0-0.0","71679354","wem/bandit_either","A3P7AXWF57BHNX","either","7","","","","","","","0","1","0","","0.2575067634","0.6","0.8","0.2","0.4","0.374919859","0.2575067634","0.3457683734","0.2201216928","","","","","","","","","","","74","J","1","","","109","main_expt"
"372","","bandit","188","548076","0.0-149.0-0.0","71679354","wem/bandit_either","A3P7AXWF57BHNX","either","7","","","","","","","0","0","1","","0.2664913793","0.6","0.8","0.2","0.4","0.3656186065","0.2664913793","0.3316873257","0.1789817232","","","","","","","","","","","74","J","1","","","110","main_expt"
"303","","bandit","189","549918","0.0-150.0-0.0","71679354","wem/bandit_either","A3P7AXWF57BHNX","either","7","","","","","","","0","0","1","0.2233446911","","0.6","0.8","0.2","0.4","","","","","0.3649701027","0.2233446911","0.3434945318","0.2404947452","","","","","","","74","J","1","","","111","main_expt"
"301","","bandit","190","551753","0.0-151.0-0.0","71679354","wem/bandit_either","A3P7AXWF57BHNX","either","7","","","","","","","0","0","1","0.2170082082","","0.6","0.8","0.2","0.4","","","","","0.3371716456","0.2170082082","0.2729480053","0.2959558532","","","","","","","74","J","1","","","112","main_expt"
"347","","bandit","191","553643","0.0-152.0-0.0","71679354","wem/bandit_either","A3P7AXWF57BHNX","either","7","","","","","","","1","0","0","0.1912277411","","0.6","0.8","0.2","0.4","","","","","0.2587224119","0.1912277411","0.2579672073","0.2966985553","","","","","","","74","J","1","","","113","main_expt"
"332","","bandit","192","555540","0.0-153.0-0.0","71679354","wem/bandit_either","A3P7AXWF57BHNX","either","7","","","","","","","0","0","1","0.1691995451","","0.6","0.8","0.2","0.4","","","","","0.2384324947","0.1691995451","0.24654084","0.3289730608","","","","","","","74","J","1","","","114","main_expt"
"239","","bandit","193","557328","0.0-154.0-0.0","71679354","wem/bandit_either","A3P7AXWF57BHNX","either","7","","","","","","","0","0","1","","0.246649757","0.6","0.8","0.2","0.4","0.2705755989","0.1263730162","0.246649757","0.2783705844","","","","","","","","","","","75","K","2","","","115","main_expt"
"309","","bandit","194","559165","0.0-155.0-0.0","71679354","wem/bandit_either","A3P7AXWF57BHNX","either","7","","","","","","","0","0","1","","0.2190482835","0.6","0.8","0.2","0.4","0.2666822","0.1130092975","0.2190482835","0.2990421824","","","","","","","","","","","75","K","2","","","116","main_expt"
"101","","bandit","195","560810","0.0-156.0-0.0","71679354","wem/bandit_either","A3P7AXWF57BHNX","either","7","","","","","","","0","0","1","","0.1860086181","0.6","0.8","0.2","0.4","0.2664749026","0.1317362661","0.1860086181","0.3214730448","","","","","","","","","","","75","K","2","","","117","main_expt"
"318","","bandit","196","562697","0.0-157.0-0.0","71679354","wem/bandit_either","A3P7AXWF57BHNX","either","7","","","","","","","0","0","1","","0.1765749983","0.6","0.8","0.2","0.4","0.285497096","0.08460291254","0.1765749983","0.3996160597","","","","","","","","","","","75","K","2","","","118","main_expt"
"385","","bandit","197","564634","0.0-158.0-0.0","71679354","wem/bandit_either","A3P7AXWF57BHNX","either","7","","","","","","","0","0","1","0.3004427434","","0.6","0.8","0.2","0.4","","","","","0.3004427434","0.09168363065","0.1840588368","0.4143362638","","","","","","","72","H","0","img/none_selected.jpg","","119","main_expt"
"72","","bandit","198","566240","0.0-159.0-0.0","71679354","wem/bandit_either","A3P7AXWF57BHNX","either","7","","","","","","","0","0","1","0.06729372802","","0.6","0.8","0.2","0.4","","","","","0.2419855731","0.06729372802","0.1988357929","0.372340151","","","","","","","74","J","1","","","120","main_expt"
"431","","bandit","199","568213","0.0-160.0-0.0","71679354","wem/bandit_either","A3P7AXWF57BHNX","either","7","","","","","","","0","0","1","0.3910424524","","0.6","0.8","0.2","0.4","","","","","0.3054132847","0.08346408207","0.2315674","0.3910424524","","","","","","","76","L","3","","","121","main_expt"
"418","","bandit","200","570181","0.0-161.0-0.0","71679354","wem/bandit_either","A3P7AXWF57BHNX","either","7","","","","","","","0","0","1","","0.3813410711","0.6","0.8","0.2","0.4","0.2473202095","0.05632743158","0.2041322171","0.3813410711","","","","","","","","","","","76","L","3","","","122","main_expt"
"290","","bandit","201","572033","0.0-162.0-0.0","71679354","wem/bandit_either","A3P7AXWF57BHNX","either","7","","","","","","","0","0","1","","0.1945268209","0.6","0.8","0.2","0.4","0.2909195989","0.05516745574","0.1945268209","0.4247291795","","","","","","","","","","","75","K","2","","","123","main_expt"
"304","","bandit","202","573891","0.0-163.0-0.0","71679354","wem/bandit_either","A3P7AXWF57BHNX","either","7","","","","","","","0","0","1","0.05528311039","","0.6","0.8","0.2","0.4","","","","","0.3493750294","0.05528311039","0.2206749142","0.4311179713","","","","","","","74","J","1","","","124","main_expt"
"345","","bandit","203","575800","0.0-164.0-0.0","71679354","wem/bandit_either","A3P7AXWF57BHNX","either","7","","","","","","","0","0","1","","0.3883668019","0.6","0.8","0.2","0.4","0.3883668019","0.07149807259","0.212012295","0.4085782939","","","","","","","","","","","72","H","0","img/none_selected.jpg","","125","main_expt"
"359","","bandit","204","577690","0.0-165.0-0.0","71679354","wem/bandit_either","A3P7AXWF57BHNX","either","7","","","","","","","1","0","0","0.3888129637","","0.6","0.8","0.2","0.4","","","","","0.3888129637","0.1137803622","0.1656684785","0.4110861309","","","","","","","72","H","0","img/none_selected.jpg","","126","main_expt"
"426","","bandit","205","579669","0.0-166.0-0.0","71679354","wem/bandit_either","A3P7AXWF57BHNX","either","7","","","","","","","0","0","1","","0.3659195129","0.6","0.8","0.2","0.4","0.3659195129","0.1003054442","0.1685301808","0.4214671818","","","","","","","","","","","72","H","0","img/none_selected.jpg","","127","main_expt"
"353","","bandit","206","581575","0.0-167.0-0.0","71679354","wem/bandit_either","A3P7AXWF57BHNX","either","7","","","","","","","0","0","1","0.3689954399","","0.6","0.8","0.2","0.4","","","","","0.3689954399","0.1378169536","0.1703551811","0.36889317","","","","","","","72","H","0","img/none_selected.jpg","","128","main_expt"
"280","","bandit","207","583393","0.0-168.0-0.0","71679354","wem/bandit_either","A3P7AXWF57BHNX","either","7","","","","","","","0","0","1","","0.1333081235","0.6","0.8","0.2","0.4","0.3600340942","0.1333081235","0.1624753709","0.3840267129","","","","","","","","","","","74","J","1","","","129","main_expt"
"379","","bandit","208","585299","0.0-169.0-0.0","71679354","wem/bandit_either","A3P7AXWF57BHNX","either","7","","","","","","","0","1","0","","0.2335662737","0.6","0.8","0.2","0.4","0.3580797835","0.1682212827","0.2335662737","0.3809677701","","","","","","","","","","","75","K","2","","","130","main_expt"
"286","","bandit","209","587125","0.0-170.0-0.0","71679354","wem/bandit_either","A3P7AXWF57BHNX","either","7","","","","","","","0","0","1","","0.240441026","0.6","0.8","0.2","0.4","0.3785893338","0.2193829955","0.240441026","0.3681933818","","","","","","","","","","","75","K","2","","","131","main_expt"
"319","","bandit","210","588975","0.0-171.0-0.0","71679354","wem/bandit_either","A3P7AXWF57BHNX","either","7","","","","","","","0","1","0","","0.3664045944","0.6","0.8","0.2","0.4","0.3764735404","0.2693349046","0.2266699971","0.3664045944","","","","","","","","","","","76","L","3","","","132","main_expt"
"329","","bandit","211","590899","0.0-172.0-0.0","71679354","wem/bandit_either","A3P7AXWF57BHNX","either","7","","","","","","","0","0","1","","0.4046437197","0.6","0.8","0.2","0.4","0.3433534211","0.2576546077","0.1994193025","0.4046437197","","","","","","","","","","","76","L","3","","","133","main_expt"
"337","","bandit","212","592799","0.0-173.0-0.0","71679354","wem/bandit_either","A3P7AXWF57BHNX","either","7","","","","","","","0","0","1","0.364490756","","0.6","0.8","0.2","0.4","","","","","0.3606247271","0.2412372273","0.1891464922","0.364490756","","","","","","","76","L","3","","","134","main_expt"
"156","","bandit","213","594481","0.0-174.0-0.0","71679354","wem/bandit_either","A3P7AXWF57BHNX","either","7","","","","","","","0","0","1","","0.311914316","0.6","0.8","0.2","0.4","0.3268624306","0.2198641054","0.1614798668","0.311914316","","","","","","","","","","","76","L","3","","","135","main_expt"
"269","","bandit","214","596315","0.0-175.0-0.0","71679354","wem/bandit_either","A3P7AXWF57BHNX","either","7","","","","","","","0","0","1","","0.2653901568","0.6","0.8","0.2","0.4","0.2854606769","0.2504132697","0.1880386222","0.2653901568","","","","","","","","","","","76","L","3","","","136","main_expt"
"288","","bandit","215","598159","0.0-176.0-0.0","71679354","wem/bandit_either","A3P7AXWF57BHNX","either","7","","","","","","","0","0","1","","0.1961818793","0.6","0.8","0.2","0.4","0.3311747399","0.1912230989","0.1961818793","0.2413295316","","","","","","","","","","","75","K","2","","","137","main_expt"
"272","","bandit","216","600002","0.0-177.0-0.0","71679354","wem/bandit_either","A3P7AXWF57BHNX","either","7","","","","","","","0","0","1","","0.2857678963","0.6","0.8","0.2","0.4","0.2570785188","0.1576256809","0.2857678963","0.2060295423","","","","","","","","","","","75","K","2","","","138","main_expt"
"280","","bandit","217","601813","0.0-178.0-0.0","71679354","wem/bandit_either","A3P7AXWF57BHNX","either","7","","","","","","","0","1","0","","0.3449131854","0.6","0.8","0.2","0.4","0.2858060749","0.1019788138","0.3449131854","0.1809645164","","","","","","","","","","","75","K","2","","","139","main_expt"
"549","","bandit","218","603911","0.0-179.0-0.0","71679354","wem/bandit_either","A3P7AXWF57BHNX","either","7","","","","","","","0","0","1","","0.2537716732","0.6","0.8","0.2","0.4","0.2975559752","0.07754087054","0.2537716732","0.1843216893","","","","","","","","","","","75","K","2","","","140","main_expt"
"416","","bandit","219","605880","0.0-180.0-0.0","71679354","wem/bandit_either","A3P7AXWF57BHNX","either","7","","","","","","","0","0","1","0.09489610577","","0.6","0.8","0.2","0.4","","","","","0.2802168405","0.09489610577","0.2858111263","0.1651876155","","","","","","","74","J","1","","","141","main_expt"
"383","","bandit","220","607836","0.0-181.0-0.0","71679354","wem/bandit_either","A3P7AXWF57BHNX","either","7","","","","","","","0","0","1","0.09601428546","","0.6","0.8","0.2","0.4","","","","","0.2231986748","0.09601428546","0.303049367","0.1536427928","","","","","","","74","J","1","","","142","main_expt"
"328","","bandit","221","609689","0.0-182.0-0.0","71679354","wem/bandit_either","A3P7AXWF57BHNX","either","7","","","","","","","0","0","1","","0.2032880393","0.6","0.8","0.2","0.4","0.2032880393","0.08301142993","0.2969419413","0.1546140226","","","","","","","","","","","72","H","0","img/none_selected.jpg","","143","main_expt"
"590","","bandit","222","611841","0.0-183.0-0.0","71679354","wem/bandit_either","A3P7AXWF57BHNX","either","7","","","","","","","0","0","1","0.1967741464","","0.6","0.8","0.2","0.4","","","","","0.1967741464","0.09599686985","0.3128690494","0.1746031107","","","","","","","72","H","0","img/none_selected.jpg","","144","main_expt"
"466","","bandit","223","613870","0.0-184.0-0.0","71679354","wem/bandit_either","A3P7AXWF57BHNX","either","7","","","","","","","0","0","1","0.2283154954","","0.6","0.8","0.2","0.4","","","","","0.2283154954","0.07499383622","0.2991796355","0.2021387556","","","","","","","72","H","0","img/none_selected.jpg","","145","main_expt"
"320","","bandit","224","615730","0.0-185.0-0.0","71679354","wem/bandit_either","A3P7AXWF57BHNX","either","7","","","","","","","0","0","1","","0.2118700154","0.6","0.8","0.2","0.4","0.2118700154","0.09566861","0.3163763193","0.2504344391","","","","","","","","","","","72","H","0","img/none_selected.jpg","","146","main_expt"
"319","","bandit","225","617590","0.0-186.0-0.0","71679354","wem/bandit_either","A3P7AXWF57BHNX","either","7","","","","","","","0","0","1","","0.08578591382","0.6","0.8","0.2","0.4","0.210437557","0.08578591382","0.3198025905","0.2437718569","","","","","","","","","","","74","J","1","","","147","main_expt"
"305","","bandit","226","619449","0.0-187.0-0.0","71679354","wem/bandit_either","A3P7AXWF57BHNX","either","7","","","","","","","0","0","1","","0.1147887709","0.6","0.8","0.2","0.4","0.2370661354","0.1147887709","0.2588245921","0.2446677265","","","","","","","","","","","74","J","1","","","148","main_expt"
"974","","bandit","227","621951","0.0-188.0-0.0","71679354","wem/bandit_either","A3P7AXWF57BHNX","either","7","","","","","","","0","0","1","","0.248712437","0.6","0.8","0.2","0.4","0.2430363771","0.1378203382","0.248712437","0.2911002833","","","","","","","","","","","75","K","2","","","149","main_expt"
"329","","bandit","228","623827","0.0-189.0-0.0","71679354","wem/bandit_either","A3P7AXWF57BHNX","either","7","","","","","","","0","1","0","","0.179144869","0.6","0.8","0.2","0.4","0.2242182381","0.1414499273","0.179144869","0.3529655025","","","","","","","","","","","75","K","2","","","150","main_expt"
"353","","bandit","229","625727","0.0-190.0-0.0","71679354","wem/bandit_either","A3P7AXWF57BHNX","either","7","","","","","","","1","0","0","0.1545669956","","0.6","0.8","0.2","0.4","","","","","0.1997145133","0.07852348772","0.1545669956","0.3885741111","","","","","","","75","K","2","","","151","main_expt"
"298","","bandit","230","627571","0.0-191.0-0.0","71679354","wem/bandit_either","A3P7AXWF57BHNX","either","7","","","","","","","0","0","1","0.1651714415","","0.6","0.8","0.2","0.4","","","","","0.2195927633","0.08485793113","0.1651714415","0.3690499696","","","","","","","75","K","2","","","152","main_expt"
"122","","bandit","231","629218","0.0-192.0-0.0","71679354","wem/bandit_either","A3P7AXWF57BHNX","either","7","","","","","","","0","0","1","","0.2396245514","0.6","0.8","0.2","0.4","0.2121816628","0.1083789561","0.2396245514","0.3710492515","","","","","","","","","","","75","K","2","","","153","main_expt"
"332","","bandit","232","631081","0.0-193.0-0.0","71679354","wem/bandit_either","A3P7AXWF57BHNX","either","7","","","","","","","0","0","1","0.2085838567","","0.6","0.8","0.2","0.4","","","","","0.1830588608","0.109098481","0.2085838567","0.3483335413","","","","","","","75","K","2","","","154","main_expt"
"453","","bandit","233","633079","0.0-194.0-0.0","71679354","wem/bandit_either","A3P7AXWF57BHNX","either","7","","","","","","","0","0","1","","0.3343760247","0.6","0.8","0.2","0.4","0.2031423662","0.1758262092","0.1864274254","0.3343760247","","","","","","","","","","","76","L","3","","","155","main_expt"
"368","","bandit","234","634990","0.0-195.0-0.0","71679354","wem/bandit_either","A3P7AXWF57BHNX","either","7","","","","","","","0","0","1","","0.3742013553","0.6","0.8","0.2","0.4","0.2022731065","0.2046597001","0.1750870897","0.3742013553","","","","","","","","","","","76","L","3","","","156","main_expt"
"261","","bandit","235","636783","0.0-196.0-0.0","71679354","wem/bandit_either","A3P7AXWF57BHNX","either","7","","","","","","","0","0","1","","0.1826661219","0.6","0.8","0.2","0.4","0.1826661219","0.1774751899","0.1321985386","0.3620366094","","","","","","","","","","","72","H","0","img/none_selected.jpg","","157","main_expt"
"286","","bandit","236","638626","0.0-197.0-0.0","71679354","wem/bandit_either","A3P7AXWF57BHNX","either","7","","","","","","","0","0","1","0.1658993888","","0.6","0.8","0.2","0.4","","","","","0.1658993888","0.1612033886","0.1341899746","0.3671714071","","","","","","","72","H","0","img/none_selected.jpg","","158","main_expt"
"482","","bandit","237","640661","0.0-198.0-0.0","71679354","wem/bandit_either","A3P7AXWF57BHNX","either","7","","","","","","","0","0","1","","0.1586838935","0.6","0.8","0.2","0.4","0.1620079643","0.1586838935","0.1567784951","0.4015988616","","","","","","","","","","","74","J","1","","","159","main_expt"
"451","","bandit","238","642646","0.0-199.0-0.0","71679354","wem/bandit_either","A3P7AXWF57BHNX","either","7","","","","","","","0","0","1","0.2453635642","","0.6","0.8","0.2","0.4","","","","","0.2453635642","0.2159944071","0.1615549635","0.4004877553","","","","","","","72","H","0","img/none_selected.jpg","","160","main_expt"
"316","","bandit","239","644479","0.0-200.0-0.0","71679354","wem/bandit_either","A3P7AXWF57BHNX","either","7","","","","","","","0","0","1","","0.1854631015","0.6","0.8","0.2","0.4","0.2456373749","0.2105769377","0.1854631015","0.4095849454","","","","","","","","","","","75","K","2","","","161","main_expt"
"342","","bandit","240","646374","0.0-201.0-0.0","71679354","wem/bandit_either","A3P7AXWF57BHNX","either","7","","","","","","","0","0","1","","0.2006925765","0.6","0.8","0.2","0.4","0.2460125232","0.2006925765","0.21229469","0.3978002783","","","","","","","","","","","74","J","1","","","162","main_expt"
"347","","bandit","241","648266","0.0-202.0-0.0","71679354","wem/bandit_either","A3P7AXWF57BHNX","either","7","","","","","","","0","0","1","0.2013568893","","0.6","0.8","0.2","0.4","","","","","0.2013568893","0.2365124807","0.162194177","0.4180552148","","","","","","","72","H","0","img/none_selected.jpg","","163","main_expt"
"341","","bandit","242","650157","0.0-203.0-0.0","71679354","wem/bandit_either","A3P7AXWF57BHNX","either","7","","","","","","","0","0","1","0.1933595846","","0.6","0.8","0.2","0.4","","","","","0.1933595846","0.2157370886","0.1535707797","0.4407560021","","","","","","","72","H","0","img/none_selected.jpg","","164","main_expt"
"343","","bandit","243","652064","0.0-204.0-0.0","71679354","wem/bandit_either","A3P7AXWF57BHNX","either","7","","","","","","","0","1","0","","0.4582960521","0.6","0.8","0.2","0.4","0.167552211","0.2166787898","0.2315934193","0.4582960521","","","","","","","","","","","76","L","3","","","165","main_expt"
"315","","bandit","244","653908","0.0-205.0-0.0","71679354","wem/bandit_either","A3P7AXWF57BHNX","either","7","","","","","","","0","0","1","0.4337500892","","0.6","0.8","0.2","0.4","","","","","0.1311237951","0.1846262972","0.2579087381","0.4337500892","","","","","","","76","L","3","","","166","main_expt"
"428","","bandit","245","655867","0.0-206.0-0.0","71679354","wem/bandit_either","A3P7AXWF57BHNX","either","7","","","","","","","0","0","1","","0.4537582576","0.6","0.8","0.2","0.4","0.1714029316","0.1888750078","0.2496457694","0.4537582576","","","","","","","","","","","76","L","3","","","167","main_expt"
"384","","bandit","246","657820","0.0-207.0-0.0","71679354","wem/bandit_either","A3P7AXWF57BHNX","either","7","","","","","","","0","1","0","","0.2315683769","0.6","0.8","0.2","0.4","0.1494402723","0.2315683769","0.234558796","0.4473485534","","","","","","","","","","","74","J","1","","","168","main_expt"
"326","","bandit","247","659672","0.0-208.0-0.0","71679354","wem/bandit_either","A3P7AXWF57BHNX","either","7","","","","","","","0","0","1","0.2018123945","","0.6","0.8","0.2","0.4","","","","","0.1819888556","0.2018123945","0.2458600006","0.4471591033","","","","","","","74","J","1","","","169","main_expt"
"272","","bandit","248","661513","0.0-209.0-0.0","71679354","wem/bandit_either","A3P7AXWF57BHNX","either","7","","","","","","","0","0","1","0.139238222","","0.6","0.8","0.2","0.4","","","","","0.2329206984","0.139238222","0.2214583157","0.4581839475","","","","","","","74","J","1","","","170","main_expt"
"611","","bandit","249","663674","0.0-210.0-0.0","71679354","wem/bandit_either","A3P7AXWF57BHNX","either","7","","","","","","","0","0","1","0.1466511374","","0.6","0.8","0.2","0.4","","","","","0.2000607923","0.1466511374","0.296208115","0.4674995421","","","","","","","74","J","1","","","171","main_expt"
"410","","bandit","250","665624","0.0-211.0-0.0","71679354","wem/bandit_either","A3P7AXWF57BHNX","either","7","","","","","","","0","0","1","0.1348290388","","0.6","0.8","0.2","0.4","","","","","0.2342957318","0.1348290388","0.3062379281","0.4455620345","","","","","","","74","J","1","","","172","main_expt"
"371","","bandit","251","667546","0.0-212.0-0.0","71679354","wem/bandit_either","A3P7AXWF57BHNX","either","7","","","","","","","0","1","0","","0.2498067723","0.6","0.8","0.2","0.4","0.2189308077","0.1521691919","0.2498067723","0.4471610379","","","","","","","","","","","75","K","2","","","173","main_expt"
"304","","bandit","252","669384","0.0-213.0-0.0","71679354","wem/bandit_either","A3P7AXWF57BHNX","either","7","","","","","","","0","0","1","","0.1803522277","0.6","0.8","0.2","0.4","0.2373932689","0.2191935525","0.1803522277","0.4496576915","","","","","","","","","","","75","K","2","","","174","main_expt"
"327","","bandit","253","671275","0.0-214.0-0.0","71679354","wem/bandit_either","A3P7AXWF57BHNX","either","7","","","","","","","0","0","1","","0.2014319342","0.6","0.8","0.2","0.4","0.2160264752","0.219961305","0.2014319342","0.4715297358","","","","","","","","","","","75","K","2","","","175","main_expt"
"255","","bandit","254","673076","0.0-215.0-0.0","71679354","wem/bandit_either","A3P7AXWF57BHNX","either","7","","","","","","","0","0","1","","0.2122003168","0.6","0.8","0.2","0.4","0.1990604306","0.1882485239","0.2122003168","0.477956151","","","","","","","","","","","75","K","2","","","176","main_expt"
"370","","bandit","255","674983","0.0-216.0-0.0","71679354","wem/bandit_either","A3P7AXWF57BHNX","either","7","","","","","","","0","0","1","0.1729978196","","0.6","0.8","0.2","0.4","","","","","0.1729978196","0.1644902553","0.2629069455","0.4563721206","","","","","","","72","H","0","img/none_selected.jpg","","177","main_expt"
"353","","bandit","256","676889","0.0-217.0-0.0","71679354","wem/bandit_either","A3P7AXWF57BHNX","either","7","","","","","","","0","0","1","","0.1633080779","0.6","0.8","0.2","0.4","0.1633080779","0.1713669852","0.2336104206","0.4409869931","","","","","","","","","","","72","H","0","img/none_selected.jpg","","178","main_expt"
"293","","bandit","257","678724","0.0-218.0-0.0","71679354","wem/bandit_either","A3P7AXWF57BHNX","either","7","","","","","","","1","0","0","0.2263400462","","0.6","0.8","0.2","0.4","","","","","0.1243251356","0.2263400462","0.1887504226","0.4243126063","","","","","","","74","J","1","","","179","main_expt"
"302","","bandit","258","680571","0.0-219.0-0.0","71679354","wem/bandit_either","A3P7AXWF57BHNX","either","7","","","","","","","1","0","0","0.2036870175","","0.6","0.8","0.2","0.4","","","","","0.1150149055","0.2036870175","0.138376641","0.4312830743","","","","","","","74","J","1","","","180","main_expt"
"300","","bandit","259","682415","0.0-220.0-0.0","71679354","wem/bandit_either","A3P7AXWF57BHNX","either","7","","","","","","","0","0","1","","0.1934599198","0.6","0.8","0.2","0.4","0.1407924877","0.1934599198","0.1883992559","0.4433127893","","","","","","","","","","","74","J","1","","","181","main_expt"
"531","","bandit","260","684480","0.0-221.0-0.0","71679354","wem/bandit_either","A3P7AXWF57BHNX","either","7","","","","","","","0","0","1","0.2424515525","","0.6","0.8","0.2","0.4","","","","","0.09672650852","0.2424515525","0.128889003","0.440136403","","","","","","","74","J","1","","","182","main_expt"
"150","","bandit","261","686169","0.0-222.0-0.0","71679354","wem/bandit_either","A3P7AXWF57BHNX","either","7","","","","","","","0","0","1","0.1961777535","","0.6","0.8","0.2","0.4","","","","","0.09888002855","0.1961777535","0.1748769843","0.4347693449","","","","","","","74","J","1","","","183","main_expt"
"286","","bandit","262","688002","0.0-223.0-0.0","71679354","wem/bandit_either","A3P7AXWF57BHNX","either","7","","","","","","","0","0","1","","0.1489283113","0.6","0.8","0.2","0.4","0.07200145298","0.1489283113","0.1945994373","0.4277130926","","","","","","","","","","","74","J","1","","","184","main_expt"
"283","","bandit","263","689819","0.0-224.0-0.0","71679354","wem/bandit_either","A3P7AXWF57BHNX","either","7","","","","","","","1","0","0","0.1499965078","","0.6","0.8","0.2","0.4","","","","","0.09476413333","0.1499965078","0.1644748654","0.3956248437","","","","","","","74","J","1","","","185","main_expt"
"368","","bandit","264","691726","0.0-225.0-0.0","71679354","wem/bandit_either","A3P7AXWF57BHNX","either","7","","","","","","","0","0","1","0.2169832988","","0.6","0.8","0.2","0.4","","","","","0.06556422103","0.2169832988","0.1504635592","0.3748928266","","","","","","","74","J","1","","","186","main_expt"
"507","","bandit","265","693775","0.0-226.0-0.0","71679354","wem/bandit_either","A3P7AXWF57BHNX","either","7","","","","","","","0","0","1","0.2655186329","","0.6","0.8","0.2","0.4","","","","","0.08901149072","0.2655186329","0.1760039214","0.3848139325","","","","","","","74","J","1","","","187","main_expt"
"316","","bandit","266","695634","0.0-227.0-0.0","71679354","wem/bandit_either","A3P7AXWF57BHNX","either","7","","","","","","","0","0","1","","0.1203267588","0.6","0.8","0.2","0.4","0.09471428588","0.2738785118","0.1203267588","0.3990176401","","","","","","","","","","","75","K","2","","","188","main_expt"
"504","","bandit","267","697681","0.0-228.0-0.0","71679354","wem/bandit_either","A3P7AXWF57BHNX","either","7","","","","","","","0","0","1","0.3581396838","","0.6","0.8","0.2","0.4","","","","","0.05118235823","0.3041874674","0.1171540391","0.3581396838","","","","","","","76","L","3","","","189","main_expt"
"326","","bandit","268","699531","0.0-229.0-0.0","71679354","wem/bandit_either","A3P7AXWF57BHNX","either","7","","","","","","","0","0","1","","0.2882972244","0.6","0.8","0.2","0.4","0.05788318751","0.3229453735","0.1535230761","0.2882972244","","","","","","","","","","","76","L","3","","","190","main_expt"
"312","","bandit","269","701405","0.0-230.0-0.0","71679354","wem/bandit_either","A3P7AXWF57BHNX","either","7","","","","","","","0","0","1","","0.08736915481","0.6","0.8","0.2","0.4","0.08736915481","0.3818249757","0.1372750947","0.3145326233","","","","","","","","","","","72","H","0","img/none_selected.jpg","","191","main_expt"
"293","","bandit","270","703234","0.0-231.0-0.0","71679354","wem/bandit_either","A3P7AXWF57BHNX","either","7","","","","","","","0","0","1","","0.08251019118","0.6","0.8","0.2","0.4","0.08251019118","0.4157726243","0.1047771501","0.3270603702","","","","","","","","","","","72","H","0","img/none_selected.jpg","","192","main_expt"
"324","","bandit","271","705108","0.0-232.0-0.0","71679354","wem/bandit_either","A3P7AXWF57BHNX","either","7","","","","","","","0","0","1","","0.06897628064","0.6","0.8","0.2","0.4","0.06897628064","0.4611608212","0.1100845432","0.3604030797","","","","","","","","","","","72","H","0","img/none_selected.jpg","","193","main_expt"
"283","","bandit","272","706920","0.0-233.0-0.0","71679354","wem/bandit_either","A3P7AXWF57BHNX","either","7","","","","","","","0","0","1","0.06801266305","","0.6","0.8","0.2","0.4","","","","","0.06801266305","0.4508818777","0.1468163818","0.357423186","","","","","","","72","H","0","img/none_selected.jpg","","194","main_expt"
"133","","bandit","273","708611","0.0-234.0-0.0","71679354","wem/bandit_either","A3P7AXWF57BHNX","either","7","","","","","","","0","0","1","0.4278921451","","0.6","0.8","0.2","0.4","","","","","0.09923709358","0.4278921451","0.1495594621","0.3697779856","","","","","","","74","J","1","","","195","main_expt"
"298","","bandit","274","710480","0.0-235.0-0.0","71679354","wem/bandit_either","A3P7AXWF57BHNX","either","7","","","","","","","0","0","1","","0.4256293003","0.6","0.8","0.2","0.4","0.1103063831","0.4256293003","0.2263220537","0.3617177512","","","","","","","","","","","74","J","1","","","196","main_expt"
"168","","bandit","275","712199","0.0-236.0-0.0","71679354","wem/bandit_either","A3P7AXWF57BHNX","either","7","","","","","","","1","0","0","0.4476975038","","0.6","0.8","0.2","0.4","","","","","0.07377144043","0.4476975038","0.2204718804","0.3775990084","","","","","","","74","J","1","","","197","main_expt"
"297","","bandit","276","714030","0.0-237.0-0.0","71679354","wem/bandit_either","A3P7AXWF57BHNX","either","7","","","","","","","0","1","0","","0.4434357272","0.6","0.8","0.2","0.4","0.08863448313","0.4434357272","0.2401118457","0.4144042571","","","","","","","","","","","74","J","1","","","198","main_expt"
"402","","bandit","277","715984","0.0-238.0-0.0","71679354","wem/bandit_either","A3P7AXWF57BHNX","either","7","","","","","","","1","0","0","0.4245114622","","0.6","0.8","0.2","0.4","","","","","0.1082179128","0.4245114622","0.2673724497","0.4081775392","","","","","","","74","J","1","","","199","main_expt"
"274","","bandit","278","717820","0.0-239.0-0.0","71679354","wem/bandit_either","A3P7AXWF57BHNX","either","7","","","","","","","0","0","1","0.4087100315","","0.6","0.8","0.2","0.4","","","","","0.09350688576","0.4087100315","0.3125307902","0.4166156547","","","","","","","74","J","1","","","200","main_expt"
"323","","bandit","279","719704","0.0-240.0-0.0","71679354","wem/bandit_either","A3P7AXWF57BHNX","either","7","","","","","","","0","0","1","0.4361521275","","0.6","0.8","0.2","0.4","","","","","0.1036625099","0.4361521275","0.2914574258","0.4306537176","","","","","","","74","J","1","","","201","main_expt"
"297","","bandit","280","721563","0.0-241.0-0.0","71679354","wem/bandit_either","A3P7AXWF57BHNX","either","7","","","","","","","0","0","1","0.3332596158","","0.6","0.8","0.2","0.4","","","","","0.1216733889","0.3332596158","0.2550600684","0.449382563","","","","","","","74","J","1","","","202","main_expt"
"269","","bandit","281","723377","0.0-242.0-0.0","71679354","wem/bandit_either","A3P7AXWF57BHNX","either","7","","","","","","","0","0","1","","0.2769745997","0.6","0.8","0.2","0.4","0.120655788","0.3581848779","0.2769745997","0.4506576586","","","","","","","","","","","75","K","2","","","203","main_expt"
"248","","bandit","282","725158","0.0-243.0-0.0","71679354","wem/bandit_either","A3P7AXWF57BHNX","either","7","","","","","","","0","0","1","0.2752990059","","0.6","0.8","0.2","0.4","","","","","0.1082970726","0.3597133043","0.2752990059","0.454839243","","","","","","","75","K","2","","","204","main_expt"
"288","","bandit","283","726982","0.0-244.0-0.0","71679354","wem/bandit_either","A3P7AXWF57BHNX","either","7","","","","","","","0","0","1","0.2901512169","","0.6","0.8","0.2","0.4","","","","","0.09143681274","0.3630183988","0.2901512169","0.4512889682","","","","","","","75","K","2","","","205","main_expt"
"314","","bandit","284","728838","0.0-245.0-0.0","71679354","wem/bandit_either","A3P7AXWF57BHNX","either","7","","","","","","","0","0","1","","0.4591490044","0.6","0.8","0.2","0.4","0.08377413986","0.3737494834","0.2823763913","0.4591490044","","","","","","","","","","","76","L","3","","","206","main_expt"
"289","","bandit","285","730673","0.0-246.0-0.0","71679354","wem/bandit_either","A3P7AXWF57BHNX","either","7","","","","","","","0","0","1","0.4650593633","","0.6","0.8","0.2","0.4","","","","","0.1585073664","0.3668784438","0.2708062506","0.4650593633","","","","","","","76","L","3","","","207","main_expt"
"309","","bandit","286","732530","0.0-247.0-0.0","71679354","wem/bandit_either","A3P7AXWF57BHNX","either","7","","","","","","","0","1","0","","0.4641513068","0.6","0.8","0.2","0.4","0.162299901","0.4045351895","0.2641553663","0.4641513068","","","","","","","","","","","76","L","3","","","208","main_expt"
"321","","bandit","287","734389","0.0-248.0-0.0","71679354","wem/bandit_either","A3P7AXWF57BHNX","either","7","","","","","","","1","0","0","0.4567807332","","0.6","0.8","0.2","0.4","","","","","0.1542266077","0.4402386934","0.2704675845","0.4567807332","","","","","","","76","L","3","","","209","main_expt"
"275","","bandit","288","736203","0.0-249.0-0.0","71679354","wem/bandit_either","A3P7AXWF57BHNX","either","7","","","","","","","0","1","0","","0.428253188","0.6","0.8","0.2","0.4","0.1890415559","0.4483623408","0.3420868926","0.428253188","","","","","","","","","","","76","L","3","","","210","main_expt"
"284","","bandit","289","738037","0.0-250.0-0.0","71679354","wem/bandit_either","A3P7AXWF57BHNX","either","7","","","","","","","1","0","0","0.410271385","","0.6","0.8","0.2","0.4","","","","","0.1818133019","0.4471415093","0.3069688952","0.410271385","","","","","","","76","L","3","","","211","main_expt"
"312","","bandit","290","739901","0.0-251.0-0.0","71679354","wem/bandit_either","A3P7AXWF57BHNX","either","7","","","","","","","0","1","0","","0.4065587724","0.6","0.8","0.2","0.4","0.1782747956","0.4374655127","0.3005379093","0.4065587724","","","","","","","","","","","76","L","3","","","212","main_expt"
"306","","bandit","291","741777","0.0-252.0-0.0","71679354","wem/bandit_either","A3P7AXWF57BHNX","either","7","","","","","","","1","0","0","0.4007116542","","0.6","0.8","0.2","0.4","","","","","0.1935195711","0.4381457257","0.213882915","0.4007116542","","","","","","","76","L","3","","","213","main_expt"
"312","","bandit","292","743626","0.0-253.0-0.0","71679354","wem/bandit_either","A3P7AXWF57BHNX","either","7","","","","","","","0","0","1","","0.4246209323","0.6","0.8","0.2","0.4","0.2421176173","0.4643769008","0.2138557204","0.4246209323","","","","","","","","","","","76","L","3","","","214","main_expt"
"332","","bandit","293","745525","0.0-254.0-0.0","71679354","wem/bandit_either","A3P7AXWF57BHNX","either","7","","","","","","","0","0","1","0.2629876012","","0.6","0.8","0.2","0.4","","","","","0.2629876012","0.4328812357","0.2142566612","0.3993057066","","","","","","","72","H","0","img/none_selected.jpg","","215","main_expt"
"320","","bandit","294","747415","0.0-255.0-0.0","71679354","wem/bandit_either","A3P7AXWF57BHNX","either","7","","","","","","","0","1","0","","0.3987772474","0.6","0.8","0.2","0.4","0.2977714141","0.4064507999","0.1900351118","0.3987772474","","","","","","","","","","","76","L","3","","","216","main_expt"
"302","","bandit","295","749258","0.0-256.0-0.0","71679354","wem/bandit_either","A3P7AXWF57BHNX","either","7","","","","","","","0","1","0","","0.4101433534","0.6","0.8","0.2","0.4","0.3017601552","0.4197961641","0.2185169477","0.4101433534","","","","","","","","","","","76","L","3","","","217","main_expt"
"278","","bandit","296","751071","0.0-257.0-0.0","71679354","wem/bandit_either","A3P7AXWF57BHNX","either","7","","","","","","","0","1","0","","0.4448029092","0.6","0.8","0.2","0.4","0.2888566207","0.4167397569","0.2240895604","0.4448029092","","","","","","","","","","","76","L","3","","","218","main_expt"
"338","","bandit","297","752962","0.0-258.0-0.0","71679354","wem/bandit_either","A3P7AXWF57BHNX","either","7","","","","","","","0","1","0","","0.4454766299","0.6","0.8","0.2","0.4","0.2844008008","0.4250944588","0.1990808675","0.4454766299","","","","","","","","","","","76","L","3","","","219","main_expt"
"374","","bandit","298","754901","0.0-259.0-0.0","71679354","wem/bandit_either","A3P7AXWF57BHNX","either","7","","","","","","","0","1","0","","0.4610997771","0.6","0.8","0.2","0.4","0.2225062479","0.4173336587","0.266602996","0.4610997771","","","","","","","","","","","76","L","3","","","220","main_expt"
"377","","bandit","299","756837","0.0-260.0-0.0","71679354","wem/bandit_either","A3P7AXWF57BHNX","either","7","","","","","","","0","0","1","","0.4642289789","0.6","0.8","0.2","0.4","0.2409900116","0.3944711005","0.2443661227","0.4642289789","","","","","","","","","","","76","L","3","","","221","main_expt"
"272","","bandit","300","758641","0.0-261.0-0.0","71679354","wem/bandit_either","A3P7AXWF57BHNX","either","7","","","","","","","0","0","1","0.2205922116","","0.6","0.8","0.2","0.4","","","","","0.1989678636","0.3619306912","0.2205922116","0.4641270597","","","","","","","75","K","2","","","222","main_expt"
"319","","bandit","301","760497","0.0-262.0-0.0","71679354","wem/bandit_either","A3P7AXWF57BHNX","either","7","","","","","","","0","0","1","0.4697433819","","0.6","0.8","0.2","0.4","","","","","0.1902867071","0.4117842179","0.1861223506","0.4697433819","","","","","","","76","L","3","","","223","main_expt"
"387","","bandit","302","762419","0.0-263.0-0.0","71679354","wem/bandit_either","A3P7AXWF57BHNX","either","7","","","","","","","0","0","1","0.3965092367","","0.6","0.8","0.2","0.4","","","","","0.2076415522","0.3965092367","0.1668884863","0.460898083","","","","","","","74","J","1","","","224","main_expt"
"213","","bandit","303","764173","0.0-264.0-0.0","71679354","wem/bandit_either","A3P7AXWF57BHNX","either","7","","","","","","","1","0","0","0.4084477862","","0.6","0.8","0.2","0.4","","","","","0.2393469174","0.4084477862","0.1481472712","0.4394890665","","","","","","","74","J","1","","","225","main_expt"
"369","","bandit","304","766083","0.0-265.0-0.0","71679354","wem/bandit_either","A3P7AXWF57BHNX","either","7","","","","","","","0","0","1","0.4104601526","","0.6","0.8","0.2","0.4","","","","","0.2425440376","0.4104601526","0.1140846591","0.4520955237","","","","","","","74","J","1","","","226","main_expt"
"326","","bandit","305","767944","0.0-266.0-0.0","71679354","wem/bandit_either","A3P7AXWF57BHNX","either","7","","","","","","","1","0","0","0.3899733519","","0.6","0.8","0.2","0.4","","","","","0.2365603363","0.3899733519","0.1074218354","0.4324220164","","","","","","","74","J","1","","","227","main_expt"
"303","","bandit","306","769785","0.0-267.0-0.0","71679354","wem/bandit_either","A3P7AXWF57BHNX","either","7","","","","","","","1","0","0","0.3796730737","","0.6","0.8","0.2","0.4","","","","","0.2127958296","0.3796730737","0.08065165665","0.4220482421","","","","","","","74","J","1","","","228","main_expt"
"318","","bandit","307","771660","0.0-268.0-0.0","71679354","wem/bandit_either","A3P7AXWF57BHNX","either","7","","","","","","","0","0","1","0.4046866514","","0.6","0.8","0.2","0.4","","","","","0.2207861463","0.4046866514","0.07774059362","0.3885749154","","","","","","","74","J","1","","","229","main_expt"
"288","","bandit","308","773514","0.0-269.0-0.0","71679354","wem/bandit_either","A3P7AXWF57BHNX","either","7","","","","","","","1","0","0","0.3988793555","","0.6","0.8","0.2","0.4","","","","","0.2589226453","0.3988793555","0.1109483114","0.4023755806","","","","","","","74","J","1","","","230","main_expt"
"338","","bandit","309","775389","0.0-270.0-0.0","71679354","wem/bandit_either","A3P7AXWF57BHNX","either","7","","","","","","","0","0","1","0.3981898202","","0.6","0.8","0.2","0.4","","","","","0.2956158432","0.3981898202","0.05902300203","0.3768725222","","","","","","","74","J","1","","","231","main_expt"
"337","","bandit","310","777258","0.0-271.0-0.0","71679354","wem/bandit_either","A3P7AXWF57BHNX","either","7","","","","","","","0","0","1","0.4411941832","","0.6","0.8","0.2","0.4","","","","","0.3202484073","0.4411941832","0.06675855664","0.3619917427","","","","","","","74","J","1","","","232","main_expt"
"361","","bandit","311","779177","0.0-272.0-0.0","71679354","wem/bandit_either","A3P7AXWF57BHNX","either","7","","","","","","","0","1","0","","0.42967461","0.6","0.8","0.2","0.4","0.2933644042","0.42967461","0.06703699679","0.3833578816","","","","","","","","","","","74","J","1","","","233","main_expt"
"325","","bandit","312","781048","0.0-273.0-0.0","71679354","wem/bandit_either","A3P7AXWF57BHNX","either","7","","","","","","","0","0","1","0.4242798354","","0.6","0.8","0.2","0.4","","","","","0.3106154811","0.4242798354","0.05331023031","0.3552131768","","","","","","","74","J","1","","","234","main_expt"
"530","","bandit","313","783132","0.0-274.0-0.0","71679354","wem/bandit_either","A3P7AXWF57BHNX","either","7","","","","","","","0","0","1","0.3158990995","","0.6","0.8","0.2","0.4","","","","","0.3158990995","0.4617388459","0.05187545802","0.3135084543","","","","","","","72","H","0","img/none_selected.jpg","","235","main_expt"
"353","","bandit","314","785030","0.0-275.0-0.0","71679354","wem/bandit_either","A3P7AXWF57BHNX","either","7","","","","","","","1","0","0","0.4619510484","","0.6","0.8","0.2","0.4","","","","","0.3036927748","0.4619510484","0.06939909985","0.244945467","","","","","","","74","J","1","","","236","main_expt"
"332","","bandit","315","786906","0.0-276.0-0.0","71679354","wem/bandit_either","A3P7AXWF57BHNX","either","7","","","","","","","1","0","0","0.4482398789","","0.6","0.8","0.2","0.4","","","","","0.3491021326","0.4482398789","0.1210409879","0.1823839079","","","","","","","74","J","1","","","237","main_expt"
"317","","bandit","316","788790","0.0-277.0-0.0","71679354","wem/bandit_either","A3P7AXWF57BHNX","either","7","","","","","","","0","0","1","0.4193969143","","0.6","0.8","0.2","0.4","","","","","0.3939254097","0.4193969143","0.1147840357","0.1685050226","","","","","","","74","J","1","","","238","main_expt"
"421","","bandit","317","790750","0.0-278.0-0.0","71679354","wem/bandit_either","A3P7AXWF57BHNX","either","7","","","","","","","1","0","0","0.4203848948","","0.6","0.8","0.2","0.4","","","","","0.379108978","0.4203848948","0.1006463842","0.1606472637","","","","","","","74","J","1","","","239","main_expt"
"270","","bandit","318","792577","0.0-279.0-0.0","71679354","wem/bandit_either","A3P7AXWF57BHNX","either","7","","","","","","","0","0","1","","0.4489383263","0.6","0.8","0.2","0.4","0.3876209848","0.4489383263","0.1008771133","0.1512795466","","","","","","","","","","","74","J","1","","","240","main_expt"
"365","","bandit","319","794498","0.0-280.0-0.0","71679354","wem/bandit_either","A3P7AXWF57BHNX","either","7","","","","","","","0","0","1","0.4636195567","","0.6","0.8","0.2","0.4","","","","","0.3839625774","0.4636195567","0.09981833296","0.1916219391","","","","","","","74","J","1","","","241","main_expt"
"165","","bandit","320","796221","0.0-281.0-0.0","71679354","wem/bandit_either","A3P7AXWF57BHNX","either","7","","","","","","","1","0","0","0.4575307695","","0.6","0.8","0.2","0.4","","","","","0.3477958629","0.4575307695","0.1171772993","0.1641013935","","","","","","","74","J","1","","","242","main_expt"
"323","","bandit","321","798082","0.0-282.0-0.0","71679354","wem/bandit_either","A3P7AXWF57BHNX","either","7","","","","","","","0","0","1","0.4449554393","","0.6","0.8","0.2","0.4","","","","","0.3500658948","0.4449554393","0.1239984651","0.2064320789","","","","","","","74","J","1","","","243","main_expt"
"400","","bandit","322","800036","0.0-283.0-0.0","71679354","wem/bandit_either","A3P7AXWF57BHNX","either","7","","","","","","","1","0","0","0.4525763452","","0.6","0.8","0.2","0.4","","","","","0.3452717574","0.4525763452","0.1126152289","0.2205496082","","","","","","","74","J","1","","","244","main_expt"
"338","","bandit","323","801921","0.0-284.0-0.0","71679354","wem/bandit_either","A3P7AXWF57BHNX","either","7","","","","","","","1","0","0","0.4753838692","","0.6","0.8","0.2","0.4","","","","","0.3162288444","0.4753838692","0.1524829061","0.214276823","","","","","","","74","J","1","","","245","main_expt"
"286","","bandit","324","803779","0.0-285.0-0.0","71679354","wem/bandit_either","A3P7AXWF57BHNX","either","7","","","","","","","0","0","1","0.4623654582","","0.6","0.8","0.2","0.4","","","","","0.2894596967","0.4623654582","0.1921750243","0.2084567316","","","","","","","74","J","1","","","246","main_expt"
"324","","bandit","325","805647","0.0-286.0-0.0","71679354","wem/bandit_either","A3P7AXWF57BHNX","either","7","","","","","","","0","0","1","0.2232303491","","0.6","0.8","0.2","0.4","","","","","0.2642296388","0.4331165165","0.1931065189","0.2232303491","","","","","","","76","L","3","","","247","main_expt"
"343","","bandit","326","807522","0.0-287.0-0.0","71679354","wem/bandit_either","A3P7AXWF57BHNX","either","7","","","","","","","0","0","1","","0.2541796534","0.6","0.8","0.2","0.4","0.2534255255","0.4401602984","0.2189994516","0.2541796534","","","","","","","","","","","76","L","3","","","248","main_expt"
"203","","bandit","327","809254","0.0-288.0-0.0","71679354","wem/bandit_either","A3P7AXWF57BHNX","either","7","","","","","","","0","0","1","","0.1989243371","0.6","0.8","0.2","0.4","0.2252980971","0.430892824","0.1989243371","0.232462199","","","","","","","","","","","75","K","2","","","249","main_expt"
"325","","bandit","328","811116","0.0-289.0-0.0","71679354","wem/bandit_either","A3P7AXWF57BHNX","either","7","","","","","","","0","0","1","","0.4282509168","0.6","0.8","0.2","0.4","0.298830738","0.4282509168","0.1635706079","0.2877664065","","","","","","","","","","","74","J","1","","","250","main_expt"
"308","","bandit","329","812960","0.0-290.0-0.0","71679354","wem/bandit_either","A3P7AXWF57BHNX","either","7","","","","","","","0","0","1","0.3113207693","","0.6","0.8","0.2","0.4","","","","","0.3113207693","0.4499649657","0.1738575253","0.2947451014","","","","","","","72","H","0","img/none_selected.jpg","","251","main_expt"
"208","","bandit","330","814712","0.0-291.0-0.0","71679354","wem/bandit_either","A3P7AXWF57BHNX","either","7","","","","","","","0","0","1","0.458069626","","0.6","0.8","0.2","0.4","","","","","0.2952600368","0.458069626","0.1868362494","0.2581410112","","","","","","","74","J","1","","","252","main_expt"
"328","","bandit","331","816588","0.0-292.0-0.0","71679354","wem/bandit_either","A3P7AXWF57BHNX","either","7","","","","","","","0","0","1","0.4419078322","","0.6","0.8","0.2","0.4","","","","","0.2837805879","0.4419078322","0.1888839862","0.2526573277","","","","","","","74","J","1","","","253","main_expt"
"328","","bandit","332","818448","0.0-293.0-0.0","71679354","wem/bandit_either","A3P7AXWF57BHNX","either","7","","","","","","","0","0","1","","0.4374591364","0.6","0.8","0.2","0.4","0.2664224025","0.4374591364","0.1763585164","0.2625272406","","","","","","","","","","","74","J","1","","","254","main_expt"
