"rt","responses","trial_type","trial_index","time_elapsed","internal_node_id","subjID","study","MID","cond","drift","key_press","expt_phase","target","like","value","connected","gems","bombs","no_reward","GemPrChosen","BombPrChosen","GainOverPainPr_0","GainOverPainPr_1","GainOverPainPr_2","GainOverPainPr_3","LosePr_0","LosePr_1","LosePr_2","LosePr_3","WinPr_0","WinPr_1","WinPr_2","WinPr_3","Q0","Q1","Q2","gender","age","ethnicity","respCharCode","respKey","respChoiceNum","respChoice","practice","trial_counter","trial_label"
"9634","{""Q0"":""A3MD34XEB4H6JF""}","survey-text","0","9644","0.0-0.0","72046015","wem/bandit_either","A3MD34XEB4H6JF","either","2","","","","","","","","","","","","","","","","","","","","","","","","","","","","","","","","","","","",""
"11296","","text","1","21945","0.0-1.0","72046015","wem/bandit_either","A3MD34XEB4H6JF","either","2","32","","","","","","","","","","","","","","","","","","","","","","","","","","","","","","","","","","",""
"12826","","text","2","34773","0.0-2.0","72046015","wem/bandit_either","A3MD34XEB4H6JF","either","2","32","","","","","","","","","","","","","","","","","","","","","","","","","","","","","","","","","","",""
"29987","","text","3","64762","0.0-3.0","72046015","wem/bandit_either","A3MD34XEB4H6JF","either","2","32","","","","","","","","","","","","","","","","","","","","","","","","","","","","","","","","","","",""
"20343","","text","4","85107","0.0-4.0","72046015","wem/bandit_either","A3MD34XEB4H6JF","either","2","32","","","","","","","","","","","","","","","","","","","","","","","","","","","","","","","","","","",""
"18102","","text","5","103212","0.0-5.0","72046015","wem/bandit_either","A3MD34XEB4H6JF","either","2","32","","","","","","","","","","","","","","","","","","","","","","","","","","","","","","","","","","",""
"11994","","text","6","115207","0.0-6.0","72046015","wem/bandit_either","A3MD34XEB4H6JF","either","2","32","","","","","","","","","","","","","","","","","","","","","","","","","","","","","","","","","","",""
"5616","","text","7","120825","0.0-7.0","72046015","wem/bandit_either","A3MD34XEB4H6JF","either","2","32","","","","","","","","","","","","","","","","","","","","","","","","","","","","","","","","","","",""
"23063","","identification","8","143916","0.0-8.0-0.0","72046015","wem/bandit_either","A3MD34XEB4H6JF","either","2","","identification_pre","the village of Zur","","","","","","","","","","","","","","","","","","","","","","","","","","","","","","","","",""
"13841","","identification","9","158782","0.0-8.0-1.0","72046015","wem/bandit_either","A3MD34XEB4H6JF","either","2","","identification_pre","the village of Nyx","","","","","","","","","","","","","","","","","","","","","","","","","","","","","","","","",""
"6910","","text","10","166694","0.0-9.0","72046015","wem/bandit_either","A3MD34XEB4H6JF","either","2","32","","","","","","","","","","","","","","","","","","","","","","","","","","","","","","","","","","",""
"5627","","text","11","172323","0.0-10.0","72046015","wem/bandit_either","A3MD34XEB4H6JF","either","2","32","","","","","","","","","","","","","","","","","","","","","","","","","","","","","","","","","","",""
"3994","","text","12","176319","0.0-11.0","72046015","wem/bandit_either","A3MD34XEB4H6JF","either","2","32","","","","","","","","","","","","","","","","","","","","","","","","","","","","","","","","","","",""
"4805","","text","13","181127","0.0-12.0","72046015","wem/bandit_either","A3MD34XEB4H6JF","either","2","32","","","","","","","","","","","","","","","","","","","","","","","","","","","","","","","","","","",""
"6459","","bandit","14","189104","0.0-13.0-0.0","72046015","wem/bandit_either","A3MD34XEB4H6JF","either","2","","","","","","","0","0","1","0","0","","","","","0","","","","0","","","","","","","","","","74","J","0","img/none_selected_demo.jpg","true","0",""
"4212","","bandit","15","194828","0.0-14.0-0.0","72046015","wem/bandit_either","A3MD34XEB4H6JF","either","2","","","","","","","0","0","1","0","0","","","","","0","","","","0","","","","","","","","","","75","K","0","img/none_selected_demo.jpg","true","0",""
"12214","","text","16","207045","0.0-15.0","72046015","wem/bandit_either","A3MD34XEB4H6JF","either","2","32","","","","","","","","","","","","","","","","","","","","","","","","","","","","","","","","","","",""
"13439","","text","17","220486","0.0-16.0","72046015","wem/bandit_either","A3MD34XEB4H6JF","either","2","32","","","","","","","","","","","","","","","","","","","","","","","","","","","","","","","","","","",""
"22683","","text","18","243172","0.0-17.0","72046015","wem/bandit_either","A3MD34XEB4H6JF","either","2","32","","","","","","","","","","","","","","","","","","","","","","","","","","","","","","","","","","",""
"19776","","text","19","262949","0.0-18.0","72046015","wem/bandit_either","A3MD34XEB4H6JF","either","2","32","","","","","","","","","","","","","","","","","","","","","","","","","","","","","","","","","","",""
"1066","","bandit","20","265525","0.0-19.0-0.0","72046015","wem/bandit_either","A3MD34XEB4H6JF","either","2","","","","","","","0","0","1","","0.2","0.5","0.5","","","0.8","0.2","","","","","","","","","","","","","75","K","1","","true","0","80_20_practice"
"6036","","bandit","21","273073","0.0-19.0-1.0","72046015","wem/bandit_either","A3MD34XEB4H6JF","either","2","","","","","","","0","1","0","","0.8","0.5","0.5","","","0.8","0.2","","","","","","","","","","","","","74","J","0","img/none_selected_demo.jpg","true","0","80_20_practice"
"5406","","bandit","22","280004","0.0-19.0-2.0","72046015","wem/bandit_either","A3MD34XEB4H6JF","either","2","","","","","","","0","0","1","","0.2","0.5","0.5","","","0.8","0.2","","","","","","","","","","","","","75","K","1","","true","0","80_20_practice"
"801","","bandit","23","282330","0.0-19.0-3.0","72046015","wem/bandit_either","A3MD34XEB4H6JF","either","2","","","","","","","0","1","0","","0.8","0.5","0.5","","","0.8","0.2","","","","","","","","","","","","","74","J","0","img/none_selected_demo.jpg","true","0","80_20_practice"
"15838","","bandit","24","299688","0.0-19.0-4.0","72046015","wem/bandit_either","A3MD34XEB4H6JF","either","2","","","","","","","0","0","1","0.2","","0.5","0.5","","","","","","","0.8","0.2","","","","","","","","","75","K","1","","true","0","80_20_practice"
"916","","bandit","25","302136","0.0-19.0-5.0","72046015","wem/bandit_either","A3MD34XEB4H6JF","either","2","","","","","","","1","0","0","0.8","","0.5","0.5","","","","","","","0.8","0.2","","","","","","","","","74","J","0","img/none_selected_demo.jpg","true","0","80_20_practice"
"3937","","bandit","26","307602","0.0-19.0-6.0","72046015","wem/bandit_either","A3MD34XEB4H6JF","either","2","","","","","","","1","0","0","0.2","","0.5","0.5","","","","","","","0.8","0.2","","","","","","","","","75","K","1","","true","0","80_20_practice"
"923","","bandit","27","310050","0.0-19.0-7.0","72046015","wem/bandit_either","A3MD34XEB4H6JF","either","2","","","","","","","0","0","1","0.8","","0.5","0.5","","","","","","","0.8","0.2","","","","","","","","","74","J","0","img/none_selected_demo.jpg","true","0","80_20_practice"
"2906","","bandit","28","314486","0.0-19.0-8.0","72046015","wem/bandit_either","A3MD34XEB4H6JF","either","2","","","","","","","0","0","1","","0.2","0.5","0.5","","","0.8","0.2","","","","","","","","","","","","","75","K","1","","true","0","80_20_practice"
"440","","bandit","29","316451","0.0-19.0-9.0","72046015","wem/bandit_either","A3MD34XEB4H6JF","either","2","","","","","","","1","0","0","0.8","","0.5","0.5","","","","","","","0.8","0.2","","","","","","","","","74","J","0","img/none_selected_demo.jpg","true","0","80_20_practice"
"1414","","bandit","30","319392","0.0-19.0-10.0","72046015","wem/bandit_either","A3MD34XEB4H6JF","either","2","","","","","","","0","0","1","","0.2","0.5","0.5","","","0.8","0.2","","","","","","","","","","","","","75","K","1","","true","0","80_20_practice"
"578","","bandit","31","321499","0.0-19.0-11.0","72046015","wem/bandit_either","A3MD34XEB4H6JF","either","2","","","","","","","0","1","0","","0.8","0.5","0.5","","","0.8","0.2","","","","","","","","","","","","","74","J","0","img/none_selected_demo.jpg","true","0","80_20_practice"
"2031","","bandit","32","325040","0.0-19.0-12.0","72046015","wem/bandit_either","A3MD34XEB4H6JF","either","2","","","","","","","0","0","1","0.2","","0.5","0.5","","","","","","","0.8","0.2","","","","","","","","","75","K","1","","true","0","80_20_practice"
"499","","bandit","33","327049","0.0-19.0-13.0","72046015","wem/bandit_either","A3MD34XEB4H6JF","either","2","","","","","","","1","0","0","0.8","","0.5","0.5","","","","","","","0.8","0.2","","","","","","","","","74","J","0","img/none_selected_demo.jpg","true","0","80_20_practice"
"1001","","bandit","34","329588","0.0-19.0-14.0","72046015","wem/bandit_either","A3MD34XEB4H6JF","either","2","","","","","","","0","0","1","0.2","","0.5","0.5","","","","","","","0.8","0.2","","","","","","","","","75","K","1","","true","0","80_20_practice"
"620","","bandit","35","331739","0.0-19.0-15.0","72046015","wem/bandit_either","A3MD34XEB4H6JF","either","2","","","","","","","0","1","0","","0.8","0.5","0.5","","","0.8","0.2","","","","","","","","","","","","","74","J","0","img/none_selected_demo.jpg","true","0","80_20_practice"
"803","","bandit","36","334064","0.0-19.0-16.0","72046015","wem/bandit_either","A3MD34XEB4H6JF","either","2","","","","","","","0","0","1","0.2","","0.5","0.5","","","","","","","0.8","0.2","","","","","","","","","75","K","1","","true","0","80_20_practice"
"551","","bandit","37","336147","0.0-19.0-17.0","72046015","wem/bandit_either","A3MD34XEB4H6JF","either","2","","","","","","","1","0","0","0.8","","0.5","0.5","","","","","","","0.8","0.2","","","","","","","","","74","J","0","img/none_selected_demo.jpg","true","0","80_20_practice"
"420","","bandit","38","338084","0.0-19.0-18.0","72046015","wem/bandit_either","A3MD34XEB4H6JF","either","2","","","","","","","0","0","1","","0.2","0.5","0.5","","","0.8","0.2","","","","","","","","","","","","","75","K","1","","true","0","80_20_practice"
"404","","bandit","39","340011","0.0-19.0-19.0","72046015","wem/bandit_either","A3MD34XEB4H6JF","either","2","","","","","","","0","1","0","","0.8","0.5","0.5","","","0.8","0.2","","","","","","","","","","","","","74","J","0","img/none_selected_demo.jpg","true","0","80_20_practice"
"10464","","text","40","350478","0.0-20.0","72046015","wem/bandit_either","A3MD34XEB4H6JF","either","2","32","","","","","","","","","","","","","","","","","","","","","","","","","","","","","","","","","","",""
"2512","","bandit","41","354516","0.0-21.0-0.0","72046015","wem/bandit_either","A3MD34XEB4H6JF","either","2","","","","","","","1","0","0","1","0","","","","","0","1","","","1","0","","","","","","","","","74","J","0","img/none_selected_demo.jpg","true","0",""
"8469","","text","42","362988","0.0-22.0","72046015","wem/bandit_either","A3MD34XEB4H6JF","either","2","32","","","","","","","","","","","","","","","","","","","","","","","","","","","","","","","","","","",""
"8753","","text","43","371744","0.0-23.0","72046015","wem/bandit_either","A3MD34XEB4H6JF","either","2","32","","","","","","","","","","","","","","","","","","","","","","","","","","","","","","","","","","",""
"4377","","text","44","376123","0.0-24.0","72046015","wem/bandit_either","A3MD34XEB4H6JF","either","2","32","","","","","","","","","","","","","","","","","","","","","","","","","","","","","","","","","","",""
"4973","","text","45","381098","0.0-25.0","72046015","wem/bandit_either","A3MD34XEB4H6JF","either","2","32","","","","","","","","","","","","","","","","","","","","","","","","","","","","","","","","","","",""
"11693","","text","46","392796","0.0-26.0","72046015","wem/bandit_either","A3MD34XEB4H6JF","either","2","32","","","","","","","","","","","","","","","","","","","","","","","","","","","","","","","","","","",""
"4390","","text","47","397189","0.0-27.0","72046015","wem/bandit_either","A3MD34XEB4H6JF","either","2","32","","","","","","","","","","","","","","","","","","","","","","","","","","","","","","","","","","",""
"10565","","text","48","407759","0.0-28.0","72046015","wem/bandit_either","A3MD34XEB4H6JF","either","2","32","","","","","","","","","","","","","","","","","","","","","","","","","","","","","","","","","","",""
"4281","","text","49","412043","0.0-29.0","72046015","wem/bandit_either","A3MD34XEB4H6JF","either","2","32","","","","","","","","","","","","","","","","","","","","","","","","","","","","","","","","","","",""
"7142","","text","50","419190","0.0-30.0","72046015","wem/bandit_either","A3MD34XEB4H6JF","either","2","32","","","","","","","","","","","","","","","","","","","","","","","","","","","","","","","","","","",""
"2953","","text","51","422146","0.0-31.0","72046015","wem/bandit_either","A3MD34XEB4H6JF","either","2","32","","","","","","","","","","","","","","","","","","","","","","","","","","","","","","","","","","",""
"7170","","text","52","429320","0.0-32.0","72046015","wem/bandit_either","A3MD34XEB4H6JF","either","2","32","","","","","","","","","","","","","","","","","","","","","","","","","","","","","","","","","","",""
"1488","","bandit","53","432343","0.0-33.0-0.0","72046015","wem/bandit_either","A3MD34XEB4H6JF","either","2","","","","","","","1","0","0","0.2","","0.5","0.5","0.5","0.5","","","","","0.8","0.2","0.6","0.2","","","","","","","76","L","3","","true","0","full_practice"
"997","","bandit","54","434871","0.0-33.0-1.0","72046015","wem/bandit_either","A3MD34XEB4H6JF","either","2","","","","","","","0","0","1","","0.6","0.5","0.5","0.5","0.5","0.8","0.2","0.6","0.2","","","","","","","","","","","75","K","2","","true","0","full_practice"
"911","","bandit","55","437305","0.0-33.0-2.0","72046015","wem/bandit_either","A3MD34XEB4H6JF","either","2","","","","","","","1","0","0","0.2","","0.5","0.5","0.5","0.5","","","","","0.8","0.2","0.6","0.2","","","","","","","74","J","1","","true","0","full_practice"
"1597","","bandit","56","440423","0.0-33.0-3.0","72046015","wem/bandit_either","A3MD34XEB4H6JF","either","2","","","","","","","0","0","1","0.8","","0.5","0.5","0.5","0.5","","","","","0.8","0.2","0.6","0.2","","","","","","","72","H","0","img/none_selected.jpg","true","0","full_practice"
"1733","","bandit","57","443672","0.0-33.0-4.0","72046015","wem/bandit_either","A3MD34XEB4H6JF","either","2","","","","","","","1","0","0","0.2","","0.5","0.5","0.5","0.5","","","","","0.8","0.2","0.6","0.2","","","","","","","76","L","3","","true","0","full_practice"
"721","","bandit","58","445929","0.0-33.0-5.0","72046015","wem/bandit_either","A3MD34XEB4H6JF","either","2","","","","","","","0","1","0","","0.6","0.5","0.5","0.5","0.5","0.8","0.2","0.6","0.2","","","","","","","","","","","75","K","2","","true","0","full_practice"
"873","","bandit","59","448328","0.0-33.0-6.0","72046015","wem/bandit_either","A3MD34XEB4H6JF","either","2","","","","","","","1","0","0","0.2","","0.5","0.5","0.5","0.5","","","","","0.8","0.2","0.6","0.2","","","","","","","74","J","1","","true","0","full_practice"
"697","","bandit","60","450548","0.0-33.0-7.0","72046015","wem/bandit_either","A3MD34XEB4H6JF","either","2","","","","","","","0","1","0","","0.8","0.5","0.5","0.5","0.5","0.8","0.2","0.6","0.2","","","","","","","","","","","72","H","0","img/none_selected.jpg","true","0","full_practice"
"948","","bandit","61","453024","0.0-33.0-8.0","72046015","wem/bandit_either","A3MD34XEB4H6JF","either","2","","","","","","","0","0","1","0.2","","0.5","0.5","0.5","0.5","","","","","0.8","0.2","0.6","0.2","","","","","","","76","L","3","","true","0","full_practice"
"571","","bandit","62","455126","0.0-33.0-9.0","72046015","wem/bandit_either","A3MD34XEB4H6JF","either","2","","","","","","","0","0","1","0.6","","0.5","0.5","0.5","0.5","","","","","0.8","0.2","0.6","0.2","","","","","","","75","K","2","","true","0","full_practice"
"708","","bandit","63","457357","0.0-33.0-10.0","72046015","wem/bandit_either","A3MD34XEB4H6JF","either","2","","","","","","","1","0","0","0.2","","0.5","0.5","0.5","0.5","","","","","0.8","0.2","0.6","0.2","","","","","","","74","J","1","","true","0","full_practice"
"647","","bandit","64","459525","0.0-33.0-11.0","72046015","wem/bandit_either","A3MD34XEB4H6JF","either","2","","","","","","","0","0","1","","0.8","0.5","0.5","0.5","0.5","0.8","0.2","0.6","0.2","","","","","","","","","","","72","H","0","img/none_selected.jpg","true","0","full_practice"
"540","","bandit","65","461593","0.0-33.0-12.0","72046015","wem/bandit_either","A3MD34XEB4H6JF","either","2","","","","","","","0","0","1","0.2","","0.5","0.5","0.5","0.5","","","","","0.8","0.2","0.6","0.2","","","","","","","76","L","3","","true","0","full_practice"
"392","","bandit","66","463500","0.0-33.0-13.0","72046015","wem/bandit_either","A3MD34XEB4H6JF","either","2","","","","","","","0","0","1","0.6","","0.5","0.5","0.5","0.5","","","","","0.8","0.2","0.6","0.2","","","","","","","75","K","2","","true","0","full_practice"
"442","","bandit","67","465469","0.0-33.0-14.0","72046015","wem/bandit_either","A3MD34XEB4H6JF","either","2","","","","","","","1","0","0","0.2","","0.5","0.5","0.5","0.5","","","","","0.8","0.2","0.6","0.2","","","","","","","74","J","1","","true","0","full_practice"
"571","","bandit","68","467567","0.0-33.0-15.0","72046015","wem/bandit_either","A3MD34XEB4H6JF","either","2","","","","","","","0","1","0","","0.8","0.5","0.5","0.5","0.5","0.8","0.2","0.6","0.2","","","","","","","","","","","72","H","0","img/none_selected.jpg","true","0","full_practice"
"562","","bandit","69","469662","0.0-33.0-16.0","72046015","wem/bandit_either","A3MD34XEB4H6JF","either","2","","","","","","","0","1","0","","0.2","0.5","0.5","0.5","0.5","0.8","0.2","0.6","0.2","","","","","","","","","","","76","L","3","","true","0","full_practice"
"456","","bandit","70","471641","0.0-33.0-17.0","72046015","wem/bandit_either","A3MD34XEB4H6JF","either","2","","","","","","","1","0","0","0.6","","0.5","0.5","0.5","0.5","","","","","0.8","0.2","0.6","0.2","","","","","","","75","K","2","","true","0","full_practice"
"389","","bandit","71","473556","0.0-33.0-18.0","72046015","wem/bandit_either","A3MD34XEB4H6JF","either","2","","","","","","","0","0","1","0.2","","0.5","0.5","0.5","0.5","","","","","0.8","0.2","0.6","0.2","","","","","","","74","J","1","","true","0","full_practice"
"510","","bandit","72","475581","0.0-33.0-19.0","72046015","wem/bandit_either","A3MD34XEB4H6JF","either","2","","","","","","","0","1","0","","0.8","0.5","0.5","0.5","0.5","0.8","0.2","0.6","0.2","","","","","","","","","","","72","H","0","img/none_selected.jpg","true","0","full_practice"
"5376","","text","73","480967","0.0-34.0","72046015","wem/bandit_either","A3MD34XEB4H6JF","either","2","32","","","","","","","","","","","","","","","","","","","","","","","","","","","","","","","","","","",""
"17980","","text","74","499958","0.0-35.0","72046015","wem/bandit_either","A3MD34XEB4H6JF","either","2","32","","","","","","","","","","","","","","","","","","","","","","","","","","","","","","","","","","",""
"15723","","text","75","515686","0.0-36.0","72046015","wem/bandit_either","A3MD34XEB4H6JF","either","2","32","","","","","","","","","","","","","","","","","","","","","","","","","","","","","","","","","","",""
"6749","","text","76","522439","0.0-37.0","72046015","wem/bandit_either","A3MD34XEB4H6JF","either","2","32","","","","","","","","","","","","","","","","","","","","","","","","","","","","","","","","","","",""
"9796","","text","77","532240","0.0-38.0","72046015","wem/bandit_either","A3MD34XEB4H6JF","either","2","32","","","","","","","","","","","","","","","","","","","","","","","","","","","","","","","","","","",""
"9615","","text","78","541858","0.0-39.0","72046015","wem/bandit_either","A3MD34XEB4H6JF","either","2","32","","","","","","","","","","","","","","","","","","","","","","","","","","","","","","","","","","",""
"1998","","bandit","79","545371","0.0-40.0-0.0","72046015","wem/bandit_either","A3MD34XEB4H6JF","either","2","","","","","","","0","1","0","","0.4781977867","0.8","0.2","0.4","0.6","0.326135308","0.362799796","0.3653736811","0.4781977867","","","","","","","","","","","76","L","3","","","1","main_expt"
"736","","bandit","80","547624","0.0-41.0-0.0","72046015","wem/bandit_either","A3MD34XEB4H6JF","either","2","","","","","","","0","0","1","","0.3999069229","0.8","0.2","0.4","0.6","0.3564958201","0.3891507205","0.3999069229","0.4765481994","","","","","","","","","","","75","K","2","","","2","main_expt"
"639","","bandit","81","549780","0.0-42.0-0.0","72046015","wem/bandit_either","A3MD34XEB4H6JF","either","2","","","","","","","0","0","1","","0.3151339382","0.8","0.2","0.4","0.6","0.3309056029","0.3151339382","0.4363582421","0.4722158263","","","","","","","","","","","74","J","1","","","3","main_expt"
"999","","bandit","82","552310","0.0-43.0-0.0","72046015","wem/bandit_either","A3MD34XEB4H6JF","either","2","","","","","","","0","0","1","","0.308467875","0.8","0.2","0.4","0.6","0.308467875","0.250648122","0.4300921111","0.4609570051","","","","","","","","","","","72","H","0","img/none_selected.jpg","","4","main_expt"
"630","","bandit","83","554467","0.0-44.0-0.0","72046015","wem/bandit_either","A3MD34XEB4H6JF","either","2","","","","","","","0","1","0","","0.4707799186","0.8","0.2","0.4","0.6","0.3349995635","0.2382585344","0.3863220662","0.4707799186","","","","","","","","","","","76","L","3","","","5","main_expt"
"470","","bandit","84","556460","0.0-45.0-0.0","72046015","wem/bandit_either","A3MD34XEB4H6JF","either","2","","","","","","","0","0","1","0.4192648028","","0.8","0.2","0.4","0.6","","","","","0.3743101545","0.2088101903","0.4192648028","0.4676743975","","","","","","","75","K","2","","","6","main_expt"
"503","","bandit","85","558487","0.0-46.0-0.0","72046015","wem/bandit_either","A3MD34XEB4H6JF","either","2","","","","","","","0","0","1","","0.1884279889","0.8","0.2","0.4","0.6","0.377506125","0.1884279889","0.4218548145","0.4767364015","","","","","","","","","","","74","J","1","","","7","main_expt"
"422","","bandit","86","560428","0.0-47.0-0.0","72046015","wem/bandit_either","A3MD34XEB4H6JF","either","2","","","","","","","0","0","1","0.3452849142","","0.8","0.2","0.4","0.6","","","","","0.3452849142","0.2297930851","0.4298914749","0.4837409877","","","","","","","72","H","0","img/none_selected.jpg","","8","main_expt"
"631","","bandit","87","562584","0.0-48.0-0.0","72046015","wem/bandit_either","A3MD34XEB4H6JF","either","2","","","","","","","1","0","0","0.4825212187","","0.8","0.2","0.4","0.6","","","","","0.2713567333","0.2219539873","0.4215440671","0.4825212187","","","","","","","76","L","3","","","9","main_expt"
"5488","","bandit","88","569589","0.0-49.0-0.0","72046015","wem/bandit_either","A3MD34XEB4H6JF","either","2","","","","","","","1","0","0","0.4791264729","","0.8","0.2","0.4","0.6","","","","","0.2712708503","0.2398128751","0.3991616263","0.4791264729","","","","","","","76","L","3","","","10","main_expt"
"1217","","bandit","89","572333","0.0-50.0-0.0","72046015","wem/bandit_either","A3MD34XEB4H6JF","either","2","","","","","","","0","0","1","0.4762013833","","0.8","0.2","0.4","0.6","","","","","0.2635531688","0.2551733424","0.4002673883","0.4762013833","","","","","","","76","L","3","","","11","main_expt"
"1673","","bandit","90","575522","0.0-51.0-0.0","72046015","wem/bandit_either","A3MD34XEB4H6JF","either","2","","","","","","","0","0","1","","0.368629831","0.8","0.2","0.4","0.6","0.2669056975","0.2593424883","0.368629831","0.4729837645","","","","","","","","","","","75","K","2","","","12","main_expt"
"560","","bandit","91","577608","0.0-52.0-0.0","72046015","wem/bandit_either","A3MD34XEB4H6JF","either","2","","","","","","","0","1","0","","0.4749786695","0.8","0.2","0.4","0.6","0.3204456557","0.2493591627","0.4189726289","0.4749786695","","","","","","","","","","","76","L","3","","","13","main_expt"
"769","","bandit","92","579906","0.0-53.0-0.0","72046015","wem/bandit_either","A3MD34XEB4H6JF","either","2","","","","","","","1","0","0","0.4810115094","","0.8","0.2","0.4","0.6","","","","","0.3466526728","0.2686446846","0.4352425359","0.4810115094","","","","","","","76","L","3","","","14","main_expt"
"1456","","bandit","93","582886","0.0-54.0-0.0","72046015","wem/bandit_either","A3MD34XEB4H6JF","either","2","","","","","","","1","0","0","0.4705329286","","0.8","0.2","0.4","0.6","","","","","0.3736671224","0.2690169042","0.3819090161","0.4705329286","","","","","","","76","L","3","","","15","main_expt"
"789","","bandit","94","585185","0.0-55.0-0.0","72046015","wem/bandit_either","A3MD34XEB4H6JF","either","2","","","","","","","0","0","1","0.4687419894","","0.8","0.2","0.4","0.6","","","","","0.3778143907","0.2518303543","0.3737760256","0.4687419894","","","","","","","76","L","3","","","16","main_expt"
"480","","bandit","95","587174","0.0-56.0-0.0","72046015","wem/bandit_either","A3MD34XEB4H6JF","either","2","","","","","","","0","0","1","","0.4151791473","0.8","0.2","0.4","0.6","0.3845750066","0.2406549936","0.4151791473","0.4594180265","","","","","","","","","","","75","K","2","","","17","main_expt"
"661","","bandit","96","589353","0.0-57.0-0.0","72046015","wem/bandit_either","A3MD34XEB4H6JF","either","2","","","","","","","0","0","1","","0.2670149403","0.8","0.2","0.4","0.6","0.4041286345","0.2670149403","0.4137363134","0.425397146","","","","","","","","","","","74","J","1","","","18","main_expt"
"381","","bandit","97","591253","0.0-58.0-0.0","72046015","wem/bandit_either","A3MD34XEB4H6JF","either","2","","","","","","","1","0","0","0.4201246927","","0.8","0.2","0.4","0.6","","","","","0.4127350431","0.2658482338","0.4084056464","0.4201246927","","","","","","","76","L","3","","","19","main_expt"
"800","","bandit","98","593592","0.0-59.0-0.0","72046015","wem/bandit_either","A3MD34XEB4H6JF","either","2","","","","","","","0","1","0","","0.3954271328","0.8","0.2","0.4","0.6","0.4107359536","0.2452433766","0.4129175496","0.3954271328","","","","","","","","","","","76","L","3","","","20","main_expt"
"851","","bandit","99","595964","0.0-60.0-0.0","72046015","wem/bandit_either","A3MD34XEB4H6JF","either","2","","","","","","","0","0","1","0.4196431029","","0.8","0.2","0.4","0.6","","","","","0.3954861765","0.2298761452","0.3888488162","0.4196431029","","","","","","","76","L","3","","","21","main_expt"
"699","","bandit","100","598187","0.0-61.0-0.0","72046015","wem/bandit_either","A3MD34XEB4H6JF","either","2","","","","","","","0","0","1","0.3805979297","","0.8","0.2","0.4","0.6","","","","","0.3805979297","0.266827693","0.3873149631","0.3843335182","","","","","","","72","H","0","img/none_selected.jpg","","22","main_expt"
"551","","bandit","101","600270","0.0-62.0-0.0","72046015","wem/bandit_either","A3MD34XEB4H6JF","either","2","","","","","","","1","0","0","0.3659772031","","0.8","0.2","0.4","0.6","","","","","0.425451992","0.2519769849","0.3659772031","0.3839977458","","","","","","","75","K","2","","","23","main_expt"
"512","","bandit","102","602290","0.0-63.0-0.0","72046015","wem/bandit_either","A3MD34XEB4H6JF","either","2","","","","","","","0","0","1","0.3338939571","","0.8","0.2","0.4","0.6","","","","","0.4699447661","0.2447613107","0.3594327093","0.3338939571","","","","","","","76","L","3","","","24","main_expt"
"627","","bandit","103","604436","0.0-64.0-0.0","72046015","wem/bandit_either","A3MD34XEB4H6JF","either","2","","","","","","","0","0","1","0.3719143394","","0.8","0.2","0.4","0.6","","","","","0.4484050393","0.2350413847","0.3719143394","0.324486952","","","","","","","75","K","2","","","25","main_expt"
"794","","bandit","104","606748","0.0-65.0-0.0","72046015","wem/bandit_either","A3MD34XEB4H6JF","either","2","","","","","","","1","0","0","0.3095710384","","0.8","0.2","0.4","0.6","","","","","0.4190234423","0.207774486","0.3690014044","0.3095710384","","","","","","","76","L","3","","","26","main_expt"
"636","","bandit","105","608920","0.0-66.0-0.0","72046015","wem/bandit_either","A3MD34XEB4H6JF","either","2","","","","","","","0","1","0","","0.3355629191","0.8","0.2","0.4","0.6","0.4251478254","0.2164182795","0.3940030818","0.3355629191","","","","","","","","","","","76","L","3","","","27","main_expt"
"902","","bandit","106","611350","0.0-67.0-0.0","72046015","wem/bandit_either","A3MD34XEB4H6JF","either","2","","","","","","","1","0","0","0.3668681485","","0.8","0.2","0.4","0.6","","","","","0.4287328697","0.2164031865","0.4111080327","0.3668681485","","","","","","","76","L","3","","","28","main_expt"
"683","","bandit","107","613550","0.0-68.0-0.0","72046015","wem/bandit_either","A3MD34XEB4H6JF","either","2","","","","","","","0","0","1","0.343198694","","0.8","0.2","0.4","0.6","","","","","0.4106025245","0.2770000278","0.41290056","0.343198694","","","","","","","76","L","3","","","29","main_expt"
"450","","bandit","108","615520","0.0-69.0-0.0","72046015","wem/bandit_either","A3MD34XEB4H6JF","either","2","","","","","","","0","0","1","0.3937480262","","0.8","0.2","0.4","0.6","","","","","0.3942494676","0.2354797847","0.3937480262","0.326069126","","","","","","","75","K","2","","","30","main_expt"
"670","","bandit","109","617717","0.0-70.0-0.0","72046015","wem/bandit_either","A3MD34XEB4H6JF","either","2","","","","","","","0","0","1","0.3390127419","","0.8","0.2","0.4","0.6","","","","","0.4285056211","0.2692030882","0.3997016236","0.3390127419","","","","","","","76","L","3","","","31","main_expt"
"611","","bandit","110","619856","0.0-71.0-0.0","72046015","wem/bandit_either","A3MD34XEB4H6JF","either","2","","","","","","","0","0","1","0.4249454459","","0.8","0.2","0.4","0.6","","","","","0.4249454459","0.2471118655","0.3574295763","0.3360649894","","","","","","","72","H","0","img/none_selected.jpg","","32","main_expt"
"518","","bandit","111","621902","0.0-72.0-0.0","72046015","wem/bandit_either","A3MD34XEB4H6JF","either","2","","","","","","","0","0","1","","0.2879199001","0.8","0.2","0.4","0.6","0.416417765","0.2879199001","0.3877818659","0.3052602024","","","","","","","","","","","74","J","1","","","33","main_expt"
"414","","bandit","112","623851","0.0-73.0-0.0","72046015","wem/bandit_either","A3MD34XEB4H6JF","either","2","","","","","","","0","0","1","0.3594788954","","0.8","0.2","0.4","0.6","","","","","0.4623714429","0.3180115212","0.3799496232","0.3594788954","","","","","","","76","L","3","","","34","main_expt"
"783","","bandit","113","626170","0.0-74.0-0.0","72046015","wem/bandit_either","A3MD34XEB4H6JF","either","2","","","","","","","1","0","0","0.380235832","","0.8","0.2","0.4","0.6","","","","","0.4591977302","0.2524306687","0.3577573403","0.380235832","","","","","","","76","L","3","","","35","main_expt"
"826","","bandit","114","628510","0.0-75.0-0.0","72046015","wem/bandit_either","A3MD34XEB4H6JF","either","2","","","","","","","1","0","0","0.3459989602","","0.8","0.2","0.4","0.6","","","","","0.4686235256","0.2351869563","0.3895375856","0.3459989602","","","","","","","76","L","3","","","36","main_expt"
"812","","bandit","115","630851","0.0-76.0-0.0","72046015","wem/bandit_either","A3MD34XEB4H6JF","either","2","","","","","","","1","0","0","0.3320905149","","0.8","0.2","0.4","0.6","","","","","0.4571547709","0.2629170466","0.3783527007","0.3320905149","","","","","","","76","L","3","","","37","main_expt"
"633","","bandit","116","632995","0.0-77.0-0.0","72046015","wem/bandit_either","A3MD34XEB4H6JF","either","2","","","","","","","0","0","1","0.3471020919","","0.8","0.2","0.4","0.6","","","","","0.4688430709","0.3090194305","0.284076782","0.3471020919","","","","","","","76","L","3","","","38","main_expt"
"607","","bandit","117","635119","0.0-78.0-0.0","72046015","wem/bandit_either","A3MD34XEB4H6JF","either","2","","","","","","","0","1","0","","0.3388972186","0.8","0.2","0.4","0.6","0.4612923778","0.2845371228","0.3388972186","0.3401763967","","","","","","","","","","","75","K","2","","","39","main_expt"
"1328","","bandit","118","637972","0.0-79.0-0.0","72046015","wem/bandit_either","A3MD34XEB4H6JF","either","2","","","","","","","0","0","1","0.2663655232","","0.8","0.2","0.4","0.6","","","","","0.4576194683","0.3076259244","0.2663655232","0.3260487483","","","","","","","75","K","2","","","40","main_expt"
"363","","bandit","119","639851","0.0-80.0-0.0","72046015","wem/bandit_either","A3MD34XEB4H6JF","either","2","","","","","","","1","0","0","0.3390218734","","0.8","0.2","0.4","0.6","","","","","0.4473921051","0.2888769276","0.2608266697","0.3390218734","","","","","","","76","L","3","","","41","main_expt"
"1010","","bandit","120","642386","0.0-81.0-0.0","72046015","wem/bandit_either","A3MD34XEB4H6JF","either","2","","","","","","","0","0","1","0.2889680017","","0.8","0.2","0.4","0.6","","","","","0.425470286","0.2639198141","0.2287676803","0.2889680017","","","","","","","76","L","3","","","42","main_expt"
"483","","bandit","121","644384","0.0-82.0-0.0","72046015","wem/bandit_either","A3MD34XEB4H6JF","either","2","","","","","","","0","0","1","","0.2043112358","0.8","0.2","0.4","0.6","0.4030522017","0.2255441472","0.2043112358","0.2784828801","","","","","","","","","","","75","K","2","","","43","main_expt"
"469","","bandit","122","646382","0.0-83.0-0.0","72046015","wem/bandit_either","A3MD34XEB4H6JF","either","2","","","","","","","0","0","1","0.2805729819","","0.8","0.2","0.4","0.6","","","","","0.4106315797","0.2050272072","0.1957049551","0.2805729819","","","","","","","76","L","3","","","44","main_expt"
"601","","bandit","123","648517","0.0-84.0-0.0","72046015","wem/bandit_either","A3MD34XEB4H6JF","either","2","","","","","","","1","0","0","0.4258527362","","0.8","0.2","0.4","0.6","","","","","0.4258527362","0.239455925","0.2207366272","0.2195119073","","","","","","","72","H","0","img/none_selected.jpg","","45","main_expt"
"821","","bandit","124","650875","0.0-85.0-0.0","72046015","wem/bandit_either","A3MD34XEB4H6JF","either","2","","","","","","","1","0","0","0.2657932304","","0.8","0.2","0.4","0.6","","","","","0.4425966235","0.2414778298","0.1727988076","0.2657932304","","","","","","","76","L","3","","","46","main_expt"
"774","","bandit","125","653168","0.0-86.0-0.0","72046015","wem/bandit_either","A3MD34XEB4H6JF","either","2","","","","","","","0","0","1","0.4428977597","","0.8","0.2","0.4","0.6","","","","","0.4428977597","0.1884211613","0.1446735631","0.2678398397","","","","","","","72","H","0","img/none_selected.jpg","","47","main_expt"
"382","","bandit","126","655087","0.0-87.0-0.0","72046015","wem/bandit_either","A3MD34XEB4H6JF","either","2","","","","","","","0","1","0","","0.2866904938","0.8","0.2","0.4","0.6","0.4479964269","0.1755274282","0.1681765936","0.2866904938","","","","","","","","","","","76","L","3","","","48","main_expt"
"385","","bandit","127","657004","0.0-88.0-0.0","72046015","wem/bandit_either","A3MD34XEB4H6JF","either","2","","","","","","","0","0","1","0.1473883531","","0.8","0.2","0.4","0.6","","","","","0.4660387519","0.1646396384","0.1473883531","0.2803848884","","","","","","","75","K","2","","","49","main_expt"
"383","","bandit","128","658917","0.0-89.0-0.0","72046015","wem/bandit_either","A3MD34XEB4H6JF","either","2","","","","","","","1","0","0","0.2587411269","","0.8","0.2","0.4","0.6","","","","","0.4345757832","0.2024226619","0.1378170987","0.2587411269","","","","","","","76","L","3","","","50","main_expt"
"511","","bandit","129","660951","0.0-90.0-0.0","72046015","wem/bandit_either","A3MD34XEB4H6JF","either","2","","","","","","","0","1","0","","0.2212901065","0.8","0.2","0.4","0.6","0.4450950844","0.1976760068","0.1430360168","0.2212901065","","","","","","","","","","","76","L","3","","","51","main_expt"
"583","","bandit","130","663066","0.0-91.0-0.0","72046015","wem/bandit_either","A3MD34XEB4H6JF","either","2","","","","","","","0","0","1","0.236006857","","0.8","0.2","0.4","0.6","","","","","0.4475354499","0.1796352224","0.1731798725","0.236006857","","","","","","","76","L","3","","","52","main_expt"
"1125","","bandit","131","665702","0.0-92.0-0.0","72046015","wem/bandit_either","A3MD34XEB4H6JF","either","2","","","","","","","0","0","1","","0.2451732725","0.8","0.2","0.4","0.6","0.4627294295","0.2451732725","0.1312409056","0.2660825342","","","","","","","","","","","74","J","1","","","53","main_expt"
"670","","bandit","132","667901","0.0-93.0-0.0","72046015","wem/bandit_either","A3MD34XEB4H6JF","either","2","","","","","","","0","0","1","0.44829207","","0.8","0.2","0.4","0.6","","","","","0.44829207","0.2621482643","0.1862053218","0.2458345041","","","","","","","72","H","0","img/none_selected.jpg","","54","main_expt"
"348","","bandit","133","669767","0.0-94.0-0.0","72046015","wem/bandit_either","A3MD34XEB4H6JF","either","2","","","","","","","0","0","1","0.1733563037","","0.8","0.2","0.4","0.6","","","","","0.4505537928","0.2441780383","0.1733563037","0.2265690781","","","","","","","75","K","2","","","55","main_expt"
"428","","bandit","134","671718","0.0-95.0-0.0","72046015","wem/bandit_either","A3MD34XEB4H6JF","either","2","","","","","","","0","1","0","","0.2741820357","0.8","0.2","0.4","0.6","0.4686400132","0.199729785","0.1728369204","0.2741820357","","","","","","","","","","","76","L","3","","","56","main_expt"
"813","","bandit","135","674060","0.0-96.0-0.0","72046015","wem/bandit_either","A3MD34XEB4H6JF","either","2","","","","","","","0","0","1","","0.2937641054","0.8","0.2","0.4","0.6","0.4572679106","0.1945085845","0.09176359954","0.2937641054","","","","","","","","","","","76","L","3","","","57","main_expt"
"498","","bandit","136","676080","0.0-97.0-0.0","72046015","wem/bandit_either","A3MD34XEB4H6JF","either","2","","","","","","","0","0","1","0.04991422033","","0.8","0.2","0.4","0.6","","","","","0.4300169527","0.2614759052","0.04991422033","0.2949827607","","","","","","","75","K","2","","","58","main_expt"
"737","","bandit","137","678342","0.0-98.0-0.0","72046015","wem/bandit_either","A3MD34XEB4H6JF","either","2","","","","","","","0","1","0","","0.4050829606","0.8","0.2","0.4","0.6","0.4050829606","0.2426118991","0.053239915","0.2710075273","","","","","","","","","","","72","H","0","img/none_selected.jpg","","59","main_expt"
"569","","bandit","138","680430","0.0-99.0-0.0","72046015","wem/bandit_either","A3MD34XEB4H6JF","either","2","","","","","","","0","0","1","","0.2766623035","0.8","0.2","0.4","0.6","0.4070720156","0.2623750897","0.06994226662","0.2766623035","","","","","","","","","","","76","L","3","","","60","main_expt"
"605","","bandit","139","682563","0.0-100.0-0.0","72046015","wem/bandit_either","A3MD34XEB4H6JF","either","2","","","","","","","0","0","1","0.3895400789","","0.8","0.2","0.4","0.6","","","","","0.3895400789","0.2139103784","0.07064832373","0.2574592035","","","","","","","72","H","0","img/none_selected.jpg","","61","main_expt"
"353","","bandit","140","684450","0.0-101.0-0.0","72046015","wem/bandit_either","A3MD34XEB4H6JF","either","2","","","","","","","0","1","0","","0.2566580444","0.8","0.2","0.4","0.6","0.4050708951","0.2566580444","0.08925217872","0.2425209234","","","","","","","","","","","74","J","1","","","62","main_expt"
"688","","bandit","141","686664","0.0-102.0-0.0","72046015","wem/bandit_either","A3MD34XEB4H6JF","either","2","","","","","","","0","0","1","0.2294211584","","0.8","0.2","0.4","0.6","","","","","0.3765761212","0.2393402704","0.08505035955","0.2294211584","","","","","","","76","L","3","","","63","main_expt"
"376","","bandit","142","688568","0.0-103.0-0.0","72046015","wem/bandit_either","A3MD34XEB4H6JF","either","2","","","","","","","0","0","1","","0.09892528285","0.8","0.2","0.4","0.6","0.3859881554","0.300105392","0.09892528285","0.2350173232","","","","","","","","","","","75","K","2","","","64","main_expt"
"380","","bandit","143","690481","0.0-104.0-0.0","72046015","wem/bandit_either","A3MD34XEB4H6JF","either","2","","","","","","","0","0","1","0.2775473173","","0.8","0.2","0.4","0.6","","","","","0.3817039273","0.2584268813","0.1428545766","0.2775473173","","","","","","","76","L","3","","","65","main_expt"
"509","","bandit","144","692520","0.0-105.0-0.0","72046015","wem/bandit_either","A3MD34XEB4H6JF","either","2","","","","","","","0","0","1","0.120440259","","0.8","0.2","0.4","0.6","","","","","0.3622232449","0.2536378703","0.120440259","0.298861572","","","","","","","75","K","2","","","66","main_expt"
"480","","bandit","145","694535","0.0-106.0-0.0","72046015","wem/bandit_either","A3MD34XEB4H6JF","either","2","","","","","","","0","0","1","0.3768721334","","0.8","0.2","0.4","0.6","","","","","0.3768721334","0.2548884231","0.2019700983","0.3043747659","","","","","","","72","H","0","img/none_selected.jpg","","67","main_expt"
"515","","bandit","146","696582","0.0-107.0-0.0","72046015","wem/bandit_either","A3MD34XEB4H6JF","either","2","","","","","","","0","1","0","","0.2105458193","0.8","0.2","0.4","0.6","0.3826604183","0.2105458193","0.1467862533","0.2533072519","","","","","","","","","","","74","J","1","","","68","main_expt"
"1199","","bandit","147","699316","0.0-108.0-0.0","72046015","wem/bandit_either","A3MD34XEB4H6JF","either","2","","","","","","","0","0","1","0.3981811202","","0.8","0.2","0.4","0.6","","","","","0.3981811202","0.2901666962","0.09022805221","0.2451677402","","","","","","","72","H","0","img/none_selected.jpg","","69","main_expt"
"493","","bandit","148","701326","0.0-109.0-0.0","72046015","wem/bandit_either","A3MD34XEB4H6JF","either","2","","","","","","","0","1","0","","0.2973761433","0.8","0.2","0.4","0.6","0.3936557204","0.2973761433","0.1128827508","0.2403061491","","","","","","","","","","","74","J","1","","","70","main_expt"
"567","","bandit","149","703417","0.0-110.0-0.0","72046015","wem/bandit_either","A3MD34XEB4H6JF","either","2","","","","","","","0","0","1","0.1184182172","","0.8","0.2","0.4","0.6","","","","","0.3949471057","0.2737706179","0.1184182172","0.1917576795","","","","","","","75","K","2","","","71","main_expt"
"437","","bandit","150","705377","0.0-111.0-0.0","72046015","wem/bandit_either","A3MD34XEB4H6JF","either","2","","","","","","","1","0","0","0.3005227265","","0.8","0.2","0.4","0.6","","","","","0.3888869603","0.3005227265","0.1038133506","0.1894079546","","","","","","","74","J","1","","","72","main_expt"
"403","","bandit","151","707300","0.0-112.0-0.0","72046015","wem/bandit_either","A3MD34XEB4H6JF","either","2","","","","","","","0","0","1","0.235909594","","0.8","0.2","0.4","0.6","","","","","0.4015056825","0.3205676235","0.07830871569","0.235909594","","","","","","","76","L","3","","","73","main_expt"
"71","","bandit","152","708904","0.0-113.0-0.0","72046015","wem/bandit_either","A3MD34XEB4H6JF","either","2","","","","","","","0","0","1","","0.3040473008","0.8","0.2","0.4","0.6","0.4200542591","0.3040473008","0.09226686474","0.2772030277","","","","","","","","","","","74","J","1","","","74","main_expt"
"512","","bandit","153","710951","0.0-114.0-0.0","72046015","wem/bandit_either","A3MD34XEB4H6JF","either","2","","","","","","","0","0","1","","0.2686744794","0.8","0.2","0.4","0.6","0.4353174817","0.2686744794","0.07948082514","0.2237268092","","","","","","","","","","","74","J","1","","","75","main_expt"
"766","","bandit","154","713245","0.0-115.0-0.0","72046015","wem/bandit_either","A3MD34XEB4H6JF","either","2","","","","","","","0","0","1","","0.1279570505","0.8","0.2","0.4","0.6","0.4196821318","0.258707356","0.1279570505","0.1739375455","","","","","","","","","","","75","K","2","","","76","main_expt"
"353","","bandit","155","715124","0.0-116.0-0.0","72046015","wem/bandit_either","A3MD34XEB4H6JF","either","2","","","","","","","0","1","0","","0.3010070056","0.8","0.2","0.4","0.6","0.3787369199","0.3010070056","0.1202820049","0.1648796623","","","","","","","","","","","74","J","1","","","77","main_expt"
"517","","bandit","156","717163","0.0-117.0-0.0","72046015","wem/bandit_either","A3MD34XEB4H6JF","either","2","","","","","","","0","0","1","0.1637798684","","0.8","0.2","0.4","0.6","","","","","0.4314930014","0.2648586626","0.1054071572","0.1637798684","","","","","","","76","L","3","","","78","main_expt"
"398","","bandit","157","719093","0.0-118.0-0.0","72046015","wem/bandit_either","A3MD34XEB4H6JF","either","2","","","","","","","0","0","1","","0.1984114041","0.8","0.2","0.4","0.6","0.4155078174","0.1984114041","0.1403095361","0.1490076182","","","","","","","","","","","74","J","1","","","79","main_expt"
"851","","bandit","158","721460","0.0-119.0-0.0","72046015","wem/bandit_either","A3MD34XEB4H6JF","either","2","","","","","","","0","0","1","0.4226243671","","0.8","0.2","0.4","0.6","","","","","0.4226243671","0.180325551","0.1891235553","0.1093198388","","","","","","","72","H","0","img/none_selected.jpg","","80","main_expt"
"311","","bandit","159","723283","0.0-120.0-0.0","72046015","wem/bandit_either","A3MD34XEB4H6JF","either","2","","","","","","","0","0","1","0.224531153","","0.8","0.2","0.4","0.6","","","","","0.4474166549","0.224531153","0.1858030354","0.08868186825","","","","","","","74","J","1","","","81","main_expt"
"205","","bandit","160","725012","0.0-121.0-0.0","72046015","wem/bandit_either","A3MD34XEB4H6JF","either","2","","","","","","","0","0","1","","0.2476542501","0.8","0.2","0.4","0.6","0.4636297045","0.221125015","0.2476542501","0.1073880826","","","","","","","","","","","75","K","2","","","82","main_expt"
"640","","bandit","161","727165","0.0-122.0-0.0","72046015","wem/bandit_either","A3MD34XEB4H6JF","either","2","","","","","","","0","0","1","","0.2143237207","0.8","0.2","0.4","0.6","0.467509749","0.2143237207","0.2188241074","0.1022587498","","","","","","","","","","","74","J","1","","","83","main_expt"
"542","","bandit","162","729237","0.0-123.0-0.0","72046015","wem/bandit_either","A3MD34XEB4H6JF","either","2","","","","","","","0","0","1","0.1085807699","","0.8","0.2","0.4","0.6","","","","","0.4551111531","0.2097367537","0.2754771977","0.1085807699","","","","","","","76","L","3","","","84","main_expt"
"579","","bandit","163","731340","0.0-124.0-0.0","72046015","wem/bandit_either","A3MD34XEB4H6JF","either","2","","","","","","","0","0","1","","0.4621419017","0.8","0.2","0.4","0.6","0.4621419017","0.1661536269","0.2965575968","0.1263918358","","","","","","","","","","","72","H","0","img/none_selected.jpg","","85","main_expt"
"464","","bandit","164","733331","0.0-125.0-0.0","72046015","wem/bandit_either","A3MD34XEB4H6JF","either","2","","","","","","","0","0","1","","0.1364458955","0.8","0.2","0.4","0.6","0.4612050897","0.1364458955","0.257129161","0.1481941301","","","","","","","","","","","74","J","1","","","86","main_expt"
"568","","bandit","165","735427","0.0-126.0-0.0","72046015","wem/bandit_either","A3MD34XEB4H6JF","either","2","","","","","","","0","0","1","","0.2338967043","0.8","0.2","0.4","0.6","0.4334675206","0.08235553135","0.2338967043","0.1447872846","","","","","","","","","","","75","K","2","","","87","main_expt"
"422","","bandit","166","737373","0.0-127.0-0.0","72046015","wem/bandit_either","A3MD34XEB4H6JF","either","2","","","","","","","0","0","1","","0.1391637727","0.8","0.2","0.4","0.6","0.4397617206","0.0754832669","0.2161535794","0.1391637727","","","","","","","","","","","76","L","3","","","88","main_expt"
"292","","bandit","167","739199","0.0-128.0-0.0","72046015","wem/bandit_either","A3MD34XEB4H6JF","either","2","","","","","","","1","0","0","0.109361408","","0.8","0.2","0.4","0.6","","","","","0.4635478967","0.109361408","0.2043146745","0.1476089376","","","","","","","74","J","1","","","89","main_expt"
"572","","bandit","168","741285","0.0-129.0-0.0","72046015","wem/bandit_either","A3MD34XEB4H6JF","either","2","","","","","","","0","0","1","0.07391079866","","0.8","0.2","0.4","0.6","","","","","0.4234969579","0.07391079866","0.2346009907","0.2081489191","","","","","","","74","J","1","","","90","main_expt"
"610","","bandit","169","743437","0.0-130.0-0.0","72046015","wem/bandit_either","A3MD34XEB4H6JF","either","2","","","","","","","0","0","1","","0.1164594673","0.8","0.2","0.4","0.6","0.4267507071","0.1164594673","0.2333967219","0.1834039029","","","","","","","","","","","74","J","1","","","91","main_expt"
"436","","bandit","170","745397","0.0-131.0-0.0","72046015","wem/bandit_either","A3MD34XEB4H6JF","either","2","","","","","","","0","0","1","0.2027314649","","0.8","0.2","0.4","0.6","","","","","0.4089505196","0.113043345","0.2150480475","0.2027314649","","","","","","","76","L","3","","","92","main_expt"
"567","","bandit","171","747498","0.0-132.0-0.0","72046015","wem/bandit_either","A3MD34XEB4H6JF","either","2","","","","","","","0","0","1","0.1738894496","","0.8","0.2","0.4","0.6","","","","","0.4112501448","0.1714352716","0.2588080464","0.1738894496","","","","","","","76","L","3","","","93","main_expt"
"478","","bandit","172","749488","0.0-133.0-0.0","72046015","wem/bandit_either","A3MD34XEB4H6JF","either","2","","","","","","","0","0","1","","0.1253024032","0.8","0.2","0.4","0.6","0.452415855","0.1253024032","0.2748849181","0.2484708832","","","","","","","","","","","74","J","1","","","94","main_expt"
"477","","bandit","173","751503","0.0-134.0-0.0","72046015","wem/bandit_either","A3MD34XEB4H6JF","either","2","","","","","","","1","0","0","0.4589197587","","0.8","0.2","0.4","0.6","","","","","0.4589197587","0.1401284447","0.2791739054","0.2914685715","","","","","","","72","H","0","img/none_selected.jpg","","95","main_expt"
"1124","","bandit","174","754147","0.0-135.0-0.0","72046015","wem/bandit_either","A3MD34XEB4H6JF","either","2","","","","","","","0","0","1","","0.1320491369","0.8","0.2","0.4","0.6","0.4481870348","0.1320491369","0.3149564315","0.2417524935","","","","","","","","","","","74","J","1","","","96","main_expt"
"759","","bandit","175","756434","0.0-136.0-0.0","72046015","wem/bandit_either","A3MD34XEB4H6JF","either","2","","","","","","","1","0","0","0.4597072186","","0.8","0.2","0.4","0.6","","","","","0.4597072186","0.1518453759","0.372564007","0.2492821404","","","","","","","72","H","0","img/none_selected.jpg","","97","main_expt"
"574","","bandit","176","758534","0.0-137.0-0.0","72046015","wem/bandit_either","A3MD34XEB4H6JF","either","2","","","","","","","0","0","1","0.4705619112","","0.8","0.2","0.4","0.6","","","","","0.4705619112","0.2173959583","0.393328365","0.3002958449","","","","","","","72","H","0","img/none_selected.jpg","","98","main_expt"
"309","","bandit","177","760378","0.0-138.0-0.0","72046015","wem/bandit_either","A3MD34XEB4H6JF","either","2","","","","","","","0","0","1","","0.421239771","0.8","0.2","0.4","0.6","0.4800968761","0.2618725657","0.421239771","0.3544832656","","","","","","","","","","","75","K","2","","","99","main_expt"
"427","","bandit","178","762329","0.0-139.0-0.0","72046015","wem/bandit_either","A3MD34XEB4H6JF","either","2","","","","","","","0","0","1","","0.2487788848","0.8","0.2","0.4","0.6","0.4780143146","0.2487788848","0.4130759476","0.3810954338","","","","","","","","","","","74","J","1","","","100","main_expt"
"420","","bandit","179","764279","0.0-140.0-0.0","72046015","wem/bandit_either","A3MD34XEB4H6JF","either","2","","","","","","","1","0","0","0.4849002763","","0.8","0.2","0.4","0.6","","","","","0.4849002763","0.2890792313","0.4089462913","0.4042362267","","","","","","","72","H","0","img/none_selected.jpg","","101","main_expt"
"581","","bandit","180","766383","0.0-141.0-0.0","72046015","wem/bandit_either","A3MD34XEB4H6JF","either","2","","","","","","","1","0","0","0.4886078379","","0.8","0.2","0.4","0.6","","","","","0.4886078379","0.3136369757","0.370330464","0.4594696392","","","","","","","72","H","0","img/none_selected.jpg","","102","main_expt"
"479","","bandit","181","768396","0.0-142.0-0.0","72046015","wem/bandit_either","A3MD34XEB4H6JF","either","2","","","","","","","1","0","0","0.47121906","","0.8","0.2","0.4","0.6","","","","","0.47121906","0.2364671533","0.3306315663","0.4588766667","","","","","","","72","H","0","img/none_selected.jpg","","103","main_expt"
"585","","bandit","182","770514","0.0-143.0-0.0","72046015","wem/bandit_either","A3MD34XEB4H6JF","either","2","","","","","","","1","0","0","0.4760763377","","0.8","0.2","0.4","0.6","","","","","0.4760763377","0.2202486688","0.354634178","0.4372785745","","","","","","","72","H","0","img/none_selected.jpg","","104","main_expt"
"608","","bandit","183","772640","0.0-144.0-0.0","72046015","wem/bandit_either","A3MD34XEB4H6JF","either","2","","","","","","","0","0","1","0.4701389446","","0.8","0.2","0.4","0.6","","","","","0.4701389446","0.1854418088","0.3896605338","0.4063887309","","","","","","","72","H","0","img/none_selected.jpg","","105","main_expt"
"570","","bandit","184","774739","0.0-145.0-0.0","72046015","wem/bandit_either","A3MD34XEB4H6JF","either","2","","","","","","","0","0","1","","0.1596754559","0.8","0.2","0.4","0.6","0.471324938","0.1596754559","0.414339711","0.3778019321","","","","","","","","","","","74","J","1","","","106","main_expt"
"176","","bandit","185","776443","0.0-146.0-0.0","72046015","wem/bandit_either","A3MD34XEB4H6JF","either","2","","","","","","","0","0","1","0.4786694594","","0.8","0.2","0.4","0.6","","","","","0.4786694594","0.137099288","0.4164239898","0.3614143111","","","","","","","72","H","0","img/none_selected.jpg","","107","main_expt"
"160","","bandit","186","778125","0.0-147.0-0.0","72046015","wem/bandit_either","A3MD34XEB4H6JF","either","2","","","","","","","0","0","1","","0.3836571442","0.8","0.2","0.4","0.6","0.4810065258","0.1443984823","0.3836571442","0.3681250399","","","","","","","","","","","75","K","2","","","108","main_expt"
"560","","bandit","187","780215","0.0-148.0-0.0","72046015","wem/bandit_either","A3MD34XEB4H6JF","either","2","","","","","","","1","0","0","0.4816764674","","0.8","0.2","0.4","0.6","","","","","0.4816764674","0.1409511773","0.3881214568","0.3446081275","","","","","","","72","H","0","img/none_selected.jpg","","109","main_expt"
"473","","bandit","188","782214","0.0-149.0-0.0","72046015","wem/bandit_either","A3MD34XEB4H6JF","either","2","","","","","","","0","0","1","0.4882082215","","0.8","0.2","0.4","0.6","","","","","0.4882082215","0.1787750665","0.4266873791","0.3681270965","","","","","","","72","H","0","img/none_selected.jpg","","110","main_expt"
"573","","bandit","189","784313","0.0-150.0-0.0","72046015","wem/bandit_either","A3MD34XEB4H6JF","either","2","","","","","","","0","0","1","0.391379093","","0.8","0.2","0.4","0.6","","","","","0.478642168","0.1862786225","0.4475699482","0.391379093","","","","","","","76","L","3","","","111","main_expt"
"413","","bandit","190","786257","0.0-151.0-0.0","72046015","wem/bandit_either","A3MD34XEB4H6JF","either","2","","","","","","","1","0","0","0.4841415165","","0.8","0.2","0.4","0.6","","","","","0.4841415165","0.1654620982","0.4190314983","0.4131544452","","","","","","","72","H","0","img/none_selected.jpg","","112","main_expt"
"389","","bandit","191","788182","0.0-152.0-0.0","72046015","wem/bandit_either","A3MD34XEB4H6JF","either","2","","","","","","","1","0","0","0.4883212127","","0.8","0.2","0.4","0.6","","","","","0.4883212127","0.1582981878","0.3666128881","0.3963985948","","","","","","","72","H","0","img/none_selected.jpg","","113","main_expt"
"468","","bandit","192","790177","0.0-153.0-0.0","72046015","wem/bandit_either","A3MD34XEB4H6JF","either","2","","","","","","","0","1","0","","0.4883790739","0.8","0.2","0.4","0.6","0.4883790739","0.1922757069","0.3866259854","0.4117985871","","","","","","","","","","","72","H","0","img/none_selected.jpg","","114","main_expt"
"583","","bandit","193","792298","0.0-154.0-0.0","72046015","wem/bandit_either","A3MD34XEB4H6JF","either","2","","","","","","","0","1","0","","0.4902011966","0.8","0.2","0.4","0.6","0.4902011966","0.185618385","0.354161152","0.394381103","","","","","","","","","","","72","H","0","img/none_selected.jpg","","115","main_expt"
"468","","bandit","194","794294","0.0-155.0-0.0","72046015","wem/bandit_either","A3MD34XEB4H6JF","either","2","","","","","","","0","0","1","","0.4844723045","0.8","0.2","0.4","0.6","0.4844723045","0.2057277395","0.3170745426","0.3762408663","","","","","","","","","","","72","H","0","img/none_selected.jpg","","116","main_expt"
"310","","bandit","195","796131","0.0-156.0-0.0","72046015","wem/bandit_either","A3MD34XEB4H6JF","either","2","","","","","","","0","0","1","","0.2288411079","0.8","0.2","0.4","0.6","0.4895589844","0.2288411079","0.304536318","0.3823674378","","","","","","","","","","","74","J","1","","","117","main_expt"
"167","","bandit","196","797823","0.0-157.0-0.0","72046015","wem/bandit_either","A3MD34XEB4H6JF","either","2","","","","","","","0","0","1","0.3411026949","","0.8","0.2","0.4","0.6","","","","","0.4899729034","0.2207517482","0.3411026949","0.4050195855","","","","","","","75","K","2","","","118","main_expt"
"385","","bandit","197","799745","0.0-158.0-0.0","72046015","wem/bandit_either","A3MD34XEB4H6JF","either","2","","","","","","","0","0","1","0.4947041593","","0.8","0.2","0.4","0.6","","","","","0.4947041593","0.1955286499","0.3447942488","0.4227562767","","","","","","","72","H","0","img/none_selected.jpg","","119","main_expt"
"358","","bandit","198","801630","0.0-159.0-0.0","72046015","wem/bandit_either","A3MD34XEB4H6JF","either","2","","","","","","","0","0","1","0.4163810796","","0.8","0.2","0.4","0.6","","","","","0.4916865355","0.2427950695","0.3686185352","0.4163810796","","","","","","","76","L","3","","","120","main_expt"
"373","","bandit","199","803532","0.0-160.0-0.0","72046015","wem/bandit_either","A3MD34XEB4H6JF","either","2","","","","","","","0","0","1","","0.4860386064","0.8","0.2","0.4","0.6","0.4860386064","0.2479682904","0.3547669752","0.406821829","","","","","","","","","","","72","H","0","img/none_selected.jpg","","121","main_expt"
"326","","bandit","200","805372","0.0-161.0-0.0","72046015","wem/bandit_either","A3MD34XEB4H6JF","either","2","","","","","","","0","0","1","","0.483083859","0.8","0.2","0.4","0.6","0.483083859","0.3081985406","0.365994073","0.3999449125","","","","","","","","","","","72","H","0","img/none_selected.jpg","","122","main_expt"
"215","","bandit","201","807119","0.0-162.0-0.0","72046015","wem/bandit_either","A3MD34XEB4H6JF","either","2","","","","","","","0","1","0","","0.3089359708","0.8","0.2","0.4","0.6","0.4791491275","0.3089359708","0.3120596142","0.366626489","","","","","","","","","","","74","J","1","","","123","main_expt"
"478","","bandit","202","809121","0.0-163.0-0.0","72046015","wem/bandit_either","A3MD34XEB4H6JF","either","2","","","","","","","0","0","1","","0.3298338218","0.8","0.2","0.4","0.6","0.4776777384","0.3298338218","0.302161917","0.3706278578","","","","","","","","","","","74","J","1","","","124","main_expt"
"372","","bandit","203","811022","0.0-164.0-0.0","72046015","wem/bandit_either","A3MD34XEB4H6JF","either","2","","","","","","","1","0","0","0.478983255","","0.8","0.2","0.4","0.6","","","","","0.478983255","0.2795250441","0.2794370347","0.3545504723","","","","","","","72","H","0","img/none_selected.jpg","","125","main_expt"
"550","","bandit","204","813111","0.0-165.0-0.0","72046015","wem/bandit_either","A3MD34XEB4H6JF","either","2","","","","","","","0","1","0","","0.4724726719","0.8","0.2","0.4","0.6","0.4724726719","0.2184127205","0.2466154908","0.3106298006","","","","","","","","","","","72","H","0","img/none_selected.jpg","","126","main_expt"
"424","","bandit","205","815058","0.0-166.0-0.0","72046015","wem/bandit_either","A3MD34XEB4H6JF","either","2","","","","","","","0","1","0","","0.4796244369","0.8","0.2","0.4","0.6","0.4796244369","0.2488858907","0.2712823261","0.3351405197","","","","","","","","","","","72","H","0","img/none_selected.jpg","","127","main_expt"
"494","","bandit","206","817071","0.0-167.0-0.0","72046015","wem/bandit_either","A3MD34XEB4H6JF","either","2","","","","","","","0","0","1","0.4825212971","","0.8","0.2","0.4","0.6","","","","","0.4825212971","0.2850827173","0.2095517986","0.2984422464","","","","","","","72","H","0","img/none_selected.jpg","","128","main_expt"
"495","","bandit","207","819092","0.0-168.0-0.0","72046015","wem/bandit_either","A3MD34XEB4H6JF","either","2","","","","","","","0","0","1","0.4877535013","","0.8","0.2","0.4","0.6","","","","","0.4877535013","0.2867242009","0.1986866195","0.2027892291","","","","","","","72","H","0","img/none_selected.jpg","","129","main_expt"
"205","","bandit","208","820835","0.0-169.0-0.0","72046015","wem/bandit_either","A3MD34XEB4H6JF","either","2","","","","","","","0","0","1","0.2509552002","","0.8","0.2","0.4","0.6","","","","","0.4833646461","0.2509552002","0.172959111","0.13768179","","","","","","","74","J","1","","","130","main_expt"
"334","","bandit","209","822704","0.0-170.0-0.0","72046015","wem/bandit_either","A3MD34XEB4H6JF","either","2","","","","","","","0","0","1","0.4790990265","","0.8","0.2","0.4","0.6","","","","","0.4790990265","0.2172434631","0.163172462","0.1352832961","","","","","","","72","H","0","img/none_selected.jpg","","131","main_expt"
"508","","bandit","210","824749","0.0-171.0-0.0","72046015","wem/bandit_either","A3MD34XEB4H6JF","either","2","","","","","","","0","0","1","0.158295755","","0.8","0.2","0.4","0.6","","","","","0.4882311922","0.158295755","0.161148659","0.08660982753","","","","","","","74","J","1","","","132","main_expt"
"202","","bandit","211","826475","0.0-172.0-0.0","72046015","wem/bandit_either","A3MD34XEB4H6JF","either","2","","","","","","","0","1","0","","0.1735641072","0.8","0.2","0.4","0.6","0.4889625365","0.185310911","0.1735641072","0.1020907376","","","","","","","","","","","75","K","2","","","133","main_expt"
"405","","bandit","212","828409","0.0-173.0-0.0","72046015","wem/bandit_either","A3MD34XEB4H6JF","either","2","","","","","","","0","0","1","","0.1597390633","0.8","0.2","0.4","0.6","0.4916783795","0.1966535246","0.1597390633","0.1231499397","","","","","","","","","","","75","K","2","","","134","main_expt"
"403","","bandit","213","830331","0.0-174.0-0.0","72046015","wem/bandit_either","A3MD34XEB4H6JF","either","2","","","","","","","0","0","1","0.4904315354","","0.8","0.2","0.4","0.6","","","","","0.4904315354","0.2290191974","0.1460070414","0.1524236556","","","","","","","72","H","0","img/none_selected.jpg","","135","main_expt"
"384","","bandit","214","832233","0.0-175.0-0.0","72046015","wem/bandit_either","A3MD34XEB4H6JF","either","2","","","","","","","0","0","1","0.105474526","","0.8","0.2","0.4","0.6","","","","","0.491666595","0.2929229053","0.105474526","0.1954247664","","","","","","","75","K","2","","","136","main_expt"
"248","","bandit","215","834007","0.0-176.0-0.0","72046015","wem/bandit_either","A3MD34XEB4H6JF","either","2","","","","","","","0","0","1","0.1833989084","","0.8","0.2","0.4","0.6","","","","","0.4917142499","0.2780805385","0.08835118593","0.1833989084","","","","","","","76","L","3","","","137","main_expt"
"355","","bandit","216","835896","0.0-177.0-0.0","72046015","wem/bandit_either","A3MD34XEB4H6JF","either","2","","","","","","","1","0","0","0.4870170403","","0.8","0.2","0.4","0.6","","","","","0.4870170403","0.217224157","0.06418360449","0.1490533902","","","","","","","72","H","0","img/none_selected.jpg","","138","main_expt"
"913","","bandit","217","838340","0.0-178.0-0.0","72046015","wem/bandit_either","A3MD34XEB4H6JF","either","2","","","","","","","0","0","1","0.4834992155","","0.8","0.2","0.4","0.6","","","","","0.4834992155","0.2323391466","0.03554325754","0.1318817547","","","","","","","72","H","0","img/none_selected.jpg","","139","main_expt"
"69","","bandit","218","839935","0.0-179.0-0.0","72046015","wem/bandit_either","A3MD34XEB4H6JF","either","2","","","","","","","0","0","1","","0.04477370895","0.8","0.2","0.4","0.6","0.4927392517","0.244475209","0.04477370895","0.1877412345","","","","","","","","","","","75","K","2","","","140","main_expt"
"686","","bandit","219","842155","0.0-180.0-0.0","72046015","wem/bandit_either","A3MD34XEB4H6JF","either","2","","","","","","","0","0","1","0.4872377518","","0.8","0.2","0.4","0.6","","","","","0.4872377518","0.232604034","0.03780119019","0.2363671377","","","","","","","72","H","0","img/none_selected.jpg","","141","main_expt"
"152","","bandit","220","843842","0.0-181.0-0.0","72046015","wem/bandit_either","A3MD34XEB4H6JF","either","2","","","","","","","0","0","1","","0.03149913875","0.8","0.2","0.4","0.6","0.4846254936","0.2447345556","0.03149913875","0.2546402356","","","","","","","","","","","75","K","2","","","142","main_expt"
"591","","bandit","221","845963","0.0-182.0-0.0","72046015","wem/bandit_either","A3MD34XEB4H6JF","either","2","","","","","","","0","0","1","","0.26413271","0.8","0.2","0.4","0.6","0.4815328815","0.26413271","0.04191513266","0.2825544685","","","","","","","","","","","74","J","1","","","143","main_expt"
"522","","bandit","222","848007","0.0-183.0-0.0","72046015","wem/bandit_either","A3MD34XEB4H6JF","either","2","","","","","","","0","0","1","","0.05613120157","0.8","0.2","0.4","0.6","0.4854048375","0.1988203511","0.05613120157","0.2731230023","","","","","","","","","","","75","K","2","","","144","main_expt"
"396","","bandit","223","849919","0.0-184.0-0.0","72046015","wem/bandit_either","A3MD34XEB4H6JF","either","2","","","","","","","0","0","1","0.4813029389","","0.8","0.2","0.4","0.6","","","","","0.4813029389","0.217822638","0.03827589539","0.2943814715","","","","","","","72","H","0","img/none_selected.jpg","","145","main_expt"
"484","","bandit","224","851920","0.0-185.0-0.0","72046015","wem/bandit_either","A3MD34XEB4H6JF","either","2","","","","","","","0","0","1","0.328634005","","0.8","0.2","0.4","0.6","","","","","0.4884824202","0.2009042904","0.02861175853","0.328634005","","","","","","","76","L","3","","","146","main_expt"
"479","","bandit","225","853924","0.0-186.0-0.0","72046015","wem/bandit_either","A3MD34XEB4H6JF","either","2","","","","","","","0","0","1","","0.4835291327","0.8","0.2","0.4","0.6","0.4835291327","0.2080446297","0.02140640811","0.3511209141","","","","","","","","","","","72","H","0","img/none_selected.jpg","","147","main_expt"
"126","","bandit","226","855591","0.0-187.0-0.0","72046015","wem/bandit_either","A3MD34XEB4H6JF","either","2","","","","","","","0","0","1","","0.1536700415","0.8","0.2","0.4","0.6","0.4716003481","0.1536700415","0.0202041473","0.3874996206","","","","","","","","","","","74","J","1","","","148","main_expt"
"296","","bandit","227","857414","0.0-188.0-0.0","72046015","wem/bandit_either","A3MD34XEB4H6JF","either","2","","","","","","","0","0","1","","0.01154190459","0.8","0.2","0.4","0.6","0.4341886607","0.1593661633","0.01154190459","0.3476646045","","","","","","","","","","","75","K","2","","","149","main_expt"
"223","","bandit","228","859167","0.0-189.0-0.0","72046015","wem/bandit_either","A3MD34XEB4H6JF","either","2","","","","","","","0","0","1","0.3323010919","","0.8","0.2","0.4","0.6","","","","","0.4014438172","0.144955896","0.01291237021","0.3323010919","","","","","","","76","L","3","","","150","main_expt"
"286","","bandit","229","860987","0.0-190.0-0.0","72046015","wem/bandit_either","A3MD34XEB4H6JF","either","2","","","","","","","0","0","1","0.3980713407","","0.8","0.2","0.4","0.6","","","","","0.3980713407","0.2123564028","0.0137789916","0.3954477196","","","","","","","72","H","0","img/none_selected.jpg","","151","main_expt"
"347","","bandit","230","862874","0.0-191.0-0.0","72046015","wem/bandit_either","A3MD34XEB4H6JF","either","2","","","","","","","0","0","1","0.2301890466","","0.8","0.2","0.4","0.6","","","","","0.4002357887","0.2301890466","0.01985271471","0.4186327087","","","","","","","74","J","1","","","152","main_expt"
"52","","bandit","231","864457","0.0-192.0-0.0","72046015","wem/bandit_either","A3MD34XEB4H6JF","either","2","","","","","","","0","1","0","","0.02951100453","0.8","0.2","0.4","0.6","0.388677987","0.2295153641","0.02951100453","0.4029566754","","","","","","","","","","","75","K","2","","","153","main_expt"
"352","","bandit","232","866339","0.0-193.0-0.0","72046015","wem/bandit_either","A3MD34XEB4H6JF","either","2","","","","","","","0","0","1","","0.02325572033","0.8","0.2","0.4","0.6","0.3817747688","0.2163321136","0.02325572033","0.4037751878","","","","","","","","","","","75","K","2","","","154","main_expt"
"375","","bandit","233","868243","0.0-194.0-0.0","72046015","wem/bandit_either","A3MD34XEB4H6JF","either","2","","","","","","","0","0","1","0.03925092562","","0.8","0.2","0.4","0.6","","","","","0.327727533","0.2257858177","0.03925092562","0.4078727314","","","","","","","75","K","2","","","155","main_expt"
"247","","bandit","234","870013","0.0-195.0-0.0","72046015","wem/bandit_either","A3MD34XEB4H6JF","either","2","","","","","","","0","0","1","0.2821504166","","0.8","0.2","0.4","0.6","","","","","0.2821504166","0.2077891775","0.05532081832","0.3941681487","","","","","","","72","H","0","img/none_selected.jpg","","156","main_expt"
"184","","bandit","235","871733","0.0-196.0-0.0","72046015","wem/bandit_either","A3MD34XEB4H6JF","either","2","","","","","","","0","0","1","0.05983660039","","0.8","0.2","0.4","0.6","","","","","0.2784527126","0.1742908387","0.05983660039","0.3417147062","","","","","","","75","K","2","","","157","main_expt"
"336","","bandit","236","873611","0.0-197.0-0.0","72046015","wem/bandit_either","A3MD34XEB4H6JF","either","2","","","","","","","0","0","1","","0.2963220618","0.8","0.2","0.4","0.6","0.2857058734","0.162057643","0.09347744845","0.2963220618","","","","","","","","","","","76","L","3","","","158","main_expt"
"230","","bandit","237","875372","0.0-198.0-0.0","72046015","wem/bandit_either","A3MD34XEB4H6JF","either","2","","","","","","","0","0","1","0.09649648717","","0.8","0.2","0.4","0.6","","","","","0.2349295223","0.1805514511","0.09649648717","0.2961528309","","","","","","","75","K","2","","","159","main_expt"
"235","","bandit","238","877148","0.0-199.0-0.0","72046015","wem/bandit_either","A3MD34XEB4H6JF","either","2","","","","","","","0","0","1","0.2275717407","","0.8","0.2","0.4","0.6","","","","","0.2275717407","0.1724629995","0.08382429791","0.2842772575","","","","","","","72","H","0","img/none_selected.jpg","","160","main_expt"
"288","","bandit","239","878957","0.0-200.0-0.0","72046015","wem/bandit_either","A3MD34XEB4H6JF","either","2","","","","","","","0","0","1","0.1466352983","","0.8","0.2","0.4","0.6","","","","","0.2559884592","0.1660992999","0.1466352983","0.2747674873","","","","","","","75","K","2","","","161","main_expt"
"805","","bandit","240","881292","0.0-201.0-0.0","72046015","wem/bandit_either","A3MD34XEB4H6JF","either","2","","","","","","","0","0","1","0.2281832109","","0.8","0.2","0.4","0.6","","","","","0.2670526618","0.2281832109","0.1569467617","0.2993190406","","","","","","","74","J","1","","","162","main_expt"
"197","","bandit","241","883029","0.0-202.0-0.0","72046015","wem/bandit_either","A3MD34XEB4H6JF","either","2","","","","","","","0","0","1","0.2618894379","","0.8","0.2","0.4","0.6","","","","","0.2618894379","0.2144285545","0.1437935099","0.3102408377","","","","","","","72","H","0","img/none_selected.jpg","","163","main_expt"
"232","","bandit","242","884788","0.0-203.0-0.0","72046015","wem/bandit_either","A3MD34XEB4H6JF","either","2","","","","","","","0","0","1","","0.1503677763","0.8","0.2","0.4","0.6","0.2977476978","0.2131293933","0.1503677763","0.2607878409","","","","","","","","","","","75","K","2","","","164","main_expt"
"403","","bandit","243","886723","0.0-204.0-0.0","72046015","wem/bandit_either","A3MD34XEB4H6JF","either","2","","","","","","","1","0","0","0.3138636066","","0.8","0.2","0.4","0.6","","","","","0.3138636066","0.251698227","0.1574825995","0.2470054868","","","","","","","72","H","0","img/none_selected.jpg","","165","main_expt"
"434","","bandit","244","888692","0.0-205.0-0.0","72046015","wem/bandit_either","A3MD34XEB4H6JF","either","2","","","","","","","0","0","1","","0.1500633275","0.8","0.2","0.4","0.6","0.3204338644","0.2831539445","0.1500633275","0.2629624785","","","","","","","","","","","75","K","2","","","166","main_expt"
"181","","bandit","245","890399","0.0-206.0-0.0","72046015","wem/bandit_either","A3MD34XEB4H6JF","either","2","","","","","","","0","0","1","0.3600517585","","0.8","0.2","0.4","0.6","","","","","0.3600517585","0.2496169508","0.1137242654","0.2745713682","","","","","","","72","H","0","img/none_selected.jpg","","167","main_expt"
"372","","bandit","246","892308","0.0-207.0-0.0","72046015","wem/bandit_either","A3MD34XEB4H6JF","either","2","","","","","","","0","0","1","0.145192941","","0.8","0.2","0.4","0.6","","","","","0.3678373827","0.2315540067","0.145192941","0.2557249153","","","","","","","75","K","2","","","168","main_expt"
"59","","bandit","247","893901","0.0-208.0-0.0","72046015","wem/bandit_either","A3MD34XEB4H6JF","either","2","","","","","","","0","0","1","0.3421512568","","0.8","0.2","0.4","0.6","","","","","0.3421512568","0.1825517174","0.1863479632","0.2016321063","","","","","","","72","H","0","img/none_selected.jpg","","169","main_expt"
"350","","bandit","248","895779","0.0-209.0-0.0","72046015","wem/bandit_either","A3MD34XEB4H6JF","either","2","","","","","","","0","0","1","","0.2535959064","0.8","0.2","0.4","0.6","0.3917895485","0.2535959064","0.142304713","0.2210696627","","","","","","","","","","","74","J","1","","","170","main_expt"
"92","","bandit","249","897387","0.0-210.0-0.0","72046015","wem/bandit_either","A3MD34XEB4H6JF","either","2","","","","","","","0","1","0","","0.1739768979","0.8","0.2","0.4","0.6","0.3206692194","0.3004284576","0.1739768979","0.1627904758","","","","","","","","","","","75","K","2","","","171","main_expt"
"413","","bandit","250","899338","0.0-211.0-0.0","72046015","wem/bandit_either","A3MD34XEB4H6JF","either","2","","","","","","","0","1","0","","0.2172659048","0.8","0.2","0.4","0.6","0.3198600846","0.2716191145","0.2172659048","0.1421076649","","","","","","","","","","","75","K","2","","","172","main_expt"
"523","","bandit","251","901381","0.0-212.0-0.0","72046015","wem/bandit_either","A3MD34XEB4H6JF","either","2","","","","","","","0","0","1","","0.2419731025","0.8","0.2","0.4","0.6","0.2641483633","0.3253138029","0.2419731025","0.165050165","","","","","","","","","","","75","K","2","","","173","main_expt"
"297","","bandit","252","903208","0.0-213.0-0.0","72046015","wem/bandit_either","A3MD34XEB4H6JF","either","2","","","","","","","0","0","1","0.2248062597","","0.8","0.2","0.4","0.6","","","","","0.2248062597","0.3419591401","0.2239571331","0.1406738207","","","","","","","72","H","0","img/none_selected.jpg","","174","main_expt"
"284","","bandit","253","905032","0.0-214.0-0.0","72046015","wem/bandit_either","A3MD34XEB4H6JF","either","2","","","","","","","0","1","0","","0.2311410243","0.8","0.2","0.4","0.6","0.2370379408","0.3442692367","0.2311410243","0.138310495","","","","","","","","","","","75","K","2","","","175","main_expt"
"499","","bandit","254","907054","0.0-215.0-0.0","72046015","wem/bandit_either","A3MD34XEB4H6JF","either","2","","","","","","","0","0","1","0.3397266539","","0.8","0.2","0.4","0.6","","","","","0.2157433706","0.3397266539","0.2610077479","0.1675243642","","","","","","","74","J","1","","","176","main_expt"
"347","","bandit","255","908921","0.0-216.0-0.0","72046015","wem/bandit_either","A3MD34XEB4H6JF","either","2","","","","","","","0","0","1","","0.2780938204","0.8","0.2","0.4","0.6","0.2014791824","0.2997078274","0.2780938204","0.1919885971","","","","","","","","","","","75","K","2","","","177","main_expt"
"139","","bandit","256","910594","0.0-217.0-0.0","72046015","wem/bandit_either","A3MD34XEB4H6JF","either","2","","","","","","","0","0","1","0.2365392944","","0.8","0.2","0.4","0.6","","","","","0.1913564418","0.3064007527","0.3151752793","0.2365392944","","","","","","","76","L","3","","","178","main_expt"
"430","","bandit","257","912547","0.0-218.0-0.0","72046015","wem/bandit_either","A3MD34XEB4H6JF","either","2","","","","","","","0","0","1","","0.2799621139","0.8","0.2","0.4","0.6","0.1980728016","0.3533432679","0.2799621139","0.2509455726","","","","","","","","","","","75","K","2","","","179","main_expt"
"365","","bandit","258","914445","0.0-219.0-0.0","72046015","wem/bandit_either","A3MD34XEB4H6JF","either","2","","","","","","","0","1","0","","0.3170936092","0.8","0.2","0.4","0.6","0.1833491223","0.3652522579","0.3170936092","0.2767223981","","","","","","","","","","","75","K","2","","","180","main_expt"
"428","","bandit","259","916402","0.0-220.0-0.0","72046015","wem/bandit_either","A3MD34XEB4H6JF","either","2","","","","","","","1","0","0","0.28101752","","0.8","0.2","0.4","0.6","","","","","0.1342686697","0.3383156657","0.28101752","0.314600373","","","","","","","75","K","2","","","181","main_expt"
"397","","bandit","260","918337","0.0-221.0-0.0","72046015","wem/bandit_either","A3MD34XEB4H6JF","either","2","","","","","","","0","1","0","","0.3043342224","0.8","0.2","0.4","0.6","0.1636660304","0.2902116232","0.3043342224","0.3943610609","","","","","","","","","","","75","K","2","","","182","main_expt"
"385","","bandit","261","920261","0.0-222.0-0.0","72046015","wem/bandit_either","A3MD34XEB4H6JF","either","2","","","","","","","0","0","1","","0.3192524042","0.8","0.2","0.4","0.6","0.136761637","0.3026157476","0.3192524042","0.3586422101","","","","","","","","","","","75","K","2","","","183","main_expt"
"395","","bandit","262","922185","0.0-223.0-0.0","72046015","wem/bandit_either","A3MD34XEB4H6JF","either","2","","","","","","","0","1","0","","0.3360229169","0.8","0.2","0.4","0.6","0.1685989701","0.3360229169","0.3332516821","0.3879999062","","","","","","","","","","","74","J","1","","","184","main_expt"
"403","","bandit","263","924122","0.0-224.0-0.0","72046015","wem/bandit_either","A3MD34XEB4H6JF","either","2","","","","","","","0","0","1","0.3228184693","","0.8","0.2","0.4","0.6","","","","","0.1663529744","0.3336456265","0.3228184693","0.3831340227","","","","","","","75","K","2","","","185","main_expt"
"282","","bandit","264","925923","0.0-225.0-0.0","72046015","wem/bandit_either","A3MD34XEB4H6JF","either","2","","","","","","","0","0","1","","0.3308881938","0.8","0.2","0.4","0.6","0.1916836285","0.3308881938","0.3111703144","0.3999004662","","","","","","","","","","","74","J","1","","","186","main_expt"
"265","","bandit","265","927722","0.0-226.0-0.0","72046015","wem/bandit_either","A3MD34XEB4H6JF","either","2","","","","","","","0","1","0","","0.1686829448","0.8","0.2","0.4","0.6","0.1686829448","0.325530054","0.3353611299","0.3875363153","","","","","","","","","","","72","H","0","img/none_selected.jpg","","187","main_expt"
"346","","bandit","266","929591","0.0-227.0-0.0","72046015","wem/bandit_either","A3MD34XEB4H6JF","either","2","","","","","","","0","0","1","","0.3055482451","0.8","0.2","0.4","0.6","0.1461675531","0.3055482451","0.3646937268","0.3875691392","","","","","","","","","","","74","J","1","","","188","main_expt"
"346","","bandit","267","931470","0.0-228.0-0.0","72046015","wem/bandit_either","A3MD34XEB4H6JF","either","2","","","","","","","0","0","1","0.1382971047","","0.8","0.2","0.4","0.6","","","","","0.1382971047","0.3002345065","0.3891323825","0.4166866882","","","","","","","72","H","0","img/none_selected.jpg","","189","main_expt"
"241","","bandit","268","933235","0.0-229.0-0.0","72046015","wem/bandit_either","A3MD34XEB4H6JF","either","2","","","","","","","0","0","1","","0.3860741766","0.8","0.2","0.4","0.6","0.1898135375","0.2693931213","0.3860741766","0.4124474499","","","","","","","","","","","75","K","2","","","190","main_expt"
"120","","bandit","269","934889","0.0-230.0-0.0","72046015","wem/bandit_either","A3MD34XEB4H6JF","either","2","","","","","","","0","0","1","","0.3009284261","0.8","0.2","0.4","0.6","0.1264917812","0.3009284261","0.3864243721","0.3638199534","","","","","","","","","","","74","J","1","","","191","main_expt"
"75","","bandit","270","936491","0.0-231.0-0.0","72046015","wem/bandit_either","A3MD34XEB4H6JF","either","2","","","","","","","0","0","1","0.1185409567","","0.8","0.2","0.4","0.6","","","","","0.1185409567","0.3157917784","0.400448014","0.3711146034","","","","","","","72","H","0","img/none_selected.jpg","","192","main_expt"
"392","","bandit","271","938403","0.0-232.0-0.0","72046015","wem/bandit_either","A3MD34XEB4H6JF","either","2","","","","","","","1","0","0","0.3895367297","","0.8","0.2","0.4","0.6","","","","","0.09837948322","0.2999212614","0.3895367297","0.3654165885","","","","","","","75","K","2","","","193","main_expt"
"355","","bandit","272","940280","0.0-233.0-0.0","72046015","wem/bandit_either","A3MD34XEB4H6JF","either","2","","","","","","","0","1","0","","0.4032313792","0.8","0.2","0.4","0.6","0.137690802","0.3287494418","0.4032313792","0.3537818584","","","","","","","","","","","75","K","2","","","194","main_expt"
"538","","bandit","273","942354","0.0-234.0-0.0","72046015","wem/bandit_either","A3MD34XEB4H6JF","either","2","","","","","","","0","0","1","","0.337234763","0.8","0.2","0.4","0.6","0.1683354775","0.3031978913","0.337234763","0.3597494918","","","","","","","","","","","75","K","2","","","195","main_expt"
"339","","bandit","274","944223","0.0-235.0-0.0","72046015","wem/bandit_either","A3MD34XEB4H6JF","either","2","","","","","","","0","1","0","","0.3479121901","0.8","0.2","0.4","0.6","0.1561951964","0.2901303692","0.3950764453","0.3479121901","","","","","","","","","","","76","L","3","","","196","main_expt"
"528","","bandit","275","946291","0.0-236.0-0.0","72046015","wem/bandit_either","A3MD34XEB4H6JF","either","2","","","","","","","1","0","0","0.4193743727","","0.8","0.2","0.4","0.6","","","","","0.1329868482","0.2444781728","0.4193743727","0.3596292454","","","","","","","75","K","2","","","197","main_expt"
"365","","bandit","276","948188","0.0-237.0-0.0","72046015","wem/bandit_either","A3MD34XEB4H6JF","either","2","","","","","","","0","0","1","0.3555371828","","0.8","0.2","0.4","0.6","","","","","0.1730826789","0.2140047665","0.4375347816","0.3555371828","","","","","","","76","L","3","","","198","main_expt"
"142","","bandit","277","949853","0.0-238.0-0.0","72046015","wem/bandit_either","A3MD34XEB4H6JF","either","2","","","","","","","0","0","1","","0.4315030007","0.8","0.2","0.4","0.6","0.1385649096","0.2077842613","0.4315030007","0.4016486285","","","","","","","","","","","75","K","2","","","199","main_expt"
"321","","bandit","278","951709","0.0-239.0-0.0","72046015","wem/bandit_either","A3MD34XEB4H6JF","either","2","","","","","","","1","0","0","0.180488049","","0.8","0.2","0.4","0.6","","","","","0.1941139053","0.180488049","0.4340108373","0.3871107612","","","","","","","74","J","1","","","200","main_expt"
"332","","bandit","279","953556","0.0-240.0-0.0","72046015","wem/bandit_either","A3MD34XEB4H6JF","either","2","","","","","","","1","0","0","0.441078118","","0.8","0.2","0.4","0.6","","","","","0.1825013029","0.2084987087","0.441078118","0.3856539452","","","","","","","75","K","2","","","201","main_expt"
"396","","bandit","280","955481","0.0-241.0-0.0","72046015","wem/bandit_either","A3MD34XEB4H6JF","either","2","","","","","","","0","1","0","","0.1869669721","0.8","0.2","0.4","0.6","0.162440572","0.1869669721","0.4143682719","0.358588673","","","","","","","","","","","74","J","1","","","202","main_expt"
"336","","bandit","281","957352","0.0-242.0-0.0","72046015","wem/bandit_either","A3MD34XEB4H6JF","either","2","","","","","","","0","0","1","","0.4280720422","0.8","0.2","0.4","0.6","0.1914238456","0.1383076553","0.4280720422","0.3460881607","","","","","","","","","","","75","K","2","","","203","main_expt"
"311","","bandit","282","959186","0.0-243.0-0.0","72046015","wem/bandit_either","A3MD34XEB4H6JF","either","2","","","","","","","0","0","1","","0.1656187697","0.8","0.2","0.4","0.6","0.1849793247","0.1656187697","0.4113524858","0.3091432968","","","","","","","","","","","74","J","1","","","204","main_expt"
"166","","bandit","283","960888","0.0-244.0-0.0","72046015","wem/bandit_either","A3MD34XEB4H6JF","either","2","","","","","","","0","0","1","","0.1722293799","0.8","0.2","0.4","0.6","0.1722293799","0.1699285253","0.4151465815","0.3016396897","","","","","","","","","","","72","H","0","img/none_selected.jpg","","205","main_expt"
"51","","bandit","284","962478","0.0-245.0-0.0","72046015","wem/bandit_either","A3MD34XEB4H6JF","either","2","","","","","","","0","0","1","","0.161732949","0.8","0.2","0.4","0.6","0.1625694713","0.161732949","0.4002359997","0.3300702997","","","","","","","","","","","74","J","1","","","206","main_expt"
"48","","bandit","285","964055","0.0-246.0-0.0","72046015","wem/bandit_either","A3MD34XEB4H6JF","either","2","","","","","","","0","1","0","","0.2648848683","0.8","0.2","0.4","0.6","0.1079769143","0.1699017951","0.3692387261","0.2648848683","","","","","","","","","","","76","L","3","","","207","main_expt"
"476","","bandit","286","966057","0.0-247.0-0.0","72046015","wem/bandit_either","A3MD34XEB4H6JF","either","2","","","","","","","0","0","1","","0.1592107695","0.8","0.2","0.4","0.6","0.1380178959","0.1592107695","0.3283471685","0.2502792914","","","","","","","","","","","74","J","1","","","208","main_expt"
"415","","bandit","287","968003","0.0-248.0-0.0","72046015","wem/bandit_either","A3MD34XEB4H6JF","either","2","","","","","","","0","0","1","","0.2770073026","0.8","0.2","0.4","0.6","0.1538506734","0.1659907122","0.2924758898","0.2770073026","","","","","","","","","","","76","L","3","","","209","main_expt"
"515","","bandit","288","970053","0.0-249.0-0.0","72046015","wem/bandit_either","A3MD34XEB4H6JF","either","2","","","","","","","0","0","1","","0.229525517","0.8","0.2","0.4","0.6","0.1406222791","0.229525517","0.2279470939","0.3451435735","","","","","","","","","","","74","J","1","","","210","main_expt"
"354","","bandit","289","971941","0.0-250.0-0.0","72046015","wem/bandit_either","A3MD34XEB4H6JF","either","2","","","","","","","0","0","1","0.2131844406","","0.8","0.2","0.4","0.6","","","","","0.08987887408","0.2434605193","0.2131844406","0.3514478275","","","","","","","75","K","2","","","211","main_expt"
"241","","bandit","290","973699","0.0-251.0-0.0","72046015","wem/bandit_either","A3MD34XEB4H6JF","either","2","","","","","","","0","0","1","","0.3579324364","0.8","0.2","0.4","0.6","0.1277875359","0.1633214123","0.1601793481","0.3579324364","","","","","","","","","","","76","L","3","","","212","main_expt"
"300","","bandit","291","975537","0.0-252.0-0.0","72046015","wem/bandit_either","A3MD34XEB4H6JF","either","2","","","","","","","0","0","1","","0.1014835246","0.8","0.2","0.4","0.6","0.134271297","0.1014835246","0.1354109392","0.3231243524","","","","","","","","","","","74","J","1","","","213","main_expt"
"372","","bandit","292","977433","0.0-253.0-0.0","72046015","wem/bandit_either","A3MD34XEB4H6JF","either","2","","","","","","","0","0","1","0.1142105534","","0.8","0.2","0.4","0.6","","","","","0.1385204111","0.09587264096","0.1142105534","0.2798540136","","","","","","","75","K","2","","","214","main_expt"
"1","","bandit","293","978961","0.0-254.0-0.0","72046015","wem/bandit_either","A3MD34XEB4H6JF","either","2","","","","","","","1","0","0","0.1089132689","","0.8","0.2","0.4","0.6","","","","","0.1089132689","0.08342689115","0.1031311673","0.2469391402","","","","","","","72","H","0","img/none_selected.jpg","","215","main_expt"
"1210","","bandit","294","981691","0.0-255.0-0.0","72046015","wem/bandit_either","A3MD34XEB4H6JF","either","2","","","","","","","0","0","1","0.1299508563","","0.8","0.2","0.4","0.6","","","","","0.1299508563","0.05361264496","0.1031732366","0.3211823944","","","","","","","72","H","0","img/none_selected.jpg","","216","main_expt"
"637","","bandit","295","983871","0.0-256.0-0.0","72046015","wem/bandit_either","A3MD34XEB4H6JF","either","2","","","","","","","0","1","0","","0.3545519007","0.8","0.2","0.4","0.6","0.131109262","0.09912420903","0.1188097379","0.3545519007","","","","","","","","","","","76","L","3","","","217","main_expt"
"1044","","bandit","296","986435","0.0-257.0-0.0","72046015","wem/bandit_either","A3MD34XEB4H6JF","either","2","","","","","","","0","0","1","0.1039495344","","0.8","0.2","0.4","0.6","","","","","0.1039495344","0.1021137889","0.1096623481","0.3781539282","","","","","","","72","H","0","img/none_selected.jpg","","218","main_expt"
"383","","bandit","297","988352","0.0-258.0-0.0","72046015","wem/bandit_either","A3MD34XEB4H6JF","either","2","","","","","","","0","0","1","","0.3674409598","0.8","0.2","0.4","0.6","0.09488552944","0.1025207236","0.08679630722","0.3674409598","","","","","","","","","","","76","L","3","","","219","main_expt"
"375","","bandit","298","990263","0.0-259.0-0.0","72046015","wem/bandit_either","A3MD34XEB4H6JF","either","2","","","","","","","0","0","1","","0.1049734862","0.8","0.2","0.4","0.6","0.1311925698","0.1049734862","0.1482089448","0.315237632","","","","","","","","","","","74","J","1","","","220","main_expt"
"53","","bandit","299","991853","0.0-260.0-0.0","72046015","wem/bandit_either","A3MD34XEB4H6JF","either","2","","","","","","","0","1","0","","0.217172314","0.8","0.2","0.4","0.6","0.08224132258","0.08244295151","0.217172314","0.3572442142","","","","","","","","","","","75","K","2","","","221","main_expt"
"298","","bandit","300","993686","0.0-261.0-0.0","72046015","wem/bandit_either","A3MD34XEB4H6JF","either","2","","","","","","","0","0","1","0.2227738938","","0.8","0.2","0.4","0.6","","","","","0.06870998364","0.09815111748","0.2227738938","0.2796125419","","","","","","","75","K","2","","","222","main_expt"
"412","","bandit","301","995626","0.0-262.0-0.0","72046015","wem/bandit_either","A3MD34XEB4H6JF","either","2","","","","","","","1","0","0","0.2265565182","","0.8","0.2","0.4","0.6","","","","","0.111762886","0.09925351505","0.2768694491","0.2265565182","","","","","","","76","L","3","","","223","main_expt"
"411","","bandit","302","997570","0.0-263.0-0.0","72046015","wem/bandit_either","A3MD34XEB4H6JF","either","2","","","","","","","0","0","1","0.1727872262","","0.8","0.2","0.4","0.6","","","","","0.09652303785","0.07842644678","0.2895694018","0.1727872262","","","","","","","76","L","3","","","224","main_expt"
"357","","bandit","303","999457","0.0-264.0-0.0","72046015","wem/bandit_either","A3MD34XEB4H6JF","either","2","","","","","","","0","0","1","0.09424892582","","0.8","0.2","0.4","0.6","","","","","0.09424892582","0.05284632075","0.3515154126","0.1580797834","","","","","","","72","H","0","img/none_selected.jpg","","225","main_expt"
"571","","bandit","304","1001559","0.0-265.0-0.0","72046015","wem/bandit_either","A3MD34XEB4H6JF","either","2","","","","","","","0","0","1","","0.3960872924","0.8","0.2","0.4","0.6","0.1094697254","0.06788221328","0.3960872924","0.1206031336","","","","","","","","","","","75","K","2","","","226","main_expt"
"361","","bandit","305","1003438","0.0-266.0-0.0","72046015","wem/bandit_either","A3MD34XEB4H6JF","either","2","","","","","","","0","0","1","0.1055794081","","0.8","0.2","0.4","0.6","","","","","0.1055794081","0.04226868229","0.3301105445","0.1218099769","","","","","","","72","H","0","img/none_selected.jpg","","227","main_expt"
"362","","bandit","306","1005340","0.0-267.0-0.0","72046015","wem/bandit_either","A3MD34XEB4H6JF","either","2","","","","","","","0","0","1","0.08458740206","","0.8","0.2","0.4","0.6","","","","","0.1210232629","0.06174471126","0.3679650562","0.08458740206","","","","","","","76","L","3","","","228","main_expt"
"399","","bandit","307","1007269","0.0-268.0-0.0","72046015","wem/bandit_either","A3MD34XEB4H6JF","either","2","","","","","","","0","1","0","","0.3413725311","0.8","0.2","0.4","0.6","0.1249199002","0.06122033102","0.3413725311","0.06311990622","","","","","","","","","","","75","K","2","","","229","main_expt"
"320","","bandit","308","1009120","0.0-269.0-0.0","72046015","wem/bandit_either","A3MD34XEB4H6JF","either","2","","","","","","","0","0","1","","0.3652503211","0.8","0.2","0.4","0.6","0.1423167866","0.09369367087","0.3652503211","0.04674316758","","","","","","","","","","","75","K","2","","","230","main_expt"
"318","","bandit","309","1010966","0.0-270.0-0.0","72046015","wem/bandit_either","A3MD34XEB4H6JF","either","2","","","","","","","0","0","1","0.06697327866","","0.8","0.2","0.4","0.6","","","","","0.1441411413","0.1378364932","0.3774172636","0.06697327866","","","","","","","76","L","3","","","231","main_expt"
"416","","bandit","310","1012918","0.0-271.0-0.0","72046015","wem/bandit_either","A3MD34XEB4H6JF","either","2","","","","","","","0","0","1","","0.3507397895","0.8","0.2","0.4","0.6","0.1132866493","0.1138343256","0.3507397895","0.08617656909","","","","","","","","","","","75","K","2","","","232","main_expt"
"427","","bandit","311","1014878","0.0-272.0-0.0","72046015","wem/bandit_either","A3MD34XEB4H6JF","either","2","","","","","","","0","0","1","","0.08388286328","0.8","0.2","0.4","0.6","0.07587191469","0.1602674987","0.3228668676","0.08388286328","","","","","","","","","","","76","L","3","","","233","main_expt"
"353","","bandit","312","1016766","0.0-273.0-0.0","72046015","wem/bandit_either","A3MD34XEB4H6JF","either","2","","","","","","","0","0","1","","0.3219168209","0.8","0.2","0.4","0.6","0.08330376307","0.1399599793","0.3219168209","0.08303297831","","","","","","","","","","","75","K","2","","","234","main_expt"
"127","","bandit","313","1018423","0.0-274.0-0.0","72046015","wem/bandit_either","A3MD34XEB4H6JF","either","2","","","","","","","0","0","1","0.07960395758","","0.8","0.2","0.4","0.6","","","","","0.07960395758","0.1577883936","0.2907257894","0.08228619446","","","","","","","72","H","0","img/none_selected.jpg","","235","main_expt"
"178","","bandit","314","1020135","0.0-275.0-0.0","72046015","wem/bandit_either","A3MD34XEB4H6JF","either","2","","","","","","","0","0","1","","0.2879125653","0.8","0.2","0.4","0.6","0.06703487678","0.1206463377","0.2879125653","0.07856112713","","","","","","","","","","","75","K","2","","","236","main_expt"
"257","","bandit","315","1021917","0.0-276.0-0.0","72046015","wem/bandit_either","A3MD34XEB4H6JF","either","2","","","","","","","0","0","1","","0.09394336493","0.8","0.2","0.4","0.6","0.07970276757","0.1224948263","0.3055933028","0.09394336493","","","","","","","","","","","76","L","3","","","237","main_expt"
"231","","bandit","316","1023680","0.0-277.0-0.0","72046015","wem/bandit_either","A3MD34XEB4H6JF","either","2","","","","","","","1","0","0","0.1163601633","","0.8","0.2","0.4","0.6","","","","","0.05589422377","0.1163601633","0.3197806133","0.1044036833","","","","","","","74","J","1","","","238","main_expt"
"596","","bandit","317","1025803","0.0-278.0-0.0","72046015","wem/bandit_either","A3MD34XEB4H6JF","either","2","","","","","","","0","0","1","0.1010835707","","0.8","0.2","0.4","0.6","","","","","0.07304711058","0.09302868556","0.2699970134","0.1010835707","","","","","","","76","L","3","","","239","main_expt"
"646","","bandit","318","1027984","0.0-279.0-0.0","72046015","wem/bandit_either","A3MD34XEB4H6JF","either","2","","","","","","","0","0","1","0.1142909623","","0.8","0.2","0.4","0.6","","","","","0.05193691484","0.1142909623","0.2594796501","0.1196592177","","","","","","","74","J","1","","","240","main_expt"
"283","","bandit","319","1029798","0.0-280.0-0.0","72046015","wem/bandit_either","A3MD34XEB4H6JF","either","2","","","","","","","0","0","1","","0.06844812817","0.8","0.2","0.4","0.6","0.06844812817","0.1694552561","0.252227353","0.127320561","","","","","","","","","","","72","H","0","img/none_selected.jpg","","241","main_expt"
"308","","bandit","320","1031636","0.0-281.0-0.0","72046015","wem/bandit_either","A3MD34XEB4H6JF","either","2","","","","","","","0","0","1","","0.1828807391","0.8","0.2","0.4","0.6","0.07869989264","0.1828807391","0.301231011","0.10641745","","","","","","","","","","","74","J","1","","","242","main_expt"
"181","","bandit","321","1033343","0.0-282.0-0.0","72046015","wem/bandit_either","A3MD34XEB4H6JF","either","2","","","","","","","0","1","0","","0.2903867436","0.8","0.2","0.4","0.6","0.06084245892","0.1236361748","0.2903867436","0.131785075","","","","","","","","","","","75","K","2","","","243","main_expt"
"375","","bandit","322","1035249","0.0-283.0-0.0","72046015","wem/bandit_either","A3MD34XEB4H6JF","either","2","","","","","","","0","0","1","","0.1131162958","0.8","0.2","0.4","0.6","0.04982625113","0.1131162958","0.2659167858","0.1150513838","","","","","","","","","","","74","J","1","","","244","main_expt"
"262","","bandit","323","1037044","0.0-284.0-0.0","72046015","wem/bandit_either","A3MD34XEB4H6JF","either","2","","","","","","","0","1","0","","0.254087564","0.8","0.2","0.4","0.6","0.04708965441","0.08611006768","0.254087564","0.1651966394","","","","","","","","","","","75","K","2","","","245","main_expt"
"337","","bandit","324","1038916","0.0-285.0-0.0","72046015","wem/bandit_either","A3MD34XEB4H6JF","either","2","","","","","","","0","0","1","","0.2551799517","0.8","0.2","0.4","0.6","0.0280961865","0.1123216353","0.2551799517","0.1555796254","","","","","","","","","","","75","K","2","","","246","main_expt"
"456","","bandit","325","1040903","0.0-286.0-0.0","72046015","wem/bandit_either","A3MD34XEB4H6JF","either","2","","","","","","","0","1","0","","0.1703980626","0.8","0.2","0.4","0.6","0.04499456282","0.09475638668","0.2629335529","0.1703980626","","","","","","","","","","","76","L","3","","","247","main_expt"
"424","","bandit","326","1042871","0.0-287.0-0.0","72046015","wem/bandit_either","A3MD34XEB4H6JF","either","2","","","","","","","0","0","1","","0.2393496224","0.8","0.2","0.4","0.6","0.03910304398","0.08309477664","0.2393496224","0.1502680902","","","","","","","","","","","75","K","2","","","248","main_expt"
"305","","bandit","327","1044721","0.0-288.0-0.0","72046015","wem/bandit_either","A3MD34XEB4H6JF","either","2","","","","","","","0","0","1","","0.1515252412","0.8","0.2","0.4","0.6","0.02658952892","0.09118761135","0.2612635012","0.1515252412","","","","","","","","","","","76","L","3","","","249","main_expt"
"324","","bandit","328","1046589","0.0-289.0-0.0","72046015","wem/bandit_either","A3MD34XEB4H6JF","either","2","","","","","","","0","0","1","0.2729339083","","0.8","0.2","0.4","0.6","","","","","0.02715120894","0.1173751119","0.2729339083","0.164479444","","","","","","","75","K","2","","","250","main_expt"
"352","","bandit","329","1048481","0.0-290.0-0.0","72046015","wem/bandit_either","A3MD34XEB4H6JF","either","2","","","","","","","0","0","1","0.1036013708","","0.8","0.2","0.4","0.6","","","","","0.02468122838","0.10167128","0.2394547858","0.1036013708","","","","","","","76","L","3","","","251","main_expt"
"491","","bandit","330","1050502","0.0-291.0-0.0","72046015","wem/bandit_either","A3MD34XEB4H6JF","either","2","","","","","","","0","0","1","","0.1297907712","0.8","0.2","0.4","0.6","0.01934001153","0.1297907712","0.1971678968","0.1206404305","","","","","","","","","","","74","J","1","","","252","main_expt"
"538","","bandit","331","1052565","0.0-292.0-0.0","72046015","wem/bandit_either","A3MD34XEB4H6JF","either","2","","","","","","","0","0","1","0.01552303999","","0.8","0.2","0.4","0.6","","","","","0.01552303999","0.08555329314","0.2194815642","0.144481093","","","","","","","72","H","0","img/none_selected.jpg","","253","main_expt"
"305","","bandit","332","1054405","0.0-293.0-0.0","72046015","wem/bandit_either","A3MD34XEB4H6JF","either","2","","","","","","","0","0","1","","0.2365987297","0.8","0.2","0.4","0.6","0.02294208798","0.05661737176","0.2365987297","0.1495858552","","","","","","","","","","","75","K","2","","","254","main_expt"
