"rt","responses","trial_type","trial_index","time_elapsed","internal_node_id","subjID","study","MID","cond","drift","key_press","expt_phase","target","like","value","connected","gems","bombs","no_reward","GemPrChosen","BombPrChosen","GainOverPainPr_0","GainOverPainPr_1","GainOverPainPr_2","GainOverPainPr_3","LosePr_0","LosePr_1","LosePr_2","LosePr_3","WinPr_0","WinPr_1","WinPr_2","WinPr_3","Q0","Q1","Q2","gender","age","ethnicity","respCharCode","respKey","respChoiceNum","respChoice","practice","trial_counter","trial_label"
"10115","{""Q0"":""A3RQN5RZD1N2KP""}","survey-text","0","10120","0.0-0.0","72831984","wem/bandit_either","A3RQN5RZD1N2KP","either","5","","","","","","","","","","","","","","","","","","","","","","","","","","","","","","","","","","","",""
"14641","","text","1","25765","0.0-1.0","72831984","wem/bandit_either","A3RQN5RZD1N2KP","either","5","32","","","","","","","","","","","","","","","","","","","","","","","","","","","","","","","","","","",""
"9254","","text","2","35021","0.0-2.0","72831984","wem/bandit_either","A3RQN5RZD1N2KP","either","5","32","","","","","","","","","","","","","","","","","","","","","","","","","","","","","","","","","","",""
"26569","","text","3","61592","0.0-3.0","72831984","wem/bandit_either","A3RQN5RZD1N2KP","either","5","32","","","","","","","","","","","","","","","","","","","","","","","","","","","","","","","","","","",""
"17423","","text","4","79017","0.0-4.0","72831984","wem/bandit_either","A3RQN5RZD1N2KP","either","5","32","","","","","","","","","","","","","","","","","","","","","","","","","","","","","","","","","","",""
"15394","","text","5","94412","0.0-5.0","72831984","wem/bandit_either","A3RQN5RZD1N2KP","either","5","32","","","","","","","","","","","","","","","","","","","","","","","","","","","","","","","","","","",""
"8239","","text","6","102652","0.0-6.0","72831984","wem/bandit_either","A3RQN5RZD1N2KP","either","5","32","","","","","","","","","","","","","","","","","","","","","","","","","","","","","","","","","","",""
"7870","","text","7","110523","0.0-7.0","72831984","wem/bandit_either","A3RQN5RZD1N2KP","either","5","32","","","","","","","","","","","","","","","","","","","","","","","","","","","","","","","","","","",""
"11234","","identification","8","121777","0.0-8.0-0.0","72831984","wem/bandit_either","A3RQN5RZD1N2KP","either","5","","identification_pre","the village of Zur","","","","","","","","","","","","","","","","","","","","","","","","","","","","","","","","",""
"9168","","identification","9","131960","0.0-8.0-1.0","72831984","wem/bandit_either","A3RQN5RZD1N2KP","either","5","","identification_pre","the village of Nyx","","","","","","","","","","","","","","","","","","","","","","","","","","","","","","","","",""
"4824","","text","10","137787","0.0-9.0","72831984","wem/bandit_either","A3RQN5RZD1N2KP","either","5","32","","","","","","","","","","","","","","","","","","","","","","","","","","","","","","","","","","",""
"3452","","text","11","141241","0.0-10.0","72831984","wem/bandit_either","A3RQN5RZD1N2KP","either","5","32","","","","","","","","","","","","","","","","","","","","","","","","","","","","","","","","","","",""
"2949","","text","12","144192","0.0-11.0","72831984","wem/bandit_either","A3RQN5RZD1N2KP","either","5","32","","","","","","","","","","","","","","","","","","","","","","","","","","","","","","","","","","",""
"8160","","text","13","152354","0.0-12.0","72831984","wem/bandit_either","A3RQN5RZD1N2KP","either","5","32","","","","","","","","","","","","","","","","","","","","","","","","","","","","","","","","","","",""
"2149","","bandit","14","156012","0.0-13.0-0.0","72831984","wem/bandit_either","A3RQN5RZD1N2KP","either","5","","","","","","","0","0","1","0","0","","","","","0","","","","0","","","","","","","","","","74","J","0","img/none_selected_demo.jpg","true","0",""
"2362","","bandit","15","159881","0.0-14.0-0.0","72831984","wem/bandit_either","A3RQN5RZD1N2KP","either","5","","","","","","","0","0","1","0","0","","","","","0","","","","0","","","","","","","","","","75","K","0","img/none_selected_demo.jpg","true","0",""
"8248","","text","16","168131","0.0-15.0","72831984","wem/bandit_either","A3RQN5RZD1N2KP","either","5","32","","","","","","","","","","","","","","","","","","","","","","","","","","","","","","","","","","",""
"9667","","text","17","177800","0.0-16.0","72831984","wem/bandit_either","A3RQN5RZD1N2KP","either","5","32","","","","","","","","","","","","","","","","","","","","","","","","","","","","","","","","","","",""
"10262","","text","18","188064","0.0-17.0","72831984","wem/bandit_either","A3RQN5RZD1N2KP","either","5","32","","","","","","","","","","","","","","","","","","","","","","","","","","","","","","","","","","",""
"3750","","text","19","191816","0.0-18.0","72831984","wem/bandit_either","A3RQN5RZD1N2KP","either","5","32","","","","","","","","","","","","","","","","","","","","","","","","","","","","","","","","","","",""
"1186","","bandit","20","194509","0.0-19.0-0.0","72831984","wem/bandit_either","A3RQN5RZD1N2KP","either","5","","","","","","","0","1","0","","0.8","0.5","0.5","","","0.8","0.2","","","","","","","","","","","","","74","J","0","img/none_selected_demo.jpg","true","0","80_20_practice"
"1035","","bandit","21","197050","0.0-19.0-1.0","72831984","wem/bandit_either","A3RQN5RZD1N2KP","either","5","","","","","","","1","0","0","0.8","","0.5","0.5","","","","","","","0.8","0.2","","","","","","","","","74","J","0","img/none_selected_demo.jpg","true","0","80_20_practice"
"454","","bandit","22","199011","0.0-19.0-2.0","72831984","wem/bandit_either","A3RQN5RZD1N2KP","either","5","","","","","","","0","0","1","","0.2","0.5","0.5","","","0.8","0.2","","","","","","","","","","","","","75","K","1","","true","0","80_20_practice"
"355","","bandit","23","200874","0.0-19.0-3.0","72831984","wem/bandit_either","A3RQN5RZD1N2KP","either","5","","","","","","","0","0","1","0.8","","0.5","0.5","","","","","","","0.8","0.2","","","","","","","","","74","J","0","img/none_selected_demo.jpg","true","0","80_20_practice"
"332","","bandit","24","202712","0.0-19.0-4.0","72831984","wem/bandit_either","A3RQN5RZD1N2KP","either","5","","","","","","","0","0","1","","0.8","0.5","0.5","","","0.8","0.2","","","","","","","","","","","","","74","J","0","img/none_selected_demo.jpg","true","0","80_20_practice"
"306","","bandit","25","204530","0.0-19.0-5.0","72831984","wem/bandit_either","A3RQN5RZD1N2KP","either","5","","","","","","","0","0","1","0.2","","0.5","0.5","","","","","","","0.8","0.2","","","","","","","","","75","K","1","","true","0","80_20_practice"
"336","","bandit","26","206374","0.0-19.0-6.0","72831984","wem/bandit_either","A3RQN5RZD1N2KP","either","5","","","","","","","0","1","0","","0.2","0.5","0.5","","","0.8","0.2","","","","","","","","","","","","","75","K","1","","true","0","80_20_practice"
"455","","bandit","27","208334","0.0-19.0-7.0","72831984","wem/bandit_either","A3RQN5RZD1N2KP","either","5","","","","","","","0","0","1","","0.8","0.5","0.5","","","0.8","0.2","","","","","","","","","","","","","74","J","0","img/none_selected_demo.jpg","true","0","80_20_practice"
"320","","bandit","28","210160","0.0-19.0-8.0","72831984","wem/bandit_either","A3RQN5RZD1N2KP","either","5","","","","","","","0","0","1","0.8","","0.5","0.5","","","","","","","0.8","0.2","","","","","","","","","74","J","0","img/none_selected_demo.jpg","true","0","80_20_practice"
"239","","bandit","29","211906","0.0-19.0-9.0","72831984","wem/bandit_either","A3RQN5RZD1N2KP","either","5","","","","","","","0","0","1","0.2","","0.5","0.5","","","","","","","0.8","0.2","","","","","","","","","75","K","1","","true","0","80_20_practice"
"324","","bandit","30","213736","0.0-19.0-10.0","72831984","wem/bandit_either","A3RQN5RZD1N2KP","either","5","","","","","","","0","0","1","","0.2","0.5","0.5","","","0.8","0.2","","","","","","","","","","","","","75","K","1","","true","0","80_20_practice"
"277","","bandit","31","215521","0.0-19.0-11.0","72831984","wem/bandit_either","A3RQN5RZD1N2KP","either","5","","","","","","","0","0","1","","0.2","0.5","0.5","","","0.8","0.2","","","","","","","","","","","","","75","K","1","","true","0","80_20_practice"
"282","","bandit","32","217314","0.0-19.0-12.0","72831984","wem/bandit_either","A3RQN5RZD1N2KP","either","5","","","","","","","1","0","0","0.2","","0.5","0.5","","","","","","","0.8","0.2","","","","","","","","","75","K","1","","true","0","80_20_practice"
"304","","bandit","33","219125","0.0-19.0-13.0","72831984","wem/bandit_either","A3RQN5RZD1N2KP","either","5","","","","","","","0","1","0","","0.8","0.5","0.5","","","0.8","0.2","","","","","","","","","","","","","74","J","0","img/none_selected_demo.jpg","true","0","80_20_practice"
"286","","bandit","34","220916","0.0-19.0-14.0","72831984","wem/bandit_either","A3RQN5RZD1N2KP","either","5","","","","","","","1","0","0","0.8","","0.5","0.5","","","","","","","0.8","0.2","","","","","","","","","74","J","0","img/none_selected_demo.jpg","true","0","80_20_practice"
"255","","bandit","35","222677","0.0-19.0-15.0","72831984","wem/bandit_either","A3RQN5RZD1N2KP","either","5","","","","","","","1","0","0","0.8","","0.5","0.5","","","","","","","0.8","0.2","","","","","","","","","74","J","0","img/none_selected_demo.jpg","true","0","80_20_practice"
"254","","bandit","36","224439","0.0-19.0-16.0","72831984","wem/bandit_either","A3RQN5RZD1N2KP","either","5","","","","","","","1","0","0","0.8","","0.5","0.5","","","","","","","0.8","0.2","","","","","","","","","74","J","0","img/none_selected_demo.jpg","true","0","80_20_practice"
"231","","bandit","37","226176","0.0-19.0-17.0","72831984","wem/bandit_either","A3RQN5RZD1N2KP","either","5","","","","","","","1","0","0","0.8","","0.5","0.5","","","","","","","0.8","0.2","","","","","","","","","74","J","0","img/none_selected_demo.jpg","true","0","80_20_practice"
"313","","bandit","38","227996","0.0-19.0-18.0","72831984","wem/bandit_either","A3RQN5RZD1N2KP","either","5","","","","","","","0","1","0","","0.8","0.5","0.5","","","0.8","0.2","","","","","","","","","","","","","74","J","0","img/none_selected_demo.jpg","true","0","80_20_practice"
"219","","bandit","39","229721","0.0-19.0-19.0","72831984","wem/bandit_either","A3RQN5RZD1N2KP","either","5","","","","","","","0","1","0","","0.8","0.5","0.5","","","0.8","0.2","","","","","","","","","","","","","74","J","0","img/none_selected_demo.jpg","true","0","80_20_practice"
"3967","","text","40","233690","0.0-20.0","72831984","wem/bandit_either","A3RQN5RZD1N2KP","either","5","32","","","","","","","","","","","","","","","","","","","","","","","","","","","","","","","","","","",""
"850","","bandit","41","236046","0.0-21.0-0.0","72831984","wem/bandit_either","A3RQN5RZD1N2KP","either","5","","","","","","","1","0","0","1","0","","","","","0","1","","","1","0","","","","","","","","","74","J","0","img/none_selected_demo.jpg","true","0",""
"6870","","text","42","242919","0.0-22.0","72831984","wem/bandit_either","A3RQN5RZD1N2KP","either","5","32","","","","","","","","","","","","","","","","","","","","","","","","","","","","","","","","","","",""
"4915","","text","43","247836","0.0-23.0","72831984","wem/bandit_either","A3RQN5RZD1N2KP","either","5","32","","","","","","","","","","","","","","","","","","","","","","","","","","","","","","","","","","",""
"4002","","text","44","251840","0.0-24.0","72831984","wem/bandit_either","A3RQN5RZD1N2KP","either","5","32","","","","","","","","","","","","","","","","","","","","","","","","","","","","","","","","","","",""
"3433","","text","45","255275","0.0-25.0","72831984","wem/bandit_either","A3RQN5RZD1N2KP","either","5","32","","","","","","","","","","","","","","","","","","","","","","","","","","","","","","","","","","",""
"11215","","text","46","266493","0.0-26.0","72831984","wem/bandit_either","A3RQN5RZD1N2KP","either","5","32","","","","","","","","","","","","","","","","","","","","","","","","","","","","","","","","","","",""
"4230","","text","47","270726","0.0-27.0","72831984","wem/bandit_either","A3RQN5RZD1N2KP","either","5","32","","","","","","","","","","","","","","","","","","","","","","","","","","","","","","","","","","",""
"8296","","text","48","279025","0.0-28.0","72831984","wem/bandit_either","A3RQN5RZD1N2KP","either","5","32","","","","","","","","","","","","","","","","","","","","","","","","","","","","","","","","","","",""
"4178","","text","49","283204","0.0-29.0","72831984","wem/bandit_either","A3RQN5RZD1N2KP","either","5","32","","","","","","","","","","","","","","","","","","","","","","","","","","","","","","","","","","",""
"6380","","text","50","289586","0.0-30.0","72831984","wem/bandit_either","A3RQN5RZD1N2KP","either","5","32","","","","","","","","","","","","","","","","","","","","","","","","","","","","","","","","","","",""
"2181","","text","51","291769","0.0-31.0","72831984","wem/bandit_either","A3RQN5RZD1N2KP","either","5","32","","","","","","","","","","","","","","","","","","","","","","","","","","","","","","","","","","",""
"5665","","text","52","297436","0.0-32.0","72831984","wem/bandit_either","A3RQN5RZD1N2KP","either","5","32","","","","","","","","","","","","","","","","","","","","","","","","","","","","","","","","","","",""
"1363","","bandit","53","300307","0.0-33.0-0.0","72831984","wem/bandit_either","A3RQN5RZD1N2KP","either","5","","","","","","","0","1","0","","0.8","0.5","0.5","0.5","0.5","0.8","0.2","0.6","0.2","","","","","","","","","","","72","H","0","img/none_selected.jpg","true","0","full_practice"
"466","","bandit","54","302280","0.0-33.0-1.0","72831984","wem/bandit_either","A3RQN5RZD1N2KP","either","5","","","","","","","0","0","1","","0.2","0.5","0.5","0.5","0.5","0.8","0.2","0.6","0.2","","","","","","","","","","","74","J","1","","true","0","full_practice"
"132","","bandit","55","303917","0.0-33.0-2.0","72831984","wem/bandit_either","A3RQN5RZD1N2KP","either","5","","","","","","","0","1","0","","0.6","0.5","0.5","0.5","0.5","0.8","0.2","0.6","0.2","","","","","","","","","","","75","K","2","","true","0","full_practice"
"310","","bandit","56","305736","0.0-33.0-3.0","72831984","wem/bandit_either","A3RQN5RZD1N2KP","either","5","","","","","","","0","0","1","0.2","","0.5","0.5","0.5","0.5","","","","","0.8","0.2","0.6","0.2","","","","","","","76","L","3","","true","0","full_practice"
"421","","bandit","57","307665","0.0-33.0-4.0","72831984","wem/bandit_either","A3RQN5RZD1N2KP","either","5","","","","","","","0","0","1","","0.2","0.5","0.5","0.5","0.5","0.8","0.2","0.6","0.2","","","","","","","","","","","76","L","3","","true","0","full_practice"
"75","","bandit","58","309247","0.0-33.0-5.0","72831984","wem/bandit_either","A3RQN5RZD1N2KP","either","5","","","","","","","1","0","0","0.6","","0.5","0.5","0.5","0.5","","","","","0.8","0.2","0.6","0.2","","","","","","","75","K","2","","true","0","full_practice"
"316","","bandit","59","311069","0.0-33.0-6.0","72831984","wem/bandit_either","A3RQN5RZD1N2KP","either","5","","","","","","","0","0","1","","0.2","0.5","0.5","0.5","0.5","0.8","0.2","0.6","0.2","","","","","","","","","","","74","J","1","","true","0","full_practice"
"247","","bandit","60","312824","0.0-33.0-7.0","72831984","wem/bandit_either","A3RQN5RZD1N2KP","either","5","","","","","","","0","1","0","","0.8","0.5","0.5","0.5","0.5","0.8","0.2","0.6","0.2","","","","","","","","","","","72","H","0","img/none_selected.jpg","true","0","full_practice"
"478","","bandit","61","314809","0.0-33.0-8.0","72831984","wem/bandit_either","A3RQN5RZD1N2KP","either","5","","","","","","","0","1","0","","0.6","0.5","0.5","0.5","0.5","0.8","0.2","0.6","0.2","","","","","","","","","","","75","K","2","","true","0","full_practice"
"318","","bandit","62","316635","0.0-33.0-9.0","72831984","wem/bandit_either","A3RQN5RZD1N2KP","either","5","","","","","","","0","0","1","0.8","","0.5","0.5","0.5","0.5","","","","","0.8","0.2","0.6","0.2","","","","","","","72","H","0","img/none_selected.jpg","true","0","full_practice"
"340","","bandit","63","318487","0.0-33.0-10.0","72831984","wem/bandit_either","A3RQN5RZD1N2KP","either","5","","","","","","","0","0","1","0.6","","0.5","0.5","0.5","0.5","","","","","0.8","0.2","0.6","0.2","","","","","","","75","K","2","","true","0","full_practice"
"276","","bandit","64","320269","0.0-33.0-11.0","72831984","wem/bandit_either","A3RQN5RZD1N2KP","either","5","","","","","","","0","1","0","","0.8","0.5","0.5","0.5","0.5","0.8","0.2","0.6","0.2","","","","","","","","","","","72","H","0","img/none_selected.jpg","true","0","full_practice"
"341","","bandit","65","322119","0.0-33.0-12.0","72831984","wem/bandit_either","A3RQN5RZD1N2KP","either","5","","","","","","","1","0","0","0.8","","0.5","0.5","0.5","0.5","","","","","0.8","0.2","0.6","0.2","","","","","","","72","H","0","img/none_selected.jpg","true","0","full_practice"
"387","","bandit","66","324014","0.0-33.0-13.0","72831984","wem/bandit_either","A3RQN5RZD1N2KP","either","5","","","","","","","1","0","0","0.8","","0.5","0.5","0.5","0.5","","","","","0.8","0.2","0.6","0.2","","","","","","","72","H","0","img/none_selected.jpg","true","0","full_practice"
"308","","bandit","67","325829","0.0-33.0-14.0","72831984","wem/bandit_either","A3RQN5RZD1N2KP","either","5","","","","","","","0","0","1","0.8","","0.5","0.5","0.5","0.5","","","","","0.8","0.2","0.6","0.2","","","","","","","72","H","0","img/none_selected.jpg","true","0","full_practice"
"366","","bandit","68","327702","0.0-33.0-15.0","72831984","wem/bandit_either","A3RQN5RZD1N2KP","either","5","","","","","","","1","0","0","0.6","","0.5","0.5","0.5","0.5","","","","","0.8","0.2","0.6","0.2","","","","","","","75","K","2","","true","0","full_practice"
"315","","bandit","69","329523","0.0-33.0-16.0","72831984","wem/bandit_either","A3RQN5RZD1N2KP","either","5","","","","","","","0","1","0","","0.6","0.5","0.5","0.5","0.5","0.8","0.2","0.6","0.2","","","","","","","","","","","75","K","2","","true","0","full_practice"
"298","","bandit","70","331328","0.0-33.0-17.0","72831984","wem/bandit_either","A3RQN5RZD1N2KP","either","5","","","","","","","0","1","0","","0.6","0.5","0.5","0.5","0.5","0.8","0.2","0.6","0.2","","","","","","","","","","","75","K","2","","true","0","full_practice"
"327","","bandit","71","333164","0.0-33.0-18.0","72831984","wem/bandit_either","A3RQN5RZD1N2KP","either","5","","","","","","","0","1","0","","0.6","0.5","0.5","0.5","0.5","0.8","0.2","0.6","0.2","","","","","","","","","","","75","K","2","","true","0","full_practice"
"238","","bandit","72","334909","0.0-33.0-19.0","72831984","wem/bandit_either","A3RQN5RZD1N2KP","either","5","","","","","","","0","0","1","0.6","","0.5","0.5","0.5","0.5","","","","","0.8","0.2","0.6","0.2","","","","","","","75","K","2","","true","0","full_practice"
"3738","","text","73","338655","0.0-34.0","72831984","wem/bandit_either","A3RQN5RZD1N2KP","either","5","32","","","","","","","","","","","","","","","","","","","","","","","","","","","","","","","","","","",""
"15254","","text","74","354913","0.0-35.0","72831984","wem/bandit_either","A3RQN5RZD1N2KP","either","5","32","","","","","","","","","","","","","","","","","","","","","","","","","","","","","","","","","","",""
"12343","","text","75","367260","0.0-36.0","72831984","wem/bandit_either","A3RQN5RZD1N2KP","either","5","32","","","","","","","","","","","","","","","","","","","","","","","","","","","","","","","","","","",""
"7100","","text","76","374363","0.0-37.0","72831984","wem/bandit_either","A3RQN5RZD1N2KP","either","5","32","","","","","","","","","","","","","","","","","","","","","","","","","","","","","","","","","","",""
"8004","","text","77","382371","0.0-38.0","72831984","wem/bandit_either","A3RQN5RZD1N2KP","either","5","32","","","","","","","","","","","","","","","","","","","","","","","","","","","","","","","","","","",""
"6176","","text","78","388550","0.0-39.0","72831984","wem/bandit_either","A3RQN5RZD1N2KP","either","5","32","","","","","","","","","","","","","","","","","","","","","","","","","","","","","","","","","","",""
"1481","","bandit","79","391539","0.0-40.0-0.0","72831984","wem/bandit_either","A3RQN5RZD1N2KP","either","5","","","","","","","0","0","1","","0.1165465043","0.2","0.8","0.6","0.4","0.1165465043","0.3897275569","0.4265570961","0.3340388524","","","","","","","","","","","72","H","0","img/none_selected.jpg","","1","main_expt"
"502","","bandit","80","393548","0.0-41.0-0.0","72831984","wem/bandit_either","A3RQN5RZD1N2KP","either","5","","","","","","","0","0","1","0.3911966266","","0.2","0.8","0.6","0.4","","","","","0.08371899021","0.3911966266","0.4177099958","0.3223834482","","","","","","","74","J","1","","","2","main_expt"
"504","","bandit","81","395557","0.0-42.0-0.0","72831984","wem/bandit_either","A3RQN5RZD1N2KP","either","5","","","","","","","0","1","0","","0.4192185534","0.2","0.8","0.6","0.4","0.04339790364","0.4074861021","0.4192185534","0.3585509001","","","","","","","","","","","75","K","2","","","3","main_expt"
"344","","bandit","82","397409","0.0-43.0-0.0","72831984","wem/bandit_either","A3RQN5RZD1N2KP","either","5","","","","","","","0","1","0","","0.3416436242","0.2","0.8","0.6","0.4","0.04073472785","0.3965638453","0.4241610434","0.3416436242","","","","","","","","","","","76","L","3","","","4","main_expt"
"198","","bandit","83","399116","0.0-44.0-0.0","72831984","wem/bandit_either","A3RQN5RZD1N2KP","either","5","","","","","","","0","0","1","0.4284837315","","0.2","0.8","0.6","0.4","","","","","0.04731773769","0.3688269119","0.4284837315","0.3444758892","","","","","","","75","K","2","","","5","main_expt"
"352","","bandit","84","400975","0.0-45.0-0.0","72831984","wem/bandit_either","A3RQN5RZD1N2KP","either","5","","","","","","","0","0","1","0.3574177426","","0.2","0.8","0.6","0.4","","","","","0.05617088868","0.3865867917","0.4328708062","0.3574177426","","","","","","","76","L","3","","","6","main_expt"
"314","","bandit","85","402796","0.0-46.0-0.0","72831984","wem/bandit_either","A3RQN5RZD1N2KP","either","5","","","","","","","0","0","1","","0.4176545671","0.2","0.8","0.6","0.4","0.05606577856","0.4294719924","0.4176545671","0.3634052143","","","","","","","","","","","75","K","2","","","7","main_expt"
"309","","bandit","86","404615","0.0-47.0-0.0","72831984","wem/bandit_either","A3RQN5RZD1N2KP","either","5","","","","","","","0","0","1","","0.3675420607","0.2","0.8","0.6","0.4","0.09244853328","0.4210378118","0.4022395488","0.3675420607","","","","","","","","","","","76","L","3","","","8","main_expt"
"184","","bandit","87","406316","0.0-48.0-0.0","72831984","wem/bandit_either","A3RQN5RZD1N2KP","either","5","","","","","","","0","0","1","","0.1271341085","0.2","0.8","0.6","0.4","0.1271341085","0.4502112583","0.3929004949","0.3921196104","","","","","","","","","","","72","H","0","img/none_selected.jpg","","9","main_expt"
"186","","bandit","88","408015","0.0-49.0-0.0","72831984","wem/bandit_either","A3RQN5RZD1N2KP","either","5","","","","","","","1","0","0","0.4452653155","","0.2","0.8","0.6","0.4","","","","","0.1370717255","0.4452653155","0.3863711448","0.4026182126","","","","","","","74","J","1","","","10","main_expt"
"292","","bandit","89","409816","0.0-50.0-0.0","72831984","wem/bandit_either","A3RQN5RZD1N2KP","either","5","","","","","","","0","0","1","0.4205849279","","0.2","0.8","0.6","0.4","","","","","0.1275050207","0.4352349267","0.4205849279","0.3543069494","","","","","","","75","K","2","","","11","main_expt"
"356","","bandit","90","411681","0.0-51.0-0.0","72831984","wem/bandit_either","A3RQN5RZD1N2KP","either","5","","","","","","","1","0","0","0.4029030639","","0.2","0.8","0.6","0.4","","","","","0.122317004","0.4029030639","0.4525069231","0.3504097904","","","","","","","74","J","1","","","12","main_expt"
"331","","bandit","91","413520","0.0-52.0-0.0","72831984","wem/bandit_either","A3RQN5RZD1N2KP","either","5","","","","","","","1","0","0","0.4198147105","","0.2","0.8","0.6","0.4","","","","","0.1251711411","0.4198147105","0.4485799753","0.2787441393","","","","","","","74","J","1","","","13","main_expt"
"343","","bandit","92","415371","0.0-53.0-0.0","72831984","wem/bandit_either","A3RQN5RZD1N2KP","either","5","","","","","","","0","0","1","0.3761312174","","0.2","0.8","0.6","0.4","","","","","0.1380641988","0.3761312174","0.4504049656","0.2723245106","","","","","","","74","J","1","","","14","main_expt"
"338","","bandit","93","417217","0.0-54.0-0.0","72831984","wem/bandit_either","A3RQN5RZD1N2KP","either","5","","","","","","","0","0","1","0.4281165459","","0.2","0.8","0.6","0.4","","","","","0.2010812313","0.4017507227","0.4281165459","0.3687644442","","","","","","","75","K","2","","","15","main_expt"
"364","","bandit","94","419088","0.0-55.0-0.0","72831984","wem/bandit_either","A3RQN5RZD1N2KP","either","5","","","","","","","0","1","0","","0.3992289848","0.2","0.8","0.6","0.4","0.1747275657","0.3859888637","0.4035101098","0.3992289848","","","","","","","","","","","76","L","3","","","16","main_expt"
"328","","bandit","95","420924","0.0-56.0-0.0","72831984","wem/bandit_either","A3RQN5RZD1N2KP","either","5","","","","","","","0","0","1","0.4067061876","","0.2","0.8","0.6","0.4","","","","","0.1816524112","0.3706978481","0.4063691663","0.4067061876","","","","","","","76","L","3","","","17","main_expt"
"620","","bandit","96","423052","0.0-57.0-0.0","72831984","wem/bandit_either","A3RQN5RZD1N2KP","either","5","","","","","","","0","0","1","","0.1700798448","0.2","0.8","0.6","0.4","0.1700798448","0.3323991027","0.4201618032","0.3969002131","","","","","","","","","","","72","H","0","img/none_selected.jpg","","18","main_expt"
"280","","bandit","97","424842","0.0-58.0-0.0","72831984","wem/bandit_either","A3RQN5RZD1N2KP","either","5","","","","","","","1","0","0","0.3930099592","","0.2","0.8","0.6","0.4","","","","","0.1998500639","0.3301718366","0.3868389751","0.3930099592","","","","","","","76","L","3","","","19","main_expt"
"322","","bandit","98","426672","0.0-59.0-0.0","72831984","wem/bandit_either","A3RQN5RZD1N2KP","either","5","","","","","","","0","1","0","","0.3791602553","0.2","0.8","0.6","0.4","0.2418808817","0.3714618997","0.3868875991","0.3791602553","","","","","","","","","","","76","L","3","","","20","main_expt"
"252","","bandit","99","428433","0.0-60.0-0.0","72831984","wem/bandit_either","A3RQN5RZD1N2KP","either","5","","","","","","","1","0","0","0.4127515201","","0.2","0.8","0.6","0.4","","","","","0.2293341009","0.3621694591","0.4253770554","0.4127515201","","","","","","","76","L","3","","","21","main_expt"
"348","","bandit","100","430289","0.0-61.0-0.0","72831984","wem/bandit_either","A3RQN5RZD1N2KP","either","5","","","","","","","0","0","1","0.4164833055","","0.2","0.8","0.6","0.4","","","","","0.2074184163","0.3648829928","0.4285762007","0.4164833055","","","","","","","76","L","3","","","22","main_expt"
"347","","bandit","101","432143","0.0-62.0-0.0","72831984","wem/bandit_either","A3RQN5RZD1N2KP","either","5","","","","","","","0","0","1","","0.4143027846","0.2","0.8","0.6","0.4","0.1832507358","0.2856994719","0.4082522222","0.4143027846","","","","","","","","","","","76","L","3","","","23","main_expt"
"920","","bandit","102","434573","0.0-63.0-0.0","72831984","wem/bandit_either","A3RQN5RZD1N2KP","either","5","","","","","","","0","0","1","0.3152516524","","0.2","0.8","0.6","0.4","","","","","0.1469425149","0.3152516524","0.4027270218","0.3649270698","","","","","","","74","J","1","","","24","main_expt"
"315","","bandit","103","436396","0.0-64.0-0.0","72831984","wem/bandit_either","A3RQN5RZD1N2KP","either","5","","","","","","","0","0","1","0.4100212433","","0.2","0.8","0.6","0.4","","","","","0.102794739","0.2778145345","0.4100212433","0.392676409","","","","","","","75","K","2","","","25","main_expt"
"327","","bandit","104","438232","0.0-65.0-0.0","72831984","wem/bandit_either","A3RQN5RZD1N2KP","either","5","","","","","","","0","0","1","0.3170506137","","0.2","0.8","0.6","0.4","","","","","0.1173732637","0.3170506137","0.4190791169","0.4031565401","","","","","","","74","J","1","","","26","main_expt"
"346","","bandit","105","440086","0.0-66.0-0.0","72831984","wem/bandit_either","A3RQN5RZD1N2KP","either","5","","","","","","","1","0","0","0.4245959001","","0.2","0.8","0.6","0.4","","","","","0.08835016803","0.3223143746","0.4527212376","0.4245959001","","","","","","","76","L","3","","","27","main_expt"
"365","","bandit","106","441961","0.0-67.0-0.0","72831984","wem/bandit_either","A3RQN5RZD1N2KP","either","5","","","","","","","1","0","0","0.4232885055","","0.2","0.8","0.6","0.4","","","","","0.1134440288","0.3234472479","0.4480998813","0.4232885055","","","","","","","76","L","3","","","28","main_expt"
"615","","bandit","107","444082","0.0-68.0-0.0","72831984","wem/bandit_either","A3RQN5RZD1N2KP","either","5","","","","","","","0","1","0","","0.4495512981","0.2","0.8","0.6","0.4","0.1982905849","0.2881425904","0.4628669208","0.4495512981","","","","","","","","","","","76","L","3","","","29","main_expt"
"390","","bandit","108","445982","0.0-69.0-0.0","72831984","wem/bandit_either","A3RQN5RZD1N2KP","either","5","","","","","","","0","1","0","","0.4485299892","0.2","0.8","0.6","0.4","0.2366655967","0.2326555855","0.4565655028","0.4485299892","","","","","","","","","","","76","L","3","","","30","main_expt"
"434","","bandit","109","447925","0.0-70.0-0.0","72831984","wem/bandit_either","A3RQN5RZD1N2KP","either","5","","","","","","","0","0","1","","0.4599237238","0.2","0.8","0.6","0.4","0.1622470467","0.2364604256","0.4686031056","0.4599237238","","","","","","","","","","","76","L","3","","","31","main_expt"
"378","","bandit","110","449812","0.0-71.0-0.0","72831984","wem/bandit_either","A3RQN5RZD1N2KP","either","5","","","","","","","0","0","1","","0.2451982598","0.2","0.8","0.6","0.4","0.1771911602","0.2451982598","0.4659582456","0.4508116693","","","","","","","","","","","74","J","1","","","32","main_expt"
"370","","bandit","111","451691","0.0-72.0-0.0","72831984","wem/bandit_either","A3RQN5RZD1N2KP","either","5","","","","","","","1","0","0","0.4810757035","","0.2","0.8","0.6","0.4","","","","","0.1622836308","0.2360369815","0.4810757035","0.45101727","","","","","","","75","K","2","","","33","main_expt"
"378","","bandit","112","453576","0.0-73.0-0.0","72831984","wem/bandit_either","A3RQN5RZD1N2KP","either","5","","","","","","","0","0","1","","0.4842727378","0.2","0.8","0.6","0.4","0.1655985557","0.2317763892","0.4842727378","0.4340174653","","","","","","","","","","","75","K","2","","","34","main_expt"
"324","","bandit","113","455407","0.0-74.0-0.0","72831984","wem/bandit_either","A3RQN5RZD1N2KP","either","5","","","","","","","1","0","0","0.4040147441","","0.2","0.8","0.6","0.4","","","","","0.1492797185","0.2527891731","0.4745470136","0.4040147441","","","","","","","76","L","3","","","35","main_expt"
"347","","bandit","114","457263","0.0-75.0-0.0","72831984","wem/bandit_either","A3RQN5RZD1N2KP","either","5","","","","","","","1","0","0","0.4268829696","","0.2","0.8","0.6","0.4","","","","","0.1504543003","0.2641283143","0.4440965139","0.4268829696","","","","","","","76","L","3","","","36","main_expt"
"342","","bandit","115","459115","0.0-76.0-0.0","72831984","wem/bandit_either","A3RQN5RZD1N2KP","either","5","","","","","","","0","0","1","","0.4562327564","0.2","0.8","0.6","0.4","0.1064249526","0.2309310423","0.4544425755","0.4562327564","","","","","","","","","","","76","L","3","","","37","main_expt"
"407","","bandit","116","461031","0.0-77.0-0.0","72831984","wem/bandit_either","A3RQN5RZD1N2KP","either","5","","","","","","","0","0","1","0.4481627861","","0.2","0.8","0.6","0.4","","","","","0.1346530267","0.2093170459","0.4700138218","0.4481627861","","","","","","","76","L","3","","","38","main_expt"
"322","","bandit","117","462862","0.0-78.0-0.0","72831984","wem/bandit_either","A3RQN5RZD1N2KP","either","5","","","","","","","0","0","1","0.466948448","","0.2","0.8","0.6","0.4","","","","","0.1303494481","0.1398625959","0.466948448","0.4475890948","","","","","","","75","K","2","","","39","main_expt"
"282","","bandit","118","464652","0.0-79.0-0.0","72831984","wem/bandit_either","A3RQN5RZD1N2KP","either","5","","","","","","","0","0","1","0.09690087606","","0.2","0.8","0.6","0.4","","","","","0.1492074344","0.09690087606","0.4679256248","0.4501575696","","","","","","","74","J","1","","","40","main_expt"
"368","","bandit","119","466530","0.0-80.0-0.0","72831984","wem/bandit_either","A3RQN5RZD1N2KP","either","5","","","","","","","0","1","0","","0.1370672299","0.2","0.8","0.6","0.4","0.1370672299","0.1129569356","0.445537573","0.4121884666","","","","","","","","","","","72","H","0","img/none_selected.jpg","","41","main_expt"
"537","","bandit","120","468574","0.0-81.0-0.0","72831984","wem/bandit_either","A3RQN5RZD1N2KP","either","5","","","","","","","0","0","1","0.08144147181","","0.2","0.8","0.6","0.4","","","","","0.08144147181","0.1227033228","0.4521531226","0.4379939247","","","","","","","72","H","0","img/none_selected.jpg","","42","main_expt"
"350","","bandit","121","470435","0.0-82.0-0.0","72831984","wem/bandit_either","A3RQN5RZD1N2KP","either","5","","","","","","","0","0","1","0.4271747655","","0.2","0.8","0.6","0.4","","","","","0.06793865388","0.08393287497","0.4695072217","0.4271747655","","","","","","","76","L","3","","","43","main_expt"
"409","","bandit","122","472353","0.0-83.0-0.0","72831984","wem/bandit_either","A3RQN5RZD1N2KP","either","5","","","","","","","0","0","1","","0.4480494518","0.2","0.8","0.6","0.4","0.05295344446","0.06260074275","0.4807409838","0.4480494518","","","","","","","","","","","76","L","3","","","44","main_expt"
"315","","bandit","123","474174","0.0-84.0-0.0","72831984","wem/bandit_either","A3RQN5RZD1N2KP","either","5","","","","","","","1","0","0","0.4507048108","","0.2","0.8","0.6","0.4","","","","","0.02744239742","0.08062123592","0.4507048108","0.4269729589","","","","","","","75","K","2","","","45","main_expt"
"340","","bandit","124","476023","0.0-85.0-0.0","72831984","wem/bandit_either","A3RQN5RZD1N2KP","either","5","","","","","","","0","0","1","","0.4382321206","0.2","0.8","0.6","0.4","0.02347437243","0.1110847749","0.4382321206","0.4475746277","","","","","","","","","","","75","K","2","","","46","main_expt"
"392","","bandit","125","477924","0.0-86.0-0.0","72831984","wem/bandit_either","A3RQN5RZD1N2KP","either","5","","","","","","","0","1","0","","0.4393937913","0.2","0.8","0.6","0.4","0.02418160198","0.05346849493","0.4393937913","0.4295618238","","","","","","","","","","","75","K","2","","","47","main_expt"
"316","","bandit","126","479749","0.0-87.0-0.0","72831984","wem/bandit_either","A3RQN5RZD1N2KP","either","5","","","","","","","0","0","1","","0.440318131","0.2","0.8","0.6","0.4","0.01182676654","0.04499733497","0.440318131","0.4431907244","","","","","","","","","","","75","K","2","","","48","main_expt"
"355","","bandit","127","481613","0.0-88.0-0.0","72831984","wem/bandit_either","A3RQN5RZD1N2KP","either","5","","","","","","","0","0","1","","0.07378534534","0.2","0.8","0.6","0.4","0.0186287842","0.07378534534","0.4362102412","0.4187732916","","","","","","","","","","","74","J","1","","","49","main_expt"
"333","","bandit","128","483456","0.0-89.0-0.0","72831984","wem/bandit_either","A3RQN5RZD1N2KP","either","5","","","","","","","0","0","1","0.44488671","","0.2","0.8","0.6","0.4","","","","","0.02550629551","0.06168845619","0.44488671","0.356579213","","","","","","","75","K","2","","","50","main_expt"
"332","","bandit","129","485297","0.0-90.0-0.0","72831984","wem/bandit_either","A3RQN5RZD1N2KP","either","5","","","","","","","0","0","1","","0.2629404955","0.2","0.8","0.6","0.4","0.04366809707","0.1062028567","0.4633405548","0.2629404955","","","","","","","","","","","76","L","3","","","51","main_expt"
"327","","bandit","130","487135","0.0-91.0-0.0","72831984","wem/bandit_either","A3RQN5RZD1N2KP","either","5","","","","","","","0","0","1","0.04357168116","","0.2","0.8","0.6","0.4","","","","","0.04357168116","0.1379608546","0.4528043762","0.2919747068","","","","","","","72","H","0","img/none_selected.jpg","","52","main_expt"
"315","","bandit","131","488961","0.0-92.0-0.0","72831984","wem/bandit_either","A3RQN5RZD1N2KP","either","5","","","","","","","0","0","1","0.4390431751","","0.2","0.8","0.6","0.4","","","","","0.03899227154","0.1356826849","0.4390431751","0.3809901122","","","","","","","75","K","2","","","53","main_expt"
"332","","bandit","132","490802","0.0-93.0-0.0","72831984","wem/bandit_either","A3RQN5RZD1N2KP","either","5","","","","","","","1","0","0","0.3452518694","","0.2","0.8","0.6","0.4","","","","","0.04009146386","0.1038772241","0.4549270822","0.3452518694","","","","","","","76","L","3","","","54","main_expt"
"329","","bandit","133","492641","0.0-94.0-0.0","72831984","wem/bandit_either","A3RQN5RZD1N2KP","either","5","","","","","","","0","0","1","","0.3263112327","0.2","0.8","0.6","0.4","0.0155768565","0.1689791829","0.4710341864","0.3263112327","","","","","","","","","","","76","L","3","","","55","main_expt"
"451","","bandit","134","494599","0.0-95.0-0.0","72831984","wem/bandit_either","A3RQN5RZD1N2KP","either","5","","","","","","","0","0","1","0.4745834276","","0.2","0.8","0.6","0.4","","","","","0.02112461672","0.1108888145","0.4745834276","0.3308963945","","","","","","","75","K","2","","","56","main_expt"
"308","","bandit","135","496415","0.0-96.0-0.0","72831984","wem/bandit_either","A3RQN5RZD1N2KP","either","5","","","","","","","0","0","1","0.3150326571","","0.2","0.8","0.6","0.4","","","","","0.0126553198","0.1206542402","0.489318572","0.3150326571","","","","","","","76","L","3","","","57","main_expt"
"320","","bandit","136","498246","0.0-97.0-0.0","72831984","wem/bandit_either","A3RQN5RZD1N2KP","either","5","","","","","","","0","1","0","","0.3049116772","0.2","0.8","0.6","0.4","0.01131359515","0.09707343937","0.480037986","0.3049116772","","","","","","","","","","","76","L","3","","","58","main_expt"
"402","","bandit","137","500156","0.0-98.0-0.0","72831984","wem/bandit_either","A3RQN5RZD1N2KP","either","5","","","","","","","0","0","1","","0.3050987947","0.2","0.8","0.6","0.4","0.01030075821","0.1044384952","0.4593461039","0.3050987947","","","","","","","","","","","76","L","3","","","59","main_expt"
"280","","bandit","138","501943","0.0-99.0-0.0","72831984","wem/bandit_either","A3RQN5RZD1N2KP","either","5","","","","","","","0","0","1","0.005868957973","","0.2","0.8","0.6","0.4","","","","","0.005868957973","0.08890369623","0.446051488","0.3274009355","","","","","","","72","H","0","img/none_selected.jpg","","60","main_expt"
"339","","bandit","139","503792","0.0-100.0-0.0","72831984","wem/bandit_either","A3RQN5RZD1N2KP","either","5","","","","","","","0","0","1","","0.4391285327","0.2","0.8","0.6","0.4","0.004361943215","0.08921221942","0.4391285327","0.3428943983","","","","","","","","","","","75","K","2","","","61","main_expt"
"285","","bandit","140","505586","0.0-101.0-0.0","72831984","wem/bandit_either","A3RQN5RZD1N2KP","either","5","","","","","","","0","0","1","0.3549763931","","0.2","0.8","0.6","0.4","","","","","0.005208412743","0.09812025034","0.4063883723","0.3549763931","","","","","","","76","L","3","","","62","main_expt"
"314","","bandit","141","507407","0.0-102.0-0.0","72831984","wem/bandit_either","A3RQN5RZD1N2KP","either","5","","","","","","","0","0","1","0.3496678451","","0.2","0.8","0.6","0.4","","","","","0.006461011255","0.09006279409","0.4330387396","0.3496678451","","","","","","","76","L","3","","","63","main_expt"
"453","","bandit","142","509370","0.0-103.0-0.0","72831984","wem/bandit_either","A3RQN5RZD1N2KP","either","5","","","","","","","1","0","0","0.4207902426","","0.2","0.8","0.6","0.4","","","","","0.01267926231","0.1118976224","0.4207902426","0.3188537263","","","","","","","75","K","2","","","64","main_expt"
"331","","bandit","143","511213","0.0-104.0-0.0","72831984","wem/bandit_either","A3RQN5RZD1N2KP","either","5","","","","","","","0","0","1","0.3719582347","","0.2","0.8","0.6","0.4","","","","","0.009732787917","0.1053817613","0.3719582347","0.3191795336","","","","","","","75","K","2","","","65","main_expt"
"381","","bandit","144","513101","0.0-105.0-0.0","72831984","wem/bandit_either","A3RQN5RZD1N2KP","either","5","","","","","","","0","1","0","","0.3748569955","0.2","0.8","0.6","0.4","0.01092542651","0.1307356695","0.3748569955","0.268616347","","","","","","","","","","","75","K","2","","","66","main_expt"
"311","","bandit","145","514922","0.0-106.0-0.0","72831984","wem/bandit_either","A3RQN5RZD1N2KP","either","5","","","","","","","0","0","1","","0.335252031","0.2","0.8","0.6","0.4","0.02125534741","0.1418436428","0.335252031","0.259194563","","","","","","","","","","","75","K","2","","","67","main_expt"
"352","","bandit","146","516786","0.0-107.0-0.0","72831984","wem/bandit_either","A3RQN5RZD1N2KP","either","5","","","","","","","1","0","0","0.3199157278","","0.2","0.8","0.6","0.4","","","","","0.02360283027","0.1459089566","0.3199157278","0.2281204868","","","","","","","75","K","2","","","68","main_expt"
"308","","bandit","147","518605","0.0-108.0-0.0","72831984","wem/bandit_either","A3RQN5RZD1N2KP","either","5","","","","","","","0","0","1","0.3068525281","","0.2","0.8","0.6","0.4","","","","","0.02539305756","0.1809721424","0.3068525281","0.2195844169","","","","","","","75","K","2","","","69","main_expt"
"266","","bandit","148","520378","0.0-109.0-0.0","72831984","wem/bandit_either","A3RQN5RZD1N2KP","either","5","","","","","","","0","0","1","","0.3181076016","0.2","0.8","0.6","0.4","0.05014388586","0.1784068974","0.3181076016","0.1883338509","","","","","","","","","","","75","K","2","","","70","main_expt"
"322","","bandit","149","522209","0.0-110.0-0.0","72831984","wem/bandit_either","A3RQN5RZD1N2KP","either","5","","","","","","","0","0","1","0.1973023396","","0.2","0.8","0.6","0.4","","","","","0.04209054697","0.1973023396","0.2926426422","0.1639708178","","","","","","","74","J","1","","","71","main_expt"
"267","","bandit","150","523988","0.0-111.0-0.0","72831984","wem/bandit_either","A3RQN5RZD1N2KP","either","5","","","","","","","0","0","1","","0.1312842785","0.2","0.8","0.6","0.4","0.05611199342","0.2436342847","0.2380263643","0.1312842785","","","","","","","","","","","76","L","3","","","72","main_expt"
"422","","bandit","151","525919","0.0-112.0-0.0","72831984","wem/bandit_either","A3RQN5RZD1N2KP","either","5","","","","","","","0","0","1","0.2407197948","","0.2","0.8","0.6","0.4","","","","","0.05293238473","0.1992173182","0.2407197948","0.1805041857","","","","","","","75","K","2","","","73","main_expt"
"384","","bandit","152","527814","0.0-113.0-0.0","72831984","wem/bandit_either","A3RQN5RZD1N2KP","either","5","","","","","","","0","0","1","0.2317468449","","0.2","0.8","0.6","0.4","","","","","0.0318456884","0.2347098304","0.2317468449","0.1739557812","","","","","","","75","K","2","","","74","main_expt"
"307","","bandit","153","529633","0.0-114.0-0.0","72831984","wem/bandit_either","A3RQN5RZD1N2KP","either","5","","","","","","","0","0","1","0.03873230677","","0.2","0.8","0.6","0.4","","","","","0.03873230677","0.2641442137","0.2545997551","0.2434916027","","","","","","","72","H","0","img/none_selected.jpg","","75","main_expt"
"315","","bandit","154","531458","0.0-115.0-0.0","72831984","wem/bandit_either","A3RQN5RZD1N2KP","either","5","","","","","","","0","0","1","","0.03304947682","0.2","0.8","0.6","0.4","0.03304947682","0.3192644053","0.2890845388","0.2438468568","","","","","","","","","","","72","H","0","img/none_selected.jpg","","76","main_expt"
"270","","bandit","155","533236","0.0-116.0-0.0","72831984","wem/bandit_either","A3RQN5RZD1N2KP","either","5","","","","","","","1","0","0","0.3351132613","","0.2","0.8","0.6","0.4","","","","","0.02607887458","0.3351132613","0.2386362654","0.2425324642","","","","","","","74","J","1","","","77","main_expt"
"347","","bandit","156","535093","0.0-117.0-0.0","72831984","wem/bandit_either","A3RQN5RZD1N2KP","either","5","","","","","","","0","1","0","","0.3086784207","0.2","0.8","0.6","0.4","0.02492981692","0.3086784207","0.2673679704","0.205588479","","","","","","","","","","","74","J","1","","","78","main_expt"
"319","","bandit","157","536925","0.0-118.0-0.0","72831984","wem/bandit_either","A3RQN5RZD1N2KP","either","5","","","","","","","0","1","0","","0.3076482073","0.2","0.8","0.6","0.4","0.01824110002","0.3076482073","0.2813811921","0.213062191","","","","","","","","","","","74","J","1","","","79","main_expt"
"320","","bandit","158","538756","0.0-119.0-0.0","72831984","wem/bandit_either","A3RQN5RZD1N2KP","either","5","","","","","","","0","0","1","0.3605025214","","0.2","0.8","0.6","0.4","","","","","0.0202176162","0.3605025214","0.2419447949","0.1852926048","","","","","","","74","J","1","","","80","main_expt"
"464","","bandit","159","540730","0.0-120.0-0.0","72831984","wem/bandit_either","A3RQN5RZD1N2KP","either","5","","","","","","","0","0","1","0.3286166321","","0.2","0.8","0.6","0.4","","","","","0.0252752587","0.3286166321","0.323481111","0.2332942271","","","","","","","74","J","1","","","81","main_expt"
"286","","bandit","160","542524","0.0-121.0-0.0","72831984","wem/bandit_either","A3RQN5RZD1N2KP","either","5","","","","","","","0","0","1","","0.3097244961","0.2","0.8","0.6","0.4","0.05668457717","0.3459677762","0.3097244961","0.2087797338","","","","","","","","","","","75","K","2","","","82","main_expt"
"337","","bandit","161","544373","0.0-122.0-0.0","72831984","wem/bandit_either","A3RQN5RZD1N2KP","either","5","","","","","","","0","1","0","","0.2049979043","0.2","0.8","0.6","0.4","0.07760530004","0.3092751195","0.2787498647","0.2049979043","","","","","","","","","","","76","L","3","","","83","main_expt"
"338","","bandit","162","546219","0.0-123.0-0.0","72831984","wem/bandit_either","A3RQN5RZD1N2KP","either","5","","","","","","","0","1","0","","0.2151780091","0.2","0.8","0.6","0.4","0.03696005566","0.3044630387","0.2589524449","0.2151780091","","","","","","","","","","","76","L","3","","","84","main_expt"
"385","","bandit","163","548116","0.0-124.0-0.0","72831984","wem/bandit_either","A3RQN5RZD1N2KP","either","5","","","","","","","0","0","1","","0.1497615914","0.2","0.8","0.6","0.4","0.04177257934","0.2812480587","0.2769318636","0.1497615914","","","","","","","","","","","76","L","3","","","85","main_expt"
"428","","bandit","164","550056","0.0-125.0-0.0","72831984","wem/bandit_either","A3RQN5RZD1N2KP","either","5","","","","","","","0","0","1","","0.1223687677","0.2","0.8","0.6","0.4","0.0385770192","0.2506532223","0.2849222391","0.1223687677","","","","","","","","","","","76","L","3","","","86","main_expt"
"266","","bandit","165","551831","0.0-126.0-0.0","72831984","wem/bandit_either","A3RQN5RZD1N2KP","either","5","","","","","","","0","0","1","","0.03720252147","0.2","0.8","0.6","0.4","0.03720252147","0.2269900387","0.3131087309","0.1472857413","","","","","","","","","","","72","H","0","img/none_selected.jpg","","87","main_expt"
"271","","bandit","166","553611","0.0-127.0-0.0","72831984","wem/bandit_either","A3RQN5RZD1N2KP","either","5","","","","","","","0","0","1","0.1504729919","","0.2","0.8","0.6","0.4","","","","","0.06746059371","0.1504729919","0.3038587512","0.1252586248","","","","","","","74","J","1","","","88","main_expt"
"335","","bandit","167","555456","0.0-128.0-0.0","72831984","wem/bandit_either","A3RQN5RZD1N2KP","either","5","","","","","","","0","0","1","0.1382070302","","0.2","0.8","0.6","0.4","","","","","0.04069757945","0.1382070302","0.3308022157","0.1194927994","","","","","","","74","J","1","","","89","main_expt"
"376","","bandit","168","557339","0.0-129.0-0.0","72831984","wem/bandit_either","A3RQN5RZD1N2KP","either","5","","","","","","","0","0","1","0.3574922351","","0.2","0.8","0.6","0.4","","","","","0.07325379503","0.1364765349","0.3574922351","0.1589750007","","","","","","","75","K","2","","","90","main_expt"
"345","","bandit","169","559194","0.0-130.0-0.0","72831984","wem/bandit_either","A3RQN5RZD1N2KP","either","5","","","","","","","1","0","0","0.3729517688","","0.2","0.8","0.6","0.4","","","","","0.06877471811","0.09318196272","0.3729517688","0.1859960426","","","","","","","75","K","2","","","91","main_expt"
"392","","bandit","170","561096","0.0-131.0-0.0","72831984","wem/bandit_either","A3RQN5RZD1N2KP","either","5","","","","","","","0","0","1","","0.398352994","0.2","0.8","0.6","0.4","0.04115987362","0.06946097624","0.398352994","0.192419488","","","","","","","","","","","75","K","2","","","92","main_expt"
"298","","bandit","171","562905","0.0-132.0-0.0","72831984","wem/bandit_either","A3RQN5RZD1N2KP","either","5","","","","","","","0","0","1","0.1716033463","","0.2","0.8","0.6","0.4","","","","","0.07078892783","0.08102832817","0.4135860398","0.1716033463","","","","","","","76","L","3","","","93","main_expt"
"326","","bandit","172","564742","0.0-133.0-0.0","72831984","wem/bandit_either","A3RQN5RZD1N2KP","either","5","","","","","","","0","0","1","0.1935897604","","0.2","0.8","0.6","0.4","","","","","0.05572868433","0.1271360848","0.3786880174","0.1935897604","","","","","","","76","L","3","","","94","main_expt"
"289","","bandit","173","566543","0.0-134.0-0.0","72831984","wem/bandit_either","A3RQN5RZD1N2KP","either","5","","","","","","","0","0","1","","0.3823424718","0.2","0.8","0.6","0.4","0.05056929995","0.1097592989","0.3823424718","0.2193228015","","","","","","","","","","","75","K","2","","","95","main_expt"
"305","","bandit","174","568361","0.0-135.0-0.0","72831984","wem/bandit_either","A3RQN5RZD1N2KP","either","5","","","","","","","0","0","1","0.1085490834","","0.2","0.8","0.6","0.4","","","","","0.04159874267","0.1085490834","0.3642725552","0.3262643469","","","","","","","74","J","1","","","96","main_expt"
"422","","bandit","175","570292","0.0-136.0-0.0","72831984","wem/bandit_either","A3RQN5RZD1N2KP","either","5","","","","","","","0","0","1","","0.03654451862","0.2","0.8","0.6","0.4","0.03654451862","0.1049812554","0.3197717944","0.3207405496","","","","","","","","","","","72","H","0","img/none_selected.jpg","","97","main_expt"
"302","","bandit","176","572110","0.0-137.0-0.0","72831984","wem/bandit_either","A3RQN5RZD1N2KP","either","5","","","","","","","1","0","0","0.08177978443","","0.2","0.8","0.6","0.4","","","","","0.04190300095","0.08177978443","0.2514424369","0.3712856991","","","","","","","74","J","1","","","98","main_expt"
"330","","bandit","177","573950","0.0-138.0-0.0","72831984","wem/bandit_either","A3RQN5RZD1N2KP","either","5","","","","","","","0","0","1","","0.07574087804","0.2","0.8","0.6","0.4","0.08742990617","0.07574087804","0.2926772137","0.3740145378","","","","","","","","","","","74","J","1","","","99","main_expt"
"351","","bandit","178","575811","0.0-139.0-0.0","72831984","wem/bandit_either","A3RQN5RZD1N2KP","either","5","","","","","","","0","0","1","","0.07829319678","0.2","0.8","0.6","0.4","0.08966523481","0.07829319678","0.234485335","0.3776295542","","","","","","","","","","","74","J","1","","","100","main_expt"
"352","","bandit","179","577674","0.0-140.0-0.0","72831984","wem/bandit_either","A3RQN5RZD1N2KP","either","5","","","","","","","0","0","1","","0.250352175","0.2","0.8","0.6","0.4","0.07849065771","0.07919243683","0.250352175","0.3592666398","","","","","","","","","","","75","K","2","","","101","main_expt"
"350","","bandit","180","579536","0.0-141.0-0.0","72831984","wem/bandit_either","A3RQN5RZD1N2KP","either","5","","","","","","","0","0","1","","0.1052753188","0.2","0.8","0.6","0.4","0.1054267613","0.1052753188","0.2139972863","0.3412191773","","","","","","","","","","","74","J","1","","","102","main_expt"
"346","","bandit","181","581392","0.0-142.0-0.0","72831984","wem/bandit_either","A3RQN5RZD1N2KP","either","5","","","","","","","0","0","1","","0.3133100433","0.2","0.8","0.6","0.4","0.1120981937","0.1248526142","0.20092706","0.3133100433","","","","","","","","","","","76","L","3","","","103","main_expt"
"718","","bandit","182","583621","0.0-143.0-0.0","72831984","wem/bandit_either","A3RQN5RZD1N2KP","either","5","","","","","","","0","0","1","0.142969925","","0.2","0.8","0.6","0.4","","","","","0.1034740879","0.142969925","0.2305366804","0.3219148419","","","","","","","74","J","1","","","104","main_expt"
"333","","bandit","183","585465","0.0-144.0-0.0","72831984","wem/bandit_either","A3RQN5RZD1N2KP","either","5","","","","","","","0","0","1","","0.07597240327","0.2","0.8","0.6","0.4","0.07597240327","0.13947254","0.2102135581","0.3300892518","","","","","","","","","","","72","H","0","img/none_selected.jpg","","105","main_expt"
"280","","bandit","184","587258","0.0-145.0-0.0","72831984","wem/bandit_either","A3RQN5RZD1N2KP","either","5","","","","","","","0","0","1","0.1329526997","","0.2","0.8","0.6","0.4","","","","","0.1124257427","0.1329526997","0.2219457329","0.3401839058","","","","","","","74","J","1","","","106","main_expt"
"305","","bandit","185","589075","0.0-146.0-0.0","72831984","wem/bandit_either","A3RQN5RZD1N2KP","either","5","","","","","","","0","1","0","","0.3048423019","0.2","0.8","0.6","0.4","0.1133168519","0.1727290233","0.3048423019","0.3784706915","","","","","","","","","","","75","K","2","","","107","main_expt"
"357","","bandit","186","590942","0.0-147.0-0.0","72831984","wem/bandit_either","A3RQN5RZD1N2KP","either","5","","","","","","","0","0","1","0.258150515","","0.2","0.8","0.6","0.4","","","","","0.1752395656","0.1864487031","0.258150515","0.3945753887","","","","","","","75","K","2","","","108","main_expt"
"343","","bandit","187","592796","0.0-148.0-0.0","72831984","wem/bandit_either","A3RQN5RZD1N2KP","either","5","","","","","","","0","0","1","","0.1859129148","0.2","0.8","0.6","0.4","0.1862973424","0.2463216238","0.1859129148","0.356827327","","","","","","","","","","","75","K","2","","","109","main_expt"
"256","","bandit","188","594562","0.0-149.0-0.0","72831984","wem/bandit_either","A3RQN5RZD1N2KP","either","5","","","","","","","0","0","1","0.2344179837","","0.2","0.8","0.6","0.4","","","","","0.2015845776","0.2431522628","0.1371624404","0.2344179837","","","","","","","76","L","3","","","110","main_expt"
"385","","bandit","189","596457","0.0-150.0-0.0","72831984","wem/bandit_either","A3RQN5RZD1N2KP","either","5","","","","","","","0","0","1","0.1757476643","","0.2","0.8","0.6","0.4","","","","","0.2003651753","0.1757476643","0.1258232978","0.2644823096","","","","","","","74","J","1","","","111","main_expt"
"324","","bandit","190","598293","0.0-151.0-0.0","72831984","wem/bandit_either","A3RQN5RZD1N2KP","either","5","","","","","","","0","0","1","","0.1529967373","0.2","0.8","0.6","0.4","0.21392293","0.2451518953","0.1529967373","0.28311182","","","","","","","","","","","75","K","2","","","112","main_expt"
"348","","bandit","191","600153","0.0-152.0-0.0","72831984","wem/bandit_either","A3RQN5RZD1N2KP","either","5","","","","","","","0","0","1","","0.2413269532","0.2","0.8","0.6","0.4","0.1606798039","0.2407836715","0.148248117","0.2413269532","","","","","","","","","","","76","L","3","","","113","main_expt"
"350","","bandit","192","602015","0.0-153.0-0.0","72831984","wem/bandit_either","A3RQN5RZD1N2KP","either","5","","","","","","","0","0","1","","0.2095980235","0.2","0.8","0.6","0.4","0.2095980235","0.3099317417","0.1562208239","0.3100969134","","","","","","","","","","","72","H","0","img/none_selected.jpg","","114","main_expt"
"364","","bandit","193","603892","0.0-154.0-0.0","72831984","wem/bandit_either","A3RQN5RZD1N2KP","either","5","","","","","","","0","0","1","0.3180754701","","0.2","0.8","0.6","0.4","","","","","0.2550279667","0.3180754701","0.2138032898","0.329842252","","","","","","","74","J","1","","","115","main_expt"
"328","","bandit","194","605734","0.0-155.0-0.0","72831984","wem/bandit_either","A3RQN5RZD1N2KP","either","5","","","","","","","1","0","0","0.2331260325","","0.2","0.8","0.6","0.4","","","","","0.2471764387","0.2919742107","0.2331260325","0.3223706096","","","","","","","75","K","2","","","116","main_expt"
"377","","bandit","195","607620","0.0-156.0-0.0","72831984","wem/bandit_either","A3RQN5RZD1N2KP","either","5","","","","","","","1","0","0","0.1826309729","","0.2","0.8","0.6","0.4","","","","","0.2730878341","0.2799774295","0.1826309729","0.3098408215","","","","","","","75","K","2","","","117","main_expt"
"350","","bandit","196","609477","0.0-157.0-0.0","72831984","wem/bandit_either","A3RQN5RZD1N2KP","either","5","","","","","","","0","0","1","0.1511269107","","0.2","0.8","0.6","0.4","","","","","0.2071462199","0.2646714695","0.1511269107","0.2974554567","","","","","","","75","K","2","","","118","main_expt"
"595","","bandit","197","611584","0.0-158.0-0.0","72831984","wem/bandit_either","A3RQN5RZD1N2KP","either","5","","","","","","","0","0","1","","0.3598468986","0.2","0.8","0.6","0.4","0.2275232499","0.3179839519","0.1559979654","0.3598468986","","","","","","","","","","","76","L","3","","","119","main_expt"
"114","","bandit","198","613206","0.0-159.0-0.0","72831984","wem/bandit_either","A3RQN5RZD1N2KP","either","5","","","","","","","0","0","1","0.1463004055","","0.2","0.8","0.6","0.4","","","","","0.2767559596","0.3302262658","0.1463004055","0.2984373086","","","","","","","75","K","2","","","120","main_expt"
"254","","bandit","199","614974","0.0-160.0-0.0","72831984","wem/bandit_either","A3RQN5RZD1N2KP","either","5","","","","","","","0","0","1","0.3500549905","","0.2","0.8","0.6","0.4","","","","","0.3448590315","0.3500549905","0.1418195479","0.2973090059","","","","","","","74","J","1","","","121","main_expt"
"234","","bandit","200","616723","0.0-161.0-0.0","72831984","wem/bandit_either","A3RQN5RZD1N2KP","either","5","","","","","","","0","0","1","0.1270782113","","0.2","0.8","0.6","0.4","","","","","0.3593301016","0.2686616284","0.1270782113","0.3382791822","","","","","","","75","K","2","","","122","main_expt"
"292","","bandit","201","618524","0.0-162.0-0.0","72831984","wem/bandit_either","A3RQN5RZD1N2KP","either","5","","","","","","","0","1","0","","0.3154347028","0.2","0.8","0.6","0.4","0.3680529171","0.2277230314","0.1207154071","0.3154347028","","","","","","","","","","","76","L","3","","","123","main_expt"
"434","","bandit","202","620471","0.0-163.0-0.0","72831984","wem/bandit_either","A3RQN5RZD1N2KP","either","5","","","","","","","0","0","1","","0.2966737815","0.2","0.8","0.6","0.4","0.3476523483","0.3287090939","0.1229329119","0.2966737815","","","","","","","","","","","76","L","3","","","124","main_expt"
"356","","bandit","203","622339","0.0-164.0-0.0","72831984","wem/bandit_either","A3RQN5RZD1N2KP","either","5","","","","","","","1","0","0","0.3094831126","","0.2","0.8","0.6","0.4","","","","","0.3564603465","0.3687339586","0.09241122996","0.3094831126","","","","","","","76","L","3","","","125","main_expt"
"392","","bandit","204","624244","0.0-165.0-0.0","72831984","wem/bandit_either","A3RQN5RZD1N2KP","either","5","","","","","","","0","0","1","0.2488993205","","0.2","0.8","0.6","0.4","","","","","0.3550684458","0.3836195774","0.08418962236","0.2488993205","","","","","","","76","L","3","","","126","main_expt"
"393","","bandit","205","626153","0.0-166.0-0.0","72831984","wem/bandit_either","A3RQN5RZD1N2KP","either","5","","","","","","","0","0","1","0.1953487027","","0.2","0.8","0.6","0.4","","","","","0.3235559827","0.3617365958","0.154715772","0.1953487027","","","","","","","76","L","3","","","127","main_expt"
"258","","bandit","206","627921","0.0-167.0-0.0","72831984","wem/bandit_either","A3RQN5RZD1N2KP","either","5","","","","","","","0","0","1","0.1556709078","","0.2","0.8","0.6","0.4","","","","","0.312087491","0.3235283493","0.1556709078","0.2171889907","","","","","","","75","K","2","","","128","main_expt"
"263","","bandit","207","629697","0.0-168.0-0.0","72831984","wem/bandit_either","A3RQN5RZD1N2KP","either","5","","","","","","","0","0","1","0.3453830546","","0.2","0.8","0.6","0.4","","","","","0.2843272188","0.3453830546","0.1214200615","0.2467699801","","","","","","","74","J","1","","","129","main_expt"
"1026","","bandit","208","632235","0.0-169.0-0.0","72831984","wem/bandit_either","A3RQN5RZD1N2KP","either","5","","","","","","","0","0","1","0.2128416856","","0.2","0.8","0.6","0.4","","","","","0.2128416856","0.3242747857","0.1377283829","0.2814443482","","","","","","","72","H","0","img/none_selected.jpg","","130","main_expt"
"787","","bandit","209","634534","0.0-170.0-0.0","72831984","wem/bandit_either","A3RQN5RZD1N2KP","either","5","","","","","","","0","0","1","","0.1397421628","0.2","0.8","0.6","0.4","0.2403879813","0.3417201858","0.1397421628","0.2834176508","","","","","","","","","","","75","K","2","","","131","main_expt"
"332","","bandit","210","636377","0.0-171.0-0.0","72831984","wem/bandit_either","A3RQN5RZD1N2KP","either","5","","","","","","","0","0","1","","0.2429908031","0.2","0.8","0.6","0.4","0.2811421594","0.3498614837","0.1061875113","0.2429908031","","","","","","","","","","","76","L","3","","","132","main_expt"
"287","","bandit","211","638177","0.0-172.0-0.0","72831984","wem/bandit_either","A3RQN5RZD1N2KP","either","5","","","","","","","0","0","1","0.3134828643","","0.2","0.8","0.6","0.4","","","","","0.3002858371","0.3134828643","0.07774811701","0.3053559495","","","","","","","74","J","1","","","133","main_expt"
"348","","bandit","212","640036","0.0-173.0-0.0","72831984","wem/bandit_either","A3RQN5RZD1N2KP","either","5","","","","","","","0","0","1","","0.277406375","0.2","0.8","0.6","0.4","0.277406375","0.3554593188","0.08211281178","0.2693478067","","","","","","","","","","","72","H","0","img/none_selected.jpg","","134","main_expt"
"229","","bandit","213","641777","0.0-174.0-0.0","72831984","wem/bandit_either","A3RQN5RZD1N2KP","either","5","","","","","","","0","0","1","0.1123817552","","0.2","0.8","0.6","0.4","","","","","0.2897147582","0.3150900126","0.1123817552","0.3369166079","","","","","","","75","K","2","","","135","main_expt"
"345","","bandit","214","643663","0.0-175.0-0.0","72831984","wem/bandit_either","A3RQN5RZD1N2KP","either","5","","","","","","","0","0","1","0.268603144","","0.2","0.8","0.6","0.4","","","","","0.3590576628","0.3199395785","0.1478339482","0.268603144","","","","","","","76","L","3","","","136","main_expt"
"269","","bandit","215","645446","0.0-176.0-0.0","72831984","wem/bandit_either","A3RQN5RZD1N2KP","either","5","","","","","","","0","0","1","","0.1374936615","0.2","0.8","0.6","0.4","0.3822427384","0.33362357","0.1374936615","0.2373427956","","","","","","","","","","","75","K","2","","","137","main_expt"
"301","","bandit","216","647261","0.0-177.0-0.0","72831984","wem/bandit_either","A3RQN5RZD1N2KP","either","5","","","","","","","1","0","0","0.3611324022","","0.2","0.8","0.6","0.4","","","","","0.3410071165","0.3611324022","0.159761955","0.2206869265","","","","","","","74","J","1","","","138","main_expt"
"324","","bandit","217","649096","0.0-178.0-0.0","72831984","wem/bandit_either","A3RQN5RZD1N2KP","either","5","","","","","","","0","0","1","0.3504145086","","0.2","0.8","0.6","0.4","","","","","0.3738014659","0.3504145086","0.1363721132","0.2177966349","","","","","","","74","J","1","","","139","main_expt"
"358","","bandit","218","650966","0.0-179.0-0.0","72831984","wem/bandit_either","A3RQN5RZD1N2KP","either","5","","","","","","","0","0","1","","0.309774603","0.2","0.8","0.6","0.4","0.422575493","0.309774603","0.1031445192","0.2387685432","","","","","","","","","","","74","J","1","","","140","main_expt"
"322","","bandit","219","652801","0.0-180.0-0.0","72831984","wem/bandit_either","A3RQN5RZD1N2KP","either","5","","","","","","","0","0","1","","0.4439129864","0.2","0.8","0.6","0.4","0.4439129864","0.3506531288","0.09805286369","0.2575087366","","","","","","","","","","","72","H","0","img/none_selected.jpg","","141","main_expt"
"189","","bandit","220","654499","0.0-181.0-0.0","72831984","wem/bandit_either","A3RQN5RZD1N2KP","either","5","","","","","","","0","0","1","0.2965027242","","0.2","0.8","0.6","0.4","","","","","0.4323802182","0.2965027242","0.1149002948","0.2392038972","","","","","","","74","J","1","","","142","main_expt"
"209","","bandit","221","656221","0.0-182.0-0.0","72831984","wem/bandit_either","A3RQN5RZD1N2KP","either","5","","","","","","","0","0","1","0.1209542099","","0.2","0.8","0.6","0.4","","","","","0.4358412593","0.2087517366","0.1209542099","0.2216470548","","","","","","","75","K","2","","","143","main_expt"
"291","","bandit","222","658024","0.0-183.0-0.0","72831984","wem/bandit_either","A3RQN5RZD1N2KP","either","5","","","","","","","0","0","1","0.2224896139","","0.2","0.8","0.6","0.4","","","","","0.4407373256","0.2313605626","0.1202521083","0.2224896139","","","","","","","76","L","3","","","144","main_expt"
"490","","bandit","223","660026","0.0-184.0-0.0","72831984","wem/bandit_either","A3RQN5RZD1N2KP","either","5","","","","","","","0","0","1","0.1925605464","","0.2","0.8","0.6","0.4","","","","","0.4661091035","0.1785565547","0.1619743669","0.1925605464","","","","","","","76","L","3","","","145","main_expt"
"208","","bandit","224","661747","0.0-185.0-0.0","72831984","wem/bandit_either","A3RQN5RZD1N2KP","either","5","","","","","","","0","0","1","0.1664631043","","0.2","0.8","0.6","0.4","","","","","0.4637097668","0.1770660648","0.1664631043","0.2069800611","","","","","","","75","K","2","","","146","main_expt"
"338","","bandit","225","663598","0.0-186.0-0.0","72831984","wem/bandit_either","A3RQN5RZD1N2KP","either","5","","","","","","","0","0","1","","0.1669241763","0.2","0.8","0.6","0.4","0.4700491642","0.1063371611","0.1669241763","0.2489662189","","","","","","","","","","","75","K","2","","","147","main_expt"
"250","","bandit","226","665361","0.0-187.0-0.0","72831984","wem/bandit_either","A3RQN5RZD1N2KP","either","5","","","","","","","0","0","1","0.1216370817","","0.2","0.8","0.6","0.4","","","","","0.4648109734","0.1216370817","0.1581456949","0.1946464158","","","","","","","74","J","1","","","148","main_expt"
"247","","bandit","227","667122","0.0-188.0-0.0","72831984","wem/bandit_either","A3RQN5RZD1N2KP","either","5","","","","","","","1","0","0","0.1024256959","","0.2","0.8","0.6","0.4","","","","","0.4635511513","0.1024256959","0.1698392466","0.1826562491","","","","","","","74","J","1","","","149","main_expt"
"331","","bandit","228","668964","0.0-189.0-0.0","72831984","wem/bandit_either","A3RQN5RZD1N2KP","either","5","","","","","","","0","0","1","0.1371094633","","0.2","0.8","0.6","0.4","","","","","0.4445017148","0.1371094633","0.2140114634","0.1750473563","","","","","","","74","J","1","","","150","main_expt"
"391","","bandit","229","670868","0.0-190.0-0.0","72831984","wem/bandit_either","A3RQN5RZD1N2KP","either","5","","","","","","","0","0","1","0.1702433702","","0.2","0.8","0.6","0.4","","","","","0.4434799742","0.1702433702","0.2392960001","0.1109536645","","","","","","","74","J","1","","","151","main_expt"
"217","","bandit","230","672594","0.0-191.0-0.0","72831984","wem/bandit_either","A3RQN5RZD1N2KP","either","5","","","","","","","0","0","1","","0.4451665291","0.2","0.8","0.6","0.4","0.4451665291","0.1860489046","0.2095863317","0.1143086707","","","","","","","","","","","72","H","0","img/none_selected.jpg","","152","main_expt"
"131","","bandit","231","674238","0.0-192.0-0.0","72831984","wem/bandit_either","A3RQN5RZD1N2KP","either","5","","","","","","","1","0","0","0.2117094388","","0.2","0.8","0.6","0.4","","","","","0.4401532833","0.2117094388","0.2543258611","0.1236290712","","","","","","","74","J","1","","","153","main_expt"
"400","","bandit","232","676151","0.0-193.0-0.0","72831984","wem/bandit_either","A3RQN5RZD1N2KP","either","5","","","","","","","0","0","1","0.2072389033","","0.2","0.8","0.6","0.4","","","","","0.4516855879","0.2072389033","0.2602259906","0.1600695342","","","","","","","74","J","1","","","154","main_expt"
"332","","bandit","233","677993","0.0-194.0-0.0","72831984","wem/bandit_either","A3RQN5RZD1N2KP","either","5","","","","","","","0","0","1","0.1986333914","","0.2","0.8","0.6","0.4","","","","","0.4480264808","0.1986333914","0.2750581274","0.1770288166","","","","","","","74","J","1","","","155","main_expt"
"162","","bandit","234","679667","0.0-195.0-0.0","72831984","wem/bandit_either","A3RQN5RZD1N2KP","either","5","","","","","","","0","0","1","0.2438045727","","0.2","0.8","0.6","0.4","","","","","0.4260414265","0.2054640346","0.2438045727","0.1761817894","","","","","","","75","K","2","","","156","main_expt"
"350","","bandit","235","681530","0.0-196.0-0.0","72831984","wem/bandit_either","A3RQN5RZD1N2KP","either","5","","","","","","","0","0","1","0.1810715383","","0.2","0.8","0.6","0.4","","","","","0.4365201507","0.1810715383","0.2857025143","0.1998830888","","","","","","","74","J","1","","","157","main_expt"
"284","","bandit","236","683328","0.0-197.0-0.0","72831984","wem/bandit_either","A3RQN5RZD1N2KP","either","5","","","","","","","0","0","1","","0.2150354531","0.2","0.8","0.6","0.4","0.4076244479","0.2118906364","0.2887719476","0.2150354531","","","","","","","","","","","76","L","3","","","158","main_expt"
"248","","bandit","237","685087","0.0-198.0-0.0","72831984","wem/bandit_either","A3RQN5RZD1N2KP","either","5","","","","","","","1","0","0","0.2293976715","","0.2","0.8","0.6","0.4","","","","","0.403953851","0.2293976715","0.2859462397","0.2221069796","","","","","","","74","J","1","","","159","main_expt"
"341","","bandit","238","686940","0.0-199.0-0.0","72831984","wem/bandit_either","A3RQN5RZD1N2KP","either","5","","","","","","","0","0","1","0.2186051381","","0.2","0.8","0.6","0.4","","","","","0.4282135537","0.2186051381","0.207432816","0.2627335039","","","","","","","74","J","1","","","160","main_expt"
"369","","bandit","239","688822","0.0-200.0-0.0","72831984","wem/bandit_either","A3RQN5RZD1N2KP","either","5","","","","","","","0","0","1","0.1611694724","","0.2","0.8","0.6","0.4","","","","","0.4479073124","0.2175927206","0.1611694724","0.2922457848","","","","","","","75","K","2","","","161","main_expt"
"291","","bandit","240","690627","0.0-201.0-0.0","72831984","wem/bandit_either","A3RQN5RZD1N2KP","either","5","","","","","","","1","0","0","0.2370404117","","0.2","0.8","0.6","0.4","","","","","0.4456201243","0.2370404117","0.14378348","0.3040212123","","","","","","","74","J","1","","","162","main_expt"
"339","","bandit","241","692481","0.0-202.0-0.0","72831984","wem/bandit_either","A3RQN5RZD1N2KP","either","5","","","","","","","0","1","0","","0.2778780432","0.2","0.8","0.6","0.4","0.4384930657","0.2778780432","0.1707099899","0.2933359027","","","","","","","","","","","74","J","1","","","163","main_expt"
"355","","bandit","242","694347","0.0-203.0-0.0","72831984","wem/bandit_either","A3RQN5RZD1N2KP","either","5","","","","","","","0","0","1","0.2643388611","","0.2","0.8","0.6","0.4","","","","","0.4231568034","0.2643388611","0.1933693166","0.2388203062","","","","","","","74","J","1","","","164","main_expt"
"311","","bandit","243","696172","0.0-204.0-0.0","72831984","wem/bandit_either","A3RQN5RZD1N2KP","either","5","","","","","","","0","0","1","0.1967204453","","0.2","0.8","0.6","0.4","","","","","0.4412535734","0.1967204453","0.2406324952","0.2646204916","","","","","","","74","J","1","","","165","main_expt"
"166","","bandit","244","697849","0.0-205.0-0.0","72831984","wem/bandit_either","A3RQN5RZD1N2KP","either","5","","","","","","","1","0","0","0.2650462377","","0.2","0.8","0.6","0.4","","","","","0.438364003","0.1567937345","0.2650462377","0.2591758032","","","","","","","75","K","2","","","166","main_expt"
"366","","bandit","245","699729","0.0-206.0-0.0","72831984","wem/bandit_either","A3RQN5RZD1N2KP","either","5","","","","","","","0","0","1","","0.245875583","0.2","0.8","0.6","0.4","0.4290991351","0.1201482918","0.245875583","0.1955934818","","","","","","","","","","","75","K","2","","","167","main_expt"
"307","","bandit","246","701551","0.0-207.0-0.0","72831984","wem/bandit_either","A3RQN5RZD1N2KP","either","5","","","","","","","0","0","1","0.2090603634","","0.2","0.8","0.6","0.4","","","","","0.4510860662","0.0936051119","0.257303599","0.2090603634","","","","","","","76","L","3","","","168","main_expt"
"184","","bandit","247","703249","0.0-208.0-0.0","72831984","wem/bandit_either","A3RQN5RZD1N2KP","either","5","","","","","","","0","1","0","","0.2993732043","0.2","0.8","0.6","0.4","0.4491424364","0.08775096918","0.2993732043","0.2678479696","","","","","","","","","","","75","K","2","","","169","main_expt"
"331","","bandit","248","705093","0.0-209.0-0.0","72831984","wem/bandit_either","A3RQN5RZD1N2KP","either","5","","","","","","","0","0","1","0.3388977639","","0.2","0.8","0.6","0.4","","","","","0.4332244901","0.06743429675","0.3388977639","0.2532125956","","","","","","","75","K","2","","","170","main_expt"
"265","","bandit","249","706870","0.0-210.0-0.0","72831984","wem/bandit_either","A3RQN5RZD1N2KP","either","5","","","","","","","0","0","1","0.05979118822","","0.2","0.8","0.6","0.4","","","","","0.4405036994","0.05979118822","0.2947926635","0.2568627054","","","","","","","74","J","1","","","171","main_expt"
"149","","bandit","250","708533","0.0-211.0-0.0","72831984","wem/bandit_either","A3RQN5RZD1N2KP","either","5","","","","","","","0","0","1","","0.2892529657","0.2","0.8","0.6","0.4","0.4358521759","0.03200499914","0.2892529657","0.2451563353","","","","","","","","","","","75","K","2","","","172","main_expt"
"425","","bandit","251","710469","0.0-212.0-0.0","72831984","wem/bandit_either","A3RQN5RZD1N2KP","either","5","","","","","","","0","0","1","0.04613358223","","0.2","0.8","0.6","0.4","","","","","0.4471617722","0.04613358223","0.2571917514","0.3003395367","","","","","","","74","J","1","","","173","main_expt"
"174","","bandit","252","712156","0.0-213.0-0.0","72831984","wem/bandit_either","A3RQN5RZD1N2KP","either","5","","","","","","","0","0","1","0.244173221","","0.2","0.8","0.6","0.4","","","","","0.4560251174","0.05969677181","0.244173221","0.2545998681","","","","","","","75","K","2","","","174","main_expt"
"314","","bandit","253","713983","0.0-214.0-0.0","72831984","wem/bandit_either","A3RQN5RZD1N2KP","either","5","","","","","","","1","0","0","0.3383135611","","0.2","0.8","0.6","0.4","","","","","0.4379349024","0.05930066603","0.2038098688","0.3383135611","","","","","","","76","L","3","","","175","main_expt"
"360","","bandit","254","715854","0.0-215.0-0.0","72831984","wem/bandit_either","A3RQN5RZD1N2KP","either","5","","","","","","","1","0","0","0.3880627729","","0.2","0.8","0.6","0.4","","","","","0.4328841116","0.08110879181","0.2053823003","0.3880627729","","","","","","","76","L","3","","","176","main_expt"
"355","","bandit","255","717723","0.0-216.0-0.0","72831984","wem/bandit_either","A3RQN5RZD1N2KP","either","5","","","","","","","0","1","0","","0.3920994557","0.2","0.8","0.6","0.4","0.3965365967","0.07611568943","0.2193083282","0.3920994557","","","","","","","","","","","76","L","3","","","177","main_expt"
"280","","bandit","256","719516","0.0-217.0-0.0","72831984","wem/bandit_either","A3RQN5RZD1N2KP","either","5","","","","","","","1","0","0","0.3882277994","","0.2","0.8","0.6","0.4","","","","","0.3899234309","0.1220467165","0.1904263594","0.3882277994","","","","","","","76","L","3","","","178","main_expt"
"347","","bandit","257","721378","0.0-218.0-0.0","72831984","wem/bandit_either","A3RQN5RZD1N2KP","either","5","","","","","","","1","0","0","0.3939691408","","0.2","0.8","0.6","0.4","","","","","0.4238443777","0.1698853315","0.2212788648","0.3939691408","","","","","","","76","L","3","","","179","main_expt"
"321","","bandit","258","723213","0.0-219.0-0.0","72831984","wem/bandit_either","A3RQN5RZD1N2KP","either","5","","","","","","","0","0","1","","0.4074656662","0.2","0.8","0.6","0.4","0.4487400994","0.1374762061","0.2640717145","0.4074656662","","","","","","","","","","","76","L","3","","","180","main_expt"
"314","","bandit","259","725040","0.0-220.0-0.0","72831984","wem/bandit_either","A3RQN5RZD1N2KP","either","5","","","","","","","0","0","1","0.3724421945","","0.2","0.8","0.6","0.4","","","","","0.4314573438","0.09961924189","0.2426483564","0.3724421945","","","","","","","76","L","3","","","181","main_expt"
"95","","bandit","260","726648","0.0-221.0-0.0","72831984","wem/bandit_either","A3RQN5RZD1N2KP","either","5","","","","","","","0","0","1","","0.4458059303","0.2","0.8","0.6","0.4","0.4458059303","0.1391043194","0.2001563476","0.2998177931","","","","","","","","","","","72","H","0","img/none_selected.jpg","","182","main_expt"
"280","","bandit","261","728442","0.0-222.0-0.0","72831984","wem/bandit_either","A3RQN5RZD1N2KP","either","5","","","","","","","0","0","1","0.1336424596","","0.2","0.8","0.6","0.4","","","","","0.4485460149","0.1336424596","0.2167094124","0.3629728763","","","","","","","74","J","1","","","183","main_expt"
"236","","bandit","262","730193","0.0-223.0-0.0","72831984","wem/bandit_either","A3RQN5RZD1N2KP","either","5","","","","","","","0","0","1","","0.2402813617","0.2","0.8","0.6","0.4","0.4078350507","0.115911235","0.2402813617","0.3763603645","","","","","","","","","","","75","K","2","","","184","main_expt"
"318","","bandit","263","732025","0.0-224.0-0.0","72831984","wem/bandit_either","A3RQN5RZD1N2KP","either","5","","","","","","","0","0","1","0.3472982705","","0.2","0.8","0.6","0.4","","","","","0.3805788675","0.1394203739","0.2745112141","0.3472982705","","","","","","","76","L","3","","","185","main_expt"
"415","","bandit","264","733953","0.0-225.0-0.0","72831984","wem/bandit_either","A3RQN5RZD1N2KP","either","5","","","","","","","0","0","1","0.1557479742","","0.2","0.8","0.6","0.4","","","","","0.4236809331","0.1557479742","0.2774566956","0.3095995051","","","","","","","74","J","1","","","186","main_expt"
"282","","bandit","265","735749","0.0-226.0-0.0","72831984","wem/bandit_either","A3RQN5RZD1N2KP","either","5","","","","","","","0","1","0","","0.4058627081","0.2","0.8","0.6","0.4","0.4058627081","0.1823611596","0.2876011691","0.2567332284","","","","","","","","","","","72","H","0","img/none_selected.jpg","","187","main_expt"
"347","","bandit","266","737608","0.0-227.0-0.0","72831984","wem/bandit_either","A3RQN5RZD1N2KP","either","5","","","","","","","0","0","1","","0.3913346521","0.2","0.8","0.6","0.4","0.3913346521","0.1854179297","0.2947112378","0.2555256861","","","","","","","","","","","72","H","0","img/none_selected.jpg","","188","main_expt"
"311","","bandit","267","739436","0.0-228.0-0.0","72831984","wem/bandit_either","A3RQN5RZD1N2KP","either","5","","","","","","","0","0","1","","0.3760164219","0.2","0.8","0.6","0.4","0.3760164219","0.1875645599","0.2581494","0.2009875262","","","","","","","","","","","72","H","0","img/none_selected.jpg","","189","main_expt"
"256","","bandit","268","741205","0.0-229.0-0.0","72831984","wem/bandit_either","A3RQN5RZD1N2KP","either","5","","","","","","","0","0","1","","0.2055488595","0.2","0.8","0.6","0.4","0.3327352817","0.2018323604","0.1756323468","0.2055488595","","","","","","","","","","","76","L","3","","","190","main_expt"
"322","","bandit","269","743041","0.0-230.0-0.0","72831984","wem/bandit_either","A3RQN5RZD1N2KP","either","5","","","","","","","0","0","1","","0.1506387864","0.2","0.8","0.6","0.4","0.3015177445","0.221094727","0.2521570866","0.1506387864","","","","","","","","","","","76","L","3","","","191","main_expt"
"313","","bandit","270","744867","0.0-231.0-0.0","72831984","wem/bandit_either","A3RQN5RZD1N2KP","either","5","","","","","","","0","1","0","","0.2964739449","0.2","0.8","0.6","0.4","0.2773298268","0.2320570195","0.2964739449","0.2027442266","","","","","","","","","","","75","K","2","","","192","main_expt"
"366","","bandit","271","746748","0.0-232.0-0.0","72831984","wem/bandit_either","A3RQN5RZD1N2KP","either","5","","","","","","","0","1","0","","0.2612966838","0.2","0.8","0.6","0.4","0.2836613797","0.2948950962","0.2612966838","0.1969137872","","","","","","","","","","","75","K","2","","","193","main_expt"
"358","","bandit","272","748624","0.0-233.0-0.0","72831984","wem/bandit_either","A3RQN5RZD1N2KP","either","5","","","","","","","0","0","1","","0.3292914436","0.2","0.8","0.6","0.4","0.2799350415","0.2602906927","0.3292914436","0.2114994946","","","","","","","","","","","75","K","2","","","194","main_expt"
"338","","bandit","273","750477","0.0-234.0-0.0","72831984","wem/bandit_either","A3RQN5RZD1N2KP","either","5","","","","","","","1","0","0","0.4070308407","","0.2","0.8","0.6","0.4","","","","","0.2068597772","0.1771499101","0.4070308407","0.2467939011","","","","","","","75","K","2","","","195","main_expt"
"324","","bandit","274","752314","0.0-235.0-0.0","72831984","wem/bandit_either","A3RQN5RZD1N2KP","either","5","","","","","","","0","0","1","0.3494820729","","0.2","0.8","0.6","0.4","","","","","0.2679469531","0.1746274925","0.3494820729","0.2731811988","","","","","","","75","K","2","","","196","main_expt"
"410","","bandit","275","754238","0.0-236.0-0.0","72831984","wem/bandit_either","A3RQN5RZD1N2KP","either","5","","","","","","","0","1","0","","0.3571939809","0.2","0.8","0.6","0.4","0.2448078588","0.193224684","0.3571939809","0.2512114903","","","","","","","","","","","75","K","2","","","197","main_expt"
"341","","bandit","276","756092","0.0-237.0-0.0","72831984","wem/bandit_either","A3RQN5RZD1N2KP","either","5","","","","","","","0","0","1","","0.382430028","0.2","0.8","0.6","0.4","0.2433987968","0.1771509929","0.382430028","0.190651112","","","","","","","","","","","75","K","2","","","198","main_expt"
"366","","bandit","277","757972","0.0-238.0-0.0","72831984","wem/bandit_either","A3RQN5RZD1N2KP","either","5","","","","","","","0","0","1","0.3353474301","","0.2","0.8","0.6","0.4","","","","","0.2653624242","0.2466668772","0.3353474301","0.1701189695","","","","","","","75","K","2","","","199","main_expt"
"338","","bandit","278","759824","0.0-239.0-0.0","72831984","wem/bandit_either","A3RQN5RZD1N2KP","either","5","","","","","","","0","0","1","","0.1656975488","0.2","0.8","0.6","0.4","0.2551376492","0.2477816141","0.3321976498","0.1656975488","","","","","","","","","","","76","L","3","","","200","main_expt"
"270","","bandit","279","761609","0.0-240.0-0.0","72831984","wem/bandit_either","A3RQN5RZD1N2KP","either","5","","","","","","","0","0","1","0.2744817861","","0.2","0.8","0.6","0.4","","","","","0.2660639347","0.2744817861","0.3218117355","0.1647298582","","","","","","","74","J","1","","","201","main_expt"
"354","","bandit","280","763476","0.0-241.0-0.0","72831984","wem/bandit_either","A3RQN5RZD1N2KP","either","5","","","","","","","0","0","1","0.3043062986","","0.2","0.8","0.6","0.4","","","","","0.2220900594","0.3043062986","0.2949214693","0.1242041815","","","","","","","74","J","1","","","202","main_expt"
"250","","bandit","281","765242","0.0-242.0-0.0","72831984","wem/bandit_either","A3RQN5RZD1N2KP","either","5","","","","","","","0","0","1","","0.300077299","0.2","0.8","0.6","0.4","0.1543353204","0.272185569","0.300077299","0.1684487429","","","","","","","","","","","75","K","2","","","203","main_expt"
"277","","bandit","282","767033","0.0-243.0-0.0","72831984","wem/bandit_either","A3RQN5RZD1N2KP","either","5","","","","","","","0","0","1","","0.1605482003","0.2","0.8","0.6","0.4","0.1605482003","0.2610767704","0.2866085977","0.1666409686","","","","","","","","","","","72","H","0","img/none_selected.jpg","","204","main_expt"
"274","","bandit","283","768819","0.0-244.0-0.0","72831984","wem/bandit_either","A3RQN5RZD1N2KP","either","5","","","","","","","0","0","1","0.2695546272","","0.2","0.8","0.6","0.4","","","","","0.1406914754","0.2832615928","0.2695546272","0.2197286508","","","","","","","75","K","2","","","205","main_expt"
"274","","bandit","284","770611","0.0-245.0-0.0","72831984","wem/bandit_either","A3RQN5RZD1N2KP","either","5","","","","","","","0","0","1","","0.2754509052","0.2","0.8","0.6","0.4","0.1138947463","0.300913322","0.2622178416","0.2754509052","","","","","","","","","","","76","L","3","","","206","main_expt"
"313","","bandit","285","772436","0.0-246.0-0.0","72831984","wem/bandit_either","A3RQN5RZD1N2KP","either","5","","","","","","","0","0","1","","0.2498186578","0.2","0.8","0.6","0.4","0.1096702189","0.3260258847","0.2498186578","0.2664869377","","","","","","","","","","","75","K","2","","","207","main_expt"
"392","","bandit","286","774341","0.0-247.0-0.0","72831984","wem/bandit_either","A3RQN5RZD1N2KP","either","5","","","","","","","1","0","0","0.3173829003","","0.2","0.8","0.6","0.4","","","","","0.09922356593","0.3173829003","0.2335358635","0.2686565688","","","","","","","74","J","1","","","208","main_expt"
"346","","bandit","287","776200","0.0-248.0-0.0","72831984","wem/bandit_either","A3RQN5RZD1N2KP","either","5","","","","","","","0","0","1","0.3153846937","","0.2","0.8","0.6","0.4","","","","","0.101567507","0.3153846937","0.2638942681","0.2380255957","","","","","","","74","J","1","","","209","main_expt"
"339","","bandit","288","778057","0.0-249.0-0.0","72831984","wem/bandit_either","A3RQN5RZD1N2KP","either","5","","","","","","","1","0","0","0.3010876552","","0.2","0.8","0.6","0.4","","","","","0.08675379402","0.3010876552","0.2526926237","0.2507768727","","","","","","","74","J","1","","","210","main_expt"
"344","","bandit","289","779917","0.0-250.0-0.0","72831984","wem/bandit_either","A3RQN5RZD1N2KP","either","5","","","","","","","0","0","1","0.2864900033","","0.2","0.8","0.6","0.4","","","","","0.07512021269","0.2864900033","0.2740367769","0.2685142319","","","","","","","74","J","1","","","211","main_expt"
"380","","bandit","290","781811","0.0-251.0-0.0","72831984","wem/bandit_either","A3RQN5RZD1N2KP","either","5","","","","","","","1","0","0","0.3163372434","","0.2","0.8","0.6","0.4","","","","","0.08144254236","0.3163372434","0.2440836191","0.260511483","","","","","","","74","J","1","","","212","main_expt"
"346","","bandit","291","783670","0.0-252.0-0.0","72831984","wem/bandit_either","A3RQN5RZD1N2KP","either","5","","","","","","","0","0","1","0.2701305136","","0.2","0.8","0.6","0.4","","","","","0.06585574052","0.2701305136","0.2341903104","0.2579605047","","","","","","","74","J","1","","","213","main_expt"
"354","","bandit","292","785538","0.0-253.0-0.0","72831984","wem/bandit_either","A3RQN5RZD1N2KP","either","5","","","","","","","0","0","1","","0.302599165","0.2","0.8","0.6","0.4","0.08686614453","0.302599165","0.2097526345","0.2470456849","","","","","","","","","","","74","J","1","","","214","main_expt"
"308","","bandit","293","787359","0.0-254.0-0.0","72831984","wem/bandit_either","A3RQN5RZD1N2KP","either","5","","","","","","","0","0","1","","0.1068548489","0.2","0.8","0.6","0.4","0.1068548489","0.2968005471","0.1796882487","0.3285383036","","","","","","","","","","","72","H","0","img/none_selected.jpg","","215","main_expt"
"311","","bandit","294","789186","0.0-255.0-0.0","72831984","wem/bandit_either","A3RQN5RZD1N2KP","either","5","","","","","","","0","0","1","0.2835536598","","0.2","0.8","0.6","0.4","","","","","0.1211736082","0.2835536598","0.2237900511","0.3780044773","","","","","","","74","J","1","","","216","main_expt"
"336","","bandit","295","791036","0.0-256.0-0.0","72831984","wem/bandit_either","A3RQN5RZD1N2KP","either","5","","","","","","","0","1","0","","0.2520762718","0.2","0.8","0.6","0.4","0.09343701815","0.2520762718","0.2265358539","0.3939228946","","","","","","","","","","","74","J","1","","","217","main_expt"
"352","","bandit","296","792930","0.0-257.0-0.0","72831984","wem/bandit_either","A3RQN5RZD1N2KP","either","5","","","","","","","0","0","1","0.2562699476","","0.2","0.8","0.6","0.4","","","","","0.1001055386","0.2562699476","0.2364013437","0.3198270803","","","","","","","74","J","1","","","218","main_expt"
"351","","bandit","297","794791","0.0-258.0-0.0","72831984","wem/bandit_either","A3RQN5RZD1N2KP","either","5","","","","","","","0","0","1","0.2810560361","","0.2","0.8","0.6","0.4","","","","","0.09524874014","0.3002431464","0.2810560361","0.3502502288","","","","","","","75","K","2","","","219","main_expt"
"268","","bandit","298","796577","0.0-259.0-0.0","72831984","wem/bandit_either","A3RQN5RZD1N2KP","either","5","","","","","","","0","0","1","0.3365413303","","0.2","0.8","0.6","0.4","","","","","0.1304899995","0.3365413303","0.3027429446","0.3402456168","","","","","","","74","J","1","","","220","main_expt"
"300","","bandit","299","798391","0.0-260.0-0.0","72831984","wem/bandit_either","A3RQN5RZD1N2KP","either","5","","","","","","","1","0","0","0.3770059732","","0.2","0.8","0.6","0.4","","","","","0.1272814923","0.2946103072","0.3132134988","0.3770059732","","","","","","","76","L","3","","","221","main_expt"
"381","","bandit","300","800285","0.0-261.0-0.0","72831984","wem/bandit_either","A3RQN5RZD1N2KP","either","5","","","","","","","0","0","1","0.3864421123","","0.2","0.8","0.6","0.4","","","","","0.1654407056","0.3267284332","0.2424821827","0.3864421123","","","","","","","76","L","3","","","222","main_expt"
"338","","bandit","301","802139","0.0-262.0-0.0","72831984","wem/bandit_either","A3RQN5RZD1N2KP","either","5","","","","","","","0","0","1","0.4205211408","","0.2","0.8","0.6","0.4","","","","","0.1788325852","0.3175152631","0.2595367495","0.4205211408","","","","","","","76","L","3","","","223","main_expt"
"286","","bandit","302","803939","0.0-263.0-0.0","72831984","wem/bandit_either","A3RQN5RZD1N2KP","either","5","","","","","","","0","0","1","0.3192400935","","0.2","0.8","0.6","0.4","","","","","0.1736623033","0.3192400935","0.328819141","0.4131889957","","","","","","","74","J","1","","","224","main_expt"
"506","","bandit","303","805960","0.0-264.0-0.0","72831984","wem/bandit_either","A3RQN5RZD1N2KP","either","5","","","","","","","0","0","1","","0.356121412","0.2","0.8","0.6","0.4","0.1721911447","0.3096750449","0.356121412","0.4001513574","","","","","","","","","","","75","K","2","","","225","main_expt"
"304","","bandit","304","807779","0.0-265.0-0.0","72831984","wem/bandit_either","A3RQN5RZD1N2KP","either","5","","","","","","","0","1","0","","0.3963688582","0.2","0.8","0.6","0.4","0.2133818582","0.3142833063","0.3394019192","0.3963688582","","","","","","","","","","","76","L","3","","","226","main_expt"
"426","","bandit","305","809718","0.0-266.0-0.0","72831984","wem/bandit_either","A3RQN5RZD1N2KP","either","5","","","","","","","0","1","0","","0.3979714495","0.2","0.8","0.6","0.4","0.2620007467","0.3096885674","0.2860553004","0.3979714495","","","","","","","","","","","76","L","3","","","227","main_expt"
"366","","bandit","306","811598","0.0-267.0-0.0","72831984","wem/bandit_either","A3RQN5RZD1N2KP","either","5","","","","","","","0","0","1","","0.3811043637","0.2","0.8","0.6","0.4","0.2961930455","0.3048295172","0.2967856672","0.3811043637","","","","","","","","","","","76","L","3","","","228","main_expt"
"396","","bandit","307","813506","0.0-268.0-0.0","72831984","wem/bandit_either","A3RQN5RZD1N2KP","either","5","","","","","","","0","0","1","0.3488149186","","0.2","0.8","0.6","0.4","","","","","0.3081123415","0.2553920021","0.2857745529","0.3488149186","","","","","","","76","L","3","","","229","main_expt"
"324","","bandit","308","815346","0.0-269.0-0.0","72831984","wem/bandit_either","A3RQN5RZD1N2KP","either","5","","","","","","","0","1","0","","0.2589404948","0.2","0.8","0.6","0.4","0.3027177586","0.2783794412","0.2589404948","0.2883621188","","","","","","","","","","","75","K","2","","","230","main_expt"
"393","","bandit","309","817256","0.0-270.0-0.0","72831984","wem/bandit_either","A3RQN5RZD1N2KP","either","5","","","","","","","0","0","1","0.2628441024","","0.2","0.8","0.6","0.4","","","","","0.2495346478","0.2735536708","0.2628441024","0.2444465504","","","","","","","75","K","2","","","231","main_expt"
"339","","bandit","310","819110","0.0-271.0-0.0","72831984","wem/bandit_either","A3RQN5RZD1N2KP","either","5","","","","","","","1","0","0","0.2996930955","","0.2","0.8","0.6","0.4","","","","","0.2185872191","0.2262440502","0.276537748","0.2996930955","","","","","","","76","L","3","","","232","main_expt"
"346","","bandit","311","820973","0.0-272.0-0.0","72831984","wem/bandit_either","A3RQN5RZD1N2KP","either","5","","","","","","","0","0","1","","0.3103031796","0.2","0.8","0.6","0.4","0.1874863907","0.2171974885","0.2485723575","0.3103031796","","","","","","","","","","","76","L","3","","","233","main_expt"
"403","","bandit","312","822890","0.0-273.0-0.0","72831984","wem/bandit_either","A3RQN5RZD1N2KP","either","5","","","","","","","1","0","0","0.2172766866","","0.2","0.8","0.6","0.4","","","","","0.2165838284","0.2951485073","0.2172766866","0.2971988612","","","","","","","75","K","2","","","234","main_expt"
"381","","bandit","313","824789","0.0-274.0-0.0","72831984","wem/bandit_either","A3RQN5RZD1N2KP","either","5","","","","","","","0","0","1","0.221542824","","0.2","0.8","0.6","0.4","","","","","0.1791302586","0.3135740045","0.221542824","0.3266576642","","","","","","","75","K","2","","","235","main_expt"
"423","","bandit","314","826728","0.0-275.0-0.0","72831984","wem/bandit_either","A3RQN5RZD1N2KP","either","5","","","","","","","0","0","1","","0.3596878827","0.2","0.8","0.6","0.4","0.2463713802","0.2945285262","0.2200573756","0.3596878827","","","","","","","","","","","76","L","3","","","236","main_expt"
"338","","bandit","315","828582","0.0-276.0-0.0","72831984","wem/bandit_either","A3RQN5RZD1N2KP","either","5","","","","","","","0","0","1","0.2146478317","","0.2","0.8","0.6","0.4","","","","","0.2204623923","0.2797454337","0.2146478317","0.3951370387","","","","","","","75","K","2","","","237","main_expt"
"207","","bandit","316","830304","0.0-277.0-0.0","72831984","wem/bandit_either","A3RQN5RZD1N2KP","either","5","","","","","","","1","0","0","0.266453507","","0.2","0.8","0.6","0.4","","","","","0.2316256556","0.266453507","0.2237656472","0.3863552979","","","","","","","74","J","1","","","238","main_expt"
"347","","bandit","317","832165","0.0-278.0-0.0","72831984","wem/bandit_either","A3RQN5RZD1N2KP","either","5","","","","","","","0","0","1","0.310831157","","0.2","0.8","0.6","0.4","","","","","0.2406304147","0.310831157","0.2302611888","0.3962704677","","","","","","","74","J","1","","","239","main_expt"
"324","","bandit","318","834005","0.0-279.0-0.0","72831984","wem/bandit_either","A3RQN5RZD1N2KP","either","5","","","","","","","0","0","1","0.331950591","","0.2","0.8","0.6","0.4","","","","","0.2624476398","0.331950591","0.2253069634","0.3926977495","","","","","","","74","J","1","","","240","main_expt"
"251","","bandit","319","835773","0.0-280.0-0.0","72831984","wem/bandit_either","A3RQN5RZD1N2KP","either","5","","","","","","","0","0","1","","0.2523404353","0.2","0.8","0.6","0.4","0.2627099727","0.3223776605","0.2523404353","0.3381110468","","","","","","","","","","","75","K","2","","","241","main_expt"
"328","","bandit","320","837618","0.0-281.0-0.0","72831984","wem/bandit_either","A3RQN5RZD1N2KP","either","5","","","","","","","0","0","1","","0.3213381148","0.2","0.8","0.6","0.4","0.2262339403","0.3389272588","0.238450381","0.3213381148","","","","","","","","","","","76","L","3","","","242","main_expt"
"336","","bandit","321","839469","0.0-282.0-0.0","72831984","wem/bandit_either","A3RQN5RZD1N2KP","either","5","","","","","","","0","0","1","","0.2511573395","0.2","0.8","0.6","0.4","0.2511573395","0.4023830898","0.2476478509","0.3395415742","","","","","","","","","","","72","H","0","img/none_selected.jpg","","243","main_expt"
"283","","bandit","322","841268","0.0-283.0-0.0","72831984","wem/bandit_either","A3RQN5RZD1N2KP","either","5","","","","","","","0","0","1","0.4072225753","","0.2","0.8","0.6","0.4","","","","","0.3112309098","0.4072225753","0.2603762171","0.3077285799","","","","","","","74","J","1","","","244","main_expt"
"248","","bandit","323","843033","0.0-284.0-0.0","72831984","wem/bandit_either","A3RQN5RZD1N2KP","either","5","","","","","","","0","0","1","0.2778117757","","0.2","0.8","0.6","0.4","","","","","0.3169667097","0.4047901721","0.2778117757","0.269997398","","","","","","","75","K","2","","","245","main_expt"
"298","","bandit","324","844849","0.0-285.0-0.0","72831984","wem/bandit_either","A3RQN5RZD1N2KP","either","5","","","","","","","0","1","0","","0.2896792764","0.2","0.8","0.6","0.4","0.3774934029","0.4245844383","0.2571702875","0.2896792764","","","","","","","","","","","76","L","3","","","246","main_expt"
"379","","bandit","325","846745","0.0-286.0-0.0","72831984","wem/bandit_either","A3RQN5RZD1N2KP","either","5","","","","","","","0","1","0","","0.3079745892","0.2","0.8","0.6","0.4","0.3592590195","0.4425022826","0.2790325972","0.3079745892","","","","","","","","","","","76","L","3","","","247","main_expt"
"438","","bandit","326","848698","0.0-287.0-0.0","72831984","wem/bandit_either","A3RQN5RZD1N2KP","either","5","","","","","","","0","0","1","","0.2306801962","0.2","0.8","0.6","0.4","0.3659800935","0.4454461089","0.2665328125","0.2306801962","","","","","","","","","","","76","L","3","","","248","main_expt"
"428","","bandit","327","850643","0.0-288.0-0.0","72831984","wem/bandit_either","A3RQN5RZD1N2KP","either","5","","","","","","","0","0","1","0.2363838343","","0.2","0.8","0.6","0.4","","","","","0.3940863056","0.4565985803","0.2666328085","0.2363838343","","","","","","","76","L","3","","","249","main_expt"
"255","","bandit","328","852416","0.0-289.0-0.0","72831984","wem/bandit_either","A3RQN5RZD1N2KP","either","5","","","","","","","0","0","1","","0.2637425143","0.2","0.8","0.6","0.4","0.3652193683","0.4666950096","0.2637425143","0.2865845142","","","","","","","","","","","75","K","2","","","250","main_expt"
"259","","bandit","329","854190","0.0-290.0-0.0","72831984","wem/bandit_either","A3RQN5RZD1N2KP","either","5","","","","","","","1","0","0","0.4491167865","","0.2","0.8","0.6","0.4","","","","","0.3118516898","0.4491167865","0.3041279159","0.3527425442","","","","","","","74","J","1","","","251","main_expt"
"369","","bandit","330","856077","0.0-291.0-0.0","72831984","wem/bandit_either","A3RQN5RZD1N2KP","either","5","","","","","","","1","0","0","0.4512042396","","0.2","0.8","0.6","0.4","","","","","0.3291033061","0.4512042396","0.3054217384","0.3236638898","","","","","","","74","J","1","","","252","main_expt"
"382","","bandit","331","857974","0.0-292.0-0.0","72831984","wem/bandit_either","A3RQN5RZD1N2KP","either","5","","","","","","","0","0","1","0.4572977034","","0.2","0.8","0.6","0.4","","","","","0.35413613","0.4572977034","0.3241125582","0.2905162115","","","","","","","74","J","1","","","253","main_expt"
"401","","bandit","332","859891","0.0-293.0-0.0","72831984","wem/bandit_either","A3RQN5RZD1N2KP","either","5","","","","","","","0","1","0","","0.4550853681","0.2","0.8","0.6","0.4","0.2644422317","0.4550853681","0.3512447021","0.2486268238","","","","","","","","","","","74","J","1","","","254","main_expt"
"510","","bandit","333","861918","0.0-294.0-0.0","72831984","wem/bandit_either","A3RQN5RZD1N2KP","either","5","","","","","","","0","0","1","0.4068249484","","0.2","0.8","0.6","0.4","","","","","0.3151268161","0.4068249484","0.3367754603","0.2578586278","","","","","","","74","J","1","","","255","main_expt"
"319","","bandit","334","863754","0.0-295.0-0.0","72831984","wem/bandit_either","A3RQN5RZD1N2KP","either","5","","","","","","","1","0","0","0.3405622534","","0.2","0.8","0.6","0.4","","","","","0.3283766025","0.3405622534","0.3474359816","0.1978119803","","","","","","","74","J","1","","","256","main_expt"
