"rt","responses","trial_type","trial_index","time_elapsed","internal_node_id","subjID","study","MID","cond","drift","key_press","expt_phase","target","like","value","connected","gems","bombs","no_reward","GemPrChosen","BombPrChosen","GainOverPainPr_0","GainOverPainPr_1","GainOverPainPr_2","GainOverPainPr_3","LosePr_0","LosePr_1","LosePr_2","LosePr_3","WinPr_0","WinPr_1","WinPr_2","WinPr_3","Q0","Q1","Q2","gender","age","ethnicity","respCharCode","respKey","respChoiceNum","respChoice","practice","trial_counter","trial_label"
"6532","{""Q0"":""AKCH7EGJBNV43""}","survey-text","0","6544","0.0-0.0","75320256","wem/bandit_either","AKCH7EGJBNV43","either","3","","","","","","","","","","","","","","","","","","","","","","","","","","","","","","","","","","","",""
"14635","","text","1","22184","0.0-1.0","75320256","wem/bandit_either","AKCH7EGJBNV43","either","3","32","","","","","","","","","","","","","","","","","","","","","","","","","","","","","","","","","","",""
"11073","","text","2","33259","0.0-2.0","75320256","wem/bandit_either","AKCH7EGJBNV43","either","3","32","","","","","","","","","","","","","","","","","","","","","","","","","","","","","","","","","","",""
"29550","","text","3","62810","0.0-3.0","75320256","wem/bandit_either","AKCH7EGJBNV43","either","3","32","","","","","","","","","","","","","","","","","","","","","","","","","","","","","","","","","","",""
"161122","","text","4","223933","0.0-4.0","75320256","wem/bandit_either","AKCH7EGJBNV43","either","3","32","","","","","","","","","","","","","","","","","","","","","","","","","","","","","","","","","","",""
"37201","","text","5","261136","0.0-5.0","75320256","wem/bandit_either","AKCH7EGJBNV43","either","3","32","","","","","","","","","","","","","","","","","","","","","","","","","","","","","","","","","","",""
"10296","","text","6","271433","0.0-6.0","75320256","wem/bandit_either","AKCH7EGJBNV43","either","3","32","","","","","","","","","","","","","","","","","","","","","","","","","","","","","","","","","","",""
"6020","","text","7","277455","0.0-7.0","75320256","wem/bandit_either","AKCH7EGJBNV43","either","3","32","","","","","","","","","","","","","","","","","","","","","","","","","","","","","","","","","","",""
"10274","","identification","8","287751","0.0-8.0-0.0","75320256","wem/bandit_either","AKCH7EGJBNV43","either","3","","identification_pre","the village of Zur","","","","","","","","","","","","","","","","","","","","","","","","","","","","","","","","",""
"7948","","identification","9","296736","0.0-8.0-1.0","75320256","wem/bandit_either","AKCH7EGJBNV43","either","3","","identification_pre","the village of Nyx","","","","","","","","","","","","","","","","","","","","","","","","","","","","","","","","",""
"6581","","text","10","304320","0.0-9.0","75320256","wem/bandit_either","AKCH7EGJBNV43","either","3","32","","","","","","","","","","","","","","","","","","","","","","","","","","","","","","","","","","",""
"3677","","text","11","307998","0.0-10.0","75320256","wem/bandit_either","AKCH7EGJBNV43","either","3","32","","","","","","","","","","","","","","","","","","","","","","","","","","","","","","","","","","",""
"2667","","text","12","310666","0.0-11.0","75320256","wem/bandit_either","AKCH7EGJBNV43","either","3","32","","","","","","","","","","","","","","","","","","","","","","","","","","","","","","","","","","",""
"5960","","text","13","316628","0.0-12.0","75320256","wem/bandit_either","AKCH7EGJBNV43","either","3","32","","","","","","","","","","","","","","","","","","","","","","","","","","","","","","","","","","",""
"2474","","bandit","14","320615","0.0-13.0-0.0","75320256","wem/bandit_either","AKCH7EGJBNV43","either","3","","","","","","","0","0","1","0","0","","","","","0","","","","0","","","","","","","","","","74","J","0","img/none_selected_demo.jpg","true","0",""
"738","","bandit","15","322863","0.0-14.0-0.0","75320256","wem/bandit_either","AKCH7EGJBNV43","either","3","","","","","","","0","0","1","0","0","","","","","0","","","","0","","","","","","","","","","75","K","0","img/none_selected_demo.jpg","true","0",""
"12260","","text","16","335126","0.0-15.0","75320256","wem/bandit_either","AKCH7EGJBNV43","either","3","32","","","","","","","","","","","","","","","","","","","","","","","","","","","","","","","","","","",""
"12151","","text","17","347279","0.0-16.0","75320256","wem/bandit_either","AKCH7EGJBNV43","either","3","32","","","","","","","","","","","","","","","","","","","","","","","","","","","","","","","","","","",""
"7455","","text","18","354734","0.0-17.0","75320256","wem/bandit_either","AKCH7EGJBNV43","either","3","32","","","","","","","","","","","","","","","","","","","","","","","","","","","","","","","","","","",""
"3807","","text","19","358543","0.0-18.0","75320256","wem/bandit_either","AKCH7EGJBNV43","either","3","32","","","","","","","","","","","","","","","","","","","","","","","","","","","","","","","","","","",""
"776","","bandit","20","360827","0.0-19.0-0.0","75320256","wem/bandit_either","AKCH7EGJBNV43","either","3","","","","","","","0","1","0","","0.8","0.5","0.5","","","0.8","0.2","","","","","","","","","","","","","74","J","0","img/none_selected_demo.jpg","true","0","80_20_practice"
"473","","bandit","21","362816","0.0-19.0-1.0","75320256","wem/bandit_either","AKCH7EGJBNV43","either","3","","","","","","","0","0","1","0.2","","0.5","0.5","","","","","","","0.8","0.2","","","","","","","","","75","K","1","","true","0","80_20_practice"
"422","","bandit","22","364746","0.0-19.0-2.0","75320256","wem/bandit_either","AKCH7EGJBNV43","either","3","","","","","","","0","0","1","","0.8","0.5","0.5","","","0.8","0.2","","","","","","","","","","","","","74","J","0","img/none_selected_demo.jpg","true","0","80_20_practice"
"486","","bandit","23","366737","0.0-19.0-3.0","75320256","wem/bandit_either","AKCH7EGJBNV43","either","3","","","","","","","1","0","0","0.8","","0.5","0.5","","","","","","","0.8","0.2","","","","","","","","","74","J","0","img/none_selected_demo.jpg","true","0","80_20_practice"
"482","","bandit","24","368725","0.0-19.0-4.0","75320256","wem/bandit_either","AKCH7EGJBNV43","either","3","","","","","","","0","0","1","0.2","","0.5","0.5","","","","","","","0.8","0.2","","","","","","","","","75","K","1","","true","0","80_20_practice"
"454","","bandit","25","370687","0.0-19.0-5.0","75320256","wem/bandit_either","AKCH7EGJBNV43","either","3","","","","","","","0","0","1","0.2","","0.5","0.5","","","","","","","0.8","0.2","","","","","","","","","75","K","1","","true","0","80_20_practice"
"375","","bandit","26","372573","0.0-19.0-6.0","75320256","wem/bandit_either","AKCH7EGJBNV43","either","3","","","","","","","0","1","0","","0.8","0.5","0.5","","","0.8","0.2","","","","","","","","","","","","","74","J","0","img/none_selected_demo.jpg","true","0","80_20_practice"
"412","","bandit","27","374493","0.0-19.0-7.0","75320256","wem/bandit_either","AKCH7EGJBNV43","either","3","","","","","","","1","0","0","0.8","","0.5","0.5","","","","","","","0.8","0.2","","","","","","","","","74","J","0","img/none_selected_demo.jpg","true","0","80_20_practice"
"462","","bandit","28","376461","0.0-19.0-8.0","75320256","wem/bandit_either","AKCH7EGJBNV43","either","3","","","","","","","0","1","0","","0.8","0.5","0.5","","","0.8","0.2","","","","","","","","","","","","","74","J","0","img/none_selected_demo.jpg","true","0","80_20_practice"
"620","","bandit","29","378589","0.0-19.0-9.0","75320256","wem/bandit_either","AKCH7EGJBNV43","either","3","","","","","","","1","0","0","0.8","","0.5","0.5","","","","","","","0.8","0.2","","","","","","","","","74","J","0","img/none_selected_demo.jpg","true","0","80_20_practice"
"410","","bandit","30","380512","0.0-19.0-10.0","75320256","wem/bandit_either","AKCH7EGJBNV43","either","3","","","","","","","0","1","0","","0.8","0.5","0.5","","","0.8","0.2","","","","","","","","","","","","","74","J","0","img/none_selected_demo.jpg","true","0","80_20_practice"
"437","","bandit","31","382455","0.0-19.0-11.0","75320256","wem/bandit_either","AKCH7EGJBNV43","either","3","","","","","","","0","0","1","","0.8","0.5","0.5","","","0.8","0.2","","","","","","","","","","","","","74","J","0","img/none_selected_demo.jpg","true","0","80_20_practice"
"473","","bandit","32","384433","0.0-19.0-12.0","75320256","wem/bandit_either","AKCH7EGJBNV43","either","3","","","","","","","1","0","0","0.8","","0.5","0.5","","","","","","","0.8","0.2","","","","","","","","","74","J","0","img/none_selected_demo.jpg","true","0","80_20_practice"
"433","","bandit","33","386373","0.0-19.0-13.0","75320256","wem/bandit_either","AKCH7EGJBNV43","either","3","","","","","","","0","1","0","","0.8","0.5","0.5","","","0.8","0.2","","","","","","","","","","","","","74","J","0","img/none_selected_demo.jpg","true","0","80_20_practice"
"513","","bandit","34","388394","0.0-19.0-14.0","75320256","wem/bandit_either","AKCH7EGJBNV43","either","3","","","","","","","1","0","0","0.8","","0.5","0.5","","","","","","","0.8","0.2","","","","","","","","","74","J","0","img/none_selected_demo.jpg","true","0","80_20_practice"
"1229","","bandit","35","391130","0.0-19.0-15.0","75320256","wem/bandit_either","AKCH7EGJBNV43","either","3","","","","","","","0","1","0","","0.8","0.5","0.5","","","0.8","0.2","","","","","","","","","","","","","74","J","0","img/none_selected_demo.jpg","true","0","80_20_practice"
"511","","bandit","36","393153","0.0-19.0-16.0","75320256","wem/bandit_either","AKCH7EGJBNV43","either","3","","","","","","","0","0","1","","0.8","0.5","0.5","","","0.8","0.2","","","","","","","","","","","","","74","J","0","img/none_selected_demo.jpg","true","0","80_20_practice"
"402","","bandit","37","395061","0.0-19.0-17.0","75320256","wem/bandit_either","AKCH7EGJBNV43","either","3","","","","","","","1","0","0","0.8","","0.5","0.5","","","","","","","0.8","0.2","","","","","","","","","74","J","0","img/none_selected_demo.jpg","true","0","80_20_practice"
"510","","bandit","38","397082","0.0-19.0-18.0","75320256","wem/bandit_either","AKCH7EGJBNV43","either","3","","","","","","","0","0","1","0.2","","0.5","0.5","","","","","","","0.8","0.2","","","","","","","","","75","K","1","","true","0","80_20_practice"
"426","","bandit","39","399021","0.0-19.0-19.0","75320256","wem/bandit_either","AKCH7EGJBNV43","either","3","","","","","","","0","1","0","","0.8","0.5","0.5","","","0.8","0.2","","","","","","","","","","","","","74","J","0","img/none_selected_demo.jpg","true","0","80_20_practice"
"4880","","text","40","403902","0.0-20.0","75320256","wem/bandit_either","AKCH7EGJBNV43","either","3","32","","","","","","","","","","","","","","","","","","","","","","","","","","","","","","","","","","",""
"768","","bandit","41","406176","0.0-21.0-0.0","75320256","wem/bandit_either","AKCH7EGJBNV43","either","3","","","","","","","1","0","0","1","0","","","","","0","1","","","1","0","","","","","","","","","74","J","0","img/none_selected_demo.jpg","true","0",""
"9372","","text","42","415551","0.0-22.0","75320256","wem/bandit_either","AKCH7EGJBNV43","either","3","32","","","","","","","","","","","","","","","","","","","","","","","","","","","","","","","","","","",""
"2678","","text","43","418230","0.0-23.0","75320256","wem/bandit_either","AKCH7EGJBNV43","either","3","32","","","","","","","","","","","","","","","","","","","","","","","","","","","","","","","","","","",""
"5071","","text","44","423302","0.0-24.0","75320256","wem/bandit_either","AKCH7EGJBNV43","either","3","32","","","","","","","","","","","","","","","","","","","","","","","","","","","","","","","","","","",""
"3799","","text","45","427104","0.0-25.0","75320256","wem/bandit_either","AKCH7EGJBNV43","either","3","32","","","","","","","","","","","","","","","","","","","","","","","","","","","","","","","","","","",""
"11115","","text","46","438223","0.0-26.0","75320256","wem/bandit_either","AKCH7EGJBNV43","either","3","32","","","","","","","","","","","","","","","","","","","","","","","","","","","","","","","","","","",""
"5225","","text","47","443450","0.0-27.0","75320256","wem/bandit_either","AKCH7EGJBNV43","either","3","32","","","","","","","","","","","","","","","","","","","","","","","","","","","","","","","","","","",""
"6013","","text","48","449467","0.0-28.0","75320256","wem/bandit_either","AKCH7EGJBNV43","either","3","32","","","","","","","","","","","","","","","","","","","","","","","","","","","","","","","","","","",""
"6541","","text","49","456011","0.0-29.0","75320256","wem/bandit_either","AKCH7EGJBNV43","either","3","32","","","","","","","","","","","","","","","","","","","","","","","","","","","","","","","","","","",""
"6790","","text","50","462803","0.0-30.0","75320256","wem/bandit_either","AKCH7EGJBNV43","either","3","32","","","","","","","","","","","","","","","","","","","","","","","","","","","","","","","","","","",""
"2608","","text","51","465414","0.0-31.0","75320256","wem/bandit_either","AKCH7EGJBNV43","either","3","32","","","","","","","","","","","","","","","","","","","","","","","","","","","","","","","","","","",""
"5758","","text","52","471174","0.0-32.0","75320256","wem/bandit_either","AKCH7EGJBNV43","either","3","32","","","","","","","","","","","","","","","","","","","","","","","","","","","","","","","","","","",""
"1254","","bandit","53","473934","0.0-33.0-0.0","75320256","wem/bandit_either","AKCH7EGJBNV43","either","3","","","","","","","0","0","1","0.8","","0.5","0.5","0.5","0.5","","","","","0.8","0.2","0.6","0.2","","","","","","","72","H","0","img/none_selected.jpg","true","0","full_practice"
"749","","bandit","54","476191","0.0-33.0-1.0","75320256","wem/bandit_either","AKCH7EGJBNV43","either","3","","","","","","","1","0","0","0.2","","0.5","0.5","0.5","0.5","","","","","0.8","0.2","0.6","0.2","","","","","","","74","J","1","","true","0","full_practice"
"684","","bandit","55","478382","0.0-33.0-2.0","75320256","wem/bandit_either","AKCH7EGJBNV43","either","3","","","","","","","0","0","1","","0.2","0.5","0.5","0.5","0.5","0.8","0.2","0.6","0.2","","","","","","","","","","","74","J","1","","true","0","full_practice"
"420","","bandit","56","480312","0.0-33.0-3.0","75320256","wem/bandit_either","AKCH7EGJBNV43","either","3","","","","","","","1","0","0","0.6","","0.5","0.5","0.5","0.5","","","","","0.8","0.2","0.6","0.2","","","","","","","75","K","2","","true","0","full_practice"
"307","","bandit","57","482130","0.0-33.0-4.0","75320256","wem/bandit_either","AKCH7EGJBNV43","either","3","","","","","","","0","0","1","0.2","","0.5","0.5","0.5","0.5","","","","","0.8","0.2","0.6","0.2","","","","","","","76","L","3","","true","0","full_practice"
"363","","bandit","58","484003","0.0-33.0-5.0","75320256","wem/bandit_either","AKCH7EGJBNV43","either","3","","","","","","","0","1","0","","0.6","0.5","0.5","0.5","0.5","0.8","0.2","0.6","0.2","","","","","","","","","","","75","K","2","","true","0","full_practice"
"439","","bandit","59","485950","0.0-33.0-6.0","75320256","wem/bandit_either","AKCH7EGJBNV43","either","3","","","","","","","0","1","0","","0.6","0.5","0.5","0.5","0.5","0.8","0.2","0.6","0.2","","","","","","","","","","","75","K","2","","true","0","full_practice"
"394","","bandit","60","487850","0.0-33.0-7.0","75320256","wem/bandit_either","AKCH7EGJBNV43","either","3","","","","","","","0","0","1","0.6","","0.5","0.5","0.5","0.5","","","","","0.8","0.2","0.6","0.2","","","","","","","75","K","2","","true","0","full_practice"
"320","","bandit","61","489677","0.0-33.0-8.0","75320256","wem/bandit_either","AKCH7EGJBNV43","either","3","","","","","","","0","0","1","","0.2","0.5","0.5","0.5","0.5","0.8","0.2","0.6","0.2","","","","","","","","","","","74","J","1","","true","0","full_practice"
"388","","bandit","62","491573","0.0-33.0-9.0","75320256","wem/bandit_either","AKCH7EGJBNV43","either","3","","","","","","","0","0","1","0.2","","0.5","0.5","0.5","0.5","","","","","0.8","0.2","0.6","0.2","","","","","","","74","J","1","","true","0","full_practice"
"200","","bandit","63","493283","0.0-33.0-10.0","75320256","wem/bandit_either","AKCH7EGJBNV43","either","3","","","","","","","1","0","0","0.8","","0.5","0.5","0.5","0.5","","","","","0.8","0.2","0.6","0.2","","","","","","","72","H","0","img/none_selected.jpg","true","0","full_practice"
"427","","bandit","64","495216","0.0-33.0-11.0","75320256","wem/bandit_either","AKCH7EGJBNV43","either","3","","","","","","","1","0","0","0.8","","0.5","0.5","0.5","0.5","","","","","0.8","0.2","0.6","0.2","","","","","","","72","H","0","img/none_selected.jpg","true","0","full_practice"
"426","","bandit","65","497149","0.0-33.0-12.0","75320256","wem/bandit_either","AKCH7EGJBNV43","either","3","","","","","","","1","0","0","0.8","","0.5","0.5","0.5","0.5","","","","","0.8","0.2","0.6","0.2","","","","","","","72","H","0","img/none_selected.jpg","true","0","full_practice"
"418","","bandit","66","499074","0.0-33.0-13.0","75320256","wem/bandit_either","AKCH7EGJBNV43","either","3","","","","","","","1","0","0","0.8","","0.5","0.5","0.5","0.5","","","","","0.8","0.2","0.6","0.2","","","","","","","72","H","0","img/none_selected.jpg","true","0","full_practice"
"389","","bandit","67","500975","0.0-33.0-14.0","75320256","wem/bandit_either","AKCH7EGJBNV43","either","3","","","","","","","0","1","0","","0.8","0.5","0.5","0.5","0.5","0.8","0.2","0.6","0.2","","","","","","","","","","","72","H","0","img/none_selected.jpg","true","0","full_practice"
"313","","bandit","68","502797","0.0-33.0-15.0","75320256","wem/bandit_either","AKCH7EGJBNV43","either","3","","","","","","","0","1","0","","0.8","0.5","0.5","0.5","0.5","0.8","0.2","0.6","0.2","","","","","","","","","","","72","H","0","img/none_selected.jpg","true","0","full_practice"
"368","","bandit","69","504673","0.0-33.0-16.0","75320256","wem/bandit_either","AKCH7EGJBNV43","either","3","","","","","","","1","0","0","0.8","","0.5","0.5","0.5","0.5","","","","","0.8","0.2","0.6","0.2","","","","","","","72","H","0","img/none_selected.jpg","true","0","full_practice"
"330","","bandit","70","506513","0.0-33.0-17.0","75320256","wem/bandit_either","AKCH7EGJBNV43","either","3","","","","","","","1","0","0","0.8","","0.5","0.5","0.5","0.5","","","","","0.8","0.2","0.6","0.2","","","","","","","72","H","0","img/none_selected.jpg","true","0","full_practice"
"317","","bandit","71","508338","0.0-33.0-18.0","75320256","wem/bandit_either","AKCH7EGJBNV43","either","3","","","","","","","1","0","0","0.8","","0.5","0.5","0.5","0.5","","","","","0.8","0.2","0.6","0.2","","","","","","","72","H","0","img/none_selected.jpg","true","0","full_practice"
"368","","bandit","72","510213","0.0-33.0-19.0","75320256","wem/bandit_either","AKCH7EGJBNV43","either","3","","","","","","","1","0","0","0.8","","0.5","0.5","0.5","0.5","","","","","0.8","0.2","0.6","0.2","","","","","","","72","H","0","img/none_selected.jpg","true","0","full_practice"
"4139","","text","73","514358","0.0-34.0","75320256","wem/bandit_either","AKCH7EGJBNV43","either","3","32","","","","","","","","","","","","","","","","","","","","","","","","","","","","","","","","","","",""
"26347","","text","74","541709","0.0-35.0","75320256","wem/bandit_either","AKCH7EGJBNV43","either","3","32","","","","","","","","","","","","","","","","","","","","","","","","","","","","","","","","","","",""
"15805","","text","75","557517","0.0-36.0","75320256","wem/bandit_either","AKCH7EGJBNV43","either","3","32","","","","","","","","","","","","","","","","","","","","","","","","","","","","","","","","","","",""
"23404","","text","76","580925","0.0-37.0","75320256","wem/bandit_either","AKCH7EGJBNV43","either","3","32","","","","","","","","","","","","","","","","","","","","","","","","","","","","","","","","","","",""
"24646","","text","77","605574","0.0-38.0","75320256","wem/bandit_either","AKCH7EGJBNV43","either","3","32","","","","","","","","","","","","","","","","","","","","","","","","","","","","","","","","","","",""
"9625","","text","78","615201","0.0-39.0","75320256","wem/bandit_either","AKCH7EGJBNV43","either","3","32","","","","","","","","","","","","","","","","","","","","","","","","","","","","","","","","","","",""
"908","","bandit","79","617617","0.0-40.0-0.0","75320256","wem/bandit_either","AKCH7EGJBNV43","either","3","","","","","","","0","0","1","","0.07685641067","0.6","0.8","0.2","0.4","0.07685641067","0.1426046982","0.4870892339","0.1646489015","","","","","","","","","","","72","H","0","img/none_selected.jpg","","1","main_expt"
"384","","bandit","80","619508","0.0-41.0-0.0","75320256","wem/bandit_either","AKCH7EGJBNV43","either","3","","","","","","","0","0","1","0.1597004976","","0.6","0.8","0.2","0.4","","","","","0.08388143876","0.1597004976","0.4875162112","0.2180431119","","","","","","","74","J","1","","","2","main_expt"
"317","","bandit","81","621332","0.0-42.0-0.0","75320256","wem/bandit_either","AKCH7EGJBNV43","either","3","","","","","","","0","0","1","","0.4909945117","0.6","0.8","0.2","0.4","0.06528774038","0.1381850853","0.4909945117","0.2294217256","","","","","","","","","","","75","K","2","","","3","main_expt"
"1","","bandit","82","622841","0.0-43.0-0.0","75320256","wem/bandit_either","AKCH7EGJBNV43","either","3","","","","","","","0","0","1","","0.2162119515","0.6","0.8","0.2","0.4","0.07987899881","0.1787932262","0.482579304","0.2162119515","","","","","","","","","","","76","L","3","","","4","main_expt"
"368","","bandit","83","624716","0.0-44.0-0.0","75320256","wem/bandit_either","AKCH7EGJBNV43","either","3","","","","","","","0","0","1","0.4887913002","","0.6","0.8","0.2","0.4","","","","","0.0432391811","0.1795032464","0.4887913002","0.2246316054","","","","","","","75","K","2","","","5","main_expt"
"73","","bandit","84","626296","0.0-45.0-0.0","75320256","wem/bandit_either","AKCH7EGJBNV43","either","3","","","","","","","0","0","1","","0.164375756","0.6","0.8","0.2","0.4","0.03467601655","0.164375756","0.4887860333","0.2061018479","","","","","","","","","","","74","J","1","","","6","main_expt"
"611","","bandit","85","628415","0.0-46.0-0.0","75320256","wem/bandit_either","AKCH7EGJBNV43","either","3","","","","","","","0","0","1","0.05033951668","","0.6","0.8","0.2","0.4","","","","","0.05033951668","0.204957223","0.4901971563","0.1795347326","","","","","","","72","H","0","img/none_selected.jpg","","7","main_expt"
"574","","bandit","86","630495","0.0-47.0-0.0","75320256","wem/bandit_either","AKCH7EGJBNV43","either","3","","","","","","","0","0","1","","0.07676355645","0.6","0.8","0.2","0.4","0.07676355645","0.2162036531","0.4862230721","0.1290452752","","","","","","","","","","","72","H","0","img/none_selected.jpg","","8","main_expt"
"426","","bandit","87","632428","0.0-48.0-0.0","75320256","wem/bandit_either","AKCH7EGJBNV43","either","3","","","","","","","0","0","1","0.2167418122","","0.6","0.8","0.2","0.4","","","","","0.08620859221","0.2167418122","0.4759730645","0.1559184374","","","","","","","74","J","1","","","9","main_expt"
"389","","bandit","88","634325","0.0-49.0-0.0","75320256","wem/bandit_either","AKCH7EGJBNV43","either","3","","","","","","","0","0","1","","0.4560980466","0.6","0.8","0.2","0.4","0.1103839657","0.1607923637","0.4560980466","0.1381514788","","","","","","","","","","","75","K","2","","","10","main_expt"
"287","","bandit","89","636119","0.0-50.0-0.0","75320256","wem/bandit_either","AKCH7EGJBNV43","either","3","","","","","","","0","0","1","","0.1271140015","0.6","0.8","0.2","0.4","0.1334948588","0.1386410957","0.4775116046","0.1271140015","","","","","","","","","","","76","L","3","","","11","main_expt"
"426","","bandit","90","638053","0.0-51.0-0.0","75320256","wem/bandit_either","AKCH7EGJBNV43","either","3","","","","","","","0","0","1","","0.1854664659","0.6","0.8","0.2","0.4","0.1535602519","0.1718380738","0.4705073552","0.1854664659","","","","","","","","","","","76","L","3","","","12","main_expt"
"362","","bandit","91","639921","0.0-52.0-0.0","75320256","wem/bandit_either","AKCH7EGJBNV43","either","3","","","","","","","0","0","1","","0.4851887342","0.6","0.8","0.2","0.4","0.127854239","0.1686303413","0.4851887342","0.1869952656","","","","","","","","","","","75","K","2","","","13","main_expt"
"365","","bandit","92","641795","0.0-53.0-0.0","75320256","wem/bandit_either","AKCH7EGJBNV43","either","3","","","","","","","0","0","1","","0.1460019496","0.6","0.8","0.2","0.4","0.1507911491","0.1460019496","0.4731273917","0.2035171393","","","","","","","","","","","74","J","1","","","14","main_expt"
"390","","bandit","93","643691","0.0-54.0-0.0","75320256","wem/bandit_either","AKCH7EGJBNV43","either","3","","","","","","","0","0","1","0.1741212098","","0.6","0.8","0.2","0.4","","","","","0.1741212098","0.1667614464","0.4585867004","0.2800299461","","","","","","","72","H","0","img/none_selected.jpg","","15","main_expt"
"402","","bandit","94","645599","0.0-55.0-0.0","75320256","wem/bandit_either","AKCH7EGJBNV43","either","3","","","","","","","0","1","0","","0.1918308831","0.6","0.8","0.2","0.4","0.1918308831","0.1973644546","0.4366533258","0.2725454461","","","","","","","","","","","72","H","0","img/none_selected.jpg","","16","main_expt"
"402","","bandit","95","647507","0.0-56.0-0.0","75320256","wem/bandit_either","AKCH7EGJBNV43","either","3","","","","","","","0","0","1","0.1950212473","","0.6","0.8","0.2","0.4","","","","","0.1950212473","0.1873415792","0.4405228744","0.1570621471","","","","","","","72","H","0","img/none_selected.jpg","","17","main_expt"
"406","","bandit","96","649421","0.0-57.0-0.0","75320256","wem/bandit_either","AKCH7EGJBNV43","either","3","","","","","","","0","0","1","0.2094813194","","0.6","0.8","0.2","0.4","","","","","0.2094813194","0.1875860444","0.4678551263","0.1968188506","","","","","","","72","H","0","img/none_selected.jpg","","18","main_expt"
"387","","bandit","97","651316","0.0-58.0-0.0","75320256","wem/bandit_either","AKCH7EGJBNV43","either","3","","","","","","","0","0","1","","0.2628959394","0.6","0.8","0.2","0.4","0.2628959394","0.1988439388","0.466140525","0.2439518204","","","","","","","","","","","72","H","0","img/none_selected.jpg","","19","main_expt"
"201","","bandit","98","653023","0.0-59.0-0.0","75320256","wem/bandit_either","AKCH7EGJBNV43","either","3","","","","","","","0","0","1","","0.1813993393","0.6","0.8","0.2","0.4","0.2116504525","0.1813993393","0.4094087999","0.2806117898","","","","","","","","","","","74","J","1","","","20","main_expt"
"359","","bandit","99","654892","0.0-60.0-0.0","75320256","wem/bandit_either","AKCH7EGJBNV43","either","3","","","","","","","0","0","1","","0.1904426465","0.6","0.8","0.2","0.4","0.1904426465","0.2012004452","0.4386974508","0.2658005831","","","","","","","","","","","72","H","0","img/none_selected.jpg","","21","main_expt"
"297","","bandit","100","656696","0.0-61.0-0.0","75320256","wem/bandit_either","AKCH7EGJBNV43","either","3","","","","","","","0","1","0","","0.1958646163","0.6","0.8","0.2","0.4","0.1581796968","0.1958646163","0.4505723784","0.2774390086","","","","","","","","","","","74","J","1","","","22","main_expt"
"392","","bandit","101","658596","0.0-62.0-0.0","75320256","wem/bandit_either","AKCH7EGJBNV43","either","3","","","","","","","0","0","1","0.2626819079","","0.6","0.8","0.2","0.4","","","","","0.2039009352","0.2626819079","0.4568000239","0.2795917474","","","","","","","74","J","1","","","23","main_expt"
"389","","bandit","102","660491","0.0-63.0-0.0","75320256","wem/bandit_either","AKCH7EGJBNV43","either","3","","","","","","","0","0","1","","0.4518339256","0.6","0.8","0.2","0.4","0.228339491","0.2906682881","0.4518339256","0.2981059477","","","","","","","","","","","75","K","2","","","24","main_expt"
"273","","bandit","103","662271","0.0-64.0-0.0","75320256","wem/bandit_either","AKCH7EGJBNV43","either","3","","","","","","","0","0","1","0.3270173502","","0.6","0.8","0.2","0.4","","","","","0.2602465224","0.3270173502","0.4120159309","0.3272059922","","","","","","","74","J","1","","","25","main_expt"
"70","","bandit","104","663847","0.0-65.0-0.0","75320256","wem/bandit_either","AKCH7EGJBNV43","either","3","","","","","","","0","0","1","","0.4134154185","0.6","0.8","0.2","0.4","0.1939420306","0.2951289915","0.4134154185","0.3369826645","","","","","","","","","","","75","K","2","","","26","main_expt"
"429","","bandit","105","665783","0.0-66.0-0.0","75320256","wem/bandit_either","AKCH7EGJBNV43","either","3","","","","","","","0","0","1","0.2531212506","","0.6","0.8","0.2","0.4","","","","","0.2387331149","0.3520126272","0.4031068294","0.2531212506","","","","","","","76","L","3","","","27","main_expt"
"215","","bandit","106","667512","0.0-67.0-0.0","75320256","wem/bandit_either","AKCH7EGJBNV43","either","3","","","","","","","0","0","1","0.2170461037","","0.6","0.8","0.2","0.4","","","","","0.2183458617","0.3369287003","0.4305883772","0.2170461037","","","","","","","76","L","3","","","28","main_expt"
"156","","bandit","107","669176","0.0-68.0-0.0","75320256","wem/bandit_either","AKCH7EGJBNV43","either","3","","","","","","","1","0","0","0.4383329838","","0.6","0.8","0.2","0.4","","","","","0.2151501268","0.3591799128","0.4383329838","0.2346211465","","","","","","","75","K","2","","","29","main_expt"
"383","","bandit","108","671067","0.0-69.0-0.0","75320256","wem/bandit_either","AKCH7EGJBNV43","either","3","","","","","","","0","1","0","","0.4233276099","0.6","0.8","0.2","0.4","0.2267233056","0.3324285477","0.4233276099","0.2450860663","","","","","","","","","","","75","K","2","","","30","main_expt"
"364","","bandit","109","672939","0.0-70.0-0.0","75320256","wem/bandit_either","AKCH7EGJBNV43","either","3","","","","","","","0","0","1","","0.4016185005","0.6","0.8","0.2","0.4","0.2663701676","0.327032362","0.4016185005","0.2141169407","","","","","","","","","","","75","K","2","","","31","main_expt"
"392","","bandit","110","674839","0.0-71.0-0.0","75320256","wem/bandit_either","AKCH7EGJBNV43","either","3","","","","","","","0","0","1","","0.4134940178","0.6","0.8","0.2","0.4","0.275969473","0.3230905041","0.4134940178","0.2347854155","","","","","","","","","","","75","K","2","","","32","main_expt"
"385","","bandit","111","676731","0.0-72.0-0.0","75320256","wem/bandit_either","AKCH7EGJBNV43","either","3","","","","","","","0","1","0","","0.4331174495","0.6","0.8","0.2","0.4","0.3365270118","0.2969008969","0.4331174495","0.246596708","","","","","","","","","","","75","K","2","","","33","main_expt"
"482","","bandit","112","678719","0.0-73.0-0.0","75320256","wem/bandit_either","AKCH7EGJBNV43","either","3","","","","","","","0","0","1","","0.4454497031","0.6","0.8","0.2","0.4","0.2916301021","0.2536392951","0.4454497031","0.1914370393","","","","","","","","","","","75","K","2","","","34","main_expt"
"412","","bandit","113","680639","0.0-74.0-0.0","75320256","wem/bandit_either","AKCH7EGJBNV43","either","3","","","","","","","1","0","0","0.4419706984","","0.6","0.8","0.2","0.4","","","","","0.3236538836","0.2336030597","0.4419706984","0.1408207185","","","","","","","75","K","2","","","35","main_expt"
"401","","bandit","114","682548","0.0-75.0-0.0","75320256","wem/bandit_either","AKCH7EGJBNV43","either","3","","","","","","","0","1","0","","0.4205940312","0.6","0.8","0.2","0.4","0.3317439785","0.3110392291","0.4205940312","0.09539735145","","","","","","","","","","","75","K","2","","","36","main_expt"
"405","","bandit","115","684463","0.0-76.0-0.0","75320256","wem/bandit_either","AKCH7EGJBNV43","either","3","","","","","","","0","0","1","","0.4227305347","0.6","0.8","0.2","0.4","0.3620900841","0.3354302382","0.4227305347","0.08867332122","","","","","","","","","","","75","K","2","","","37","main_expt"
"436","","bandit","116","686411","0.0-77.0-0.0","75320256","wem/bandit_either","AKCH7EGJBNV43","either","3","","","","","","","0","0","1","","0.3904174821","0.6","0.8","0.2","0.4","0.3649119955","0.3359947902","0.3904174821","0.0804097964","","","","","","","","","","","75","K","2","","","38","main_expt"
"419","","bandit","117","688339","0.0-78.0-0.0","75320256","wem/bandit_either","AKCH7EGJBNV43","either","3","","","","","","","0","0","1","","0.3704092514","0.6","0.8","0.2","0.4","0.3993258453","0.3719467902","0.3704092514","0.1092906338","","","","","","","","","","","75","K","2","","","39","main_expt"
"330","","bandit","118","690179","0.0-79.0-0.0","75320256","wem/bandit_either","AKCH7EGJBNV43","either","3","","","","","","","0","0","1","","0.3250394812","0.6","0.8","0.2","0.4","0.43145226","0.37180955","0.3250394812","0.08771014895","","","","","","","","","","","75","K","2","","","40","main_expt"
"353","","bandit","119","692039","0.0-80.0-0.0","75320256","wem/bandit_either","AKCH7EGJBNV43","either","3","","","","","","","0","0","1","0.3972707938","","0.6","0.8","0.2","0.4","","","","","0.3925837484","0.3972707938","0.3633775572","0.1065106481","","","","","","","74","J","1","","","41","main_expt"
"433","","bandit","120","693980","0.0-81.0-0.0","75320256","wem/bandit_either","AKCH7EGJBNV43","either","3","","","","","","","1","0","0","0.3981555674","","0.6","0.8","0.2","0.4","","","","","0.4020613291","0.3981555674","0.3708570881","0.0926848955","","","","","","","74","J","1","","","42","main_expt"
"423","","bandit","121","695911","0.0-82.0-0.0","75320256","wem/bandit_either","AKCH7EGJBNV43","either","3","","","","","","","1","0","0","0.3698022864","","0.6","0.8","0.2","0.4","","","","","0.4199094288","0.3698022864","0.3852030547","0.09213729174","","","","","","","74","J","1","","","43","main_expt"
"475","","bandit","122","697894","0.0-83.0-0.0","75320256","wem/bandit_either","AKCH7EGJBNV43","either","3","","","","","","","0","0","1","","0.3278340923","0.6","0.8","0.2","0.4","0.4362917367","0.3278340923","0.3653477133","0.0950319608","","","","","","","","","","","74","J","1","","","44","main_expt"
"523","","bandit","123","699927","0.0-84.0-0.0","75320256","wem/bandit_either","AKCH7EGJBNV43","either","3","","","","","","","0","1","0","","0.4004869948","0.6","0.8","0.2","0.4","0.4310393502","0.4004869948","0.3423722135","0.07917944011","","","","","","","","","","","74","J","1","","","45","main_expt"
"412","","bandit","124","701847","0.0-85.0-0.0","75320256","wem/bandit_either","AKCH7EGJBNV43","either","3","","","","","","","0","1","0","","0.4389658195","0.6","0.8","0.2","0.4","0.4301719659","0.4389658195","0.2713785315","0.08528552535","","","","","","","","","","","74","J","1","","","46","main_expt"
"384","","bandit","125","703739","0.0-86.0-0.0","75320256","wem/bandit_either","AKCH7EGJBNV43","either","3","","","","","","","0","0","1","0.4294918489","","0.6","0.8","0.2","0.4","","","","","0.4274268526","0.4294918489","0.2675382036","0.08303267599","","","","","","","74","J","1","","","47","main_expt"
"385","","bandit","126","705632","0.0-87.0-0.0","75320256","wem/bandit_either","AKCH7EGJBNV43","either","3","","","","","","","1","0","0","0.3948346084","","0.6","0.8","0.2","0.4","","","","","0.4559220927","0.3948346084","0.3006553151","0.1183490009","","","","","","","74","J","1","","","48","main_expt"
"467","","bandit","127","707608","0.0-88.0-0.0","75320256","wem/bandit_either","AKCH7EGJBNV43","either","3","","","","","","","0","0","1","0.4226663974","","0.6","0.8","0.2","0.4","","","","","0.4362936898","0.4226663974","0.2865645246","0.09831357925","","","","","","","74","J","1","","","49","main_expt"
"392","","bandit","128","709507","0.0-89.0-0.0","75320256","wem/bandit_either","AKCH7EGJBNV43","either","3","","","","","","","0","0","1","0.3943232949","","0.6","0.8","0.2","0.4","","","","","0.4001593617","0.3943232949","0.2842330123","0.0896163698","","","","","","","74","J","1","","","50","main_expt"
"327","","bandit","129","711343","0.0-90.0-0.0","75320256","wem/bandit_either","AKCH7EGJBNV43","either","3","","","","","","","1","0","0","0.3911898034","","0.6","0.8","0.2","0.4","","","","","0.3737598101","0.3911898034","0.2933637591","0.08239790895","","","","","","","74","J","1","","","51","main_expt"
"413","","bandit","130","713270","0.0-91.0-0.0","75320256","wem/bandit_either","AKCH7EGJBNV43","either","3","","","","","","","0","0","1","0.3897106723","","0.6","0.8","0.2","0.4","","","","","0.3490564905","0.3897106723","0.2802127762","0.06509061927","","","","","","","74","J","1","","","52","main_expt"
"373","","bandit","131","715151","0.0-92.0-0.0","75320256","wem/bandit_either","AKCH7EGJBNV43","either","3","","","","","","","0","0","1","","0.3977919118","0.6","0.8","0.2","0.4","0.3606416198","0.3977919118","0.2567133084","0.05503049918","","","","","","","","","","","74","J","1","","","53","main_expt"
"410","","bandit","132","717072","0.0-93.0-0.0","75320256","wem/bandit_either","AKCH7EGJBNV43","either","3","","","","","","","0","0","1","","0.3803623479","0.6","0.8","0.2","0.4","0.3920172378","0.3803623479","0.304436262","0.06606451817","","","","","","","","","","","74","J","1","","","54","main_expt"
"227","","bandit","133","718810","0.0-94.0-0.0","75320256","wem/bandit_either","AKCH7EGJBNV43","either","3","","","","","","","0","0","1","","0.3050376594","0.6","0.8","0.2","0.4","0.3841867886","0.3898030924","0.3050376594","0.0812436444","","","","","","","","","","","75","K","2","","","55","main_expt"
"380","","bandit","134","720699","0.0-95.0-0.0","75320256","wem/bandit_either","AKCH7EGJBNV43","either","3","","","","","","","0","0","1","0.2874076515","","0.6","0.8","0.2","0.4","","","","","0.3752679739","0.4332266089","0.2874076515","0.05752214818","","","","","","","75","K","2","","","56","main_expt"
"381","","bandit","135","722587","0.0-96.0-0.0","75320256","wem/bandit_either","AKCH7EGJBNV43","either","3","","","","","","","0","0","1","","0.2633226407","0.6","0.8","0.2","0.4","0.3595388075","0.4598680415","0.2633226407","0.05957573693","","","","","","","","","","","75","K","2","","","57","main_expt"
"280","","bandit","136","724375","0.0-97.0-0.0","75320256","wem/bandit_either","AKCH7EGJBNV43","either","3","","","","","","","0","0","1","0.2926617498","","0.6","0.8","0.2","0.4","","","","","0.2926617498","0.4510058242","0.282557186","0.08347810371","","","","","","","72","H","0","img/none_selected.jpg","","58","main_expt"
"293","","bandit","137","726179","0.0-98.0-0.0","75320256","wem/bandit_either","AKCH7EGJBNV43","either","3","","","","","","","0","0","1","","0.2854140482","0.6","0.8","0.2","0.4","0.2854140482","0.4587464736","0.2675679041","0.1166757522","","","","","","","","","","","72","H","0","img/none_selected.jpg","","59","main_expt"
"346","","bandit","138","728035","0.0-99.0-0.0","75320256","wem/bandit_either","AKCH7EGJBNV43","either","3","","","","","","","0","0","1","0.2767785787","","0.6","0.8","0.2","0.4","","","","","0.2767785787","0.4534111386","0.2654645802","0.1223048521","","","","","","","72","H","0","img/none_selected.jpg","","60","main_expt"
"440","","bandit","139","729983","0.0-100.0-0.0","75320256","wem/bandit_either","AKCH7EGJBNV43","either","3","","","","","","","1","0","0","0.3110110239","","0.6","0.8","0.2","0.4","","","","","0.3110110239","0.4581751116","0.2326588137","0.1341525672","","","","","","","72","H","0","img/none_selected.jpg","","61","main_expt"
"376","","bandit","140","731867","0.0-101.0-0.0","75320256","wem/bandit_either","AKCH7EGJBNV43","either","3","","","","","","","0","0","1","0.2739379344","","0.6","0.8","0.2","0.4","","","","","0.2739379344","0.4447189615","0.2430345153","0.1748443247","","","","","","","72","H","0","img/none_selected.jpg","","62","main_expt"
"404","","bandit","141","733779","0.0-102.0-0.0","75320256","wem/bandit_either","AKCH7EGJBNV43","either","3","","","","","","","0","0","1","","0.2518438402","0.6","0.8","0.2","0.4","0.2518438402","0.4351057758","0.2682261916","0.1872250423","","","","","","","","","","","72","H","0","img/none_selected.jpg","","63","main_expt"
"438","","bandit","142","735727","0.0-103.0-0.0","75320256","wem/bandit_either","AKCH7EGJBNV43","either","3","","","","","","","0","0","1","0.4559228662","","0.6","0.8","0.2","0.4","","","","","0.216118181","0.4559228662","0.3136585585","0.1592276408","","","","","","","74","J","1","","","64","main_expt"
"413","","bandit","143","737646","0.0-104.0-0.0","75320256","wem/bandit_either","AKCH7EGJBNV43","either","3","","","","","","","1","0","0","0.4526438492","","0.6","0.8","0.2","0.4","","","","","0.1961712117","0.4526438492","0.3208042698","0.1881419285","","","","","","","74","J","1","","","65","main_expt"
"390","","bandit","144","739548","0.0-105.0-0.0","75320256","wem/bandit_either","AKCH7EGJBNV43","either","3","","","","","","","0","0","1","0.4604690516","","0.6","0.8","0.2","0.4","","","","","0.1821057022","0.4604690516","0.3550213758","0.2075830042","","","","","","","74","J","1","","","66","main_expt"
"920","","bandit","145","741974","0.0-106.0-0.0","75320256","wem/bandit_either","AKCH7EGJBNV43","either","3","","","","","","","0","0","1","0.4479534522","","0.6","0.8","0.2","0.4","","","","","0.2221692745","0.4479534522","0.2883445083","0.210321401","","","","","","","74","J","1","","","67","main_expt"
"416","","bandit","146","743899","0.0-107.0-0.0","75320256","wem/bandit_either","AKCH7EGJBNV43","either","3","","","","","","","1","0","0","0.4420076102","","0.6","0.8","0.2","0.4","","","","","0.2385328342","0.4420076102","0.2492112051","0.1740681144","","","","","","","74","J","1","","","68","main_expt"
"331","","bandit","147","745739","0.0-108.0-0.0","75320256","wem/bandit_either","AKCH7EGJBNV43","either","3","","","","","","","1","0","0","0.3840886122","","0.6","0.8","0.2","0.4","","","","","0.2693988132","0.3840886122","0.1725364023","0.1495678232","","","","","","","74","J","1","","","69","main_expt"
"379","","bandit","148","747626","0.0-109.0-0.0","75320256","wem/bandit_either","AKCH7EGJBNV43","either","3","","","","","","","0","0","1","0.3764426572","","0.6","0.8","0.2","0.4","","","","","0.2633889128","0.3764426572","0.2081322216","0.1594524764","","","","","","","74","J","1","","","70","main_expt"
"437","","bandit","149","749571","0.0-110.0-0.0","75320256","wem/bandit_either","AKCH7EGJBNV43","either","3","","","","","","","0","0","1","0.3925575972","","0.6","0.8","0.2","0.4","","","","","0.2881785301","0.3925575972","0.2222096595","0.1308665948","","","","","","","74","J","1","","","71","main_expt"
"727","","bandit","150","751807","0.0-111.0-0.0","75320256","wem/bandit_either","AKCH7EGJBNV43","either","3","","","","","","","0","0","1","0.1413665491","","0.6","0.8","0.2","0.4","","","","","0.3496752211","0.4055717031","0.2276413934","0.1413665491","","","","","","","76","L","3","","","72","main_expt"
"526","","bandit","151","753842","0.0-112.0-0.0","75320256","wem/bandit_either","AKCH7EGJBNV43","either","3","","","","","","","0","0","1","0.1562096843","","0.6","0.8","0.2","0.4","","","","","0.3662649551","0.4313753627","0.202726327","0.1562096843","","","","","","","76","L","3","","","73","main_expt"
"387","","bandit","152","755738","0.0-113.0-0.0","75320256","wem/bandit_either","AKCH7EGJBNV43","either","3","","","","","","","0","0","1","0.1601549975","","0.6","0.8","0.2","0.4","","","","","0.3318597218","0.4294283137","0.2465356434","0.1601549975","","","","","","","76","L","3","","","74","main_expt"
"336","","bandit","153","757585","0.0-114.0-0.0","75320256","wem/bandit_either","AKCH7EGJBNV43","either","3","","","","","","","0","0","1","","0.2780880013","0.6","0.8","0.2","0.4","0.3129946244","0.4114775526","0.2780880013","0.1962365409","","","","","","","","","","","75","K","2","","","75","main_expt"
"366","","bandit","154","759459","0.0-115.0-0.0","75320256","wem/bandit_either","AKCH7EGJBNV43","either","3","","","","","","","0","0","1","","0.230570622","0.6","0.8","0.2","0.4","0.3299880354","0.4038916894","0.230570622","0.2315068675","","","","","","","","","","","75","K","2","","","76","main_expt"
"339","","bandit","155","761307","0.0-116.0-0.0","75320256","wem/bandit_either","AKCH7EGJBNV43","either","3","","","","","","","1","0","0","0.4028298088","","0.6","0.8","0.2","0.4","","","","","0.2704336052","0.4028298088","0.1747897532","0.1749603823","","","","","","","74","J","1","","","77","main_expt"
"412","","bandit","156","763226","0.0-117.0-0.0","75320256","wem/bandit_either","AKCH7EGJBNV43","either","3","","","","","","","0","0","1","0.4004321452","","0.6","0.8","0.2","0.4","","","","","0.2489008917","0.4004321452","0.2009150394","0.2091975686","","","","","","","74","J","1","","","78","main_expt"
"418","","bandit","157","765154","0.0-118.0-0.0","75320256","wem/bandit_either","AKCH7EGJBNV43","either","3","","","","","","","0","0","1","0.3909827091","","0.6","0.8","0.2","0.4","","","","","0.2182462247","0.3909827091","0.2090883318","0.2699334682","","","","","","","74","J","1","","","79","main_expt"
"505","","bandit","158","767172","0.0-119.0-0.0","75320256","wem/bandit_either","AKCH7EGJBNV43","either","3","","","","","","","1","0","0","0.4289339141","","0.6","0.8","0.2","0.4","","","","","0.1591694045","0.4289339141","0.215522018","0.2712134299","","","","","","","74","J","1","","","80","main_expt"
"411","","bandit","159","769094","0.0-120.0-0.0","75320256","wem/bandit_either","AKCH7EGJBNV43","either","3","","","","","","","1","0","0","0.4256341571","","0.6","0.8","0.2","0.4","","","","","0.1661146317","0.4256341571","0.2655955182","0.2563236188","","","","","","","74","J","1","","","81","main_expt"
"439","","bandit","160","771042","0.0-121.0-0.0","75320256","wem/bandit_either","AKCH7EGJBNV43","either","3","","","","","","","0","0","1","0.4153375647","","0.6","0.8","0.2","0.4","","","","","0.2249160828","0.4153375647","0.2642342948","0.2474856626","","","","","","","74","J","1","","","82","main_expt"
"426","","bandit","161","772979","0.0-122.0-0.0","75320256","wem/bandit_either","AKCH7EGJBNV43","either","3","","","","","","","0","0","1","","0.2194800234","0.6","0.8","0.2","0.4","0.2194800234","0.4239102097","0.2615040017","0.2338037125","","","","","","","","","","","72","H","0","img/none_selected.jpg","","83","main_expt"
"338","","bandit","162","774839","0.0-123.0-0.0","75320256","wem/bandit_either","AKCH7EGJBNV43","either","3","","","","","","","0","0","1","","0.2020024956","0.6","0.8","0.2","0.4","0.2020024956","0.4021041833","0.3136368113","0.2929655049","","","","","","","","","","","72","H","0","img/none_selected.jpg","","84","main_expt"
"248","","bandit","163","776595","0.0-124.0-0.0","75320256","wem/bandit_either","AKCH7EGJBNV43","either","3","","","","","","","1","0","0","0.4322374594","","0.6","0.8","0.2","0.4","","","","","0.1639230135","0.4322374594","0.2433538552","0.2755572306","","","","","","","74","J","1","","","85","main_expt"
"415","","bandit","164","778518","0.0-125.0-0.0","75320256","wem/bandit_either","AKCH7EGJBNV43","either","3","","","","","","","0","0","1","0.4247618508","","0.6","0.8","0.2","0.4","","","","","0.1423092638","0.4247618508","0.2583740773","0.2706615249","","","","","","","74","J","1","","","86","main_expt"
"366","","bandit","165","780397","0.0-126.0-0.0","75320256","wem/bandit_either","AKCH7EGJBNV43","either","3","","","","","","","0","0","1","","0.1623313408","0.6","0.8","0.2","0.4","0.1623313408","0.4130492334","0.2656778135","0.3259805539","","","","","","","","","","","72","H","0","img/none_selected.jpg","","87","main_expt"
"351","","bandit","166","782259","0.0-127.0-0.0","75320256","wem/bandit_either","AKCH7EGJBNV43","either","3","","","","","","","1","0","0","0.3883747858","","0.6","0.8","0.2","0.4","","","","","0.1459946163","0.3883747858","0.2565525481","0.3471137027","","","","","","","74","J","1","","","88","main_expt"
"398","","bandit","167","784170","0.0-128.0-0.0","75320256","wem/bandit_either","AKCH7EGJBNV43","either","3","","","","","","","1","0","0","0.3950807547","","0.6","0.8","0.2","0.4","","","","","0.1684807643","0.3950807547","0.2471999074","0.3715311126","","","","","","","74","J","1","","","89","main_expt"
"367","","bandit","168","786048","0.0-129.0-0.0","75320256","wem/bandit_either","AKCH7EGJBNV43","either","3","","","","","","","0","0","1","0.420982679","","0.6","0.8","0.2","0.4","","","","","0.1937692241","0.420982679","0.2204199549","0.3571728809","","","","","","","74","J","1","","","90","main_expt"
"209","","bandit","169","787770","0.0-130.0-0.0","75320256","wem/bandit_either","AKCH7EGJBNV43","either","3","","","","","","","0","0","1","","0.2013548925","0.6","0.8","0.2","0.4","0.1670397906","0.4012606491","0.2013548925","0.3348642023","","","","","","","","","","","75","K","2","","","91","main_expt"
"350","","bandit","170","789635","0.0-131.0-0.0","75320256","wem/bandit_either","AKCH7EGJBNV43","either","3","","","","","","","0","0","1","","0.174921714","0.6","0.8","0.2","0.4","0.1936095216","0.3950870333","0.174921714","0.3551195155","","","","","","","","","","","75","K","2","","","92","main_expt"
"336","","bandit","171","791479","0.0-132.0-0.0","75320256","wem/bandit_either","AKCH7EGJBNV43","either","3","","","","","","","0","0","1","","0.1972058505","0.6","0.8","0.2","0.4","0.2399824117","0.3797372222","0.1972058505","0.3494458231","","","","","","","","","","","75","K","2","","","93","main_expt"
"194","","bandit","172","793186","0.0-133.0-0.0","75320256","wem/bandit_either","AKCH7EGJBNV43","either","3","","","","","","","0","0","1","0.3346339076","","0.6","0.8","0.2","0.4","","","","","0.242536602","0.3346339076","0.2144007407","0.3759818745","","","","","","","74","J","1","","","94","main_expt"
"99","","bandit","173","794798","0.0-134.0-0.0","75320256","wem/bandit_either","AKCH7EGJBNV43","either","3","","","","","","","0","1","0","","0.3433005441","0.6","0.8","0.2","0.4","0.3081296623","0.3433005441","0.2025691914","0.3467088588","","","","","","","","","","","74","J","1","","","95","main_expt"
"330","","bandit","174","796642","0.0-135.0-0.0","75320256","wem/bandit_either","AKCH7EGJBNV43","either","3","","","","","","","0","0","1","0.2900415689","","0.6","0.8","0.2","0.4","","","","","0.371766452","0.2900415689","0.1750118246","0.3520186383","","","","","","","74","J","1","","","96","main_expt"
"325","","bandit","175","798476","0.0-136.0-0.0","75320256","wem/bandit_either","AKCH7EGJBNV43","either","3","","","","","","","0","0","1","","0.3136050561","0.6","0.8","0.2","0.4","0.3737721809","0.3136050561","0.2433812568","0.342216001","","","","","","","","","","","74","J","1","","","97","main_expt"
"377","","bandit","176","800362","0.0-137.0-0.0","75320256","wem/bandit_either","AKCH7EGJBNV43","either","3","","","","","","","0","0","1","0.3236610102","","0.6","0.8","0.2","0.4","","","","","0.3662625892","0.3236610102","0.1834100281","0.3775958225","","","","","","","74","J","1","","","98","main_expt"
"124","","bandit","177","801999","0.0-138.0-0.0","75320256","wem/bandit_either","AKCH7EGJBNV43","either","3","","","","","","","0","0","1","0.3912879072","","0.6","0.8","0.2","0.4","","","","","0.3912879072","0.3116662608","0.146161558","0.3490624926","","","","","","","72","H","0","img/none_selected.jpg","","99","main_expt"
"110","","bandit","178","803617","0.0-139.0-0.0","75320256","wem/bandit_either","AKCH7EGJBNV43","either","3","","","","","","","0","0","1","","0.3916888764","0.6","0.8","0.2","0.4","0.3916888764","0.3806420769","0.1186266926","0.3418910903","","","","","","","","","","","72","H","0","img/none_selected.jpg","","100","main_expt"
"379","","bandit","179","805509","0.0-140.0-0.0","75320256","wem/bandit_either","AKCH7EGJBNV43","either","3","","","","","","","1","0","0","0.3803758031","","0.6","0.8","0.2","0.4","","","","","0.3803758031","0.3825052475","0.1467879228","0.3544055354","","","","","","","72","H","0","img/none_selected.jpg","","101","main_expt"
"93","","bandit","180","807117","0.0-141.0-0.0","75320256","wem/bandit_either","AKCH7EGJBNV43","either","3","","","","","","","0","0","1","","0.3685266224","0.6","0.8","0.2","0.4","0.3685266224","0.3799327693","0.1336514036","0.3580864163","","","","","","","","","","","72","H","0","img/none_selected.jpg","","102","main_expt"
"257","","bandit","181","808886","0.0-142.0-0.0","75320256","wem/bandit_either","AKCH7EGJBNV43","either","3","","","","","","","0","0","1","","0.3754978655","0.6","0.8","0.2","0.4","0.3754978655","0.3502018886","0.1325092095","0.336528594","","","","","","","","","","","72","H","0","img/none_selected.jpg","","103","main_expt"
"450","","bandit","182","810845","0.0-143.0-0.0","75320256","wem/bandit_either","AKCH7EGJBNV43","either","3","","","","","","","0","0","1","0.4033056484","","0.6","0.8","0.2","0.4","","","","","0.4033056484","0.3443431466","0.1162839287","0.3190078166","","","","","","","72","H","0","img/none_selected.jpg","","104","main_expt"
"350","","bandit","183","812716","0.0-144.0-0.0","75320256","wem/bandit_either","AKCH7EGJBNV43","either","3","","","","","","","1","0","0","0.3617388181","","0.6","0.8","0.2","0.4","","","","","0.3617388181","0.3551378046","0.115620258","0.3100940773","","","","","","","72","H","0","img/none_selected.jpg","","105","main_expt"
"404","","bandit","184","814629","0.0-145.0-0.0","75320256","wem/bandit_either","AKCH7EGJBNV43","either","3","","","","","","","1","0","0","0.3656875331","","0.6","0.8","0.2","0.4","","","","","0.3656875331","0.3177956882","0.1102569517","0.2964842485","","","","","","","72","H","0","img/none_selected.jpg","","106","main_expt"
"377","","bandit","185","816515","0.0-146.0-0.0","75320256","wem/bandit_either","AKCH7EGJBNV43","either","3","","","","","","","1","0","0","0.3478183852","","0.6","0.8","0.2","0.4","","","","","0.3478183852","0.3463124521","0.110599846","0.3224579283","","","","","","","72","H","0","img/none_selected.jpg","","107","main_expt"
"374","","bandit","186","818402","0.0-147.0-0.0","75320256","wem/bandit_either","AKCH7EGJBNV43","either","3","","","","","","","0","0","1","0.3715517583","","0.6","0.8","0.2","0.4","","","","","0.3715517583","0.330790185","0.1647947233","0.3365568187","","","","","","","72","H","0","img/none_selected.jpg","","108","main_expt"
"364","","bandit","187","820278","0.0-148.0-0.0","75320256","wem/bandit_either","AKCH7EGJBNV43","either","3","","","","","","","0","0","1","0.3713851569","","0.6","0.8","0.2","0.4","","","","","0.3713851569","0.3259779601","0.146095753","0.3200824859","","","","","","","72","H","0","img/none_selected.jpg","","109","main_expt"
"417","","bandit","188","822207","0.0-149.0-0.0","75320256","wem/bandit_either","AKCH7EGJBNV43","either","3","","","","","","","0","0","1","","0.3401672382","0.6","0.8","0.2","0.4","0.3401672382","0.3169053314","0.1691954855","0.3179471713","","","","","","","","","","","72","H","0","img/none_selected.jpg","","110","main_expt"
"608","","bandit","189","824323","0.0-150.0-0.0","75320256","wem/bandit_either","AKCH7EGJBNV43","either","3","","","","","","","0","0","1","0.342138516","","0.6","0.8","0.2","0.4","","","","","0.3242328008","0.342138516","0.1690298198","0.3168158386","","","","","","","74","J","1","","","111","main_expt"
"630","","bandit","190","826463","0.0-151.0-0.0","75320256","wem/bandit_either","AKCH7EGJBNV43","either","3","","","","","","","1","0","0","0.3597886873","","0.6","0.8","0.2","0.4","","","","","0.2991119965","0.3597886873","0.2196992501","0.3551606626","","","","","","","74","J","1","","","112","main_expt"
"526","","bandit","191","828501","0.0-152.0-0.0","75320256","wem/bandit_either","AKCH7EGJBNV43","either","3","","","","","","","0","0","1","","0.3580549124","0.6","0.8","0.2","0.4","0.3364281798","0.3580549124","0.2723467559","0.3615444015","","","","","","","","","","","74","J","1","","","113","main_expt"
"641","","bandit","192","830663","0.0-153.0-0.0","75320256","wem/bandit_either","AKCH7EGJBNV43","either","3","","","","","","","0","0","1","0.3556181037","","0.6","0.8","0.2","0.4","","","","","0.3495122724","0.3556181037","0.2470985199","0.4043222556","","","","","","","74","J","1","","","114","main_expt"
"351","","bandit","193","832538","0.0-154.0-0.0","75320256","wem/bandit_either","AKCH7EGJBNV43","either","3","","","","","","","0","0","1","","0.2482590513","0.6","0.8","0.2","0.4","0.324938203","0.3489042174","0.2482590513","0.4179696435","","","","","","","","","","","75","K","2","","","115","main_expt"
"330","","bandit","194","834378","0.0-155.0-0.0","75320256","wem/bandit_either","AKCH7EGJBNV43","either","3","","","","","","","0","0","1","0.3466245191","","0.6","0.8","0.2","0.4","","","","","0.3227512736","0.3466245191","0.1992012358","0.4324393975","","","","","","","74","J","1","","","116","main_expt"
"390","","bandit","195","836278","0.0-156.0-0.0","75320256","wem/bandit_either","AKCH7EGJBNV43","either","3","","","","","","","0","0","1","0.3581754781","","0.6","0.8","0.2","0.4","","","","","0.2585209305","0.3581754781","0.216355905","0.4290779421","","","","","","","74","J","1","","","117","main_expt"
"527","","bandit","196","838315","0.0-157.0-0.0","75320256","wem/bandit_either","AKCH7EGJBNV43","either","3","","","","","","","0","1","0","","0.4459264202","0.6","0.8","0.2","0.4","0.2817260076","0.283939031","0.1715453935","0.4459264202","","","","","","","","","","","76","L","3","","","118","main_expt"
"419","","bandit","197","840254","0.0-158.0-0.0","75320256","wem/bandit_either","AKCH7EGJBNV43","either","3","","","","","","","0","0","1","0.436995295","","0.6","0.8","0.2","0.4","","","","","0.328214026","0.2992634423","0.1843456939","0.436995295","","","","","","","76","L","3","","","119","main_expt"
"457","","bandit","198","842220","0.0-159.0-0.0","75320256","wem/bandit_either","AKCH7EGJBNV43","either","3","","","","","","","0","1","0","","0.4151314625","0.6","0.8","0.2","0.4","0.3355603121","0.1878150733","0.1848061615","0.4151314625","","","","","","","","","","","76","L","3","","","120","main_expt"
"368","","bandit","199","844101","0.0-160.0-0.0","75320256","wem/bandit_either","AKCH7EGJBNV43","either","3","","","","","","","0","0","1","","0.4384064527","0.6","0.8","0.2","0.4","0.3829587724","0.1447458933","0.1679578636","0.4384064527","","","","","","","","","","","76","L","3","","","121","main_expt"
"370","","bandit","200","845982","0.0-161.0-0.0","75320256","wem/bandit_either","AKCH7EGJBNV43","either","3","","","","","","","0","1","0","","0.4417589501","0.6","0.8","0.2","0.4","0.3995678287","0.1176060398","0.197295971","0.4417589501","","","","","","","","","","","76","L","3","","","122","main_expt"
"425","","bandit","201","847921","0.0-162.0-0.0","75320256","wem/bandit_either","AKCH7EGJBNV43","either","3","","","","","","","1","0","0","0.4017154396","","0.6","0.8","0.2","0.4","","","","","0.3656739583","0.1097677055","0.2184653352","0.4017154396","","","","","","","76","L","3","","","123","main_expt"
"382","","bandit","202","849820","0.0-163.0-0.0","75320256","wem/bandit_either","AKCH7EGJBNV43","either","3","","","","","","","0","1","0","","0.3619070526","0.6","0.8","0.2","0.4","0.3862549257","0.08048168986","0.2147868977","0.3619070526","","","","","","","","","","","76","L","3","","","124","main_expt"
"399","","bandit","203","851730","0.0-164.0-0.0","75320256","wem/bandit_either","AKCH7EGJBNV43","either","3","","","","","","","0","0","1","","0.3567490645","0.6","0.8","0.2","0.4","0.3593796239","0.07842900555","0.1667936559","0.3567490645","","","","","","","","","","","76","L","3","","","125","main_expt"
"465","","bandit","204","853706","0.0-165.0-0.0","75320256","wem/bandit_either","AKCH7EGJBNV43","either","3","","","","","","","0","0","1","0.3558473019","","0.6","0.8","0.2","0.4","","","","","0.3413194209","0.08318363027","0.1453295256","0.3558473019","","","","","","","76","L","3","","","126","main_expt"
"306","","bandit","205","855520","0.0-166.0-0.0","75320256","wem/bandit_either","AKCH7EGJBNV43","either","3","","","","","","","0","0","1","0.3369929262","","0.6","0.8","0.2","0.4","","","","","0.3369929262","0.06812438963","0.1635755653","0.3543069734","","","","","","","72","H","0","img/none_selected.jpg","","127","main_expt"
"263","","bandit","206","857297","0.0-167.0-0.0","75320256","wem/bandit_either","AKCH7EGJBNV43","either","3","","","","","","","0","0","1","0.2922989636","","0.6","0.8","0.2","0.4","","","","","0.2922989636","0.08303766286","0.1872639566","0.3328374851","","","","","","","72","H","0","img/none_selected.jpg","","128","main_expt"
"344","","bandit","207","859153","0.0-168.0-0.0","75320256","wem/bandit_either","AKCH7EGJBNV43","either","3","","","","","","","0","0","1","","0.09047360051","0.6","0.8","0.2","0.4","0.3095146075","0.09047360051","0.2032718864","0.3238683282","","","","","","","","","","","74","J","1","","","129","main_expt"
"215","","bandit","208","860888","0.0-169.0-0.0","75320256","wem/bandit_either","AKCH7EGJBNV43","either","3","","","","","","","0","0","1","0.131542256","","0.6","0.8","0.2","0.4","","","","","0.3068425872","0.131542256","0.2025864764","0.2750329062","","","","","","","74","J","1","","","130","main_expt"
"459","","bandit","209","862859","0.0-170.0-0.0","75320256","wem/bandit_either","AKCH7EGJBNV43","either","3","","","","","","","0","0","1","0.1492019489","","0.6","0.8","0.2","0.4","","","","","0.3112504131","0.1492019489","0.2158584071","0.2751886228","","","","","","","74","J","1","","","131","main_expt"
"29","","bandit","210","864407","0.0-171.0-0.0","75320256","wem/bandit_either","AKCH7EGJBNV43","either","3","","","","","","","0","0","1","","0.2105840197","0.6","0.8","0.2","0.4","0.3595653039","0.1571188116","0.2105840197","0.2729729886","","","","","","","","","","","75","K","2","","","132","main_expt"
"1445","","bandit","211","867370","0.0-172.0-0.0","75320256","wem/bandit_either","AKCH7EGJBNV43","either","3","","","","","","","0","0","1","","0.2328486735","0.6","0.8","0.2","0.4","0.3873527377","0.2021073832","0.2328486735","0.3248088544","","","","","","","","","","","75","K","2","","","133","main_expt"
"281","","bandit","212","869165","0.0-173.0-0.0","75320256","wem/bandit_either","AKCH7EGJBNV43","either","3","","","","","","","0","1","0","","0.3596446835","0.6","0.8","0.2","0.4","0.3973884711","0.2693148074","0.2589092944","0.3596446835","","","","","","","","","","","76","L","3","","","134","main_expt"
"406","","bandit","213","871084","0.0-174.0-0.0","75320256","wem/bandit_either","AKCH7EGJBNV43","either","3","","","","","","","1","0","0","0.318377279","","0.6","0.8","0.2","0.4","","","","","0.4080523157","0.2625780805","0.2637326353","0.318377279","","","","","","","76","L","3","","","135","main_expt"
"473","","bandit","214","873071","0.0-175.0-0.0","75320256","wem/bandit_either","AKCH7EGJBNV43","either","3","","","","","","","0","1","0","","0.3160887017","0.6","0.8","0.2","0.4","0.4176503084","0.2981707722","0.2718680576","0.3160887017","","","","","","","","","","","76","L","3","","","136","main_expt"
"446","","bandit","215","875028","0.0-176.0-0.0","75320256","wem/bandit_either","AKCH7EGJBNV43","either","3","","","","","","","0","0","1","","0.2883225013","0.6","0.8","0.2","0.4","0.3859803947","0.3148158286","0.2919957672","0.2883225013","","","","","","","","","","","76","L","3","","","137","main_expt"
"433","","bandit","216","876972","0.0-177.0-0.0","75320256","wem/bandit_either","AKCH7EGJBNV43","either","3","","","","","","","0","0","1","","0.3009152141","0.6","0.8","0.2","0.4","0.358492916","0.3111523267","0.3193993407","0.3009152141","","","","","","","","","","","76","L","3","","","138","main_expt"
"274","","bandit","217","878761","0.0-178.0-0.0","75320256","wem/bandit_either","AKCH7EGJBNV43","either","3","","","","","","","0","0","1","","0.293720077","0.6","0.8","0.2","0.4","0.3608756281","0.3034593298","0.3404434035","0.293720077","","","","","","","","","","","76","L","3","","","139","main_expt"
"23","","bandit","218","880293","0.0-179.0-0.0","75320256","wem/bandit_either","AKCH7EGJBNV43","either","3","","","","","","","0","0","1","0.3421836092","","0.6","0.8","0.2","0.4","","","","","0.3421836092","0.2507495005","0.3278052243","0.286059761","","","","","","","72","H","0","img/none_selected.jpg","","140","main_expt"
"1129","","bandit","219","882933","0.0-180.0-0.0","75320256","wem/bandit_either","AKCH7EGJBNV43","either","3","","","","","","","1","0","0","0.3737340371","","0.6","0.8","0.2","0.4","","","","","0.3737340371","0.2220694513","0.3038906839","0.2931724706","","","","","","","72","H","0","img/none_selected.jpg","","141","main_expt"
"449","","bandit","220","884891","0.0-181.0-0.0","75320256","wem/bandit_either","AKCH7EGJBNV43","either","3","","","","","","","0","0","1","0.3461121542","","0.6","0.8","0.2","0.4","","","","","0.3461121542","0.2119249064","0.2924195757","0.2182180164","","","","","","","72","H","0","img/none_selected.jpg","","142","main_expt"
"415","","bandit","221","886818","0.0-182.0-0.0","75320256","wem/bandit_either","AKCH7EGJBNV43","either","3","","","","","","","0","0","1","0.3305931074","","0.6","0.8","0.2","0.4","","","","","0.3305931074","0.2665135591","0.2816149275","0.2015475508","","","","","","","72","H","0","img/none_selected.jpg","","143","main_expt"
"233","","bandit","222","888576","0.0-183.0-0.0","75320256","wem/bandit_either","AKCH7EGJBNV43","either","3","","","","","","","0","0","1","0.2854155153","","0.6","0.8","0.2","0.4","","","","","0.3561039987","0.2854155153","0.2355525614","0.2074070562","","","","","","","74","J","1","","","144","main_expt"
"327","","bandit","223","890412","0.0-184.0-0.0","75320256","wem/bandit_either","AKCH7EGJBNV43","either","3","","","","","","","0","0","1","0.2521048148","","0.6","0.8","0.2","0.4","","","","","0.3648023512","0.2521048148","0.2185662272","0.1415368311","","","","","","","74","J","1","","","145","main_expt"
"446","","bandit","224","892367","0.0-185.0-0.0","75320256","wem/bandit_either","AKCH7EGJBNV43","either","3","","","","","","","0","0","1","0.2321266643","","0.6","0.8","0.2","0.4","","","","","0.3450315","0.2321266643","0.2209315791","0.1549520657","","","","","","","74","J","1","","","146","main_expt"
"233","","bandit","225","894108","0.0-186.0-0.0","75320256","wem/bandit_either","AKCH7EGJBNV43","either","3","","","","","","","0","1","0","","0.1469310363","0.6","0.8","0.2","0.4","0.2720321141","0.3159383216","0.2889766311","0.1469310363","","","","","","","","","","","76","L","3","","","147","main_expt"
"342","","bandit","226","895963","0.0-187.0-0.0","75320256","wem/bandit_either","AKCH7EGJBNV43","either","3","","","","","","","0","0","1","0.1332828417","","0.6","0.8","0.2","0.4","","","","","0.2598972664","0.2673485129","0.2859466156","0.1332828417","","","","","","","76","L","3","","","148","main_expt"
"413","","bandit","227","897888","0.0-188.0-0.0","75320256","wem/bandit_either","AKCH7EGJBNV43","either","3","","","","","","","1","0","0","0.1102010463","","0.6","0.8","0.2","0.4","","","","","0.2343157719","0.3348600541","0.2588478233","0.1102010463","","","","","","","76","L","3","","","149","main_expt"
"426","","bandit","228","899824","0.0-189.0-0.0","75320256","wem/bandit_either","AKCH7EGJBNV43","either","3","","","","","","","0","0","1","","0.1356103494","0.6","0.8","0.2","0.4","0.2451363599","0.3659656834","0.2224653457","0.1356103494","","","","","","","","","","","76","L","3","","","150","main_expt"
"397","","bandit","229","901735","0.0-190.0-0.0","75320256","wem/bandit_either","AKCH7EGJBNV43","either","3","","","","","","","0","0","1","","0.1621229287","0.6","0.8","0.2","0.4","0.2053737132","0.36397653","0.2387237716","0.1621229287","","","","","","","","","","","76","L","3","","","151","main_expt"
"310","","bandit","230","903558","0.0-191.0-0.0","75320256","wem/bandit_either","AKCH7EGJBNV43","either","3","","","","","","","0","0","1","0.1412745606","","0.6","0.8","0.2","0.4","","","","","0.2396242378","0.3710672623","0.2519133504","0.1412745606","","","","","","","76","L","3","","","152","main_expt"
"304","","bandit","231","905375","0.0-192.0-0.0","75320256","wem/bandit_either","AKCH7EGJBNV43","either","3","","","","","","","0","0","1","","0.3078499427","0.6","0.8","0.2","0.4","0.2923277395","0.3828607765","0.3078499427","0.1707580034","","","","","","","","","","","75","K","2","","","153","main_expt"
"247","","bandit","232","907133","0.0-193.0-0.0","75320256","wem/bandit_either","AKCH7EGJBNV43","either","3","","","","","","","0","0","1","","0.3283820497","0.6","0.8","0.2","0.4","0.3166515581","0.3526468527","0.3283820497","0.1717455462","","","","","","","","","","","75","K","2","","","154","main_expt"
"343","","bandit","233","908989","0.0-194.0-0.0","75320256","wem/bandit_either","AKCH7EGJBNV43","either","3","","","","","","","0","0","1","","0.3194616596","0.6","0.8","0.2","0.4","0.3194616596","0.3865981945","0.3303057687","0.1785539081","","","","","","","","","","","72","H","0","img/none_selected.jpg","","155","main_expt"
"292","","bandit","234","910791","0.0-195.0-0.0","75320256","wem/bandit_either","AKCH7EGJBNV43","either","3","","","","","","","0","0","1","","0.3767011333","0.6","0.8","0.2","0.4","0.3767011333","0.4328422877","0.3178912443","0.2175815231","","","","","","","","","","","72","H","0","img/none_selected.jpg","","156","main_expt"
"362","","bandit","235","912663","0.0-196.0-0.0","75320256","wem/bandit_either","AKCH7EGJBNV43","either","3","","","","","","","0","0","1","0.216674397","","0.6","0.8","0.2","0.4","","","","","0.3853144204","0.4224906378","0.3236874272","0.216674397","","","","","","","76","L","3","","","157","main_expt"
"264","","bandit","236","914439","0.0-197.0-0.0","75320256","wem/bandit_either","AKCH7EGJBNV43","either","3","","","","","","","0","0","1","","0.2184316938","0.6","0.8","0.2","0.4","0.3519128793","0.4428847078","0.3731337511","0.2184316938","","","","","","","","","","","76","L","3","","","158","main_expt"
"272","","bandit","237","916222","0.0-198.0-0.0","75320256","wem/bandit_either","AKCH7EGJBNV43","either","3","","","","","","","1","0","0","0.4498083842","","0.6","0.8","0.2","0.4","","","","","0.3255157266","0.4498083842","0.3758107074","0.2603966468","","","","","","","74","J","1","","","159","main_expt"
"337","","bandit","238","918070","0.0-199.0-0.0","75320256","wem/bandit_either","AKCH7EGJBNV43","either","3","","","","","","","0","0","1","0.4319550234","","0.6","0.8","0.2","0.4","","","","","0.379238532","0.4319550234","0.3494215766","0.2242017374","","","","","","","74","J","1","","","160","main_expt"
"444","","bandit","239","920031","0.0-200.0-0.0","75320256","wem/bandit_either","AKCH7EGJBNV43","either","3","","","","","","","0","0","1","0.4417514389","","0.6","0.8","0.2","0.4","","","","","0.3776335756","0.4417514389","0.3327111917","0.2014027125","","","","","","","74","J","1","","","161","main_expt"
"327","","bandit","240","921868","0.0-201.0-0.0","75320256","wem/bandit_either","AKCH7EGJBNV43","either","3","","","","","","","1","0","0","0.4081293495","","0.6","0.8","0.2","0.4","","","","","0.2955751891","0.4081293495","0.3171011618","0.2038621466","","","","","","","74","J","1","","","162","main_expt"
"282","","bandit","241","923660","0.0-202.0-0.0","75320256","wem/bandit_either","AKCH7EGJBNV43","either","3","","","","","","","0","0","1","0.4265776113","","0.6","0.8","0.2","0.4","","","","","0.30851492","0.4265776113","0.364183239","0.1238136799","","","","","","","74","J","1","","","163","main_expt"
"461","","bandit","242","925633","0.0-203.0-0.0","75320256","wem/bandit_either","AKCH7EGJBNV43","either","3","","","","","","","0","0","1","0.427472809","","0.6","0.8","0.2","0.4","","","","","0.3074756362","0.427472809","0.3917374524","0.1104941302","","","","","","","74","J","1","","","164","main_expt"
"361","","bandit","243","927517","0.0-204.0-0.0","75320256","wem/bandit_either","AKCH7EGJBNV43","either","3","","","","","","","0","0","1","","0.3629360172","0.6","0.8","0.2","0.4","0.2743039079","0.4016343469","0.3629360172","0.1099358877","","","","","","","","","","","75","K","2","","","165","main_expt"
"315","","bandit","244","929345","0.0-205.0-0.0","75320256","wem/bandit_either","AKCH7EGJBNV43","either","3","","","","","","","0","0","1","","0.3697042915","0.6","0.8","0.2","0.4","0.2900226329","0.3578169927","0.3697042915","0.08082918558","","","","","","","","","","","75","K","2","","","166","main_expt"
"396","","bandit","245","931257","0.0-206.0-0.0","75320256","wem/bandit_either","AKCH7EGJBNV43","either","3","","","","","","","0","1","0","","0.3626443337","0.6","0.8","0.2","0.4","0.3444017494","0.3346076013","0.3626443337","0.08539074978","","","","","","","","","","","75","K","2","","","167","main_expt"
"389","","bandit","246","933169","0.0-207.0-0.0","75320256","wem/bandit_either","AKCH7EGJBNV43","either","3","","","","","","","0","1","0","","0.3488380128","0.6","0.8","0.2","0.4","0.3934904689","0.36326211","0.3488380128","0.1307687804","","","","","","","","","","","75","K","2","","","168","main_expt"
"742","","bandit","247","935438","0.0-208.0-0.0","75320256","wem/bandit_either","AKCH7EGJBNV43","either","3","","","","","","","0","0","1","","0.3338465455","0.6","0.8","0.2","0.4","0.3712778229","0.3389060657","0.3338465455","0.09435724838","","","","","","","","","","","75","K","2","","","169","main_expt"
"420","","bandit","248","937367","0.0-209.0-0.0","75320256","wem/bandit_either","AKCH7EGJBNV43","either","3","","","","","","","0","0","1","0.3675902536","","0.6","0.8","0.2","0.4","","","","","0.3348119161","0.3820287301","0.3675902536","0.09371103674","","","","","","","75","K","2","","","170","main_expt"
"17","","bandit","249","938896","0.0-210.0-0.0","75320256","wem/bandit_either","AKCH7EGJBNV43","either","3","","","","","","","0","0","1","0.0912992704","","0.6","0.8","0.2","0.4","","","","","0.3697689907","0.3738350687","0.3663425941","0.0912992704","","","","","","","76","L","3","","","171","main_expt"
"932","","bandit","250","941349","0.0-211.0-0.0","75320256","wem/bandit_either","AKCH7EGJBNV43","either","3","","","","","","","1","0","0","0.1053216192","","0.6","0.8","0.2","0.4","","","","","0.3438364448","0.3449486646","0.3571019768","0.1053216192","","","","","","","76","L","3","","","172","main_expt"
"421","","bandit","251","943282","0.0-212.0-0.0","75320256","wem/bandit_either","AKCH7EGJBNV43","either","3","","","","","","","0","0","1","0.1119971747","","0.6","0.8","0.2","0.4","","","","","0.4064517123","0.3754463001","0.383943734","0.1119971747","","","","","","","76","L","3","","","173","main_expt"
"423","","bandit","252","945217","0.0-213.0-0.0","75320256","wem/bandit_either","AKCH7EGJBNV43","either","3","","","","","","","0","0","1","","0.1049574405","0.6","0.8","0.2","0.4","0.4266345201","0.3983783957","0.378453819","0.1049574405","","","","","","","","","","","76","L","3","","","174","main_expt"
"263","","bandit","253","946994","0.0-214.0-0.0","75320256","wem/bandit_either","AKCH7EGJBNV43","either","3","","","","","","","1","0","0","0.4413212306","","0.6","0.8","0.2","0.4","","","","","0.4413212306","0.4176958341","0.3577460836","0.07351671593","","","","","","","72","H","0","img/none_selected.jpg","","175","main_expt"
"371","","bandit","254","948881","0.0-215.0-0.0","75320256","wem/bandit_either","AKCH7EGJBNV43","either","3","","","","","","","0","0","1","0.438548454","","0.6","0.8","0.2","0.4","","","","","0.438548454","0.4336280271","0.3346789668","0.06097876817","","","","","","","72","H","0","img/none_selected.jpg","","176","main_expt"
"395","","bandit","255","950805","0.0-216.0-0.0","75320256","wem/bandit_either","AKCH7EGJBNV43","either","3","","","","","","","1","0","0","0.4350726265","","0.6","0.8","0.2","0.4","","","","","0.4350726265","0.3863917124","0.3720341948","0.05873143133","","","","","","","72","H","0","img/none_selected.jpg","","177","main_expt"
"412","","bandit","256","952728","0.0-217.0-0.0","75320256","wem/bandit_either","AKCH7EGJBNV43","either","3","","","","","","","1","0","0","0.4029859975","","0.6","0.8","0.2","0.4","","","","","0.4029859975","0.3826512014","0.4243236705","0.07829718294","","","","","","","72","H","0","img/none_selected.jpg","","178","main_expt"
"435","","bandit","257","954688","0.0-218.0-0.0","75320256","wem/bandit_either","AKCH7EGJBNV43","either","3","","","","","","","0","0","1","0.3738585124","","0.6","0.8","0.2","0.4","","","","","0.3738585124","0.3681046487","0.4396564102","0.05868413977","","","","","","","72","H","0","img/none_selected.jpg","","179","main_expt"
"429","","bandit","258","956641","0.0-219.0-0.0","75320256","wem/bandit_either","AKCH7EGJBNV43","either","3","","","","","","","0","0","1","","0.3884150149","0.6","0.8","0.2","0.4","0.3884150149","0.374340785","0.4501825932","0.04540529238","","","","","","","","","","","72","H","0","img/none_selected.jpg","","180","main_expt"
"402","","bandit","259","958557","0.0-220.0-0.0","75320256","wem/bandit_either","AKCH7EGJBNV43","either","3","","","","","","","0","0","1","0.3977335033","","0.6","0.8","0.2","0.4","","","","","0.3977335033","0.3844034803","0.4527537228","0.04810206047","","","","","","","72","H","0","img/none_selected.jpg","","181","main_expt"
"274","","bandit","260","960347","0.0-221.0-0.0","75320256","wem/bandit_either","AKCH7EGJBNV43","either","3","","","","","","","0","0","1","0.0564969073","","0.6","0.8","0.2","0.4","","","","","0.4194204302","0.3569363444","0.4733821952","0.0564969073","","","","","","","76","L","3","","","182","main_expt"
"409","","bandit","261","962289","0.0-222.0-0.0","75320256","wem/bandit_either","AKCH7EGJBNV43","either","3","","","","","","","0","0","1","0.06674959941","","0.6","0.8","0.2","0.4","","","","","0.4050300101","0.3930074682","0.4741352064","0.06674959941","","","","","","","76","L","3","","","183","main_expt"
"342","","bandit","262","964157","0.0-223.0-0.0","75320256","wem/bandit_either","AKCH7EGJBNV43","either","3","","","","","","","0","0","1","0.4105724965","","0.6","0.8","0.2","0.4","","","","","0.4272992256","0.4105724965","0.4835015011","0.05730522946","","","","","","","74","J","1","","","184","main_expt"
"368","","bandit","263","966039","0.0-224.0-0.0","75320256","wem/bandit_either","AKCH7EGJBNV43","either","3","","","","","","","1","0","0","0.4230276401","","0.6","0.8","0.2","0.4","","","","","0.4213026748","0.4230276401","0.4907566516","0.0759668512","","","","","","","74","J","1","","","185","main_expt"
"355","","bandit","264","967926","0.0-225.0-0.0","75320256","wem/bandit_either","AKCH7EGJBNV43","either","3","","","","","","","0","0","1","0.4243078066","","0.6","0.8","0.2","0.4","","","","","0.3729626057","0.4243078066","0.4777100538","0.0736669194","","","","","","","74","J","1","","","186","main_expt"
"419","","bandit","265","969862","0.0-226.0-0.0","75320256","wem/bandit_either","AKCH7EGJBNV43","either","3","","","","","","","0","0","1","0.419104652","","0.6","0.8","0.2","0.4","","","","","0.4022080601","0.419104652","0.4751658893","0.1020870739","","","","","","","74","J","1","","","187","main_expt"
"387","","bandit","266","971764","0.0-227.0-0.0","75320256","wem/bandit_either","AKCH7EGJBNV43","either","3","","","","","","","0","1","0","","0.4711403756","0.6","0.8","0.2","0.4","0.4218987807","0.3917910895","0.4711403756","0.110066606","","","","","","","","","","","75","K","2","","","188","main_expt"
"400","","bandit","267","973693","0.0-228.0-0.0","75320256","wem/bandit_either","AKCH7EGJBNV43","either","3","","","","","","","0","1","0","","0.4848283219","0.6","0.8","0.2","0.4","0.4284519853","0.3696037293","0.4848283219","0.1616324423","","","","","","","","","","","75","K","2","","","189","main_expt"
"456","","bandit","268","975674","0.0-229.0-0.0","75320256","wem/bandit_either","AKCH7EGJBNV43","either","3","","","","","","","1","0","0","0.4906713727","","0.6","0.8","0.2","0.4","","","","","0.4104863902","0.3722688899","0.4906713727","0.1401199573","","","","","","","75","K","2","","","190","main_expt"
"158","","bandit","269","977363","0.0-230.0-0.0","75320256","wem/bandit_either","AKCH7EGJBNV43","either","3","","","","","","","1","0","0","0.4944082075","","0.6","0.8","0.2","0.4","","","","","0.4071825693","0.3956575009","0.4944082075","0.1782786715","","","","","","","75","K","2","","","191","main_expt"
"376","","bandit","270","979252","0.0-231.0-0.0","75320256","wem/bandit_either","AKCH7EGJBNV43","either","3","","","","","","","0","1","0","","0.4922337742","0.6","0.8","0.2","0.4","0.4172763132","0.3843500594","0.4922337742","0.203517815","","","","","","","","","","","75","K","2","","","192","main_expt"
"389","","bandit","271","981169","0.0-232.0-0.0","75320256","wem/bandit_either","AKCH7EGJBNV43","either","3","","","","","","","0","0","1","","0.4887356563","0.6","0.8","0.2","0.4","0.3965334946","0.3801723293","0.4887356563","0.172030281","","","","","","","","","","","75","K","2","","","193","main_expt"
"397","","bandit","272","983078","0.0-233.0-0.0","75320256","wem/bandit_either","AKCH7EGJBNV43","either","3","","","","","","","0","0","1","","0.4850955297","0.6","0.8","0.2","0.4","0.383316574","0.3871645121","0.4850955297","0.1813301739","","","","","","","","","","","75","K","2","","","194","main_expt"
"304","","bandit","273","984913","0.0-234.0-0.0","75320256","wem/bandit_either","AKCH7EGJBNV43","either","3","","","","","","","0","1","0","","0.4848341758","0.6","0.8","0.2","0.4","0.3965345796","0.3633903175","0.4848341758","0.2284295163","","","","","","","","","","","75","K","2","","","195","main_expt"
"337","","bandit","274","986773","0.0-235.0-0.0","75320256","wem/bandit_either","AKCH7EGJBNV43","either","3","","","","","","","0","1","0","","0.490049139","0.6","0.8","0.2","0.4","0.3978469093","0.3811675741","0.490049139","0.2501246714","","","","","","","","","","","75","K","2","","","196","main_expt"
"378","","bandit","275","988678","0.0-236.0-0.0","75320256","wem/bandit_either","AKCH7EGJBNV43","either","3","","","","","","","1","0","0","0.4912643012","","0.6","0.8","0.2","0.4","","","","","0.3172926233","0.3487868089","0.4912643012","0.3150809007","","","","","","","75","K","2","","","197","main_expt"
"407","","bandit","276","990617","0.0-237.0-0.0","75320256","wem/bandit_either","AKCH7EGJBNV43","either","3","","","","","","","0","1","0","","0.4793615714","0.6","0.8","0.2","0.4","0.3113170709","0.2986771554","0.4793615714","0.3442077965","","","","","","","","","","","75","K","2","","","198","main_expt"
"362","","bandit","277","992493","0.0-238.0-0.0","75320256","wem/bandit_either","AKCH7EGJBNV43","either","3","","","","","","","0","0","1","0.4661622676","","0.6","0.8","0.2","0.4","","","","","0.3066116159","0.3481418533","0.4661622676","0.3675051223","","","","","","","75","K","2","","","199","main_expt"
"420","","bandit","278","994426","0.0-239.0-0.0","75320256","wem/bandit_either","AKCH7EGJBNV43","either","3","","","","","","","0","1","0","","0.4479238565","0.6","0.8","0.2","0.4","0.2521122026","0.353319573","0.4479238565","0.3044821291","","","","","","","","","","","75","K","2","","","200","main_expt"
"312","","bandit","279","996252","0.0-240.0-0.0","75320256","wem/bandit_either","AKCH7EGJBNV43","either","3","","","","","","","0","0","1","","0.4429166455","0.6","0.8","0.2","0.4","0.2679963248","0.3676338631","0.4429166455","0.3013824411","","","","","","","","","","","75","K","2","","","201","main_expt"
"660","","bandit","280","998423","0.0-241.0-0.0","75320256","wem/bandit_either","AKCH7EGJBNV43","either","3","","","","","","","1","0","0","0.442820363","","0.6","0.8","0.2","0.4","","","","","0.2076546236","0.311657493","0.442820363","0.3001954661","","","","","","","75","K","2","","","202","main_expt"
"354","","bandit","281","1000289","0.0-242.0-0.0","75320256","wem/bandit_either","AKCH7EGJBNV43","either","3","","","","","","","0","1","0","","0.4539008368","0.6","0.8","0.2","0.4","0.1881707852","0.3364041998","0.4539008368","0.3189156814","","","","","","","","","","","75","K","2","","","203","main_expt"
"366","","bandit","282","1002164","0.0-243.0-0.0","75320256","wem/bandit_either","AKCH7EGJBNV43","either","3","","","","","","","0","1","0","","0.4163307037","0.6","0.8","0.2","0.4","0.2057853427","0.3148670147","0.4163307037","0.3162062407","","","","","","","","","","","75","K","2","","","204","main_expt"
"391","","bandit","283","1004071","0.0-244.0-0.0","75320256","wem/bandit_either","AKCH7EGJBNV43","either","3","","","","","","","0","0","1","","0.4045388199","0.6","0.8","0.2","0.4","0.2564451259","0.3293187519","0.4045388199","0.347278619","","","","","","","","","","","75","K","2","","","205","main_expt"
"442","","bandit","284","1006034","0.0-245.0-0.0","75320256","wem/bandit_either","AKCH7EGJBNV43","either","3","","","","","","","0","0","1","","0.4083422121","0.6","0.8","0.2","0.4","0.3082896296","0.2705077244","0.4083422121","0.2970129147","","","","","","","","","","","75","K","2","","","206","main_expt"
"245","","bandit","285","1007800","0.0-246.0-0.0","75320256","wem/bandit_either","AKCH7EGJBNV43","either","3","","","","","","","0","0","1","0.4033585138","","0.6","0.8","0.2","0.4","","","","","0.3235103938","0.3083591011","0.4033585138","0.3331481178","","","","","","","75","K","2","","","207","main_expt"
"696","","bandit","286","1010010","0.0-247.0-0.0","75320256","wem/bandit_either","AKCH7EGJBNV43","either","3","","","","","","","0","0","1","0.3753320851","","0.6","0.8","0.2","0.4","","","","","0.3563539536","0.2489273718","0.3753320851","0.3195917859","","","","","","","75","K","2","","","208","main_expt"
"355","","bandit","287","1011889","0.0-248.0-0.0","75320256","wem/bandit_either","AKCH7EGJBNV43","either","3","","","","","","","0","0","1","0.3642345195","","0.6","0.8","0.2","0.4","","","","","0.3821305916","0.2224321457","0.3864970555","0.3642345195","","","","","","","76","L","3","","","209","main_expt"
"378","","bandit","288","1013782","0.0-249.0-0.0","75320256","wem/bandit_either","AKCH7EGJBNV43","either","3","","","","","","","0","0","1","0.3518797164","","0.6","0.8","0.2","0.4","","","","","0.4067483812","0.2184729634","0.3894881908","0.3518797164","","","","","","","76","L","3","","","210","main_expt"
"173","","bandit","289","1015465","0.0-250.0-0.0","75320256","wem/bandit_either","AKCH7EGJBNV43","either","3","","","","","","","1","0","0","0.376825818","","0.6","0.8","0.2","0.4","","","","","0.376825818","0.2178464352","0.4052823736","0.3781537602","","","","","","","72","H","0","img/none_selected.jpg","","211","main_expt"
"481","","bandit","290","1017457","0.0-251.0-0.0","75320256","wem/bandit_either","AKCH7EGJBNV43","either","3","","","","","","","0","0","1","0.3481764155","","0.6","0.8","0.2","0.4","","","","","0.3481764155","0.1644702768","0.3783189977","0.3773353051","","","","","","","72","H","0","img/none_selected.jpg","","212","main_expt"
"415","","bandit","291","1019388","0.0-252.0-0.0","75320256","wem/bandit_either","AKCH7EGJBNV43","either","3","","","","","","","0","0","1","","0.3239198888","0.6","0.8","0.2","0.4","0.3239198888","0.1271660564","0.3804187243","0.3448860985","","","","","","","","","","","72","H","0","img/none_selected.jpg","","213","main_expt"
"453","","bandit","292","1021383","0.0-253.0-0.0","75320256","wem/bandit_either","AKCH7EGJBNV43","either","3","","","","","","","0","0","1","","0.3592643085","0.6","0.8","0.2","0.4","0.3592643085","0.1368129038","0.3964056757","0.3622000499","","","","","","","","","","","72","H","0","img/none_selected.jpg","","214","main_expt"
"396","","bandit","293","1023296","0.0-254.0-0.0","75320256","wem/bandit_either","AKCH7EGJBNV43","either","3","","","","","","","0","0","1","0.07615368859","","0.6","0.8","0.2","0.4","","","","","0.3482739819","0.07615368859","0.3939862607","0.3408682726","","","","","","","74","J","1","","","215","main_expt"
"188","","bandit","294","1025009","0.0-255.0-0.0","75320256","wem/bandit_either","AKCH7EGJBNV43","either","3","","","","","","","0","0","1","","0.4062496234","0.6","0.8","0.2","0.4","0.2972527025","0.07711559412","0.4062496234","0.328819006","","","","","","","","","","","75","K","2","","","216","main_expt"
"158","","bandit","295","1026681","0.0-256.0-0.0","75320256","wem/bandit_either","AKCH7EGJBNV43","either","3","","","","","","","0","0","1","","0.3440498305","0.6","0.8","0.2","0.4","0.2850944341","0.07728173513","0.3440498305","0.3229374792","","","","","","","","","","","75","K","2","","","217","main_expt"
"300","","bandit","296","1028497","0.0-257.0-0.0","75320256","wem/bandit_either","AKCH7EGJBNV43","either","3","","","","","","","0","1","0","","0.3198020565","0.6","0.8","0.2","0.4","0.2483413171","0.07919919155","0.3198020565","0.3616220652","","","","","","","","","","","75","K","2","","","218","main_expt"
"388","","bandit","297","1030407","0.0-258.0-0.0","75320256","wem/bandit_either","AKCH7EGJBNV43","either","3","","","","","","","0","0","1","","0.3078290176","0.6","0.8","0.2","0.4","0.2680513607","0.1270410367","0.3078290176","0.3591176528","","","","","","","","","","","75","K","2","","","219","main_expt"
"220","","bandit","298","1032144","0.0-259.0-0.0","75320256","wem/bandit_either","AKCH7EGJBNV43","either","3","","","","","","","0","1","0","","0.2961895162","0.6","0.8","0.2","0.4","0.304668496","0.1117499599","0.2961895162","0.2758994579","","","","","","","","","","","75","K","2","","","220","main_expt"
"269","","bandit","299","1033927","0.0-260.0-0.0","75320256","wem/bandit_either","AKCH7EGJBNV43","either","3","","","","","","","0","0","1","","0.2658603678","0.6","0.8","0.2","0.4","0.2773284289","0.1186324211","0.2658603678","0.3119987931","","","","","","","","","","","75","K","2","","","221","main_expt"
"239","","bandit","300","1035680","0.0-261.0-0.0","75320256","wem/bandit_either","AKCH7EGJBNV43","either","3","","","","","","","0","0","1","","0.274695037","0.6","0.8","0.2","0.4","0.2152506718","0.1141050397","0.274695037","0.3106374463","","","","","","","","","","","75","K","2","","","222","main_expt"
"1505","","bandit","301","1038702","0.0-262.0-0.0","75320256","wem/bandit_either","AKCH7EGJBNV43","either","3","","","","","","","0","0","1","0.1007228699","","0.6","0.8","0.2","0.4","","","","","0.2445797097","0.1007228699","0.2210940289","0.3131570504","","","","","","","74","J","1","","","223","main_expt"
"1120","","bandit","302","1041353","0.0-263.0-0.0","75320256","wem/bandit_either","AKCH7EGJBNV43","either","3","","","","","","","0","0","1","0.1380584308","","0.6","0.8","0.2","0.4","","","","","0.2559263424","0.1380584308","0.1843933297","0.3025994915","","","","","","","74","J","1","","","224","main_expt"
"215","","bandit","303","1043085","0.0-264.0-0.0","75320256","wem/bandit_either","AKCH7EGJBNV43","either","3","","","","","","","0","0","1","0.1393521225","","0.6","0.8","0.2","0.4","","","","","0.2702522324","0.1393521225","0.212211923","0.2994132709","","","","","","","74","J","1","","","225","main_expt"
"296","","bandit","304","1044911","0.0-265.0-0.0","75320256","wem/bandit_either","AKCH7EGJBNV43","either","3","","","","","","","0","0","1","0.2094269877","","0.6","0.8","0.2","0.4","","","","","0.2646860425","0.2094269877","0.2315036379","0.2866794375","","","","","","","74","J","1","","","226","main_expt"
"1457","","bandit","305","1047886","0.0-266.0-0.0","75320256","wem/bandit_either","AKCH7EGJBNV43","either","3","","","","","","","0","0","1","0.2299222882","","0.6","0.8","0.2","0.4","","","","","0.269556559","0.2959232149","0.2646353212","0.2299222882","","","","","","","76","L","3","","","227","main_expt"
"1250","","bandit","306","1050649","0.0-267.0-0.0","75320256","wem/bandit_either","AKCH7EGJBNV43","either","3","","","","","","","1","0","0","0.374355758","","0.6","0.8","0.2","0.4","","","","","0.2498152532","0.374355758","0.2443517867","0.2991813551","","","","","","","74","J","1","","","228","main_expt"
"392","","bandit","307","1052552","0.0-268.0-0.0","75320256","wem/bandit_either","AKCH7EGJBNV43","either","3","","","","","","","0","0","1","0.3876740502","","0.6","0.8","0.2","0.4","","","","","0.2495566458","0.3876740502","0.2569692975","0.3295538921","","","","","","","74","J","1","","","229","main_expt"
"950","","bandit","308","1055019","0.0-269.0-0.0","75320256","wem/bandit_either","AKCH7EGJBNV43","either","3","","","","","","","0","0","1","0.3341674595","","0.6","0.8","0.2","0.4","","","","","0.2134382902","0.3341674595","0.2490290172","0.2713593359","","","","","","","74","J","1","","","230","main_expt"
"1213","","bandit","309","1057751","0.0-270.0-0.0","75320256","wem/bandit_either","AKCH7EGJBNV43","either","3","","","","","","","0","0","1","","0.2368643707","0.6","0.8","0.2","0.4","0.2099205747","0.3558281537","0.2368643707","0.2746975787","","","","","","","","","","","75","K","2","","","231","main_expt"
"1744","","bandit","310","1061009","0.0-271.0-0.0","75320256","wem/bandit_either","AKCH7EGJBNV43","either","3","","","","","","","1","0","0","0.3293076861","","0.6","0.8","0.2","0.4","","","","","0.1598609145","0.3293076861","0.2857324616","0.2817934899","","","","","","","74","J","1","","","232","main_expt"
"562","","bandit","311","1063084","0.0-272.0-0.0","75320256","wem/bandit_either","AKCH7EGJBNV43","either","3","","","","","","","0","0","1","0.3271309306","","0.6","0.8","0.2","0.4","","","","","0.1472569172","0.3271309306","0.226619475","0.3139736629","","","","","","","74","J","1","","","233","main_expt"
"547","","bandit","312","1065144","0.0-273.0-0.0","75320256","wem/bandit_either","AKCH7EGJBNV43","either","3","","","","","","","1","0","0","0.3510228885","","0.6","0.8","0.2","0.4","","","","","0.1123375355","0.3510228885","0.2448251662","0.3332560948","","","","","","","74","J","1","","","234","main_expt"
"218","","bandit","313","1066883","0.0-274.0-0.0","75320256","wem/bandit_either","AKCH7EGJBNV43","either","3","","","","","","","0","0","1","","0.3346663699","0.6","0.8","0.2","0.4","0.1562424728","0.3346663699","0.2996798263","0.3475281657","","","","","","","","","","","74","J","1","","","235","main_expt"
"518","","bandit","314","1068913","0.0-275.0-0.0","75320256","wem/bandit_either","AKCH7EGJBNV43","either","3","","","","","","","1","0","0","0.332043614","","0.6","0.8","0.2","0.4","","","","","0.1623269298","0.332043614","0.3220329496","0.3170984437","","","","","","","74","J","1","","","236","main_expt"
"391","","bandit","315","1070823","0.0-276.0-0.0","75320256","wem/bandit_either","AKCH7EGJBNV43","either","3","","","","","","","0","0","1","","0.2780661838","0.6","0.8","0.2","0.4","0.1362759337","0.2780661838","0.3672390457","0.3611259067","","","","","","","","","","","74","J","1","","","237","main_expt"
"414","","bandit","316","1072760","0.0-277.0-0.0","75320256","wem/bandit_either","AKCH7EGJBNV43","either","3","","","","","","","1","0","0","0.3071002506","","0.6","0.8","0.2","0.4","","","","","0.1282223372","0.3071002506","0.3702030288","0.3449339383","","","","","","","74","J","1","","","238","main_expt"
"555","","bandit","317","1074830","0.0-278.0-0.0","75320256","wem/bandit_either","AKCH7EGJBNV43","either","3","","","","","","","0","0","1","0.3101279526","","0.6","0.8","0.2","0.4","","","","","0.08262393641","0.3101279526","0.3486367063","0.3006984684","","","","","","","74","J","1","","","239","main_expt"
"418","","bandit","318","1076783","0.0-279.0-0.0","75320256","wem/bandit_either","AKCH7EGJBNV43","either","3","","","","","","","0","0","1","","0.3071576631","0.6","0.8","0.2","0.4","0.09366491666","0.3071576631","0.3422639114","0.3355390738","","","","","","","","","","","74","J","1","","","240","main_expt"
"714","","bandit","319","1079011","0.0-280.0-0.0","75320256","wem/bandit_either","AKCH7EGJBNV43","either","3","","","","","","","0","0","1","0.3213727252","","0.6","0.8","0.2","0.4","","","","","0.09778426954","0.3213727252","0.3703795114","0.3513118525","","","","","","","74","J","1","","","241","main_expt"
"406","","bandit","320","1080928","0.0-281.0-0.0","75320256","wem/bandit_either","AKCH7EGJBNV43","either","3","","","","","","","0","0","1","0.2871404103","","0.6","0.8","0.2","0.4","","","","","0.0684580113","0.3303042821","0.3362310887","0.2871404103","","","","","","","76","L","3","","","242","main_expt"
"209","","bandit","321","1082651","0.0-282.0-0.0","75320256","wem/bandit_either","AKCH7EGJBNV43","either","3","","","","","","","0","0","1","","0.2582353252","0.6","0.8","0.2","0.4","0.05756719403","0.386578507","0.3855302341","0.2582353252","","","","","","","","","","","76","L","3","","","243","main_expt"
"677","","bandit","322","1084841","0.0-283.0-0.0","75320256","wem/bandit_either","AKCH7EGJBNV43","either","3","","","","","","","0","0","1","0.07954378931","","0.6","0.8","0.2","0.4","","","","","0.07954378931","0.3582196724","0.3504604058","0.2108553612","","","","","","","72","H","0","img/none_selected.jpg","","244","main_expt"
"1","","bandit","323","1086357","0.0-284.0-0.0","75320256","wem/bandit_either","AKCH7EGJBNV43","either","3","","","","","","","1","0","0","0.07668718344","","0.6","0.8","0.2","0.4","","","","","0.07668718344","0.3626170977","0.3586275713","0.190308294","","","","","","","72","H","0","img/none_selected.jpg","","245","main_expt"
"1279","","bandit","324","1089148","0.0-285.0-0.0","75320256","wem/bandit_either","AKCH7EGJBNV43","either","3","","","","","","","0","0","1","","0.08627194322","0.6","0.8","0.2","0.4","0.08627194322","0.2778980274","0.3202710015","0.2079876503","","","","","","","","","","","72","H","0","img/none_selected.jpg","","246","main_expt"
"503","","bandit","325","1091163","0.0-286.0-0.0","75320256","wem/bandit_either","AKCH7EGJBNV43","either","3","","","","","","","0","0","1","","0.1009858539","0.6","0.8","0.2","0.4","0.1009858539","0.2864864277","0.2874587678","0.2053262284","","","","","","","","","","","72","H","0","img/none_selected.jpg","","247","main_expt"
"461","","bandit","326","1093139","0.0-287.0-0.0","75320256","wem/bandit_either","AKCH7EGJBNV43","either","3","","","","","","","0","0","1","","0.1044033157","0.6","0.8","0.2","0.4","0.1044033157","0.2883304048","0.2703076155","0.2699327364","","","","","","","","","","","72","H","0","img/none_selected.jpg","","248","main_expt"
"364","","bandit","327","1095024","0.0-288.0-0.0","75320256","wem/bandit_either","AKCH7EGJBNV43","either","3","","","","","","","0","0","1","","0.07254640656","0.6","0.8","0.2","0.4","0.07254640656","0.3034325887","0.2212833967","0.2917851334","","","","","","","","","","","72","H","0","img/none_selected.jpg","","249","main_expt"
"546","","bandit","328","1097092","0.0-289.0-0.0","75320256","wem/bandit_either","AKCH7EGJBNV43","either","3","","","","","","","1","0","0","0.2530543584","","0.6","0.8","0.2","0.4","","","","","0.09512939239","0.2582013927","0.2174917034","0.2530543584","","","","","","","76","L","3","","","250","main_expt"
"463","","bandit","329","1099073","0.0-290.0-0.0","75320256","wem/bandit_either","AKCH7EGJBNV43","either","3","","","","","","","0","1","0","","0.2345859063","0.6","0.8","0.2","0.4","0.06759478125","0.2337836179","0.2008338107","0.2345859063","","","","","","","","","","","76","L","3","","","251","main_expt"
"451","","bandit","330","1101043","0.0-291.0-0.0","75320256","wem/bandit_either","AKCH7EGJBNV43","either","3","","","","","","","0","1","0","","0.2407419433","0.6","0.8","0.2","0.4","0.05682902113","0.2477033955","0.2294508047","0.2407419433","","","","","","","","","","","76","L","3","","","252","main_expt"
"473","","bandit","331","1103028","0.0-292.0-0.0","75320256","wem/bandit_either","AKCH7EGJBNV43","either","3","","","","","","","0","0","1","0.2016139721","","0.6","0.8","0.2","0.4","","","","","0.04662337877","0.2187012899","0.2678406235","0.2016139721","","","","","","","76","L","3","","","253","main_expt"
"394","","bandit","332","1104944","0.0-293.0-0.0","75320256","wem/bandit_either","AKCH7EGJBNV43","either","3","","","","","","","0","0","1","0.2204455337","","0.6","0.8","0.2","0.4","","","","","0.05613237953","0.2247734494","0.3248943382","0.2204455337","","","","","","","76","L","3","","","254","main_expt"
