"rt","responses","trial_type","trial_index","time_elapsed","internal_node_id","subjID","study","MID","cond","drift","key_press","expt_phase","target","like","value","connected","respCharCode","respKey","respChoiceNum","respChoice","gems","bombs","no_reward","GemPrChosen","BombPrChosen","practice","trial_counter","WinPr_0","LosePr_0","trial_label","GainOverPainPr_0","LosePr_1","GainOverPainPr_1","WinPr_1","WinPr_2","GainOverPainPr_2","WinPr_3","GainOverPainPr_3","LosePr_2","LosePr_3","Q0","Q1","Q2","gender","age","ethnicity"
"1730","{""Q0"":""A3IS28VQS5T5DE""}","survey-text","0","1739","0.0-0.0","77071692","wem/bandit_either","A3IS28VQS5T5DE","either","6","","","","","","","","","","","","","","","","","","","","","","","","","","","","","","","","","","","",""
"15314","","text","1","18058","0.0-1.0","77071692","wem/bandit_either","A3IS28VQS5T5DE","either","6","32","","","","","","","","","","","","","","","","","","","","","","","","","","","","","","","","","","",""
"6923","","text","2","24983","0.0-2.0","77071692","wem/bandit_either","A3IS28VQS5T5DE","either","6","32","","","","","","","","","","","","","","","","","","","","","","","","","","","","","","","","","","",""
"18966","","text","3","43952","0.0-3.0","77071692","wem/bandit_either","A3IS28VQS5T5DE","either","6","32","","","","","","","","","","","","","","","","","","","","","","","","","","","","","","","","","","",""
"34976","","text","4","78931","0.0-4.0","77071692","wem/bandit_either","A3IS28VQS5T5DE","either","6","32","","","","","","","","","","","","","","","","","","","","","","","","","","","","","","","","","","",""
"22431","","text","5","101381","0.0-5.0","77071692","wem/bandit_either","A3IS28VQS5T5DE","either","6","32","","","","","","","","","","","","","","","","","","","","","","","","","","","","","","","","","","",""
"11446","","text","6","112840","0.0-6.0","77071692","wem/bandit_either","A3IS28VQS5T5DE","either","6","32","","","","","","","","","","","","","","","","","","","","","","","","","","","","","","","","","","",""
"6219","","text","7","119087","0.0-7.0","77071692","wem/bandit_either","A3IS28VQS5T5DE","either","6","32","","","","","","","","","","","","","","","","","","","","","","","","","","","","","","","","","","",""
"7287","","identification","8","126490","0.0-8.0-0.0","77071692","wem/bandit_either","A3IS28VQS5T5DE","either","6","","identification_pre","the village of Zur","1","1","2","","","","","","","","","","","","","","","","","","","","","","","","","","","","","",""
"5920","","identification","9","133442","0.0-8.0-1.0","77071692","wem/bandit_either","A3IS28VQS5T5DE","either","6","","identification_pre","the village of Nyx","3","3","1","","","","","","","","","","","","","","","","","","","","","","","","","","","","","",""
"9059","","text","10","143525","0.0-9.0","77071692","wem/bandit_either","A3IS28VQS5T5DE","either","6","32","","","","","","","","","","","","","","","","","","","","","","","","","","","","","","","","","","",""
"4105","","text","11","147635","0.0-10.0","77071692","wem/bandit_either","A3IS28VQS5T5DE","either","6","32","","","","","","","","","","","","","","","","","","","","","","","","","","","","","","","","","","",""
"2482","","text","12","150118","0.0-11.0","77071692","wem/bandit_either","A3IS28VQS5T5DE","either","6","32","","","","","","","","","","","","","","","","","","","","","","","","","","","","","","","","","","",""
"5301","","text","13","155471","0.0-12.0","77071692","wem/bandit_either","A3IS28VQS5T5DE","either","6","32","","","","","","","","","","","","","","","","","","","","","","","","","","","","","","","","","","",""
"2358","","bandit","14","159367","0.0-13.0-0.0","77071692","wem/bandit_either","A3IS28VQS5T5DE","either","6","","","","","","","74","J","0","img/none_selected_demo.jpg","0","0","1","0","0","true","0","0","0","","","","","","","","","","","","","","","","",""
"2538","","bandit","15","163417","0.0-14.0-0.0","77071692","wem/bandit_either","A3IS28VQS5T5DE","either","6","","","","","","","75","K","0","img/none_selected_demo.jpg","0","0","1","0","0","true","0","0","0","","","","","","","","","","","","","","","","",""
"9450","","text","16","172869","0.0-15.0","77071692","wem/bandit_either","A3IS28VQS5T5DE","either","6","32","","","","","","","","","","","","","","","","","","","","","","","","","","","","","","","","","","",""
"9661","","text","17","182531","0.0-16.0","77071692","wem/bandit_either","A3IS28VQS5T5DE","either","6","32","","","","","","","","","","","","","","","","","","","","","","","","","","","","","","","","","","",""
"6479","","text","18","189012","0.0-17.0","77071692","wem/bandit_either","A3IS28VQS5T5DE","either","6","32","","","","","","","","","","","","","","","","","","","","","","","","","","","","","","","","","","",""
"3325","","text","19","192339","0.0-18.0","77071692","wem/bandit_either","A3IS28VQS5T5DE","either","6","32","","","","","","","","","","","","","","","","","","","","","","","","","","","","","","","","","","",""
"1309","","bandit","20","195163","0.0-19.0-0.0","77071692","wem/bandit_either","A3IS28VQS5T5DE","either","6","","","","","","","74","J","0","img/none_selected_demo.jpg","0","1","0","","0.8","true","0","","0.8","80_20_practice","0.5","0.2","0.5","","","","","","","","","","","","",""
"404","","bandit","21","197077","0.0-19.0-1.0","77071692","wem/bandit_either","A3IS28VQS5T5DE","either","6","","","","","","","74","J","0","img/none_selected_demo.jpg","0","1","0","","0.8","true","0","","0.8","80_20_practice","0.5","0.2","0.5","","","","","","","","","","","","",""
"305","","bandit","22","198893","0.0-19.0-2.0","77071692","wem/bandit_either","A3IS28VQS5T5DE","either","6","","","","","","","75","K","1","","0","0","1","","0.2","true","0","","0.8","80_20_practice","0.5","0.2","0.5","","","","","","","","","","","","",""
"3","","bandit","23","200403","0.0-19.0-3.0","77071692","wem/bandit_either","A3IS28VQS5T5DE","either","6","","","","","","","74","J","0","img/none_selected_demo.jpg","1","0","0","0.8","","true","0","0.8","","80_20_practice","0.5","","0.5","0.2","","","","","","","","","","","",""
"165","","bandit","24","202081","0.0-19.0-4.0","77071692","wem/bandit_either","A3IS28VQS5T5DE","either","6","","","","","","","74","J","0","img/none_selected_demo.jpg","0","1","0","","0.8","true","0","","0.8","80_20_practice","0.5","0.2","0.5","","","","","","","","","","","","",""
"2","","bandit","25","203592","0.0-19.0-5.0","77071692","wem/bandit_either","A3IS28VQS5T5DE","either","6","","","","","","","74","J","0","img/none_selected_demo.jpg","1","0","0","0.8","","true","0","0.8","","80_20_practice","0.5","","0.5","0.2","","","","","","","","","","","",""
"264","","bandit","26","205365","0.0-19.0-6.0","77071692","wem/bandit_either","A3IS28VQS5T5DE","either","6","","","","","","","74","J","0","img/none_selected_demo.jpg","0","1","0","","0.8","true","0","","0.8","80_20_practice","0.5","0.2","0.5","","","","","","","","","","","","",""
"153","","bandit","27","207037","0.0-19.0-7.0","77071692","wem/bandit_either","A3IS28VQS5T5DE","either","6","","","","","","","74","J","0","img/none_selected_demo.jpg","0","0","1","0.8","","true","0","0.8","","80_20_practice","0.5","","0.5","0.2","","","","","","","","","","","",""
"187","","bandit","28","208733","0.0-19.0-8.0","77071692","wem/bandit_either","A3IS28VQS5T5DE","either","6","","","","","","","74","J","0","img/none_selected_demo.jpg","0","1","0","","0.8","true","0","","0.8","80_20_practice","0.5","0.2","0.5","","","","","","","","","","","","",""
"43","","bandit","29","210283","0.0-19.0-9.0","77071692","wem/bandit_either","A3IS28VQS5T5DE","either","6","","","","","","","74","J","0","img/none_selected_demo.jpg","0","0","1","","0.8","true","0","","0.8","80_20_practice","0.5","0.2","0.5","","","","","","","","","","","","",""
"62","","bandit","30","211856","0.0-19.0-10.0","77071692","wem/bandit_either","A3IS28VQS5T5DE","either","6","","","","","","","74","J","0","img/none_selected_demo.jpg","0","1","0","","0.8","true","0","","0.8","80_20_practice","0.5","0.2","0.5","","","","","","","","","","","","",""
"81","","bandit","31","213446","0.0-19.0-11.0","77071692","wem/bandit_either","A3IS28VQS5T5DE","either","6","","","","","","","75","K","1","","0","0","1","0.2","","true","0","0.8","","80_20_practice","0.5","","0.5","0.2","","","","","","","","","","","",""
"121","","bandit","32","215078","0.0-19.0-12.0","77071692","wem/bandit_either","A3IS28VQS5T5DE","either","6","","","","","","","74","J","0","img/none_selected_demo.jpg","1","0","0","0.8","","true","0","0.8","","80_20_practice","0.5","","0.5","0.2","","","","","","","","","","","",""
"17","","bandit","33","216603","0.0-19.0-13.0","77071692","wem/bandit_either","A3IS28VQS5T5DE","either","6","","","","","","","74","J","0","img/none_selected_demo.jpg","0","1","0","","0.8","true","0","","0.8","80_20_practice","0.5","0.2","0.5","","","","","","","","","","","","",""
"131","","bandit","34","218248","0.0-19.0-14.0","77071692","wem/bandit_either","A3IS28VQS5T5DE","either","6","","","","","","","74","J","0","img/none_selected_demo.jpg","1","0","0","0.8","","true","0","0.8","","80_20_practice","0.5","","0.5","0.2","","","","","","","","","","","",""
"31","","bandit","35","219791","0.0-19.0-15.0","77071692","wem/bandit_either","A3IS28VQS5T5DE","either","6","","","","","","","74","J","0","img/none_selected_demo.jpg","0","1","0","","0.8","true","0","","0.8","80_20_practice","0.5","0.2","0.5","","","","","","","","","","","","",""
"112","","bandit","36","221416","0.0-19.0-16.0","77071692","wem/bandit_either","A3IS28VQS5T5DE","either","6","","","","","","","74","J","0","img/none_selected_demo.jpg","1","0","0","0.8","","true","0","0.8","","80_20_practice","0.5","","0.5","0.2","","","","","","","","","","","",""
"278","","bandit","37","223205","0.0-19.0-17.0","77071692","wem/bandit_either","A3IS28VQS5T5DE","either","6","","","","","","","74","J","0","img/none_selected_demo.jpg","0","0","1","0.8","","true","0","0.8","","80_20_practice","0.5","","0.5","0.2","","","","","","","","","","","",""
"4","","bandit","38","224717","0.0-19.0-18.0","77071692","wem/bandit_either","A3IS28VQS5T5DE","either","6","","","","","","","74","J","0","img/none_selected_demo.jpg","1","0","0","0.8","","true","0","0.8","","80_20_practice","0.5","","0.5","0.2","","","","","","","","","","","",""
"50","","bandit","39","226275","0.0-19.0-19.0","77071692","wem/bandit_either","A3IS28VQS5T5DE","either","6","","","","","","","74","J","0","img/none_selected_demo.jpg","0","1","0","","0.8","true","0","","0.8","80_20_practice","0.5","0.2","0.5","","","","","","","","","","","","",""
"3270","","text","40","229546","0.0-20.0","77071692","wem/bandit_either","A3IS28VQS5T5DE","either","6","32","","","","","","","","","","","","","","","","","","","","","","","","","","","","","","","","","","",""
"1453","","bandit","41","232511","0.0-21.0-0.0","77071692","wem/bandit_either","A3IS28VQS5T5DE","either","6","","","","","","","74","J","0","img/none_selected_demo.jpg","1","0","0","1","0","true","0","1","0","","","1","","0","","","","","","","","","","","",""
"4848","","text","42","237365","0.0-22.0","77071692","wem/bandit_either","A3IS28VQS5T5DE","either","6","32","","","","","","","","","","","","","","","","","","","","","","","","","","","","","","","","","","",""
"3979","","text","43","241346","0.0-23.0","77071692","wem/bandit_either","A3IS28VQS5T5DE","either","6","32","","","","","","","","","","","","","","","","","","","","","","","","","","","","","","","","","","",""
"3301","","text","44","244649","0.0-24.0","77071692","wem/bandit_either","A3IS28VQS5T5DE","either","6","32","","","","","","","","","","","","","","","","","","","","","","","","","","","","","","","","","","",""
"2591","","text","45","247242","0.0-25.0","77071692","wem/bandit_either","A3IS28VQS5T5DE","either","6","32","","","","","","","","","","","","","","","","","","","","","","","","","","","","","","","","","","",""
"4735","","text","46","251979","0.0-26.0","77071692","wem/bandit_either","A3IS28VQS5T5DE","either","6","32","","","","","","","","","","","","","","","","","","","","","","","","","","","","","","","","","","",""
"2516","","text","47","254497","0.0-27.0","77071692","wem/bandit_either","A3IS28VQS5T5DE","either","6","32","","","","","","","","","","","","","","","","","","","","","","","","","","","","","","","","","","",""
"9056","","text","48","263555","0.0-28.0","77071692","wem/bandit_either","A3IS28VQS5T5DE","either","6","32","","","","","","","","","","","","","","","","","","","","","","","","","","","","","","","","","","",""
"4972","","text","49","268529","0.0-29.0","77071692","wem/bandit_either","A3IS28VQS5T5DE","either","6","32","","","","","","","","","","","","","","","","","","","","","","","","","","","","","","","","","","",""
"7183","","text","50","275713","0.0-30.0","77071692","wem/bandit_either","A3IS28VQS5T5DE","either","6","32","","","","","","","","","","","","","","","","","","","","","","","","","","","","","","","","","","",""
"2775","","text","51","278489","0.0-31.0","77071692","wem/bandit_either","A3IS28VQS5T5DE","either","6","32","","","","","","","","","","","","","","","","","","","","","","","","","","","","","","","","","","",""
"2925","","text","52","281417","0.0-32.0","77071692","wem/bandit_either","A3IS28VQS5T5DE","either","6","32","","","","","","","","","","","","","","","","","","","","","","","","","","","","","","","","","","",""
"1154","","bandit","53","284088","0.0-33.0-0.0","77071692","wem/bandit_either","A3IS28VQS5T5DE","either","6","","","","","","","74","J","1","","0","0","1","0.2","","true","0","0.8","","full_practice","0.5","","0.5","0.2","0.6","0.5","0.2","0.5","","","","","","","",""
"269","","bandit","54","285869","0.0-33.0-1.0","77071692","wem/bandit_either","A3IS28VQS5T5DE","either","6","","","","","","","72","H","0","img/none_selected.jpg","1","0","0","0.8","","true","0","0.8","","full_practice","0.5","","0.5","0.2","0.6","0.5","0.2","0.5","","","","","","","",""
"258","","bandit","55","287639","0.0-33.0-2.0","77071692","wem/bandit_either","A3IS28VQS5T5DE","either","6","","","","","","","72","H","0","img/none_selected.jpg","1","0","0","0.8","","true","0","0.8","","full_practice","0.5","","0.5","0.2","0.6","0.5","0.2","0.5","","","","","","","",""
"278","","bandit","56","289427","0.0-33.0-3.0","77071692","wem/bandit_either","A3IS28VQS5T5DE","either","6","","","","","","","72","H","0","img/none_selected.jpg","0","0","1","","0.8","true","0","","0.8","full_practice","0.5","0.2","0.5","","","0.5","","0.5","0.6","0.2","","","","","",""
"187","","bandit","57","291124","0.0-33.0-4.0","77071692","wem/bandit_either","A3IS28VQS5T5DE","either","6","","","","","","","72","H","0","img/none_selected.jpg","0","0","1","","0.8","true","0","","0.8","full_practice","0.5","0.2","0.5","","","0.5","","0.5","0.6","0.2","","","","","",""
"146","","bandit","58","292780","0.0-33.0-5.0","77071692","wem/bandit_either","A3IS28VQS5T5DE","either","6","","","","","","","75","K","2","","0","0","1","","0.6","true","0","","0.8","full_practice","0.5","0.2","0.5","","","0.5","","0.5","0.6","0.2","","","","","",""
"217","","bandit","59","294505","0.0-33.0-6.0","77071692","wem/bandit_either","A3IS28VQS5T5DE","either","6","","","","","","","76","L","3","","0","0","1","","0.2","true","0","","0.8","full_practice","0.5","0.2","0.5","","","0.5","","0.5","0.6","0.2","","","","","",""
"101","","bandit","60","296121","0.0-33.0-7.0","77071692","wem/bandit_either","A3IS28VQS5T5DE","either","6","","","","","","","72","H","0","img/none_selected.jpg","1","0","0","0.8","","true","0","0.8","","full_practice","0.5","","0.5","0.2","0.6","0.5","0.2","0.5","","","","","","","",""
"150","","bandit","61","297779","0.0-33.0-8.0","77071692","wem/bandit_either","A3IS28VQS5T5DE","either","6","","","","","","","74","J","1","","0","0","1","","0.2","true","0","","0.8","full_practice","0.5","0.2","0.5","","","0.5","","0.5","0.6","0.2","","","","","",""
"267","","bandit","62","299556","0.0-33.0-9.0","77071692","wem/bandit_either","A3IS28VQS5T5DE","either","6","","","","","","","75","K","2","","1","0","0","0.6","","true","0","0.8","","full_practice","0.5","","0.5","0.2","0.6","0.5","0.2","0.5","","","","","","","",""
"145","","bandit","63","301211","0.0-33.0-10.0","77071692","wem/bandit_either","A3IS28VQS5T5DE","either","6","","","","","","","75","K","2","","0","0","1","0.6","","true","0","0.8","","full_practice","0.5","","0.5","0.2","0.6","0.5","0.2","0.5","","","","","","","",""
"106","","bandit","64","302830","0.0-33.0-11.0","77071692","wem/bandit_either","A3IS28VQS5T5DE","either","6","","","","","","","76","L","3","","0","0","1","","0.2","true","0","","0.8","full_practice","0.5","0.2","0.5","","","0.5","","0.5","0.6","0.2","","","","","",""
"64","","bandit","65","304404","0.0-33.0-12.0","77071692","wem/bandit_either","A3IS28VQS5T5DE","either","6","","","","","","","72","H","0","img/none_selected.jpg","0","1","0","","0.8","true","0","","0.8","full_practice","0.5","0.2","0.5","","","0.5","","0.5","0.6","0.2","","","","","",""
"217","","bandit","66","306133","0.0-33.0-13.0","77071692","wem/bandit_either","A3IS28VQS5T5DE","either","6","","","","","","","72","H","0","img/none_selected.jpg","0","0","1","","0.8","true","0","","0.8","full_practice","0.5","0.2","0.5","","","0.5","","0.5","0.6","0.2","","","","","",""
"120","","bandit","67","307764","0.0-33.0-14.0","77071692","wem/bandit_either","A3IS28VQS5T5DE","either","6","","","","","","","72","H","0","img/none_selected.jpg","1","0","0","0.8","","true","0","0.8","","full_practice","0.5","","0.5","0.2","0.6","0.5","0.2","0.5","","","","","","","",""
"346","","bandit","68","309621","0.0-33.0-15.0","77071692","wem/bandit_either","A3IS28VQS5T5DE","either","6","","","","","","","72","H","0","img/none_selected.jpg","0","1","0","","0.8","true","0","","0.8","full_practice","0.5","0.2","0.5","","","0.5","","0.5","0.6","0.2","","","","","",""
"248","","bandit","69","311380","0.0-33.0-16.0","77071692","wem/bandit_either","A3IS28VQS5T5DE","either","6","","","","","","","72","H","0","img/none_selected.jpg","1","0","0","0.8","","true","0","0.8","","full_practice","0.5","","0.5","0.2","0.6","0.5","0.2","0.5","","","","","","","",""
"49","","bandit","70","312942","0.0-33.0-17.0","77071692","wem/bandit_either","A3IS28VQS5T5DE","either","6","","","","","","","72","H","0","img/none_selected.jpg","0","0","1","0.8","","true","0","0.8","","full_practice","0.5","","0.5","0.2","0.6","0.5","0.2","0.5","","","","","","","",""
"79","","bandit","71","314533","0.0-33.0-18.0","77071692","wem/bandit_either","A3IS28VQS5T5DE","either","6","","","","","","","72","H","0","img/none_selected.jpg","1","0","0","0.8","","true","0","0.8","","full_practice","0.5","","0.5","0.2","0.6","0.5","0.2","0.5","","","","","","","",""
"488","","bandit","72","316529","0.0-33.0-19.0","77071692","wem/bandit_either","A3IS28VQS5T5DE","either","6","","","","","","","72","H","0","img/none_selected.jpg","0","1","0","","0.8","true","0","","0.8","full_practice","0.5","0.2","0.5","","","0.5","","0.5","0.6","0.2","","","","","",""
"2897","","text","73","319432","0.0-34.0","77071692","wem/bandit_either","A3IS28VQS5T5DE","either","6","32","","","","","","","","","","","","","","","","","","","","","","","","","","","","","","","","","","",""
"14890","","text","74","335329","0.0-35.0","77071692","wem/bandit_either","A3IS28VQS5T5DE","either","6","32","","","","","","","","","","","","","","","","","","","","","","","","","","","","","","","","","","",""
"6557","","text","75","341888","0.0-36.0","77071692","wem/bandit_either","A3IS28VQS5T5DE","either","6","32","","","","","","","","","","","","","","","","","","","","","","","","","","","","","","","","","","",""
"8575","","text","76","350464","0.0-37.0","77071692","wem/bandit_either","A3IS28VQS5T5DE","either","6","32","","","","","","","","","","","","","","","","","","","","","","","","","","","","","","","","","","",""
"4980","","text","77","355447","0.0-38.0","77071692","wem/bandit_either","A3IS28VQS5T5DE","either","6","32","","","","","","","","","","","","","","","","","","","","","","","","","","","","","","","","","","",""
"2454","","text","78","357903","0.0-39.0","77071692","wem/bandit_either","A3IS28VQS5T5DE","either","6","32","","","","","","","","","","","","","","","","","","","","","","","","","","","","","","","","","","",""
"1355","","bandit","79","360769","0.0-40.0-0.0","77071692","wem/bandit_either","A3IS28VQS5T5DE","either","6","","","","","","","72","H","0","img/none_selected.jpg","0","0","1","","0.1734470434","","1","","0.1734470434","main_expt","0.8","0.1720655487","0.6","","","0.2","","0.4","0.4656478179","0.06094066238","","","","","",""
"292","","bandit","80","362575","0.0-41.0-0.0","77071692","wem/bandit_either","A3IS28VQS5T5DE","either","6","","","","","","","74","J","1","","0","0","1","0.1607886358","","","2","0.1582158198","","main_expt","0.8","","0.6","0.1607886358","0.4661883906","0.2","0.04941180107","0.4","","","","","","","",""
"260","","bandit","81","364342","0.0-42.0-0.0","77071692","wem/bandit_either","A3IS28VQS5T5DE","either","6","","","","","","","75","K","2","","0","0","1","","0.4608397999","","3","","0.1264016625","main_expt","0.8","0.1825924006","0.6","","","0.2","","0.4","0.4608397999","0.09066711981","","","","","",""
"68","","bandit","82","365922","0.0-43.0-0.0","77071692","wem/bandit_either","A3IS28VQS5T5DE","either","6","","","","","","","76","L","3","","0","0","1","0.07815644495","","","4","0.1212924903","","main_expt","0.8","","0.6","0.1572982515","0.4568511376","0.2","0.07815644495","0.4","","","","","","","",""
"313","","bandit","83","367747","0.0-44.0-0.0","77071692","wem/bandit_either","A3IS28VQS5T5DE","either","6","","","","","","","72","H","0","img/none_selected.jpg","0","0","1","0.1603104869","","","5","0.1603104869","","main_expt","0.8","","0.6","0.1873501432","0.4576747282","0.2","0.06547040057","0.4","","","","","","","",""
"311","","bandit","84","369569","0.0-45.0-0.0","77071692","wem/bandit_either","A3IS28VQS5T5DE","either","6","","","","","","","74","J","1","","0","0","1","0.1484719509","","","6","0.1916070739","","main_expt","0.8","","0.6","0.1484719509","0.4673201091","0.2","0.09500806419","0.4","","","","","","","",""
"291","","bandit","85","371371","0.0-46.0-0.0","77071692","wem/bandit_either","A3IS28VQS5T5DE","either","6","","","","","","","75","K","2","","1","0","0","0.4671816856","","","7","0.1624213819","","main_expt","0.8","","0.6","0.1368680622","0.4671816856","0.2","0.1156714339","0.4","","","","","","","",""
"248","","bandit","86","373129","0.0-47.0-0.0","77071692","wem/bandit_either","A3IS28VQS5T5DE","either","6","","","","","","","76","L","3","","0","0","1","","0.08939878806","","8","","0.1529627983","main_expt","0.8","0.1412197478","0.6","","","0.2","","0.4","0.4577650209","0.08939878806","","","","","",""
"136","","bandit","87","374781","0.0-48.0-0.0","77071692","wem/bandit_either","A3IS28VQS5T5DE","either","6","","","","","","","75","K","2","","0","0","1","","0.4538037209","","9","","0.1638779","main_expt","0.8","0.1285241668","0.6","","","0.2","","0.4","0.4538037209","0.1379609943","","","","","",""
"278","","bandit","88","376570","0.0-49.0-0.0","77071692","wem/bandit_either","A3IS28VQS5T5DE","either","6","","","","","","","75","K","2","","0","0","1","0.4567906288","","","10","0.1682184418","","main_expt","0.8","","0.6","0.1137500729","0.4567906288","0.2","0.08892925829","0.4","","","","","","","",""
"241","","bandit","89","378322","0.0-50.0-0.0","77071692","wem/bandit_either","A3IS28VQS5T5DE","either","6","","","","","","","72","H","0","img/none_selected.jpg","0","0","1","0.1511948373","","","11","0.1511948373","","main_expt","0.8","","0.6","0.1134058804","0.4707556997","0.2","0.1053961985","0.4","","","","","","","",""
"280","","bandit","90","380115","0.0-51.0-0.0","77071692","wem/bandit_either","A3IS28VQS5T5DE","either","6","","","","","","","74","J","1","","0","0","1","0.1358134986","","","12","0.2144966391","","main_expt","0.8","","0.6","0.1358134986","0.4534589675","0.2","0.1267534428","0.4","","","","","","","",""
"240","","bandit","91","381868","0.0-52.0-0.0","77071692","wem/bandit_either","A3IS28VQS5T5DE","either","6","","","","","","","75","K","2","","0","1","0","","0.4474824422","","13","","0.1443049275","main_expt","0.8","0.1105925571","0.6","","","0.2","","0.4","0.4474824422","0.1179877152","","","","","",""
"208","","bandit","92","383587","0.0-53.0-0.0","77071692","wem/bandit_either","A3IS28VQS5T5DE","either","6","","","","","","","76","L","3","","0","0","1","","0.1300626215","","14","","0.149160688","main_expt","0.8","0.09057326494","0.6","","","0.2","","0.4","0.4125602811","0.1300626215","","","","","",""
"87","","bandit","93","385189","0.0-54.0-0.0","77071692","wem/bandit_either","A3IS28VQS5T5DE","either","6","","","","","","","75","K","2","","0","0","1","","0.3715785473","","15","","0.1525333278","main_expt","0.8","0.05963436345","0.6","","","0.2","","0.4","0.3715785473","0.1129073675","","","","","",""
"238","","bandit","94","386937","0.0-55.0-0.0","77071692","wem/bandit_either","A3IS28VQS5T5DE","either","6","","","","","","","75","K","2","","0","0","1","","0.3670357029","","16","","0.1437253933","main_expt","0.8","0.03970917029","0.6","","","0.2","","0.4","0.3670357029","0.1132840383","","","","","",""
"106","","bandit","95","388556","0.0-56.0-0.0","77071692","wem/bandit_either","A3IS28VQS5T5DE","either","6","","","","","","","75","K","2","","0","0","1","","0.333794799","","17","","0.1191274054","main_expt","0.8","0.03301664506","0.6","","","0.2","","0.4","0.333794799","0.1530786807","","","","","",""
"311","","bandit","96","390379","0.0-57.0-0.0","77071692","wem/bandit_either","A3IS28VQS5T5DE","either","6","","","","","","","75","K","2","","1","0","0","0.3720862831","","","18","0.1231388663","","main_expt","0.8","","0.6","0.0325619","0.3720862831","0.2","0.1367655081","0.4","","","","","","","",""
"261","","bandit","97","392155","0.0-58.0-0.0","77071692","wem/bandit_either","A3IS28VQS5T5DE","either","6","","","","","","","75","K","2","","0","1","0","","0.3940248177","","19","","0.1014962652","main_expt","0.8","0.05136562407","0.6","","","0.2","","0.4","0.3940248177","0.1519969922","","","","","",""
"289","","bandit","98","393953","0.0-59.0-0.0","77071692","wem/bandit_either","A3IS28VQS5T5DE","either","6","","","","","","","75","K","2","","0","1","0","","0.3980303587","","20","","0.1184271466","main_expt","0.8","0.05620034239","0.6","","","0.2","","0.4","0.3980303587","0.2344823222","","","","","",""
"218","","bandit","99","395685","0.0-60.0-0.0","77071692","wem/bandit_either","A3IS28VQS5T5DE","either","6","","","","","","","75","K","2","","0","0","1","","0.405953395","","21","","0.1434190777","main_expt","0.8","0.04865895453","0.6","","","0.2","","0.4","0.405953395","0.2227593861","","","","","",""
"292","","bandit","100","397487","0.0-61.0-0.0","77071692","wem/bandit_either","A3IS28VQS5T5DE","either","6","","","","","","","75","K","2","","0","0","1","","0.37898799","","22","","0.1323354157","main_expt","0.8","0.05276066643","0.6","","","0.2","","0.4","0.37898799","0.1831098024","","","","","",""
"630","","bandit","101","399626","0.0-62.0-0.0","77071692","wem/bandit_either","A3IS28VQS5T5DE","either","6","","","","","","","75","K","2","","0","1","0","","0.3661255489","","23","","0.1384191998","main_expt","0.8","0.05284133488","0.6","","","0.2","","0.4","0.3661255489","0.1660310818","","","","","",""
"264","","bandit","102","401400","0.0-63.0-0.0","77071692","wem/bandit_either","A3IS28VQS5T5DE","either","6","","","","","","","75","K","2","","0","1","0","","0.3576379461","","24","","0.1395593146","main_expt","0.8","0.0333904923","0.6","","","0.2","","0.4","0.3576379461","0.1400827643","","","","","",""
"306","","bandit","103","403215","0.0-64.0-0.0","77071692","wem/bandit_either","A3IS28VQS5T5DE","either","6","","","","","","","75","K","2","","0","0","1","0.3346121782","","","25","0.1696236693","","main_expt","0.8","","0.6","0.04666446392","0.3346121782","0.2","0.2022937807","0.4","","","","","","","",""
"147","","bandit","104","404878","0.0-65.0-0.0","77071692","wem/bandit_either","A3IS28VQS5T5DE","either","6","","","","","","","75","K","2","","0","1","0","","0.3790434843","","26","","0.1754084838","main_expt","0.8","0.04067930801","0.6","","","0.2","","0.4","0.3790434843","0.1725383963","","","","","",""
"252","","bandit","105","406639","0.0-66.0-0.0","77071692","wem/bandit_either","A3IS28VQS5T5DE","either","6","","","","","","","75","K","2","","0","0","1","","0.3744762435","","27","","0.118483546","main_expt","0.8","0.03070036018","0.6","","","0.2","","0.4","0.3744762435","0.1735642386","","","","","",""
"74","","bandit","106","408223","0.0-67.0-0.0","77071692","wem/bandit_either","A3IS28VQS5T5DE","either","6","","","","","","","75","K","2","","0","0","1","","0.3650769418","","28","","0.1259847853","main_expt","0.8","0.02292460278","0.6","","","0.2","","0.4","0.3650769418","0.149532802","","","","","",""
"227","","bandit","107","409961","0.0-68.0-0.0","77071692","wem/bandit_either","A3IS28VQS5T5DE","either","6","","","","","","","75","K","2","","0","0","1","","0.3299345172","","29","","0.1072727049","main_expt","0.8","0.03476379039","0.6","","","0.2","","0.4","0.3299345172","0.1597785082","","","","","",""
"265","","bandit","108","411735","0.0-69.0-0.0","77071692","wem/bandit_either","A3IS28VQS5T5DE","either","6","","","","","","","75","K","2","","0","0","1","","0.3010095271","","30","","0.07952930744","main_expt","0.8","0.04211589453","0.6","","","0.2","","0.4","0.3010095271","0.1978771271","","","","","",""
"284","","bandit","109","413529","0.0-70.0-0.0","77071692","wem/bandit_either","A3IS28VQS5T5DE","either","6","","","","","","","72","H","0","img/none_selected.jpg","0","0","1","0.09691030242","","","31","0.09691030242","","main_expt","0.8","","0.6","0.04495483672","0.331530841","0.2","0.1928768267","0.4","","","","","","","",""
"289","","bandit","110","415328","0.0-71.0-0.0","77071692","wem/bandit_either","A3IS28VQS5T5DE","either","6","","","","","","","74","J","1","","0","0","1","0.04126869591","","","32","0.1338720944","","main_expt","0.8","","0.6","0.04126869591","0.3469043085","0.2","0.1511047494","0.4","","","","","","","",""
"266","","bandit","111","417104","0.0-72.0-0.0","77071692","wem/bandit_either","A3IS28VQS5T5DE","either","6","","","","","","","76","L","3","","0","0","1","","0.09247049486","","33","","0.1428203538","main_expt","0.8","0.02396570111","0.6","","","0.2","","0.4","0.2778139242","0.09247049486","","","","","",""
"537","","bandit","112","419155","0.0-73.0-0.0","77071692","wem/bandit_either","A3IS28VQS5T5DE","either","6","","","","","","","75","K","2","","0","0","1","","0.236883459","","34","","0.1258169527","main_expt","0.8","0.03561151332","0.6","","","0.2","","0.4","0.236883459","0.1127946788","","","","","",""
"279","","bandit","113","420945","0.0-74.0-0.0","77071692","wem/bandit_either","A3IS28VQS5T5DE","either","6","","","","","","","72","H","0","img/none_selected.jpg","0","0","1","0.1652362889","","","35","0.1652362889","","main_expt","0.8","","0.6","0.04565222073","0.2656196476","0.2","0.1279928094","0.4","","","","","","","",""
"241","","bandit","114","422698","0.0-75.0-0.0","77071692","wem/bandit_either","A3IS28VQS5T5DE","either","6","","","","","","","74","J","1","","0","0","1","0.05036449293","","","36","0.1472348388","","main_expt","0.8","","0.6","0.05036449293","0.2309028503","0.2","0.09285608896","0.4","","","","","","","",""
"191","","bandit","115","424401","0.0-76.0-0.0","77071692","wem/bandit_either","A3IS28VQS5T5DE","either","6","","","","","","","75","K","2","","1","0","0","0.1961267878","","","37","0.20581188","","main_expt","0.8","","0.6","0.04764774511","0.1961267878","0.2","0.1251507517","0.4","","","","","","","",""
"257","","bandit","116","426168","0.0-77.0-0.0","77071692","wem/bandit_either","A3IS28VQS5T5DE","either","6","","","","","","","76","L","3","","0","0","1","0.1248439258","","","38","0.2096070571","","main_expt","0.8","","0.6","0.04692466818","0.2197692452","0.2","0.1248439258","0.4","","","","","","","",""
"262","","bandit","117","427942","0.0-78.0-0.0","77071692","wem/bandit_either","A3IS28VQS5T5DE","either","6","","","","","","","75","K","2","","0","1","0","","0.1783178102","","39","","0.1888903691","main_expt","0.8","0.06150360576","0.6","","","0.2","","0.4","0.1783178102","0.1192858938","","","","","",""
"324","","bandit","118","429777","0.0-79.0-0.0","77071692","wem/bandit_either","A3IS28VQS5T5DE","either","6","","","","","","","75","K","2","","0","0","1","","0.1354267005","","40","","0.1769314034","main_expt","0.8","0.1025324214","0.6","","","0.2","","0.4","0.1354267005","0.1457630933","","","","","",""
"120","","bandit","119","431407","0.0-80.0-0.0","77071692","wem/bandit_either","A3IS28VQS5T5DE","either","6","","","","","","","75","K","2","","0","0","1","0.1307301687","","","41","0.1764673912","","main_expt","0.8","","0.6","0.1278282258","0.1307301687","0.2","0.1788887836","0.4","","","","","","","",""
"521","","bandit","120","433443","0.0-81.0-0.0","77071692","wem/bandit_either","A3IS28VQS5T5DE","either","6","","","","","","","75","K","2","","0","0","1","0.1002459791","","","42","0.1164002711","","main_expt","0.8","","0.6","0.1144783829","0.1002459791","0.2","0.1550439797","0.4","","","","","","","",""
"318","","bandit","121","435274","0.0-82.0-0.0","77071692","wem/bandit_either","A3IS28VQS5T5DE","either","6","","","","","","","75","K","2","","0","0","1","","0.06131682752","","43","","0.1248357276","main_expt","0.8","0.148274456","0.6","","","0.2","","0.4","0.06131682752","0.1624336935","","","","","",""
"280","","bandit","122","437066","0.0-83.0-0.0","77071692","wem/bandit_either","A3IS28VQS5T5DE","either","6","","","","","","","75","K","2","","0","0","1","","0.05757194937","","44","","0.1801883524","main_expt","0.8","0.1733993608","0.6","","","0.2","","0.4","0.05757194937","0.2610419313","","","","","",""
"295","","bandit","123","438873","0.0-84.0-0.0","77071692","wem/bandit_either","A3IS28VQS5T5DE","either","6","","","","","","","75","K","2","","0","0","1","","0.06317169253","","45","","0.1536252234","main_expt","0.8","0.1731137141","0.6","","","0.2","","0.4","0.06317169253","0.2547096211","","","","","",""
"143","","bandit","124","440527","0.0-85.0-0.0","77071692","wem/bandit_either","A3IS28VQS5T5DE","either","6","","","","","","","75","K","2","","0","0","1","","0.08604650327","","46","","0.1453657368","main_expt","0.8","0.2577534017","0.6","","","0.2","","0.4","0.08604650327","0.2690630982","","","","","",""
"232","","bandit","125","442274","0.0-86.0-0.0","77071692","wem/bandit_either","A3IS28VQS5T5DE","either","6","","","","","","","75","K","2","","0","0","1","","0.07503215105","","47","","0.1163474927","main_expt","0.8","0.2436059896","0.6","","","0.2","","0.4","0.07503215105","0.2613787364","","","","","",""
"311","","bandit","126","444096","0.0-87.0-0.0","77071692","wem/bandit_either","A3IS28VQS5T5DE","either","6","","","","","","","75","K","2","","0","0","1","","0.09661626413","","48","","0.1187671899","main_expt","0.8","0.261356988","0.6","","","0.2","","0.4","0.09661626413","0.2764851171","","","","","",""
"2561","","bandit","127","448172","0.0-88.0-0.0","77071692","wem/bandit_either","A3IS28VQS5T5DE","either","6","","","","","","","76","L","3","","0","1","0","","0.2628846066","","49","","0.1321787199","main_expt","0.8","0.2707362224","0.6","","","0.2","","0.4","0.141419135","0.2628846066","","","","","",""
"1347","","bandit","128","451046","0.0-89.0-0.0","77071692","wem/bandit_either","A3IS28VQS5T5DE","either","6","","","","","","","76","L","3","","0","0","1","","0.3634831931","","50","","0.1310663867","main_expt","0.8","0.2733601765","0.6","","","0.2","","0.4","0.1341637883","0.3634831931","","","","","",""
"315","","bandit","129","452873","0.0-90.0-0.0","77071692","wem/bandit_either","A3IS28VQS5T5DE","either","6","","","","","","","72","H","0","img/none_selected.jpg","0","0","1","0.1450472339","","","51","0.1450472339","","main_expt","0.8","","0.6","0.2590969561","0.1225974466","0.2","0.3771608335","0.4","","","","","","","",""
"206","","bandit","130","454590","0.0-91.0-0.0","77071692","wem/bandit_either","A3IS28VQS5T5DE","either","6","","","","","","","74","J","1","","1","0","0","0.2515646212","","","52","0.1731775471","","main_expt","0.8","","0.6","0.2515646212","0.1145468474","0.2","0.3093307572","0.4","","","","","","","",""
"517","","bandit","131","456624","0.0-92.0-0.0","77071692","wem/bandit_either","A3IS28VQS5T5DE","either","6","","","","","","","74","J","1","","0","0","1","","0.2257746054","","53","","0.2258016315","main_expt","0.8","0.2257746054","0.6","","","0.2","","0.4","0.1059564611","0.2990929044","","","","","",""
"398","","bandit","132","458534","0.0-93.0-0.0","77071692","wem/bandit_either","A3IS28VQS5T5DE","either","6","","","","","","","75","K","2","","0","0","1","0.1090017536","","","54","0.2172527187","","main_expt","0.8","","0.6","0.2750925763","0.1090017536","0.2","0.2221679908","0.4","","","","","","","",""
"472","","bandit","133","460517","0.0-94.0-0.0","77071692","wem/bandit_either","A3IS28VQS5T5DE","either","6","","","","","","","76","L","3","","0","1","0","","0.1886471815","","55","","0.1652356872","main_expt","0.8","0.3608357377","0.6","","","0.2","","0.4","0.1249444004","0.1886471815","","","","","",""
"396","","bandit","134","462424","0.0-95.0-0.0","77071692","wem/bandit_either","A3IS28VQS5T5DE","either","6","","","","","","","74","J","1","","0","0","1","","0.4022545085","","56","","0.1576418272","main_expt","0.8","0.4022545085","0.6","","","0.2","","0.4","0.09043885587","0.1973213641","","","","","",""
"310","","bandit","135","464249","0.0-96.0-0.0","77071692","wem/bandit_either","A3IS28VQS5T5DE","either","6","","","","","","","74","J","1","","0","0","1","0.3867568464","","","57","0.180776926","","main_expt","0.8","","0.6","0.3867568464","0.07448640425","0.2","0.2207101474","0.4","","","","","","","",""
"316","","bandit","136","466082","0.0-97.0-0.0","77071692","wem/bandit_either","A3IS28VQS5T5DE","either","6","","","","","","","74","J","1","","0","1","0","","0.3840355114","","58","","0.1489081552","main_expt","0.8","0.3840355114","0.6","","","0.2","","0.4","0.09808879237","0.2480089655","","","","","",""
"388","","bandit","137","467983","0.0-98.0-0.0","77071692","wem/bandit_either","A3IS28VQS5T5DE","either","6","","","","","","","74","J","1","","1","0","0","0.3617876187","","","59","0.125555473","","main_expt","0.8","","0.6","0.3617876187","0.0721355853","0.2","0.2667579505","0.4","","","","","","","",""
"267","","bandit","138","469761","0.0-99.0-0.0","77071692","wem/bandit_either","A3IS28VQS5T5DE","either","6","","","","","","","74","J","1","","0","0","1","0.3018070945","","","60","0.1228814318","","main_expt","0.8","","0.6","0.3018070945","0.08871326978","0.2","0.2637313595","0.4","","","","","","","",""
"278","","bandit","139","471552","0.0-100.0-0.0","77071692","wem/bandit_either","A3IS28VQS5T5DE","either","6","","","","","","","76","L","3","","0","0","1","0.2400462537","","","61","0.195834737","","main_expt","0.8","","0.6","0.2687465691","0.1472383223","0.2","0.2400462537","0.4","","","","","","","",""
"312","","bandit","140","473379","0.0-101.0-0.0","77071692","wem/bandit_either","A3IS28VQS5T5DE","either","6","","","","","","","76","L","3","","0","0","1","0.2396546157","","","62","0.1952904108","","main_expt","0.8","","0.6","0.287622952","0.1625866577","0.2","0.2396546157","0.4","","","","","","","",""
"286","","bandit","141","475213","0.0-102.0-0.0","77071692","wem/bandit_either","A3IS28VQS5T5DE","either","6","","","","","","","76","L","3","","0","0","1","0.2558687718","","","63","0.187392073","","main_expt","0.8","","0.6","0.2060093557","0.1196153378","0.2","0.2558687718","0.4","","","","","","","",""
"292","","bandit","142","477016","0.0-103.0-0.0","77071692","wem/bandit_either","A3IS28VQS5T5DE","either","6","","","","","","","74","J","1","","1","0","0","0.1865830226","","","64","0.1774517964","","main_expt","0.8","","0.6","0.1865830226","0.1025290435","0.2","0.1789331692","0.4","","","","","","","",""
"337","","bandit","143","478869","0.0-104.0-0.0","77071692","wem/bandit_either","A3IS28VQS5T5DE","either","6","","","","","","","74","J","1","","0","0","1","","0.2242960511","","65","","0.1956590225","main_expt","0.8","0.2242960511","0.6","","","0.2","","0.4","0.06637487434","0.2041721298","","","","","",""
"303","","bandit","144","480692","0.0-105.0-0.0","77071692","wem/bandit_either","A3IS28VQS5T5DE","either","6","","","","","","","74","J","1","","0","0","1","0.213739571","","","66","0.1559932489","","main_expt","0.8","","0.6","0.213739571","0.09888809835","0.2","0.1083731131","0.4","","","","","","","",""
"287","","bandit","145","482498","0.0-106.0-0.0","77071692","wem/bandit_either","A3IS28VQS5T5DE","either","6","","","","","","","74","J","1","","0","1","0","","0.2463093088","","67","","0.1327283285","main_expt","0.8","0.2463093088","0.6","","","0.2","","0.4","0.08542348091","0.08148965902","","","","","",""
"93","","bandit","146","484107","0.0-107.0-0.0","77071692","wem/bandit_either","A3IS28VQS5T5DE","either","6","","","","","","","74","J","1","","0","0","1","","0.1863602012","","68","","0.1646421129","main_expt","0.8","0.1863602012","0.6","","","0.2","","0.4","0.05648132023","0.115871946","","","","","",""
"366","","bandit","147","485991","0.0-108.0-0.0","77071692","wem/bandit_either","A3IS28VQS5T5DE","either","6","","","","","","","74","J","1","","0","0","1","0.1481768435","","","69","0.1879918005","","main_expt","0.8","","0.6","0.1481768435","0.07427448495","0.2","0.1049465522","0.4","","","","","","","",""
"109","","bandit","148","487615","0.0-109.0-0.0","77071692","wem/bandit_either","A3IS28VQS5T5DE","either","6","","","","","","","74","J","1","","0","0","1","0.2062415021","","","70","0.1708527721","","main_expt","0.8","","0.6","0.2062415021","0.1052870039","0.2","0.1224614501","0.4","","","","","","","",""
"498","","bandit","149","489630","0.0-110.0-0.0","77071692","wem/bandit_either","A3IS28VQS5T5DE","either","6","","","","","","","74","J","1","","0","0","1","","0.2175562698","","71","","0.1930923514","main_expt","0.8","0.2175562698","0.6","","","0.2","","0.4","0.1114501371","0.1687358413","","","","","",""
"296","","bandit","150","491441","0.0-111.0-0.0","77071692","wem/bandit_either","A3IS28VQS5T5DE","either","6","","","","","","","74","J","1","","0","0","1","0.2182173038","","","72","0.2289396243","","main_expt","0.8","","0.6","0.2182173038","0.1282799478","0.2","0.1902964731","0.4","","","","","","","",""
"285","","bandit","151","493239","0.0-112.0-0.0","77071692","wem/bandit_either","A3IS28VQS5T5DE","either","6","","","","","","","74","J","1","","0","0","1","","0.1629952044","","73","","0.2223781067","main_expt","0.8","0.1629952044","0.6","","","0.2","","0.4","0.1113050996","0.1764690901","","","","","",""
"342","","bandit","152","495103","0.0-113.0-0.0","77071692","wem/bandit_either","A3IS28VQS5T5DE","either","6","","","","","","","74","J","1","","0","0","1","","0.2291178652","","74","","0.1664819569","main_expt","0.8","0.2291178652","0.6","","","0.2","","0.4","0.1573287606","0.1720288853","","","","","",""
"287","","bandit","153","496900","0.0-114.0-0.0","77071692","wem/bandit_either","A3IS28VQS5T5DE","either","6","","","","","","","74","J","1","","0","0","1","","0.2087405931","","75","","0.1157276324","main_expt","0.8","0.2087405931","0.6","","","0.2","","0.4","0.168318459","0.098780463","","","","","",""
"284","","bandit","154","498696","0.0-115.0-0.0","77071692","wem/bandit_either","A3IS28VQS5T5DE","either","6","","","","","","","76","L","3","","0","0","1","0.08192786134","","","76","0.06912044911","","main_expt","0.8","","0.6","0.1981976751","0.131742089","0.2","0.08192786134","0.4","","","","","","","",""
"231","","bandit","155","500441","0.0-116.0-0.0","77071692","wem/bandit_either","A3IS28VQS5T5DE","either","6","","","","","","","75","K","2","","0","1","0","","0.1382621175","","77","","0.06151132513","main_expt","0.8","0.2302368041","0.6","","","0.2","","0.4","0.1382621175","0.03620126105","","","","","",""
"183","","bandit","156","502134","0.0-117.0-0.0","77071692","wem/bandit_either","A3IS28VQS5T5DE","either","6","","","","","","","75","K","2","","0","0","1","","0.1351161864","","78","","0.08824794056","main_expt","0.8","0.2538269909","0.6","","","0.2","","0.4","0.1351161864","0.03362754592","","","","","",""
"129","","bandit","157","503782","0.0-118.0-0.0","77071692","wem/bandit_either","A3IS28VQS5T5DE","either","6","","","","","","","75","K","2","","0","0","1","","0.1125986002","","79","","0.08425003046","main_expt","0.8","0.221492582","0.6","","","0.2","","0.4","0.1125986002","0.03917851348","","","","","",""
"88","","bandit","158","505385","0.0-119.0-0.0","77071692","wem/bandit_either","A3IS28VQS5T5DE","either","6","","","","","","","72","H","0","img/none_selected.jpg","0","0","1","0.1059393704","","","80","0.1059393704","","main_expt","0.8","","0.6","0.2126184008","0.1071358869","0.2","0.06916691586","0.4","","","","","","","",""
"211","","bandit","159","507109","0.0-120.0-0.0","77071692","wem/bandit_either","A3IS28VQS5T5DE","either","6","","","","","","","74","J","1","","0","0","1","0.1803612399","","","81","0.114990546","","main_expt","0.8","","0.6","0.1803612399","0.1410751298","0.2","0.1110223174","0.4","","","","","","","",""
"58","","bandit","160","508683","0.0-121.0-0.0","77071692","wem/bandit_either","A3IS28VQS5T5DE","either","6","","","","","","","76","L","3","","0","0","1","","0.08899533144","","82","","0.1246300745","main_expt","0.8","0.1883980103","0.6","","","0.2","","0.4","0.1518454263","0.08899533144","","","","","",""
"292","","bandit","161","510487","0.0-122.0-0.0","77071692","wem/bandit_either","A3IS28VQS5T5DE","either","6","","","","","","","75","K","2","","0","0","1","","0.1285150734","","83","","0.1523433176","main_expt","0.8","0.2099895667","0.6","","","0.2","","0.4","0.1285150734","0.1383499545","","","","","",""
"213","","bandit","162","512217","0.0-123.0-0.0","77071692","wem/bandit_either","A3IS28VQS5T5DE","either","6","","","","","","","75","K","2","","0","1","0","","0.1083679187","","84","","0.1230513595","main_expt","0.8","0.1760666055","0.6","","","0.2","","0.4","0.1083679187","0.1815119679","","","","","",""
"317","","bandit","163","514052","0.0-124.0-0.0","77071692","wem/bandit_either","A3IS28VQS5T5DE","either","6","","","","","","","75","K","2","","0","0","1","0.08985983991","","","85","0.1460595132","","main_expt","0.8","","0.6","0.2077415988","0.08985983991","0.2","0.2121304898","0.4","","","","","","","",""
"423","","bandit","164","515990","0.0-125.0-0.0","77071692","wem/bandit_either","A3IS28VQS5T5DE","either","6","","","","","","","75","K","2","","0","0","1","","0.08377758623","","86","","0.1578730034","main_expt","0.8","0.1940704576","0.6","","","0.2","","0.4","0.08377758623","0.1931166697","","","","","",""
"255","","bandit","165","517758","0.0-126.0-0.0","77071692","wem/bandit_either","A3IS28VQS5T5DE","either","6","","","","","","","75","K","2","","0","0","1","","0.08340742779","","87","","0.1329566931","main_expt","0.8","0.1920524506","0.6","","","0.2","","0.4","0.08340742779","0.1908876969","","","","","",""
"109","","bandit","166","519382","0.0-127.0-0.0","77071692","wem/bandit_either","A3IS28VQS5T5DE","either","6","","","","","","","75","K","2","","0","0","1","","0.06937011617","","88","","0.1156353122","main_expt","0.8","0.2525081946","0.6","","","0.2","","0.4","0.06937011617","0.1727332377","","","","","",""
"463","","bandit","167","521371","0.0-128.0-0.0","77071692","wem/bandit_either","A3IS28VQS5T5DE","either","6","","","","","","","75","K","2","","0","0","1","","0.08556693901","","89","","0.1169245856","main_expt","0.8","0.2476280913","0.6","","","0.2","","0.4","0.08556693901","0.1747664758","","","","","",""
"267","","bandit","168","523153","0.0-129.0-0.0","77071692","wem/bandit_either","A3IS28VQS5T5DE","either","6","","","","","","","75","K","2","","0","0","1","0.1013294801","","","90","0.1276927611","","main_expt","0.8","","0.6","0.2476417222","0.1013294801","0.2","0.1302891894","0.4","","","","","","","",""
"315","","bandit","169","524978","0.0-130.0-0.0","77071692","wem/bandit_either","A3IS28VQS5T5DE","either","6","","","","","","","75","K","2","","0","0","1","","0.1567130635","","91","","0.1633868825","main_expt","0.8","0.1875867431","0.6","","","0.2","","0.4","0.1567130635","0.1143331172","","","","","",""
"315","","bandit","170","526804","0.0-131.0-0.0","77071692","wem/bandit_either","A3IS28VQS5T5DE","either","6","","","","","","","75","K","2","","0","0","1","0.1214255195","","","92","0.2172033847","","main_expt","0.8","","0.6","0.1804963823","0.1214255195","0.2","0.1674068059","0.4","","","","","","","",""
"291","","bandit","171","528609","0.0-132.0-0.0","77071692","wem/bandit_either","A3IS28VQS5T5DE","either","6","","","","","","","74","J","1","","0","0","1","","0.1468121695","","93","","0.2178255547","main_expt","0.8","0.1468121695","0.6","","","0.2","","0.4","0.1317465968","0.1405005834","","","","","",""
"308","","bandit","172","530433","0.0-133.0-0.0","77071692","wem/bandit_either","A3IS28VQS5T5DE","either","6","","","","","","","74","J","1","","0","0","1","0.1270151289","","","94","0.2058786334","","main_expt","0.8","","0.6","0.1270151289","0.1810196293","0.2","0.1338278818","0.4","","","","","","","",""
"285","","bandit","173","532232","0.0-134.0-0.0","77071692","wem/bandit_either","A3IS28VQS5T5DE","either","6","","","","","","","74","J","1","","0","0","1","0.1049494322","","","95","0.2009860572","","main_expt","0.8","","0.6","0.1049494322","0.1537803575","0.2","0.16416917","0.4","","","","","","","",""
"259","","bandit","174","534007","0.0-135.0-0.0","77071692","wem/bandit_either","A3IS28VQS5T5DE","either","6","","","","","","","76","L","3","","1","0","0","0.1075549125","","","96","0.2792576191","","main_expt","0.8","","0.6","0.1242023773","0.2255368078","0.2","0.1075549125","0.4","","","","","","","",""
"277","","bandit","175","535800","0.0-136.0-0.0","77071692","wem/bandit_either","A3IS28VQS5T5DE","either","6","","","","","","","76","L","3","","0","0","1","0.07285617598","","","97","0.291042229","","main_expt","0.8","","0.6","0.101802889","0.1881791955","0.2","0.07285617598","0.4","","","","","","","",""
"246","","bandit","176","537558","0.0-137.0-0.0","77071692","wem/bandit_either","A3IS28VQS5T5DE","either","6","","","","","","","76","L","3","","0","0","1","","0.1128802937","","98","","0.2919937097","main_expt","0.8","0.08559904752","0.6","","","0.2","","0.4","0.1722186849","0.1128802937","","","","","",""
"167","","bandit","177","539239","0.0-138.0-0.0","77071692","wem/bandit_either","A3IS28VQS5T5DE","either","6","","","","","","","76","L","3","","0","0","1","","0.07338875894","","99","","0.338066437","main_expt","0.8","0.04480153982","0.6","","","0.2","","0.4","0.2581810796","0.07338875894","","","","","",""
"262","","bandit","178","541015","0.0-139.0-0.0","77071692","wem/bandit_either","A3IS28VQS5T5DE","either","6","","","","","","","76","L","3","","0","0","1","","0.06256672301","","100","","0.3466775547","main_expt","0.8","0.03694367041","0.6","","","0.2","","0.4","0.3094702251","0.06256672301","","","","","",""
"279","","bandit","179","542808","0.0-140.0-0.0","77071692","wem/bandit_either","A3IS28VQS5T5DE","either","6","","","","","","","76","L","3","","0","0","1","","0.06765033746","","101","","0.3776837944","main_expt","0.8","0.02534596886","0.6","","","0.2","","0.4","0.3217449289","0.06765033746","","","","","",""
"4340","","bandit","180","548660","0.0-141.0-0.0","77071692","wem/bandit_either","A3IS28VQS5T5DE","either","6","","","","","","","75","K","2","","0","0","1","0.3656493725","","","102","0.3988278911","","main_expt","0.8","","0.6","0.03456503798","0.3656493725","0.2","0.08460413752","0.4","","","","","","","",""
"286","","bandit","181","550464","0.0-142.0-0.0","77071692","wem/bandit_either","A3IS28VQS5T5DE","either","6","","","","","","","76","L","3","","0","0","1","","0.1149622558","","103","","0.3642388176","main_expt","0.8","0.03116272615","0.6","","","0.2","","0.4","0.4097417878","0.1149622558","","","","","",""
"1210","","bandit","182","553189","0.0-143.0-0.0","77071692","wem/bandit_either","A3IS28VQS5T5DE","either","6","","","","","","","74","J","1","","0","0","1","0.04034009898","","","104","0.3059376685","","main_expt","0.8","","0.6","0.04034009898","0.4005896235","0.2","0.1223821921","0.4","","","","","","","",""
"329","","bandit","183","555027","0.0-144.0-0.0","77071692","wem/bandit_either","A3IS28VQS5T5DE","either","6","","","","","","","76","L","3","","0","0","1","0.1302837569","","","105","0.2658022239","","main_expt","0.8","","0.6","0.06132200156","0.3967946647","0.2","0.1302837569","0.4","","","","","","","",""
"306","","bandit","184","556847","0.0-145.0-0.0","77071692","wem/bandit_either","A3IS28VQS5T5DE","either","6","","","","","","","76","L","3","","0","0","1","","0.1405927316","","106","","0.2583534607","main_expt","0.8","0.03171667797","0.6","","","0.2","","0.4","0.3920329447","0.1405927316","","","","","",""
"117","","bandit","185","558476","0.0-146.0-0.0","77071692","wem/bandit_either","A3IS28VQS5T5DE","either","6","","","","","","","76","L","3","","0","0","1","0.1835021143","","","107","0.2402432731","","main_expt","0.8","","0.6","0.06603394544","0.3973329777","0.2","0.1835021143","0.4","","","","","","","",""
"81","","bandit","186","560067","0.0-147.0-0.0","77071692","wem/bandit_either","A3IS28VQS5T5DE","either","6","","","","","","","76","L","3","","0","0","1","0.2124513917","","","108","0.2364509509","","main_expt","0.8","","0.6","0.08137973005","0.3839010997","0.2","0.2124513917","0.4","","","","","","","",""
"241","","bandit","187","561820","0.0-148.0-0.0","77071692","wem/bandit_either","A3IS28VQS5T5DE","either","6","","","","","","","76","L","3","","0","0","1","","0.218007314","","109","","0.2164051194","main_expt","0.8","0.04765661509","0.6","","","0.2","","0.4","0.3879107289","0.218007314","","","","","",""
"97","","bandit","188","563426","0.0-149.0-0.0","77071692","wem/bandit_either","A3IS28VQS5T5DE","either","6","","","","","","","76","L","3","","0","1","0","","0.229469423","","110","","0.1611838666","main_expt","0.8","0.06789381979","0.6","","","0.2","","0.4","0.3989855113","0.229469423","","","","","",""
"226","","bandit","189","565163","0.0-150.0-0.0","77071692","wem/bandit_either","A3IS28VQS5T5DE","either","6","","","","","","","76","L","3","","0","0","1","0.2923436213","","","111","0.2042622235","","main_expt","0.8","","0.6","0.08972795074","0.3959495959","0.2","0.2923436213","0.4","","","","","","","",""
"73","","bandit","190","566749","0.0-151.0-0.0","77071692","wem/bandit_either","A3IS28VQS5T5DE","either","6","","","","","","","76","L","3","","1","0","0","0.2778802509","","","112","0.2113733305","","main_expt","0.8","","0.6","0.1176683061","0.335596647","0.2","0.2778802509","0.4","","","","","","","",""
"291","","bandit","191","568553","0.0-152.0-0.0","77071692","wem/bandit_either","A3IS28VQS5T5DE","either","6","","","","","","","76","L","3","","0","0","1","","0.2852166322","","113","","0.220236308","main_expt","0.8","0.1973953549","0.6","","","0.2","","0.4","0.2876347753","0.2852166322","","","","","",""
"348","","bandit","192","570416","0.0-153.0-0.0","77071692","wem/bandit_either","A3IS28VQS5T5DE","either","6","","","","","","","76","L","3","","0","1","0","","0.3222351196","","114","","0.2453392608","main_expt","0.8","0.200840576","0.6","","","0.2","","0.4","0.2811359795","0.3222351196","","","","","",""
"166","","bandit","193","572091","0.0-154.0-0.0","77071692","wem/bandit_either","A3IS28VQS5T5DE","either","6","","","","","","","76","L","3","","0","0","1","0.2865303103","","","115","0.2311931225","","main_expt","0.8","","0.6","0.2544006126","0.2056035349","0.2","0.2865303103","0.4","","","","","","","",""
"153","","bandit","194","573754","0.0-155.0-0.0","77071692","wem/bandit_either","A3IS28VQS5T5DE","either","6","","","","","","","76","L","3","","0","0","1","0.1901772154","","","116","0.2290532582","","main_expt","0.8","","0.6","0.2264812366","0.2435386161","0.2","0.1901772154","0.4","","","","","","","",""
"298","","bandit","195","575565","0.0-156.0-0.0","77071692","wem/bandit_either","A3IS28VQS5T5DE","either","6","","","","","","","76","L","3","","0","0","1","0.1854727963","","","117","0.2610634121","","main_expt","0.8","","0.6","0.2535822563","0.2523066444","0.2","0.1854727963","0.4","","","","","","","",""
"459","","bandit","196","577539","0.0-157.0-0.0","77071692","wem/bandit_either","A3IS28VQS5T5DE","either","6","","","","","","","76","L","3","","0","1","0","","0.223078523","","118","","0.2915584027","main_expt","0.8","0.288462609","0.6","","","0.2","","0.4","0.258758296","0.223078523","","","","","",""
"297","","bandit","197","579351","0.0-158.0-0.0","77071692","wem/bandit_either","A3IS28VQS5T5DE","either","6","","","","","","","76","L","3","","0","0","1","0.2157898803","","","119","0.3240034744","","main_expt","0.8","","0.6","0.3077733757","0.2513882557","0.2","0.2157898803","0.4","","","","","","","",""
"38","","bandit","198","580901","0.0-159.0-0.0","77071692","wem/bandit_either","A3IS28VQS5T5DE","either","6","","","","","","","76","L","3","","0","0","1","","0.2055853597","","120","","0.3584552205","main_expt","0.8","0.3470363664","0.6","","","0.2","","0.4","0.2178230887","0.2055853597","","","","","",""
"112","","bandit","199","582525","0.0-160.0-0.0","77071692","wem/bandit_either","A3IS28VQS5T5DE","either","6","","","","","","","76","L","3","","0","0","1","","0.2308362602","","121","","0.3392259721","main_expt","0.8","0.36369082","0.6","","","0.2","","0.4","0.2249913612","0.2308362602","","","","","",""
"166","","bandit","200","584203","0.0-161.0-0.0","77071692","wem/bandit_either","A3IS28VQS5T5DE","either","6","","","","","","","76","L","3","","0","0","1","","0.1858821776","","122","","0.3211990091","main_expt","0.8","0.3740977319","0.6","","","0.2","","0.4","0.2135386538","0.1858821776","","","","","",""
"80","","bandit","201","585794","0.0-162.0-0.0","77071692","wem/bandit_either","A3IS28VQS5T5DE","either","6","","","","","","","76","L","3","","0","0","1","","0.1948645322","","123","","0.3082515077","main_expt","0.8","0.3617230251","0.6","","","0.2","","0.4","0.2742148462","0.1948645322","","","","","",""
"170","","bandit","202","587477","0.0-163.0-0.0","77071692","wem/bandit_either","A3IS28VQS5T5DE","either","6","","","","","","","76","L","3","","0","0","1","0.1875433284","","","124","0.3337980485","","main_expt","0.8","","0.6","0.3189133642","0.3092488957","0.2","0.1875433284","0.4","","","","","","","",""
"86","","bandit","203","589079","0.0-164.0-0.0","77071692","wem/bandit_either","A3IS28VQS5T5DE","either","6","","","","","","","76","L","3","","0","0","1","0.1805360773","","","125","0.2815584253","","main_expt","0.8","","0.6","0.3134342975","0.2832498899","0.2","0.1805360773","0.4","","","","","","","",""
"109","","bandit","204","590704","0.0-165.0-0.0","77071692","wem/bandit_either","A3IS28VQS5T5DE","either","6","","","","","","","76","L","3","","0","0","1","","0.2199741614","","126","","0.2544389989","main_expt","0.8","0.2889117865","0.6","","","0.2","","0.4","0.321902755","0.2199741614","","","","","",""
"124","","bandit","205","592342","0.0-166.0-0.0","77071692","wem/bandit_either","A3IS28VQS5T5DE","either","6","","","","","","","76","L","3","","0","0","1","0.212963778","","","127","0.217883989","","main_expt","0.8","","0.6","0.3101500906","0.3163630435","0.2","0.212963778","0.4","","","","","","","",""
"157","","bandit","206","594012","0.0-167.0-0.0","77071692","wem/bandit_either","A3IS28VQS5T5DE","either","6","","","","","","","76","L","3","","0","0","1","","0.1853882534","","128","","0.1941215274","main_expt","0.8","0.3257933697","0.6","","","0.2","","0.4","0.3242789072","0.1853882534","","","","","",""
"239","","bandit","207","595767","0.0-168.0-0.0","77071692","wem/bandit_either","A3IS28VQS5T5DE","either","6","","","","","","","76","L","3","","0","0","1","","0.1486900389","","129","","0.2093197904","main_expt","0.8","0.2767822115","0.6","","","0.2","","0.4","0.3430844202","0.1486900389","","","","","",""
"252","","bandit","208","597531","0.0-169.0-0.0","77071692","wem/bandit_either","A3IS28VQS5T5DE","either","6","","","","","","","75","K","2","","1","0","0","0.3487272729","","","130","0.2325895014","","main_expt","0.8","","0.6","0.3389859305","0.3487272729","0.2","0.1581202816","0.4","","","","","","","",""
"250","","bandit","209","599295","0.0-170.0-0.0","77071692","wem/bandit_either","A3IS28VQS5T5DE","either","6","","","","","","","75","K","2","","0","0","1","0.3850752379","","","131","0.2680880231","","main_expt","0.8","","0.6","0.2807576759","0.3850752379","0.2","0.1189605486","0.4","","","","","","","",""
"1172","","bandit","210","601979","0.0-171.0-0.0","77071692","wem/bandit_either","A3IS28VQS5T5DE","either","6","","","","","","","75","K","2","","0","1","0","","0.3547422913","","132","","0.2053564998","main_expt","0.8","0.2044414959","0.6","","","0.2","","0.4","0.3547422913","0.08638656351","","","","","",""
"103","","bandit","211","603598","0.0-172.0-0.0","77071692","wem/bandit_either","A3IS28VQS5T5DE","either","6","","","","","","","75","K","2","","0","0","1","","0.3256782816","","133","","0.2102644512","main_expt","0.8","0.2352631215","0.6","","","0.2","","0.4","0.3256782816","0.104542274","","","","","",""
"190","","bandit","212","605304","0.0-173.0-0.0","77071692","wem/bandit_either","A3IS28VQS5T5DE","either","6","","","","","","","75","K","2","","0","0","1","","0.2479378245","","134","","0.2028105977","main_expt","0.8","0.2808822736","0.6","","","0.2","","0.4","0.2479378245","0.1401790922","","","","","",""
"266","","bandit","213","607085","0.0-174.0-0.0","77071692","wem/bandit_either","A3IS28VQS5T5DE","either","6","","","","","","","75","K","2","","0","0","1","","0.24301602","","135","","0.1556880781","main_expt","0.8","0.3053704558","0.6","","","0.2","","0.4","0.24301602","0.1818128853","","","","","",""
"114","","bandit","214","608711","0.0-175.0-0.0","77071692","wem/bandit_either","A3IS28VQS5T5DE","either","6","","","","","","","75","K","2","","0","1","0","","0.2630427063","","136","","0.1428421262","main_expt","0.8","0.3140058771","0.6","","","0.2","","0.4","0.2630427063","0.1583738081","","","","","",""
"485","","bandit","215","610706","0.0-176.0-0.0","77071692","wem/bandit_either","A3IS28VQS5T5DE","either","6","","","","","","","75","K","2","","0","0","1","","0.3053425806","","137","","0.1039390038","main_expt","0.8","0.323699752","0.6","","","0.2","","0.4","0.3053425806","0.1497920091","","","","","",""
"144","","bandit","216","612364","0.0-177.0-0.0","77071692","wem/bandit_either","A3IS28VQS5T5DE","either","6","","","","","","","75","K","2","","0","0","1","","0.3588623722","","138","","0.07132433681","main_expt","0.8","0.3435108126","0.6","","","0.2","","0.4","0.3588623722","0.1128601551","","","","","",""
"234","","bandit","217","614110","0.0-178.0-0.0","77071692","wem/bandit_either","A3IS28VQS5T5DE","either","6","","","","","","","75","K","2","","0","0","1","","0.2762704672","","139","","0.1047165976","main_expt","0.8","0.3505637202","0.6","","","0.2","","0.4","0.2762704672","0.1073604677","","","","","",""
"300","","bandit","218","615926","0.0-179.0-0.0","77071692","wem/bandit_either","A3IS28VQS5T5DE","either","6","","","","","","","75","K","2","","0","0","1","","0.2475753012","","140","","0.09043849554","main_expt","0.8","0.4185251601","0.6","","","0.2","","0.4","0.2475753012","0.1376710563","","","","","",""
"108","","bandit","219","617550","0.0-180.0-0.0","77071692","wem/bandit_either","A3IS28VQS5T5DE","either","6","","","","","","","75","K","2","","0","0","1","","0.2436306075","","141","","0.05096505815","main_expt","0.8","0.4225289085","0.6","","","0.2","","0.4","0.2436306075","0.1412662962","","","","","",""
"165","","bandit","220","619230","0.0-181.0-0.0","77071692","wem/bandit_either","A3IS28VQS5T5DE","either","6","","","","","","","75","K","2","","0","0","1","","0.1998899021","","142","","0.02973759478","main_expt","0.8","0.455259632","0.6","","","0.2","","0.4","0.1998899021","0.1543424817","","","","","",""
"205","","bandit","221","620948","0.0-182.0-0.0","77071692","wem/bandit_either","A3IS28VQS5T5DE","either","6","","","","","","","75","K","2","","0","0","1","","0.2568100034","","143","","0.04457260366","main_expt","0.8","0.4287003803","0.6","","","0.2","","0.4","0.2568100034","0.1552636118","","","","","",""
"182","","bandit","222","622642","0.0-183.0-0.0","77071692","wem/bandit_either","A3IS28VQS5T5DE","either","6","","","","","","","75","K","2","","0","0","1","","0.2859833531","","144","","0.04060115041","main_expt","0.8","0.4260506414","0.6","","","0.2","","0.4","0.2859833531","0.2241753426","","","","","",""
"234","","bandit","223","624392","0.0-184.0-0.0","77071692","wem/bandit_either","A3IS28VQS5T5DE","either","6","","","","","","","74","J","1","","0","0","1","0.4202170594","","","145","0.06712401514","","main_expt","0.8","","0.6","0.4202170594","0.2080640158","0.2","0.2484131349","0.4","","","","","","","",""
"108","","bandit","224","626015","0.0-185.0-0.0","77071692","wem/bandit_either","A3IS28VQS5T5DE","either","6","","","","","","","74","J","1","","1","0","0","0.4333226383","","","146","0.08780921534","","main_expt","0.8","","0.6","0.4333226383","0.2469639643","0.2","0.2905032103","0.4","","","","","","","",""
"283","","bandit","225","627816","0.0-186.0-0.0","77071692","wem/bandit_either","A3IS28VQS5T5DE","either","6","","","","","","","74","J","1","","0","0","1","","0.4340954059","","147","","0.1333368233","main_expt","0.8","0.4340954059","0.6","","","0.2","","0.4","0.2169279296","0.2846703457","","","","","",""
"187","","bandit","226","629516","0.0-187.0-0.0","77071692","wem/bandit_either","A3IS28VQS5T5DE","either","6","","","","","","","74","J","1","","1","0","0","0.3903754431","","","148","0.09264147873","","main_expt","0.8","","0.6","0.3903754431","0.1248284812","0.2","0.3010433131","0.4","","","","","","","",""
"297","","bandit","227","631329","0.0-188.0-0.0","77071692","wem/bandit_either","A3IS28VQS5T5DE","either","6","","","","","","","74","J","1","","0","0","1","0.4161192262","","","149","0.123708687","","main_expt","0.8","","0.6","0.4161192262","0.1498862571","0.2","0.3421268102","0.4","","","","","","","",""
"89","","bandit","228","632935","0.0-189.0-0.0","77071692","wem/bandit_either","A3IS28VQS5T5DE","either","6","","","","","","","74","J","1","","0","0","1","0.4545257836","","","150","0.1087811601","","main_expt","0.8","","0.6","0.4545257836","0.2044632824","0.2","0.3382865341","0.4","","","","","","","",""
"376","","bandit","229","634822","0.0-190.0-0.0","77071692","wem/bandit_either","A3IS28VQS5T5DE","either","6","","","","","","","74","J","1","","1","0","0","0.4553704948","","","151","0.1640336927","","main_expt","0.8","","0.6","0.4553704948","0.1630699797","0.2","0.3031951358","0.4","","","","","","","",""
"213","","bandit","230","636551","0.0-191.0-0.0","77071692","wem/bandit_either","A3IS28VQS5T5DE","either","6","","","","","","","74","J","1","","0","0","1","0.4692720684","","","152","0.1474195158","","main_expt","0.8","","0.6","0.4692720684","0.1534962237","0.2","0.3163498213","0.4","","","","","","","",""
"114","","bandit","231","638183","0.0-192.0-0.0","77071692","wem/bandit_either","A3IS28VQS5T5DE","either","6","","","","","","","74","J","1","","0","0","1","","0.4794448159","","153","","0.1200421148","main_expt","0.8","0.4794448159","0.6","","","0.2","","0.4","0.1506701345","0.3205280093","","","","","",""
"353","","bandit","232","640051","0.0-193.0-0.0","77071692","wem/bandit_either","A3IS28VQS5T5DE","either","6","","","","","","","74","J","1","","0","1","0","","0.4762011242","","154","","0.1295208369","main_expt","0.8","0.4762011242","0.6","","","0.2","","0.4","0.1810992197","0.2780981807","","","","","",""
"183","","bandit","233","641747","0.0-194.0-0.0","77071692","wem/bandit_either","A3IS28VQS5T5DE","either","6","","","","","","","74","J","1","","1","0","0","0.4797315341","","","155","0.1189574303","","main_expt","0.8","","0.6","0.4797315341","0.2574031695","0.2","0.2543788853","0.4","","","","","","","",""
"192","","bandit","234","643452","0.0-195.0-0.0","77071692","wem/bandit_either","A3IS28VQS5T5DE","either","6","","","","","","","74","J","1","","0","0","1","","0.4815153028","","156","","0.1511338071","main_expt","0.8","0.4815153028","0.6","","","0.2","","0.4","0.1838662476","0.2601772157","","","","","",""
"231","","bandit","235","645199","0.0-196.0-0.0","77071692","wem/bandit_either","A3IS28VQS5T5DE","either","6","","","","","","","74","J","1","","1","0","0","0.4769669351","","","157","0.1494559257","","main_expt","0.8","","0.6","0.4769669351","0.1951262555","0.2","0.27050514","0.4","","","","","","","",""
"227","","bandit","236","646942","0.0-197.0-0.0","77071692","wem/bandit_either","A3IS28VQS5T5DE","either","6","","","","","","","74","J","1","","0","0","1","","0.4819637572","","158","","0.1398300683","main_expt","0.8","0.4819637572","0.6","","","0.2","","0.4","0.1711173681","0.2912044809","","","","","",""
"220","","bandit","237","648678","0.0-198.0-0.0","77071692","wem/bandit_either","A3IS28VQS5T5DE","either","6","","","","","","","74","J","1","","1","0","0","0.4802617926","","","159","0.1482700517","","main_expt","0.8","","0.6","0.4802617926","0.1262927185","0.2","0.2863852675","0.4","","","","","","","",""
"221","","bandit","238","650413","0.0-199.0-0.0","77071692","wem/bandit_either","A3IS28VQS5T5DE","either","6","","","","","","","74","J","1","","0","0","1","","0.4834703177","","160","","0.1327856751","main_expt","0.8","0.4834703177","0.6","","","0.2","","0.4","0.1289005464","0.3188379944","","","","","",""
"159","","bandit","239","652085","0.0-200.0-0.0","77071692","wem/bandit_either","A3IS28VQS5T5DE","either","6","","","","","","","74","J","1","","0","0","1","0.4783639554","","","161","0.1936248495","","main_expt","0.8","","0.6","0.4783639554","0.07062595825","0.2","0.3918259889","0.4","","","","","","","",""
"132","","bandit","240","653734","0.0-201.0-0.0","77071692","wem/bandit_either","A3IS28VQS5T5DE","either","6","","","","","","","74","J","1","","0","0","1","","0.4702379588","","162","","0.1917288119","main_expt","0.8","0.4702379588","0.6","","","0.2","","0.4","0.08554885259","0.3825352776","","","","","",""
"157","","bandit","241","655405","0.0-202.0-0.0","77071692","wem/bandit_either","A3IS28VQS5T5DE","either","6","","","","","","","74","J","1","","0","0","1","0.4761999765","","","163","0.2410074379","","main_expt","0.8","","0.6","0.4761999765","0.05790820845","0.2","0.3500114378","0.4","","","","","","","",""
"220","","bandit","242","657142","0.0-203.0-0.0","77071692","wem/bandit_either","A3IS28VQS5T5DE","either","6","","","","","","","74","J","1","","0","0","1","0.4683988395","","","164","0.2717164652","","main_expt","0.8","","0.6","0.4683988395","0.04744410613","0.2","0.3138306729","0.4","","","","","","","",""
"220","","bandit","243","658877","0.0-204.0-0.0","77071692","wem/bandit_either","A3IS28VQS5T5DE","either","6","","","","","","","74","J","1","","0","1","0","","0.4594806004","","165","","0.3360488911","main_expt","0.8","0.4594806004","0.6","","","0.2","","0.4","0.07721988326","0.3066591237","","","","","",""
"221","","bandit","244","660612","0.0-205.0-0.0","77071692","wem/bandit_either","A3IS28VQS5T5DE","either","6","","","","","","","74","J","1","","1","0","0","0.4769271284","","","166","0.3288768439","","main_expt","0.8","","0.6","0.4769271284","0.09276645858","0.2","0.359337808","0.4","","","","","","","",""
"221","","bandit","245","662348","0.0-206.0-0.0","77071692","wem/bandit_either","A3IS28VQS5T5DE","either","6","","","","","","","74","J","1","","0","1","0","","0.4824675089","","167","","0.341079324","main_expt","0.8","0.4824675089","0.6","","","0.2","","0.4","0.1092251717","0.3888119778","","","","","",""
"236","","bandit","246","664099","0.0-207.0-0.0","77071692","wem/bandit_either","A3IS28VQS5T5DE","either","6","","","","","","","74","J","1","","0","0","1","","0.4731218304","","168","","0.2972081376","main_expt","0.8","0.4731218304","0.6","","","0.2","","0.4","0.09704797424","0.3188253523","","","","","",""
"70","","bandit","247","665683","0.0-208.0-0.0","77071692","wem/bandit_either","A3IS28VQS5T5DE","either","6","","","","","","","74","J","1","","1","0","0","0.4558692975","","","169","0.2716537329","","main_expt","0.8","","0.6","0.4558692975","0.1131958007","0.2","0.3035082617","0.4","","","","","","","",""
"248","","bandit","248","667445","0.0-209.0-0.0","77071692","wem/bandit_either","A3IS28VQS5T5DE","either","6","","","","","","","74","J","1","","1","0","0","0.424927817","","","170","0.3705489528","","main_expt","0.8","","0.6","0.424927817","0.1636150477","0.2","0.3540810543","0.4","","","","","","","",""
"253","","bandit","249","669209","0.0-210.0-0.0","77071692","wem/bandit_either","A3IS28VQS5T5DE","either","6","","","","","","","74","J","1","","0","0","1","0.4254050478","","","171","0.3259531709","","main_expt","0.8","","0.6","0.4254050478","0.1889182236","0.2","0.2912941695","0.4","","","","","","","",""
"303","","bandit","250","671028","0.0-211.0-0.0","77071692","wem/bandit_either","A3IS28VQS5T5DE","either","6","","","","","","","74","J","1","","0","1","0","","0.4319935488","","172","","0.3253578443","main_expt","0.8","0.4319935488","0.6","","","0.2","","0.4","0.1494540944","0.2964718019","","","","","",""
"93","","bandit","251","672633","0.0-212.0-0.0","77071692","wem/bandit_either","A3IS28VQS5T5DE","either","6","","","","","","","74","J","1","","0","1","0","","0.4157756128","","173","","0.3133285256","main_expt","0.8","0.4157756128","0.6","","","0.2","","0.4","0.1700291406","0.2411205861","","","","","",""
"297","","bandit","252","674440","0.0-213.0-0.0","77071692","wem/bandit_either","A3IS28VQS5T5DE","either","6","","","","","","","74","J","1","","0","0","1","0.3650518631","","","174","0.3470844982","","main_expt","0.8","","0.6","0.3650518631","0.2007600912","0.2","0.2132737127","0.4","","","","","","","",""
"154","","bandit","253","676110","0.0-214.0-0.0","77071692","wem/bandit_either","A3IS28VQS5T5DE","either","6","","","","","","","74","J","1","","1","0","0","0.3583375904","","","175","0.3615725976","","main_expt","0.8","","0.6","0.3583375904","0.1613291475","0.2","0.2722172758","0.4","","","","","","","",""
"211","","bandit","254","677836","0.0-215.0-0.0","77071692","wem/bandit_either","A3IS28VQS5T5DE","either","6","","","","","","","74","J","1","","0","1","0","","0.3849487833","","176","","0.3592449917","main_expt","0.8","0.3849487833","0.6","","","0.2","","0.4","0.1618540135","0.3158297255","","","","","",""
"173","","bandit","255","679524","0.0-216.0-0.0","77071692","wem/bandit_either","A3IS28VQS5T5DE","either","6","","","","","","","74","J","1","","0","0","1","0.3741193846","","","177","0.3614776984","","main_expt","0.8","","0.6","0.3741193846","0.1337509382","0.2","0.3033070912","0.4","","","","","","","",""
"86","","bandit","256","681121","0.0-217.0-0.0","77071692","wem/bandit_either","A3IS28VQS5T5DE","either","6","","","","","","","74","J","1","","0","0","1","","0.3704436283","","178","","0.4042649322","main_expt","0.8","0.3704436283","0.6","","","0.2","","0.4","0.172909152","0.3070990366","","","","","",""
"129","","bandit","257","682764","0.0-218.0-0.0","77071692","wem/bandit_either","A3IS28VQS5T5DE","either","6","","","","","","","74","J","1","","1","0","0","0.3718647044","","","179","0.3626499081","","main_expt","0.8","","0.6","0.3718647044","0.2306318455","0.2","0.349206168","0.4","","","","","","","",""
"116","","bandit","258","684394","0.0-219.0-0.0","77071692","wem/bandit_either","A3IS28VQS5T5DE","either","6","","","","","","","74","J","1","","0","1","0","","0.3144845341","","180","","0.365831292","main_expt","0.8","0.3144845341","0.6","","","0.2","","0.4","0.2531752843","0.3533593609","","","","","",""
"72","","bandit","259","685980","0.0-220.0-0.0","77071692","wem/bandit_either","A3IS28VQS5T5DE","either","6","","","","","","","74","J","1","","0","0","1","0.3328992573","","","181","0.3720079561","","main_expt","0.8","","0.6","0.3328992573","0.2995137733","0.2","0.3792633926","0.4","","","","","","","",""
"157","","bandit","260","687652","0.0-221.0-0.0","77071692","wem/bandit_either","A3IS28VQS5T5DE","either","6","","","","","","","74","J","1","","0","0","1","0.3443004049","","","182","0.3747751333","","main_expt","0.8","","0.6","0.3443004049","0.2818604164","0.2","0.4170401524","0.4","","","","","","","",""
"44","","bandit","261","689208","0.0-222.0-0.0","77071692","wem/bandit_either","A3IS28VQS5T5DE","either","6","","","","","","","74","J","1","","0","0","1","","0.3572445505","","183","","0.3772869326","main_expt","0.8","0.3572445505","0.6","","","0.2","","0.4","0.2706787236","0.4349898381","","","","","",""
"216","","bandit","262","690942","0.0-223.0-0.0","77071692","wem/bandit_either","A3IS28VQS5T5DE","either","6","","","","","","","74","J","1","","0","0","1","0.358140682","","","184","0.3719200221","","main_expt","0.8","","0.6","0.358140682","0.2788381055","0.2","0.4355724899","0.4","","","","","","","",""
"81","","bandit","263","692540","0.0-224.0-0.0","77071692","wem/bandit_either","A3IS28VQS5T5DE","either","6","","","","","","","74","J","1","","0","0","1","0.2938856532","","","185","0.3759280431","","main_expt","0.8","","0.6","0.2938856532","0.2591604306","0.2","0.443517249","0.4","","","","","","","",""
"53","","bandit","264","694108","0.0-225.0-0.0","77071692","wem/bandit_either","A3IS28VQS5T5DE","either","6","","","","","","","74","J","1","","0","0","1","","0.2570442146","","186","","0.3686405037","main_expt","0.8","0.2570442146","0.6","","","0.2","","0.4","0.1717283936","0.4185550765","","","","","",""
"98","","bandit","265","695722","0.0-226.0-0.0","77071692","wem/bandit_either","A3IS28VQS5T5DE","either","6","","","","","","","74","J","1","","0","0","1","0.2781151114","","","187","0.3693778387","","main_expt","0.8","","0.6","0.2781151114","0.1399016055","0.2","0.4582246802","0.4","","","","","","","",""
"10","","bandit","266","697247","0.0-227.0-0.0","77071692","wem/bandit_either","A3IS28VQS5T5DE","either","6","","","","","","","74","J","1","","0","0","1","0.2510368257","","","188","0.3858781765","","main_expt","0.8","","0.6","0.2510368257","0.116743447","0.2","0.4499637214","0.4","","","","","","","",""
"255","","bandit","267","699020","0.0-228.0-0.0","77071692","wem/bandit_either","A3IS28VQS5T5DE","either","6","","","","","","","74","J","1","","0","0","1","0.2299291889","","","189","0.353665234","","main_expt","0.8","","0.6","0.2299291889","0.09810356538","0.2","0.4681283031","0.4","","","","","","","",""
"348","","bandit","268","700885","0.0-229.0-0.0","77071692","wem/bandit_either","A3IS28VQS5T5DE","either","6","","","","","","","74","J","1","","0","0","1","","0.2957770397","","190","","0.3702546744","main_expt","0.8","0.2957770397","0.6","","","0.2","","0.4","0.1333212727","0.4672384316","","","","","",""
"107","","bandit","269","702506","0.0-230.0-0.0","77071692","wem/bandit_either","A3IS28VQS5T5DE","either","6","","","","","","","74","J","1","","0","0","1","0.2806998676","","","191","0.3373283559","","main_expt","0.8","","0.6","0.2806998676","0.07289491444","0.2","0.4633056668","0.4","","","","","","","",""
"224","","bandit","270","704247","0.0-231.0-0.0","77071692","wem/bandit_either","A3IS28VQS5T5DE","either","6","","","","","","","74","J","1","","1","0","0","0.2578649702","","","192","0.3717228864","","main_expt","0.8","","0.6","0.2578649702","0.09060717316","0.2","0.4701423021","0.4","","","","","","","",""
"272","","bandit","271","706045","0.0-232.0-0.0","77071692","wem/bandit_either","A3IS28VQS5T5DE","either","6","","","","","","","74","J","1","","0","0","1","0.3019093773","","","193","0.3861484819","","main_expt","0.8","","0.6","0.3019093773","0.1038106097","0.2","0.4625827917","0.4","","","","","","","",""
"169","","bandit","272","707729","0.0-233.0-0.0","77071692","wem/bandit_either","A3IS28VQS5T5DE","either","6","","","","","","","74","J","1","","0","1","0","","0.3028603149","","194","","0.3884838939","main_expt","0.8","0.3028603149","0.6","","","0.2","","0.4","0.1222204007","0.4480064119","","","","","",""
"150","","bandit","273","709397","0.0-234.0-0.0","77071692","wem/bandit_either","A3IS28VQS5T5DE","either","6","","","","","","","74","J","1","","0","0","1","0.2933095063","","","195","0.4058549971","","main_expt","0.8","","0.6","0.2933095063","0.1230179676","0.2","0.4263193963","0.4","","","","","","","",""
"90","","bandit","274","711004","0.0-235.0-0.0","77071692","wem/bandit_either","A3IS28VQS5T5DE","either","6","","","","","","","74","J","1","","0","0","1","0.3333663608","","","196","0.3894648227","","main_expt","0.8","","0.6","0.3333663608","0.1972068901","0.2","0.4399191733","0.4","","","","","","","",""
"186","","bandit","275","712706","0.0-236.0-0.0","77071692","wem/bandit_either","A3IS28VQS5T5DE","either","6","","","","","","","72","H","0","img/none_selected.jpg","0","0","1","0.3452919481","","","197","0.3452919481","","main_expt","0.8","","0.6","0.3472763543","0.2091218652","0.2","0.4303685687","0.4","","","","","","","",""
"38","","bandit","276","714261","0.0-237.0-0.0","77071692","wem/bandit_either","A3IS28VQS5T5DE","either","6","","","","","","","72","H","0","img/none_selected.jpg","0","0","1","0.3571156804","","","198","0.3571156804","","main_expt","0.8","","0.6","0.3420385624","0.2316117542","0.2","0.4166638701","0.4","","","","","","","",""
"35","","bandit","277","715808","0.0-238.0-0.0","77071692","wem/bandit_either","A3IS28VQS5T5DE","either","6","","","","","","","72","H","0","img/none_selected.jpg","0","0","1","0.3761278261","","","199","0.3761278261","","main_expt","0.8","","0.6","0.3009927129","0.1983173389","0.2","0.4166192342","0.4","","","","","","","",""
"183","","bandit","278","717504","0.0-239.0-0.0","77071692","wem/bandit_either","A3IS28VQS5T5DE","either","6","","","","","","","74","J","1","","1","0","0","0.2834367318","","","200","0.3623939384","","main_expt","0.8","","0.6","0.2834367318","0.2275108597","0.2","0.4065109498","0.4","","","","","","","",""
"166","","bandit","279","719188","0.0-240.0-0.0","77071692","wem/bandit_either","A3IS28VQS5T5DE","either","6","","","","","","","74","J","1","","1","0","0","0.2305195973","","","201","0.3470966653","","main_expt","0.8","","0.6","0.2305195973","0.2753755663","0.2","0.4210367682","0.4","","","","","","","",""
"253","","bandit","280","720954","0.0-241.0-0.0","77071692","wem/bandit_either","A3IS28VQS5T5DE","either","6","","","","","","","74","J","1","","1","0","0","0.236439039","","","202","0.3738670455","","main_expt","0.8","","0.6","0.236439039","0.2867984519","0.2","0.4059774394","0.4","","","","","","","",""
"166","","bandit","281","722633","0.0-242.0-0.0","77071692","wem/bandit_either","A3IS28VQS5T5DE","either","6","","","","","","","74","J","1","","0","0","1","","0.207292508","","203","","0.4434414113","main_expt","0.8","0.207292508","0.6","","","0.2","","0.4","0.227681123","0.4217634448","","","","","",""
"536","","bandit","282","724682","0.0-243.0-0.0","77071692","wem/bandit_either","A3IS28VQS5T5DE","either","6","","","","","","","74","J","1","","0","0","1","0.2706274655","","","204","0.4363530878","","main_expt","0.8","","0.6","0.2706274655","0.2421814767","0.2","0.417590799","0.4","","","","","","","",""
"301","","bandit","283","726498","0.0-244.0-0.0","77071692","wem/bandit_either","A3IS28VQS5T5DE","either","6","","","","","","","74","J","1","","0","0","1","0.2688171721","","","205","0.4390009565","","main_expt","0.8","","0.6","0.2688171721","0.2250127273","0.2","0.3892328218","0.4","","","","","","","",""
"239","","bandit","284","728249","0.0-245.0-0.0","77071692","wem/bandit_either","A3IS28VQS5T5DE","either","6","","","","","","","74","J","1","","1","0","0","0.2774640617","","","206","0.4606838579","","main_expt","0.8","","0.6","0.2774640617","0.2148063869","0.2","0.3877758809","0.4","","","","","","","",""
"286","","bandit","285","730051","0.0-246.0-0.0","77071692","wem/bandit_either","A3IS28VQS5T5DE","either","6","","","","","","","74","J","1","","0","0","1","","0.31303597","","207","","0.4679198071","main_expt","0.8","0.31303597","0.6","","","0.2","","0.4","0.2370073307","0.3344078408","","","","","",""
"235","","bandit","286","731802","0.0-247.0-0.0","77071692","wem/bandit_either","A3IS28VQS5T5DE","either","6","","","","","","","74","J","1","","0","0","1","0.3187850143","","","208","0.4731710197","","main_expt","0.8","","0.6","0.3187850143","0.1736764344","0.2","0.3285414067","0.4","","","","","","","",""
"283","","bandit","287","733601","0.0-248.0-0.0","77071692","wem/bandit_either","A3IS28VQS5T5DE","either","6","","","","","","","74","J","1","","0","0","1","0.3031297305","","","209","0.472507437","","main_expt","0.8","","0.6","0.3031297305","0.2033963155","0.2","0.337659841","0.4","","","","","","","",""
"366","","bandit","288","735517","0.0-249.0-0.0","77071692","wem/bandit_either","A3IS28VQS5T5DE","either","6","","","","","","","74","J","1","","0","1","0","","0.3593083662","","210","","0.4759946166","main_expt","0.8","0.3593083662","0.6","","","0.2","","0.4","0.1849029676","0.322880172","","","","","",""
"344","","bandit","289","737433","0.0-250.0-0.0","77071692","wem/bandit_either","A3IS28VQS5T5DE","either","6","","","","","","","74","J","1","","0","0","1","","0.3758292662","","211","","0.4838002785","main_expt","0.8","0.3758292662","0.6","","","0.2","","0.4","0.08033524441","0.3440981268","","","","","",""
"247","","bandit","290","739199","0.0-251.0-0.0","77071692","wem/bandit_either","A3IS28VQS5T5DE","either","6","","","","","","","74","J","1","","0","0","1","","0.3771764803","","212","","0.4871609062","main_expt","0.8","0.3771764803","0.6","","","0.2","","0.4","0.1024936548","0.3135232579","","","","","",""
"49","","bandit","291","740764","0.0-252.0-0.0","77071692","wem/bandit_either","A3IS28VQS5T5DE","either","6","","","","","","","74","J","1","","0","0","1","0.3935517348","","","213","0.4829725273","","main_expt","0.8","","0.6","0.3935517348","0.1380366818","0.2","0.328558382","0.4","","","","","","","",""
"208","","bandit","292","742491","0.0-253.0-0.0","77071692","wem/bandit_either","A3IS28VQS5T5DE","either","6","","","","","","","74","J","1","","0","0","1","0.3792377037","","","214","0.4742933803","","main_expt","0.8","","0.6","0.3792377037","0.1206441992","0.2","0.3024402918","0.4","","","","","","","",""
"188","","bandit","293","744197","0.0-254.0-0.0","77071692","wem/bandit_either","A3IS28VQS5T5DE","either","6","","","","","","","74","J","1","","0","0","1","","0.3364308411","","215","","0.4754417465","main_expt","0.8","0.3364308411","0.6","","","0.2","","0.4","0.1320715796","0.3024001881","","","","","",""
"208","","bandit","294","745921","0.0-255.0-0.0","77071692","wem/bandit_either","A3IS28VQS5T5DE","either","6","","","","","","","74","J","1","","0","0","1","0.3348871659","","","216","0.4764866221","","main_expt","0.8","","0.6","0.3348871659","0.1152906885","0.2","0.2975117226","0.4","","","","","","","",""
"168","","bandit","295","747613","0.0-256.0-0.0","77071692","wem/bandit_either","A3IS28VQS5T5DE","either","6","","","","","","","74","J","1","","0","0","1","0.321293363","","","217","0.4727866334","","main_expt","0.8","","0.6","0.321293363","0.1191406027","0.2","0.3331298207","0.4","","","","","","","",""
"101","","bandit","296","749235","0.0-257.0-0.0","77071692","wem/bandit_either","A3IS28VQS5T5DE","either","6","","","","","","","74","J","1","","0","0","1","0.3530973922","","","218","0.4664653133","","main_expt","0.8","","0.6","0.3530973922","0.1177717736","0.2","0.2905667849","0.4","","","","","","","",""
"283","","bandit","297","751032","0.0-258.0-0.0","77071692","wem/bandit_either","A3IS28VQS5T5DE","either","6","","","","","","","74","J","1","","1","0","0","0.3837093308","","","219","0.4636837267","","main_expt","0.8","","0.6","0.3837093308","0.1178729669","0.2","0.2701708387","0.4","","","","","","","",""
"244","","bandit","298","752794","0.0-259.0-0.0","77071692","wem/bandit_either","A3IS28VQS5T5DE","either","6","","","","","","","74","J","1","","0","0","1","","0.3651541458","","220","","0.4599900571","main_expt","0.8","0.3651541458","0.6","","","0.2","","0.4","0.1284790336","0.2395453957","","","","","",""
"468","","bandit","299","754780","0.0-260.0-0.0","77071692","wem/bandit_either","A3IS28VQS5T5DE","either","6","","","","","","","74","J","1","","0","0","1","0.254085412","","","221","0.4490722186","","main_expt","0.8","","0.6","0.254085412","0.147465279","0.2","0.2770622605","0.4","","","","","","","",""
"329","","bandit","300","756630","0.0-261.0-0.0","77071692","wem/bandit_either","A3IS28VQS5T5DE","either","6","","","","","","","74","J","1","","1","0","0","0.2590796483","","","222","0.4253353094","","main_expt","0.8","","0.6","0.2590796483","0.1441925756","0.2","0.3390746663","0.4","","","","","","","",""
"309","","bandit","301","758458","0.0-262.0-0.0","77071692","wem/bandit_either","A3IS28VQS5T5DE","either","6","","","","","","","74","J","1","","0","0","1","0.2640852941","","","223","0.4559825987","","main_expt","0.8","","0.6","0.2640852941","0.1731110736","0.2","0.384843876","0.4","","","","","","","",""
"311","","bandit","302","760290","0.0-263.0-0.0","77071692","wem/bandit_either","A3IS28VQS5T5DE","either","6","","","","","","","72","H","0","img/none_selected.jpg","0","0","1","0.464560515","","","224","0.464560515","","main_expt","0.8","","0.6","0.2636590797","0.1124600034","0.2","0.4367619307","0.4","","","","","","","",""
"74","","bandit","303","761880","0.0-264.0-0.0","77071692","wem/bandit_either","A3IS28VQS5T5DE","either","6","","","","","","","75","K","2","","0","1","0","","0.1174510337","","225","","0.4528378766","main_expt","0.8","0.3110444069","0.6","","","0.2","","0.4","0.1174510337","0.42055701","","","","","",""
"228","","bandit","304","763628","0.0-265.0-0.0","77071692","wem/bandit_either","A3IS28VQS5T5DE","either","6","","","","","","","75","K","2","","0","1","0","","0.1494320736","","226","","0.4585160156","main_expt","0.8","0.3268768972","0.6","","","0.2","","0.4","0.1494320736","0.4282593698","","","","","",""
"280","","bandit","305","765428","0.0-266.0-0.0","77071692","wem/bandit_either","A3IS28VQS5T5DE","either","6","","","","","","","75","K","2","","0","0","1","","0.1655037845","","227","","0.4525914875","main_expt","0.8","0.3112991039","0.6","","","0.2","","0.4","0.1655037845","0.4213985596","","","","","",""
"162","","bandit","306","767107","0.0-267.0-0.0","77071692","wem/bandit_either","A3IS28VQS5T5DE","either","6","","","","","","","75","K","2","","0","0","1","","0.1595877114","","228","","0.4618810074","main_expt","0.8","0.3481066565","0.6","","","0.2","","0.4","0.1595877114","0.4115599459","","","","","",""
"180","","bandit","307","768803","0.0-268.0-0.0","77071692","wem/bandit_either","A3IS28VQS5T5DE","either","6","","","","","","","75","K","2","","0","0","1","","0.1811982871","","229","","0.4661541784","main_expt","0.8","0.3267856819","0.6","","","0.2","","0.4","0.1811982871","0.375967734","","","","","",""
"252","","bandit","308","770569","0.0-269.0-0.0","77071692","wem/bandit_either","A3IS28VQS5T5DE","either","6","","","","","","","75","K","2","","0","0","1","","0.2088208598","","230","","0.4681373403","main_expt","0.8","0.3043034776","0.6","","","0.2","","0.4","0.2088208598","0.4172813036","","","","","",""
"258","","bandit","309","772350","0.0-270.0-0.0","77071692","wem/bandit_either","A3IS28VQS5T5DE","either","6","","","","","","","75","K","2","","0","1","0","","0.2062946352","","231","","0.4733838814","main_expt","0.8","0.3127123154","0.6","","","0.2","","0.4","0.2062946352","0.3871641603","","","","","",""
"281","","bandit","310","774148","0.0-271.0-0.0","77071692","wem/bandit_either","A3IS28VQS5T5DE","either","6","","","","","","","75","K","2","","0","1","0","","0.1448621505","","232","","0.455942125","main_expt","0.8","0.3039198066","0.6","","","0.2","","0.4","0.1448621505","0.3381606844","","","","","",""
"176","","bandit","311","775847","0.0-272.0-0.0","77071692","wem/bandit_either","A3IS28VQS5T5DE","either","6","","","","","","","75","K","2","","0","0","1","","0.1096360744","","233","","0.4523014459","main_expt","0.8","0.2846072758","0.6","","","0.2","","0.4","0.1096360744","0.2918198365","","","","","",""
"174","","bandit","312","777542","0.0-273.0-0.0","77071692","wem/bandit_either","A3IS28VQS5T5DE","either","6","","","","","","","75","K","2","","0","0","1","","0.1102272527","","234","","0.4715877437","main_expt","0.8","0.2430061478","0.6","","","0.2","","0.4","0.1102272527","0.3016980071","","","","","",""
"222","","bandit","313","779292","0.0-274.0-0.0","77071692","wem/bandit_either","A3IS28VQS5T5DE","either","6","","","","","","","75","K","2","","0","0","1","","0.1428859574","","235","","0.4667146267","main_expt","0.8","0.263037213","0.6","","","0.2","","0.4","0.1428859574","0.2940059945","","","","","",""
"105","","bandit","314","780914","0.0-275.0-0.0","77071692","wem/bandit_either","A3IS28VQS5T5DE","either","6","","","","","","","76","L","3","","0","0","1","","0.2926833733","","236","","0.4638430617","main_expt","0.8","0.2976510001","0.6","","","0.2","","0.4","0.1659437887","0.2926833733","","","","","",""
"194","","bandit","315","782625","0.0-276.0-0.0","77071692","wem/bandit_either","A3IS28VQS5T5DE","either","6","","","","","","","76","L","3","","0","0","1","","0.278351659","","237","","0.4584702359","main_expt","0.8","0.2789990486","0.6","","","0.2","","0.4","0.1948695303","0.278351659","","","","","",""
"179","","bandit","316","784322","0.0-277.0-0.0","77071692","wem/bandit_either","A3IS28VQS5T5DE","either","6","","","","","","","72","H","0","img/none_selected.jpg","0","1","0","","0.4297714473","","238","","0.4297714473","main_expt","0.8","0.2760904485","0.6","","","0.2","","0.4","0.2231382717","0.2475781625","","","","","",""
"275","","bandit","317","786114","0.0-278.0-0.0","77071692","wem/bandit_either","A3IS28VQS5T5DE","either","6","","","","","","","72","H","0","img/none_selected.jpg","0","0","1","","0.4225482751","","239","","0.4225482751","main_expt","0.8","0.2679201555","0.6","","","0.2","","0.4","0.2118273477","0.2476463542","","","","","",""
"323","","bandit","318","787952","0.0-279.0-0.0","77071692","wem/bandit_either","A3IS28VQS5T5DE","either","6","","","","","","","72","H","0","img/none_selected.jpg","1","0","0","0.3911766626","","","240","0.3911766626","","main_expt","0.8","","0.6","0.1815101208","0.175879666","0.2","0.2691810592","0.4","","","","","","","",""
"261","","bandit","319","789730","0.0-280.0-0.0","77071692","wem/bandit_either","A3IS28VQS5T5DE","either","6","","","","","","","72","H","0","img/none_selected.jpg","0","0","1","","0.3576719612","","241","","0.3576719612","main_expt","0.8","0.2107278188","0.6","","","0.2","","0.4","0.2619723004","0.2600118225","","","","","",""
"210","","bandit","320","791454","0.0-281.0-0.0","77071692","wem/bandit_either","A3IS28VQS5T5DE","either","6","","","","","","","72","H","0","img/none_selected.jpg","1","0","0","0.3649942216","","","242","0.3649942216","","main_expt","0.8","","0.6","0.1890457695","0.253357122","0.2","0.2585740571","0.4","","","","","","","",""
"173","","bandit","321","793143","0.0-282.0-0.0","77071692","wem/bandit_either","A3IS28VQS5T5DE","either","6","","","","","","","72","H","0","img/none_selected.jpg","0","0","1","0.3462843793","","","243","0.3462843793","","main_expt","0.8","","0.6","0.1983598585","0.2937411872","0.2","0.1943885749","0.4","","","","","","","",""
"151","","bandit","322","794811","0.0-283.0-0.0","77071692","wem/bandit_either","A3IS28VQS5T5DE","either","6","","","","","","","72","H","0","img/none_selected.jpg","1","0","0","0.3520149162","","","244","0.3520149162","","main_expt","0.8","","0.6","0.2165838592","0.2743784529","0.2","0.1861062248","0.4","","","","","","","",""
"233","","bandit","323","796563","0.0-284.0-0.0","77071692","wem/bandit_either","A3IS28VQS5T5DE","either","6","","","","","","","72","H","0","img/none_selected.jpg","0","0","1","","0.3483485742","","245","","0.3483485742","main_expt","0.8","0.1823109088","0.6","","","0.2","","0.4","0.2734657034","0.1398782291","","","","","",""
"1010","","bandit","324","799089","0.0-285.0-0.0","77071692","wem/bandit_either","A3IS28VQS5T5DE","either","6","","","","","","","72","H","0","img/none_selected.jpg","1","0","0","0.3814570076","","","246","0.3814570076","","main_expt","0.8","","0.6","0.172760958","0.2285423815","0.2","0.1392076576","0.4","","","","","","","",""
"242","","bandit","325","800852","0.0-286.0-0.0","77071692","wem/bandit_either","A3IS28VQS5T5DE","either","6","","","","","","","72","H","0","img/none_selected.jpg","0","0","1","0.3871035364","","","247","0.3871035364","","main_expt","0.8","","0.6","0.1955602127","0.269943793","0.2","0.2028121248","0.4","","","","","","","",""
"224","","bandit","326","802594","0.0-287.0-0.0","77071692","wem/bandit_either","A3IS28VQS5T5DE","either","6","","","","","","","72","H","0","img/none_selected.jpg","0","0","1","0.3746835134","","","248","0.3746835134","","main_expt","0.8","","0.6","0.1770790361","0.2974302923","0.2","0.2522392451","0.4","","","","","","","",""
"146","","bandit","327","804258","0.0-288.0-0.0","77071692","wem/bandit_either","A3IS28VQS5T5DE","either","6","","","","","","","72","H","0","img/none_selected.jpg","0","0","1","0.3787028279","","","249","0.3787028279","","main_expt","0.8","","0.6","0.1884848562","0.2667415426","0.2","0.234975876","0.4","","","","","","","",""
"449","","bandit","328","806222","0.0-289.0-0.0","77071692","wem/bandit_either","A3IS28VQS5T5DE","either","6","","","","","","","72","H","0","img/none_selected.jpg","0","0","1","0.3475116331","","","250","0.3475116331","","main_expt","0.8","","0.6","0.2314514176","0.3302420342","0.2","0.2388523745","0.4","","","","","","","",""
"38652","","bandit","329","846396","0.0-290.0-0.0","77071692","wem/bandit_either","A3IS28VQS5T5DE","either","6","","","","","","","75","K","2","","0","0","1","","0.3080318139","","251","","0.3297368302","main_expt","0.8","0.2028544779","0.6","","","0.2","","0.4","0.3080318139","0.2412642198","","","","","",""
"366","","bandit","330","848283","0.0-291.0-0.0","77071692","wem/bandit_either","A3IS28VQS5T5DE","either","6","","","","","","","75","K","2","","1","0","0","0.2931646133","","","252","0.2830962297","","main_expt","0.8","","0.6","0.2296758881","0.2931646133","0.2","0.2662386667","0.4","","","","","","","",""
"296","","bandit","331","850094","0.0-292.0-0.0","77071692","wem/bandit_either","A3IS28VQS5T5DE","either","6","","","","","","","76","L","3","","0","1","0","","0.288812178","","253","","0.2360872172","main_expt","0.8","0.1527325802","0.6","","","0.2","","0.4","0.3315577467","0.288812178","","","","","",""
"259","","bandit","332","851872","0.0-293.0-0.0","77071692","wem/bandit_either","A3IS28VQS5T5DE","either","6","","","","","","","76","L","3","","1","0","0","0.2411004805","","","254","0.2413611774","","main_expt","0.8","","0.6","0.1248180068","0.3042928979","0.2","0.2411004805","0.4","","","","","","","",""
"84","","bandit","333","853469","0.0-294.0-0.0","77071692","wem/bandit_either","A3IS28VQS5T5DE","either","6","","","","","","","76","L","3","","0","0","1","0.2310811835","","","255","0.2383328341","","main_expt","0.8","","0.6","0.1340266912","0.3455523015","0.2","0.2310811835","0.4","","","","","","","",""
