"rt","responses","trial_type","trial_index","time_elapsed","internal_node_id","subjID","study","MID","cond","drift","key_press","expt_phase","target","like","value","connected","gems","bombs","no_reward","GemPrChosen","BombPrChosen","GainOverPainPr_0","GainOverPainPr_1","GainOverPainPr_2","GainOverPainPr_3","LosePr_0","LosePr_1","LosePr_2","LosePr_3","WinPr_0","WinPr_1","WinPr_2","WinPr_3","Q0","Q1","Q2","gender","age","ethnicity","respCharCode","respKey","respChoiceNum","respChoice","practice","trial_counter","trial_label"
"9169","{""Q0"":""A12VDN3TJJCAQQ""}","survey-text","0","9184","0.0-0.0","77920439","wem/bandit_either","A12VDN3TJJCAQQ","either","8","","","","","","","","","","","","","","","","","","","","","","","","","","","","","","","","","","","",""
"6385","","text","1","16591","0.0-1.0","77920439","wem/bandit_either","A12VDN3TJJCAQQ","either","8","32","","","","","","","","","","","","","","","","","","","","","","","","","","","","","","","","","","",""
"7356","","text","2","23950","0.0-2.0","77920439","wem/bandit_either","A12VDN3TJJCAQQ","either","8","32","","","","","","","","","","","","","","","","","","","","","","","","","","","","","","","","","","",""
"18630","","text","3","42582","0.0-3.0","77920439","wem/bandit_either","A12VDN3TJJCAQQ","either","8","32","","","","","","","","","","","","","","","","","","","","","","","","","","","","","","","","","","",""
"13226","","text","4","55811","0.0-4.0","77920439","wem/bandit_either","A12VDN3TJJCAQQ","either","8","32","","","","","","","","","","","","","","","","","","","","","","","","","","","","","","","","","","",""
"26135","","text","5","81949","0.0-5.0","77920439","wem/bandit_either","A12VDN3TJJCAQQ","either","8","32","","","","","","","","","","","","","","","","","","","","","","","","","","","","","","","","","","",""
"6863","","text","6","88816","0.0-6.0","77920439","wem/bandit_either","A12VDN3TJJCAQQ","either","8","32","","","","","","","","","","","","","","","","","","","","","","","","","","","","","","","","","","",""
"3360","","text","7","92180","0.0-7.0","77920439","wem/bandit_either","A12VDN3TJJCAQQ","either","8","32","","","","","","","","","","","","","","","","","","","","","","","","","","","","","","","","","","",""
"11972","","identification","8","104183","0.0-8.0-0.0","77920439","wem/bandit_either","A12VDN3TJJCAQQ","either","8","","identification_pre","the village of Zur","","","","","","","","","","","","","","","","","","","","","","","","","","","","","","","","",""
"2877","","identification","9","108094","0.0-8.0-1.0","77920439","wem/bandit_either","A12VDN3TJJCAQQ","either","8","","identification_pre","the village of Nyx","","","","","","","","","","","","","","","","","","","","","","","","","","","","","","","","",""
"6326","","text","10","115441","0.0-9.0","77920439","wem/bandit_either","A12VDN3TJJCAQQ","either","8","32","","","","","","","","","","","","","","","","","","","","","","","","","","","","","","","","","","",""
"2836","","text","11","118281","0.0-10.0","77920439","wem/bandit_either","A12VDN3TJJCAQQ","either","8","32","","","","","","","","","","","","","","","","","","","","","","","","","","","","","","","","","","",""
"2142","","text","12","120427","0.0-11.0","77920439","wem/bandit_either","A12VDN3TJJCAQQ","either","8","32","","","","","","","","","","","","","","","","","","","","","","","","","","","","","","","","","","",""
"3296","","text","13","123725","0.0-12.0","77920439","wem/bandit_either","A12VDN3TJJCAQQ","either","8","32","","","","","","","","","","","","","","","","","","","","","","","","","","","","","","","","","","",""
"8068","","bandit","14","133340","0.0-13.0-0.0","77920439","wem/bandit_either","A12VDN3TJJCAQQ","either","8","","","","","","","0","0","1","0","0","","","","","0","","","","0","","","","","","","","","","74","J","0","img/none_selected_demo.jpg","true","0",""
"1855","","bandit","15","136778","0.0-14.0-0.0","77920439","wem/bandit_either","A12VDN3TJJCAQQ","either","8","","","","","","","0","0","1","0","0","","","","","0","","","","0","","","","","","","","","","75","K","0","img/none_selected_demo.jpg","true","0",""
"10037","","text","16","146818","0.0-15.0","77920439","wem/bandit_either","A12VDN3TJJCAQQ","either","8","32","","","","","","","","","","","","","","","","","","","","","","","","","","","","","","","","","","",""
"7019","","text","17","153840","0.0-16.0","77920439","wem/bandit_either","A12VDN3TJJCAQQ","either","8","32","","","","","","","","","","","","","","","","","","","","","","","","","","","","","","","","","","",""
"6419","","text","18","160262","0.0-17.0","77920439","wem/bandit_either","A12VDN3TJJCAQQ","either","8","32","","","","","","","","","","","","","","","","","","","","","","","","","","","","","","","","","","",""
"5761","","text","19","166025","0.0-18.0","77920439","wem/bandit_either","A12VDN3TJJCAQQ","either","8","32","","","","","","","","","","","","","","","","","","","","","","","","","","","","","","","","","","",""
"1440","","bandit","20","168980","0.0-19.0-0.0","77920439","wem/bandit_either","A12VDN3TJJCAQQ","either","8","","","","","","","1","0","0","0.8","","0.5","0.5","","","","","","","0.8","0.2","","","","","","","","","74","J","0","img/none_selected_demo.jpg","true","0","80_20_practice"
"743","","bandit","21","171244","0.0-19.0-1.0","77920439","wem/bandit_either","A12VDN3TJJCAQQ","either","8","","","","","","","1","0","0","0.8","","0.5","0.5","","","","","","","0.8","0.2","","","","","","","","","74","J","0","img/none_selected_demo.jpg","true","0","80_20_practice"
"726","","bandit","22","173493","0.0-19.0-2.0","77920439","wem/bandit_either","A12VDN3TJJCAQQ","either","8","","","","","","","0","1","0","","0.8","0.5","0.5","","","0.8","0.2","","","","","","","","","","","","","74","J","0","img/none_selected_demo.jpg","true","0","80_20_practice"
"882","","bandit","23","175891","0.0-19.0-3.0","77920439","wem/bandit_either","A12VDN3TJJCAQQ","either","8","","","","","","","0","0","1","","0.8","0.5","0.5","","","0.8","0.2","","","","","","","","","","","","","74","J","0","img/none_selected_demo.jpg","true","0","80_20_practice"
"493","","bandit","24","177898","0.0-19.0-4.0","77920439","wem/bandit_either","A12VDN3TJJCAQQ","either","8","","","","","","","0","0","1","","0.8","0.5","0.5","","","0.8","0.2","","","","","","","","","","","","","74","J","0","img/none_selected_demo.jpg","true","0","80_20_practice"
"698","","bandit","25","180106","0.0-19.0-5.0","77920439","wem/bandit_either","A12VDN3TJJCAQQ","either","8","","","","","","","0","0","1","0.8","","0.5","0.5","","","","","","","0.8","0.2","","","","","","","","","74","J","0","img/none_selected_demo.jpg","true","0","80_20_practice"
"289","","bandit","26","181905","0.0-19.0-6.0","77920439","wem/bandit_either","A12VDN3TJJCAQQ","either","8","","","","","","","0","0","1","0.2","","0.5","0.5","","","","","","","0.8","0.2","","","","","","","","","75","K","1","","true","0","80_20_practice"
"318","","bandit","27","183751","0.0-19.0-7.0","77920439","wem/bandit_either","A12VDN3TJJCAQQ","either","8","","","","","","","0","0","1","","0.8","0.5","0.5","","","0.8","0.2","","","","","","","","","","","","","74","J","0","img/none_selected_demo.jpg","true","0","80_20_practice"
"309","","bandit","28","185584","0.0-19.0-8.0","77920439","wem/bandit_either","A12VDN3TJJCAQQ","either","8","","","","","","","1","0","0","0.8","","0.5","0.5","","","","","","","0.8","0.2","","","","","","","","","74","J","0","img/none_selected_demo.jpg","true","0","80_20_practice"
"305","","bandit","29","187428","0.0-19.0-9.0","77920439","wem/bandit_either","A12VDN3TJJCAQQ","either","8","","","","","","","1","0","0","0.8","","0.5","0.5","","","","","","","0.8","0.2","","","","","","","","","74","J","0","img/none_selected_demo.jpg","true","0","80_20_practice"
"724","","bandit","30","189663","0.0-19.0-10.0","77920439","wem/bandit_either","A12VDN3TJJCAQQ","either","8","","","","","","","1","0","0","0.8","","0.5","0.5","","","","","","","0.8","0.2","","","","","","","","","74","J","0","img/none_selected_demo.jpg","true","0","80_20_practice"
"4327","","bandit","31","195522","0.0-19.0-11.0","77920439","wem/bandit_either","A12VDN3TJJCAQQ","either","8","","","","","","","0","1","0","","0.8","0.5","0.5","","","0.8","0.2","","","","","","","","","","","","","74","J","0","img/none_selected_demo.jpg","true","0","80_20_practice"
"1958","","bandit","32","199003","0.0-19.0-12.0","77920439","wem/bandit_either","A12VDN3TJJCAQQ","either","8","","","","","","","0","0","1","0.8","","0.5","0.5","","","","","","","0.8","0.2","","","","","","","","","74","J","0","img/none_selected_demo.jpg","true","0","80_20_practice"
"5414","","bandit","33","206068","0.0-19.0-13.0","77920439","wem/bandit_either","A12VDN3TJJCAQQ","either","8","","","","","","","0","0","1","","0.8","0.5","0.5","","","0.8","0.2","","","","","","","","","","","","","74","J","0","img/none_selected_demo.jpg","true","0","80_20_practice"
"376","","bandit","34","207955","0.0-19.0-14.0","77920439","wem/bandit_either","A12VDN3TJJCAQQ","either","8","","","","","","","0","1","0","","0.8","0.5","0.5","","","0.8","0.2","","","","","","","","","","","","","74","J","0","img/none_selected_demo.jpg","true","0","80_20_practice"
"333","","bandit","35","209815","0.0-19.0-15.0","77920439","wem/bandit_either","A12VDN3TJJCAQQ","either","8","","","","","","","1","0","0","0.8","","0.5","0.5","","","","","","","0.8","0.2","","","","","","","","","74","J","0","img/none_selected_demo.jpg","true","0","80_20_practice"
"249","","bandit","36","211597","0.0-19.0-16.0","77920439","wem/bandit_either","A12VDN3TJJCAQQ","either","8","","","","","","","0","1","0","","0.8","0.5","0.5","","","0.8","0.2","","","","","","","","","","","","","74","J","0","img/none_selected_demo.jpg","true","0","80_20_practice"
"255","","bandit","37","213377","0.0-19.0-17.0","77920439","wem/bandit_either","A12VDN3TJJCAQQ","either","8","","","","","","","0","1","0","","0.8","0.5","0.5","","","0.8","0.2","","","","","","","","","","","","","74","J","0","img/none_selected_demo.jpg","true","0","80_20_practice"
"257","","bandit","38","215146","0.0-19.0-18.0","77920439","wem/bandit_either","A12VDN3TJJCAQQ","either","8","","","","","","","0","1","0","","0.8","0.5","0.5","","","0.8","0.2","","","","","","","","","","","","","74","J","0","img/none_selected_demo.jpg","true","0","80_20_practice"
"318","","bandit","39","216997","0.0-19.0-19.0","77920439","wem/bandit_either","A12VDN3TJJCAQQ","either","8","","","","","","","1","0","0","0.8","","0.5","0.5","","","","","","","0.8","0.2","","","","","","","","","74","J","0","img/none_selected_demo.jpg","true","0","80_20_practice"
"6572","","text","40","223573","0.0-20.0","77920439","wem/bandit_either","A12VDN3TJJCAQQ","either","8","32","","","","","","","","","","","","","","","","","","","","","","","","","","","","","","","","","","",""
"2484","","bandit","41","227575","0.0-21.0-0.0","77920439","wem/bandit_either","A12VDN3TJJCAQQ","either","8","","","","","","","1","0","0","1","0","","","","","0","1","","","1","0","","","","","","","","","74","J","0","img/none_selected_demo.jpg","true","0",""
"5486","","text","42","233066","0.0-22.0","77920439","wem/bandit_either","A12VDN3TJJCAQQ","either","8","74","","","","","","","","","","","","","","","","","","","","","","","","","","","","","","","","","","",""
"4219","","text","43","237290","0.0-23.0","77920439","wem/bandit_either","A12VDN3TJJCAQQ","either","8","32","","","","","","","","","","","","","","","","","","","","","","","","","","","","","","","","","","",""
"3133","","text","44","240426","0.0-24.0","77920439","wem/bandit_either","A12VDN3TJJCAQQ","either","8","32","","","","","","","","","","","","","","","","","","","","","","","","","","","","","","","","","","",""
"2415","","text","45","242845","0.0-25.0","77920439","wem/bandit_either","A12VDN3TJJCAQQ","either","8","32","","","","","","","","","","","","","","","","","","","","","","","","","","","","","","","","","","",""
"9989","","text","46","252838","0.0-26.0","77920439","wem/bandit_either","A12VDN3TJJCAQQ","either","8","32","","","","","","","","","","","","","","","","","","","","","","","","","","","","","","","","","","",""
"3052","","text","47","255896","0.0-27.0","77920439","wem/bandit_either","A12VDN3TJJCAQQ","either","8","32","","","","","","","","","","","","","","","","","","","","","","","","","","","","","","","","","","",""
"4005","","text","48","259906","0.0-28.0","77920439","wem/bandit_either","A12VDN3TJJCAQQ","either","8","32","","","","","","","","","","","","","","","","","","","","","","","","","","","","","","","","","","",""
"2399","","text","49","262309","0.0-29.0","77920439","wem/bandit_either","A12VDN3TJJCAQQ","either","8","32","","","","","","","","","","","","","","","","","","","","","","","","","","","","","","","","","","",""
"3876","","text","50","266189","0.0-30.0","77920439","wem/bandit_either","A12VDN3TJJCAQQ","either","8","32","","","","","","","","","","","","","","","","","","","","","","","","","","","","","","","","","","",""
"2173","","text","51","268365","0.0-31.0","77920439","wem/bandit_either","A12VDN3TJJCAQQ","either","8","32","","","","","","","","","","","","","","","","","","","","","","","","","","","","","","","","","","",""
"2742","","text","52","271111","0.0-32.0","77920439","wem/bandit_either","A12VDN3TJJCAQQ","either","8","32","","","","","","","","","","","","","","","","","","","","","","","","","","","","","","","","","","",""
"963","","bandit","53","273593","0.0-33.0-0.0","77920439","wem/bandit_either","A12VDN3TJJCAQQ","either","8","","","","","","","0","1","0","","0.8","0.5","0.5","0.5","0.5","0.8","0.2","0.6","0.2","","","","","","","","","","","72","H","0","img/none_selected.jpg","true","0","full_practice"
"838","","bandit","54","275952","0.0-33.0-1.0","77920439","wem/bandit_either","A12VDN3TJJCAQQ","either","8","","","","","","","0","1","0","","0.8","0.5","0.5","0.5","0.5","0.8","0.2","0.6","0.2","","","","","","","","","","","72","H","0","img/none_selected.jpg","true","0","full_practice"
"494","","bandit","55","277978","0.0-33.0-2.0","77920439","wem/bandit_either","A12VDN3TJJCAQQ","either","8","","","","","","","1","0","0","0.8","","0.5","0.5","0.5","0.5","","","","","0.8","0.2","0.6","0.2","","","","","","","72","H","0","img/none_selected.jpg","true","0","full_practice"
"367","","bandit","56","279871","0.0-33.0-3.0","77920439","wem/bandit_either","A12VDN3TJJCAQQ","either","8","","","","","","","0","0","1","","0.8","0.5","0.5","0.5","0.5","0.8","0.2","0.6","0.2","","","","","","","","","","","72","H","0","img/none_selected.jpg","true","0","full_practice"
"321","","bandit","57","281706","0.0-33.0-4.0","77920439","wem/bandit_either","A12VDN3TJJCAQQ","either","8","","","","","","","0","1","0","","0.8","0.5","0.5","0.5","0.5","0.8","0.2","0.6","0.2","","","","","","","","","","","72","H","0","img/none_selected.jpg","true","0","full_practice"
"487","","bandit","58","283753","0.0-33.0-5.0","77920439","wem/bandit_either","A12VDN3TJJCAQQ","either","8","","","","","","","1","0","0","0.8","","0.5","0.5","0.5","0.5","","","","","0.8","0.2","0.6","0.2","","","","","","","72","H","0","img/none_selected.jpg","true","0","full_practice"
"359","","bandit","59","285626","0.0-33.0-6.0","77920439","wem/bandit_either","A12VDN3TJJCAQQ","either","8","","","","","","","1","0","0","0.8","","0.5","0.5","0.5","0.5","","","","","0.8","0.2","0.6","0.2","","","","","","","72","H","0","img/none_selected.jpg","true","0","full_practice"
"326","","bandit","60","287493","0.0-33.0-7.0","77920439","wem/bandit_either","A12VDN3TJJCAQQ","either","8","","","","","","","0","0","1","","0.8","0.5","0.5","0.5","0.5","0.8","0.2","0.6","0.2","","","","","","","","","","","72","H","0","img/none_selected.jpg","true","0","full_practice"
"387","","bandit","61","289410","0.0-33.0-8.0","77920439","wem/bandit_either","A12VDN3TJJCAQQ","either","8","","","","","","","1","0","0","0.8","","0.5","0.5","0.5","0.5","","","","","0.8","0.2","0.6","0.2","","","","","","","72","H","0","img/none_selected.jpg","true","0","full_practice"
"454","","bandit","62","291395","0.0-33.0-9.0","77920439","wem/bandit_either","A12VDN3TJJCAQQ","either","8","","","","","","","1","0","0","0.8","","0.5","0.5","0.5","0.5","","","","","0.8","0.2","0.6","0.2","","","","","","","72","H","0","img/none_selected.jpg","true","0","full_practice"
"569","","bandit","63","293495","0.0-33.0-10.0","77920439","wem/bandit_either","A12VDN3TJJCAQQ","either","8","","","","","","","0","0","1","","0.8","0.5","0.5","0.5","0.5","0.8","0.2","0.6","0.2","","","","","","","","","","","72","H","0","img/none_selected.jpg","true","0","full_practice"
"326","","bandit","64","295348","0.0-33.0-11.0","77920439","wem/bandit_either","A12VDN3TJJCAQQ","either","8","","","","","","","0","1","0","","0.8","0.5","0.5","0.5","0.5","0.8","0.2","0.6","0.2","","","","","","","","","","","72","H","0","img/none_selected.jpg","true","0","full_practice"
"288","","bandit","65","297165","0.0-33.0-12.0","77920439","wem/bandit_either","A12VDN3TJJCAQQ","either","8","","","","","","","0","0","1","","0.8","0.5","0.5","0.5","0.5","0.8","0.2","0.6","0.2","","","","","","","","","","","72","H","0","img/none_selected.jpg","true","0","full_practice"
"286","","bandit","66","298973","0.0-33.0-13.0","77920439","wem/bandit_either","A12VDN3TJJCAQQ","either","8","","","","","","","1","0","0","0.8","","0.5","0.5","0.5","0.5","","","","","0.8","0.2","0.6","0.2","","","","","","","72","H","0","img/none_selected.jpg","true","0","full_practice"
"316","","bandit","67","300809","0.0-33.0-14.0","77920439","wem/bandit_either","A12VDN3TJJCAQQ","either","8","","","","","","","0","0","1","0.8","","0.5","0.5","0.5","0.5","","","","","0.8","0.2","0.6","0.2","","","","","","","72","H","0","img/none_selected.jpg","true","0","full_practice"
"362","","bandit","68","302685","0.0-33.0-15.0","77920439","wem/bandit_either","A12VDN3TJJCAQQ","either","8","","","","","","","1","0","0","0.8","","0.5","0.5","0.5","0.5","","","","","0.8","0.2","0.6","0.2","","","","","","","72","H","0","img/none_selected.jpg","true","0","full_practice"
"337","","bandit","69","304579","0.0-33.0-16.0","77920439","wem/bandit_either","A12VDN3TJJCAQQ","either","8","","","","","","","0","1","0","","0.8","0.5","0.5","0.5","0.5","0.8","0.2","0.6","0.2","","","","","","","","","","","72","H","0","img/none_selected.jpg","true","0","full_practice"
"354","","bandit","70","306455","0.0-33.0-17.0","77920439","wem/bandit_either","A12VDN3TJJCAQQ","either","8","","","","","","","1","0","0","0.8","","0.5","0.5","0.5","0.5","","","","","0.8","0.2","0.6","0.2","","","","","","","72","H","0","img/none_selected.jpg","true","0","full_practice"
"383","","bandit","71","308363","0.0-33.0-18.0","77920439","wem/bandit_either","A12VDN3TJJCAQQ","either","8","","","","","","","0","1","0","","0.8","0.5","0.5","0.5","0.5","0.8","0.2","0.6","0.2","","","","","","","","","","","72","H","0","img/none_selected.jpg","true","0","full_practice"
"324","","bandit","72","310214","0.0-33.0-19.0","77920439","wem/bandit_either","A12VDN3TJJCAQQ","either","8","","","","","","","1","0","0","0.8","","0.5","0.5","0.5","0.5","","","","","0.8","0.2","0.6","0.2","","","","","","","72","H","0","img/none_selected.jpg","true","0","full_practice"
"6363","","text","73","316592","0.0-34.0","77920439","wem/bandit_either","A12VDN3TJJCAQQ","either","8","32","","","","","","","","","","","","","","","","","","","","","","","","","","","","","","","","","","",""
"11491","","text","74","329088","0.0-35.0","77920439","wem/bandit_either","A12VDN3TJJCAQQ","either","8","32","","","","","","","","","","","","","","","","","","","","","","","","","","","","","","","","","","",""
"12094","","text","75","341187","0.0-36.0","77920439","wem/bandit_either","A12VDN3TJJCAQQ","either","8","32","","","","","","","","","","","","","","","","","","","","","","","","","","","","","","","","","","",""
"5687","","text","76","346879","0.0-37.0","77920439","wem/bandit_either","A12VDN3TJJCAQQ","either","8","32","","","","","","","","","","","","","","","","","","","","","","","","","","","","","","","","","","",""
"17323","","text","77","364207","0.0-38.0","77920439","wem/bandit_either","A12VDN3TJJCAQQ","either","8","32","","","","","","","","","","","","","","","","","","","","","","","","","","","","","","","","","","",""
"5772","","text","78","369984","0.0-39.0","77920439","wem/bandit_either","A12VDN3TJJCAQQ","either","8","32","","","","","","","","","","","","","","","","","","","","","","","","","","","","","","","","","","",""
"1823","","bandit","79","373342","0.0-40.0-0.0","77920439","wem/bandit_either","A12VDN3TJJCAQQ","either","8","","","","","","","0","0","1","","0.1351790469","0.4","0.6","0.8","0.2","0.1351790469","0.2637293772","0.2928194041","0.3540548627","","","","","","","","","","","72","H","0","img/none_selected.jpg","","1","main_expt"
"304","","bandit","80","375158","0.0-41.0-0.0","77920439","wem/bandit_either","A12VDN3TJJCAQQ","either","8","","","","","","","0","0","1","","0.125602744","0.4","0.6","0.8","0.2","0.125602744","0.2760013096","0.3040419902","0.3812516843","","","","","","","","","","","72","H","0","img/none_selected.jpg","","2","main_expt"
"288","","bandit","81","376976","0.0-42.0-0.0","77920439","wem/bandit_either","A12VDN3TJJCAQQ","either","8","","","","","","","0","0","1","","0.09574082279","0.4","0.6","0.8","0.2","0.09574082279","0.3240499928","0.2875251023","0.3901316494","","","","","","","","","","","72","H","0","img/none_selected.jpg","","3","main_expt"
"61","","bandit","82","378555","0.0-43.0-0.0","77920439","wem/bandit_either","A12VDN3TJJCAQQ","either","8","","","","","","","0","0","1","","0.3510822359","0.4","0.6","0.8","0.2","0.0913382225","0.3510822359","0.2965567903","0.3945399471","","","","","","","","","","","74","J","1","","","4","main_expt"
"260","","bandit","83","380354","0.0-44.0-0.0","77920439","wem/bandit_either","A12VDN3TJJCAQQ","either","8","","","","","","","1","0","0","0.3522827721","","0.4","0.6","0.8","0.2","","","","","0.106177601","0.3522827721","0.2681113314","0.3997977613","","","","","","","74","J","1","","","5","main_expt"
"247","","bandit","84","382118","0.0-45.0-0.0","77920439","wem/bandit_either","A12VDN3TJJCAQQ","either","8","","","","","","","1","0","0","0.382674005","","0.4","0.6","0.8","0.2","","","","","0.08998955495","0.382674005","0.2330443498","0.390783501","","","","","","","74","J","1","","","6","main_expt"
"267","","bandit","85","383911","0.0-46.0-0.0","77920439","wem/bandit_either","A12VDN3TJJCAQQ","either","8","","","","","","","0","0","1","0.3998463606","","0.4","0.6","0.8","0.2","","","","","0.1077526668","0.3998463606","0.1630509172","0.3305693427","","","","","","","74","J","1","","","7","main_expt"
"254","","bandit","86","385681","0.0-47.0-0.0","77920439","wem/bandit_either","A12VDN3TJJCAQQ","either","8","","","","","","","0","0","1","0.3832029687","","0.4","0.6","0.8","0.2","","","","","0.1243697388","0.3832029687","0.2002468685","0.3056545716","","","","","","","74","J","1","","","8","main_expt"
"279","","bandit","87","387495","0.0-48.0-0.0","77920439","wem/bandit_either","A12VDN3TJJCAQQ","either","8","","","","","","","0","0","1","0.1835034381","","0.4","0.6","0.8","0.2","","","","","0.1698108096","0.3796681134","0.1835034381","0.3278889804","","","","","","","75","K","2","","","9","main_expt"
"511","","bandit","88","389524","0.0-49.0-0.0","77920439","wem/bandit_either","A12VDN3TJJCAQQ","either","8","","","","","","","1","0","0","0.1939723001","","0.4","0.6","0.8","0.2","","","","","0.221757114","0.3614311416","0.1939723001","0.3137855556","","","","","","","75","K","2","","","10","main_expt"
"327","","bandit","89","391370","0.0-50.0-0.0","77920439","wem/bandit_either","A12VDN3TJJCAQQ","either","8","","","","","","","1","0","0","0.1949806013","","0.4","0.6","0.8","0.2","","","","","0.1961062924","0.3938737051","0.1949806013","0.3253079181","","","","","","","75","K","2","","","11","main_expt"
"259","","bandit","90","393165","0.0-51.0-0.0","77920439","wem/bandit_either","A12VDN3TJJCAQQ","either","8","","","","","","","0","0","1","","0.2587943474","0.4","0.6","0.8","0.2","0.1907056259","0.3810544723","0.2587943474","0.3298150516","","","","","","","","","","","75","K","2","","","12","main_expt"
"1523","","bandit","91","396221","0.0-52.0-0.0","77920439","wem/bandit_either","A12VDN3TJJCAQQ","either","8","","","","","","","0","0","1","0.3085985727","","0.4","0.6","0.8","0.2","","","","","0.2162865666","0.3707046684","0.3085985727","0.3673307406","","","","","","","75","K","2","","","13","main_expt"
"444","","bandit","92","398193","0.0-53.0-0.0","77920439","wem/bandit_either","A12VDN3TJJCAQQ","either","8","","","","","","","1","0","0","0.2464992766","","0.4","0.6","0.8","0.2","","","","","0.2399362825","0.3486531997","0.2464992766","0.3679224674","","","","","","","75","K","2","","","14","main_expt"
"896","","bandit","93","400618","0.0-54.0-0.0","77920439","wem/bandit_either","A12VDN3TJJCAQQ","either","8","","","","","","","0","0","1","","0.2474611475","0.4","0.6","0.8","0.2","0.1986859052","0.3263578384","0.2474611475","0.3062507314","","","","","","","","","","","75","K","2","","","15","main_expt"
"386","","bandit","94","402529","0.0-55.0-0.0","77920439","wem/bandit_either","A12VDN3TJJCAQQ","either","8","","","","","","","0","0","1","0.2835538477","","0.4","0.6","0.8","0.2","","","","","0.1865641621","0.3514189979","0.2835538477","0.2892976033","","","","","","","75","K","2","","","16","main_expt"
"2490","","bandit","95","406557","0.0-56.0-0.0","77920439","wem/bandit_either","A12VDN3TJJCAQQ","either","8","","","","","","","0","1","0","","0.2861796528","0.4","0.6","0.8","0.2","0.2035525071","0.3532592314","0.3256112075","0.2861796528","","","","","","","","","","","76","L","3","","","17","main_expt"
"447","","bandit","96","408552","0.0-57.0-0.0","77920439","wem/bandit_either","A12VDN3TJJCAQQ","either","8","","","","","","","0","0","1","","0.2958570682","0.4","0.6","0.8","0.2","0.2039336531","0.3858608091","0.3802227677","0.2958570682","","","","","","","","","","","76","L","3","","","18","main_expt"
"394","","bandit","97","410488","0.0-58.0-0.0","77920439","wem/bandit_either","A12VDN3TJJCAQQ","either","8","","","","","","","1","0","0","0.3353028819","","0.4","0.6","0.8","0.2","","","","","0.1598579642","0.3837638756","0.360566968","0.3353028819","","","","","","","76","L","3","","","19","main_expt"
"288","","bandit","98","412324","0.0-59.0-0.0","77920439","wem/bandit_either","A12VDN3TJJCAQQ","either","8","","","","","","","0","1","0","","0.3139704528","0.4","0.6","0.8","0.2","0.1437622327","0.2872100501","0.3696799013","0.3139704528","","","","","","","","","","","76","L","3","","","20","main_expt"
"272","","bandit","99","414114","0.0-60.0-0.0","77920439","wem/bandit_either","A12VDN3TJJCAQQ","either","8","","","","","","","0","0","1","","0.2524707143","0.4","0.6","0.8","0.2","0.07974703335","0.2975414498","0.4006907501","0.2524707143","","","","","","","","","","","76","L","3","","","21","main_expt"
"284","","bandit","100","415981","0.0-61.0-0.0","77920439","wem/bandit_either","A12VDN3TJJCAQQ","either","8","","","","","","","0","0","1","","0.248326021","0.4","0.6","0.8","0.2","0.1361132429","0.2741965999","0.4081217326","0.248326021","","","","","","","","","","","76","L","3","","","22","main_expt"
"327","","bandit","101","417836","0.0-62.0-0.0","77920439","wem/bandit_either","A12VDN3TJJCAQQ","either","8","","","","","","","0","0","1","","0.2937153481","0.4","0.6","0.8","0.2","0.1705973249","0.2379064449","0.3740207531","0.2937153481","","","","","","","","","","","76","L","3","","","23","main_expt"
"328","","bandit","102","419698","0.0-63.0-0.0","77920439","wem/bandit_either","A12VDN3TJJCAQQ","either","8","","","","","","","0","0","1","","0.2625315469","0.4","0.6","0.8","0.2","0.1392759225","0.2078598572","0.3913756451","0.2625315469","","","","","","","","","","","76","L","3","","","24","main_expt"
"331","","bandit","103","421561","0.0-64.0-0.0","77920439","wem/bandit_either","A12VDN3TJJCAQQ","either","8","","","","","","","0","0","1","0.4100905738","","0.4","0.6","0.8","0.2","","","","","0.1800538527","0.2764850733","0.4100905738","0.2405651368","","","","","","","75","K","2","","","25","main_expt"
"408","","bandit","104","423512","0.0-65.0-0.0","77920439","wem/bandit_either","A12VDN3TJJCAQQ","either","8","","","","","","","0","0","1","","0.3600668969","0.4","0.6","0.8","0.2","0.2146400533","0.3080191348","0.3600668969","0.2503350336","","","","","","","","","","","75","K","2","","","26","main_expt"
"174","","bandit","105","425209","0.0-66.0-0.0","77920439","wem/bandit_either","A12VDN3TJJCAQQ","either","8","","","","","","","0","0","1","0.3606197488","","0.4","0.6","0.8","0.2","","","","","0.1948367851","0.3606197488","0.3703096079","0.354091838","","","","","","","74","J","1","","","27","main_expt"
"704","","bandit","106","427435","0.0-67.0-0.0","77920439","wem/bandit_either","A12VDN3TJJCAQQ","either","8","","","","","","","1","0","0","0.3696097963","","0.4","0.6","0.8","0.2","","","","","0.2282666016","0.3696097963","0.3527269899","0.3419366675","","","","","","","74","J","1","","","28","main_expt"
"296","","bandit","107","429267","0.0-68.0-0.0","77920439","wem/bandit_either","A12VDN3TJJCAQQ","either","8","","","","","","","0","1","0","","0.3434444954","0.4","0.6","0.8","0.2","0.1842618798","0.3434444954","0.2854860911","0.361896517","","","","","","","","","","","74","J","1","","","29","main_expt"
"447","","bandit","108","431276","0.0-69.0-0.0","77920439","wem/bandit_either","A12VDN3TJJCAQQ","either","8","","","","","","","0","1","0","","0.3528183973","0.4","0.6","0.8","0.2","0.1930267653","0.3528183973","0.2971434158","0.3701160785","","","","","","","","","","","74","J","1","","","30","main_expt"
"119","","bandit","109","432910","0.0-70.0-0.0","77920439","wem/bandit_either","A12VDN3TJJCAQQ","either","8","","","","","","","0","0","1","","0.3436926249","0.4","0.6","0.8","0.2","0.2279264959","0.3436926249","0.3192935598","0.3602312343","","","","","","","","","","","74","J","1","","","31","main_expt"
"317","","bandit","110","434745","0.0-71.0-0.0","77920439","wem/bandit_either","A12VDN3TJJCAQQ","either","8","","","","","","","0","0","1","0.3392376576","","0.4","0.6","0.8","0.2","","","","","0.1922668126","0.3392376576","0.2910845839","0.3550043818","","","","","","","74","J","1","","","32","main_expt"
"269","","bandit","111","436529","0.0-72.0-0.0","77920439","wem/bandit_either","A12VDN3TJJCAQQ","either","8","","","","","","","0","0","1","","0.2524106513","0.4","0.6","0.8","0.2","0.1503247695","0.2524106513","0.2956883229","0.3927862597","","","","","","","","","","","74","J","1","","","33","main_expt"
"481","","bandit","112","438529","0.0-73.0-0.0","77920439","wem/bandit_either","A12VDN3TJJCAQQ","either","8","","","","","","","1","0","0","0.2378308988","","0.4","0.6","0.8","0.2","","","","","0.1875072744","0.2378308988","0.2918182698","0.4185963197","","","","","","","74","J","1","","","34","main_expt"
"338","","bandit","113","440401","0.0-74.0-0.0","77920439","wem/bandit_either","A12VDN3TJJCAQQ","either","8","","","","","","","0","0","1","0.2683654211","","0.4","0.6","0.8","0.2","","","","","0.2135507624","0.2683654211","0.3063909307","0.441983755","","","","","","","74","J","1","","","35","main_expt"
"291","","bandit","114","442215","0.0-75.0-0.0","77920439","wem/bandit_either","A12VDN3TJJCAQQ","either","8","","","","","","","0","1","0","","0.2820805085","0.4","0.6","0.8","0.2","0.2042402853","0.2645223933","0.2820805085","0.4352827683","","","","","","","","","","","75","K","2","","","36","main_expt"
"542","","bandit","115","444270","0.0-76.0-0.0","77920439","wem/bandit_either","A12VDN3TJJCAQQ","either","8","","","","","","","0","0","1","0.2610370824","","0.4","0.6","0.8","0.2","","","","","0.2024605481","0.2360561858","0.2610370824","0.450520142","","","","","","","75","K","2","","","37","main_expt"
"106","","bandit","116","445911","0.0-77.0-0.0","77920439","wem/bandit_either","A12VDN3TJJCAQQ","either","8","","","","","","","0","0","1","0.2001865083","","0.4","0.6","0.8","0.2","","","","","0.1677713785","0.2001865083","0.1896233007","0.4681224698","","","","","","","74","J","1","","","38","main_expt"
"303","","bandit","117","447744","0.0-78.0-0.0","77920439","wem/bandit_either","A12VDN3TJJCAQQ","either","8","","","","","","","0","0","1","0.168851025","","0.4","0.6","0.8","0.2","","","","","0.221779122","0.1687915361","0.168851025","0.4711022053","","","","","","","75","K","2","","","39","main_expt"
"276","","bandit","118","449543","0.0-79.0-0.0","77920439","wem/bandit_either","A12VDN3TJJCAQQ","either","8","","","","","","","0","0","1","","0.1503151413","0.4","0.6","0.8","0.2","0.2722397218","0.1503151413","0.1615787635","0.4559447699","","","","","","","","","","","74","J","1","","","40","main_expt"
"292","","bandit","119","451355","0.0-80.0-0.0","77920439","wem/bandit_either","A12VDN3TJJCAQQ","either","8","","","","","","","0","0","1","0.1472326003","","0.4","0.6","0.8","0.2","","","","","0.3298230943","0.08168262283","0.1472326003","0.4412687596","","","","","","","75","K","2","","","41","main_expt"
"129","","bandit","120","453079","0.0-81.0-0.0","77920439","wem/bandit_either","A12VDN3TJJCAQQ","either","8","","","","","","","1","0","0","0.07668629145","","0.4","0.6","0.8","0.2","","","","","0.3104885444","0.07668629145","0.1533480506","0.4457751761","","","","","","","74","J","1","","","42","main_expt"
"717","","bandit","121","455322","0.0-82.0-0.0","77920439","wem/bandit_either","A12VDN3TJJCAQQ","either","8","","","","","","","0","0","1","0.1414351437","","0.4","0.6","0.8","0.2","","","","","0.3005355489","0.07394587158","0.1414351437","0.4298378352","","","","","","","75","K","2","","","43","main_expt"
"115","","bandit","122","456973","0.0-83.0-0.0","77920439","wem/bandit_either","A12VDN3TJJCAQQ","either","8","","","","","","","0","0","1","0.1192337685","","0.4","0.6","0.8","0.2","","","","","0.2456242138","0.1192337685","0.1067646429","0.4416915379","","","","","","","74","J","1","","","44","main_expt"
"300","","bandit","123","458807","0.0-84.0-0.0","77920439","wem/bandit_either","A12VDN3TJJCAQQ","either","8","","","","","","","0","0","1","","0.1285724119","0.4","0.6","0.8","0.2","0.2839901561","0.1285724119","0.1250796286","0.3915522423","","","","","","","","","","","74","J","1","","","45","main_expt"
"298","","bandit","124","460734","0.0-85.0-0.0","77920439","wem/bandit_either","A12VDN3TJJCAQQ","either","8","","","","","","","0","0","1","0.1112684106","","0.4","0.6","0.8","0.2","","","","","0.2353621531","0.1112684106","0.1927264636","0.4318427431","","","","","","","74","J","1","","","46","main_expt"
"91","","bandit","125","462351","0.0-86.0-0.0","77920439","wem/bandit_either","A12VDN3TJJCAQQ","either","8","","","","","","","0","0","1","0.2405257196","","0.4","0.6","0.8","0.2","","","","","0.2405257196","0.1207340475","0.1804488412","0.4395998441","","","","","","","72","H","0","img/none_selected.jpg","","47","main_expt"
"388","","bandit","126","464252","0.0-87.0-0.0","77920439","wem/bandit_either","A12VDN3TJJCAQQ","either","8","","","","","","","0","1","0","","0.2629408555","0.4","0.6","0.8","0.2","0.2629408555","0.1182533935","0.168268176","0.4630443269","","","","","","","","","","","72","H","0","img/none_selected.jpg","","48","main_expt"
"270","","bandit","127","466036","0.0-88.0-0.0","77920439","wem/bandit_either","A12VDN3TJJCAQQ","either","8","","","","","","","0","1","0","","0.2902453213","0.4","0.6","0.8","0.2","0.2902453213","0.1460801474","0.1466838001","0.4794982466","","","","","","","","","","","72","H","0","img/none_selected.jpg","","49","main_expt"
"419","","bandit","128","467994","0.0-89.0-0.0","77920439","wem/bandit_either","A12VDN3TJJCAQQ","either","8","","","","","","","0","1","0","","0.3033715012","0.4","0.6","0.8","0.2","0.3033715012","0.1765155983","0.1336340117","0.4562783041","","","","","","","","","","","72","H","0","img/none_selected.jpg","","50","main_expt"
"486","","bandit","129","470032","0.0-90.0-0.0","77920439","wem/bandit_either","A12VDN3TJJCAQQ","either","8","","","","","","","0","0","1","0.3536831403","","0.4","0.6","0.8","0.2","","","","","0.3536831403","0.1614266163","0.1067821754","0.4515646323","","","","","","","72","H","0","img/none_selected.jpg","","51","main_expt"
"371","","bandit","130","471962","0.0-91.0-0.0","77920439","wem/bandit_either","A12VDN3TJJCAQQ","either","8","","","","","","","0","0","1","","0.3058792917","0.4","0.6","0.8","0.2","0.3058792917","0.1938643747","0.07294577227","0.4344137529","","","","","","","","","","","72","H","0","img/none_selected.jpg","","52","main_expt"
"177","","bandit","131","473678","0.0-92.0-0.0","77920439","wem/bandit_either","A12VDN3TJJCAQQ","either","8","","","","","","","0","0","1","","0.1721886996","0.4","0.6","0.8","0.2","0.3466820038","0.1721886996","0.07676454597","0.4421766306","","","","","","","","","","","74","J","1","","","53","main_expt"
"385","","bandit","132","475602","0.0-93.0-0.0","77920439","wem/bandit_either","A12VDN3TJJCAQQ","either","8","","","","","","","0","1","0","","0.3159173384","0.4","0.6","0.8","0.2","0.3159173384","0.1542880765","0.07707135067","0.4591875032","","","","","","","","","","","72","H","0","img/none_selected.jpg","","54","main_expt"
"351","","bandit","133","477485","0.0-94.0-0.0","77920439","wem/bandit_either","A12VDN3TJJCAQQ","either","8","","","","","","","0","0","1","0.3205246683","","0.4","0.6","0.8","0.2","","","","","0.3205246683","0.2155598061","0.08227932488","0.4455250987","","","","","","","72","H","0","img/none_selected.jpg","","55","main_expt"
"446","","bandit","134","479462","0.0-95.0-0.0","77920439","wem/bandit_either","A12VDN3TJJCAQQ","either","8","","","","","","","0","0","1","","0.3067659888","0.4","0.6","0.8","0.2","0.3067659888","0.199350645","0.09013031375","0.4200701886","","","","","","","","","","","72","H","0","img/none_selected.jpg","","56","main_expt"
"363","","bandit","135","481351","0.0-96.0-0.0","77920439","wem/bandit_either","A12VDN3TJJCAQQ","either","8","","","","","","","0","0","1","","0.3786279545","0.4","0.6","0.8","0.2","0.3786279545","0.1991981904","0.106866739","0.3635567377","","","","","","","","","","","72","H","0","img/none_selected.jpg","","57","main_expt"
"273","","bandit","136","483143","0.0-97.0-0.0","77920439","wem/bandit_either","A12VDN3TJJCAQQ","either","8","","","","","","","0","0","1","","0.1307276253","0.4","0.6","0.8","0.2","0.3796022377","0.1307276253","0.0915584437","0.3647217687","","","","","","","","","","","74","J","1","","","58","main_expt"
"262","","bandit","137","484934","0.0-98.0-0.0","77920439","wem/bandit_either","A12VDN3TJJCAQQ","either","8","","","","","","","0","0","1","0.1540949786","","0.4","0.6","0.8","0.2","","","","","0.3570845549","0.1540949786","0.1036540812","0.3975499765","","","","","","","74","J","1","","","59","main_expt"
"909","","bandit","138","487383","0.0-99.0-0.0","77920439","wem/bandit_either","A12VDN3TJJCAQQ","either","8","","","","","","","0","0","1","0.1187181044","","0.4","0.6","0.8","0.2","","","","","0.398525789","0.1187181044","0.07948280662","0.376383165","","","","","","","74","J","1","","","60","main_expt"
"343","","bandit","139","489246","0.0-100.0-0.0","77920439","wem/bandit_either","A12VDN3TJJCAQQ","either","8","","","","","","","0","0","1","","0.1734870435","0.4","0.6","0.8","0.2","0.380986593","0.1734870435","0.0685056185","0.3384437455","","","","","","","","","","","74","J","1","","","61","main_expt"
"275","","bandit","140","491041","0.0-101.0-0.0","77920439","wem/bandit_either","A12VDN3TJJCAQQ","either","8","","","","","","","0","0","1","0.2056999461","","0.4","0.6","0.8","0.2","","","","","0.3928002855","0.2056999461","0.04196312691","0.3086389155","","","","","","","74","J","1","","","62","main_expt"
"490","","bandit","141","493070","0.0-102.0-0.0","77920439","wem/bandit_either","A12VDN3TJJCAQQ","either","8","","","","","","","0","0","1","0.06524357318","","0.4","0.6","0.8","0.2","","","","","0.4097838671","0.2421495796","0.06524357318","0.3098998428","","","","","","","75","K","2","","","63","main_expt"
"363","","bandit","142","494950","0.0-103.0-0.0","77920439","wem/bandit_either","A12VDN3TJJCAQQ","either","8","","","","","","","0","0","1","0.04599317762","","0.4","0.6","0.8","0.2","","","","","0.3942475769","0.2678986655","0.04599317762","0.2859800092","","","","","","","75","K","2","","","64","main_expt"
"762","","bandit","143","497247","0.0-104.0-0.0","77920439","wem/bandit_either","A12VDN3TJJCAQQ","either","8","","","","","","","0","0","1","0.04738713632","","0.4","0.6","0.8","0.2","","","","","0.3756823908","0.2780805564","0.04738713632","0.2780623804","","","","","","","75","K","2","","","65","main_expt"
"322","","bandit","144","499111","0.0-105.0-0.0","77920439","wem/bandit_either","A12VDN3TJJCAQQ","either","8","","","","","","","0","0","1","","0.2740889186","0.4","0.6","0.8","0.2","0.3780323226","0.2923516192","0.02873144913","0.2740889186","","","","","","","","","","","76","L","3","","","66","main_expt"
"284","","bandit","145","500945","0.0-106.0-0.0","77920439","wem/bandit_either","A12VDN3TJJCAQQ","either","8","","","","","","","0","0","1","","0.3122756929","0.4","0.6","0.8","0.2","0.382091886","0.3481747094","0.0355516853","0.3122756929","","","","","","","","","","","76","L","3","","","67","main_expt"
"419","","bandit","146","502907","0.0-107.0-0.0","77920439","wem/bandit_either","A12VDN3TJJCAQQ","either","8","","","","","","","0","0","1","0.3004294993","","0.4","0.6","0.8","0.2","","","","","0.4080562953","0.3540590834","0.04483006882","0.3004294993","","","","","","","76","L","3","","","68","main_expt"
"285","","bandit","147","504722","0.0-108.0-0.0","77920439","wem/bandit_either","A12VDN3TJJCAQQ","either","8","","","","","","","0","0","1","","0.3312842332","0.4","0.6","0.8","0.2","0.419826639","0.3348318208","0.04300650393","0.3312842332","","","","","","","","","","","76","L","3","","","69","main_expt"
"491","","bandit","148","506756","0.0-109.0-0.0","77920439","wem/bandit_either","A12VDN3TJJCAQQ","either","8","","","","","","","0","0","1","0.03960880855","","0.4","0.6","0.8","0.2","","","","","0.3889643965","0.3844983113","0.03960880855","0.2362018798","","","","","","","75","K","2","","","70","main_expt"
"977","","bandit","149","509250","0.0-110.0-0.0","77920439","wem/bandit_either","A12VDN3TJJCAQQ","either","8","","","","","","","1","0","0","0.3753843975","","0.4","0.6","0.8","0.2","","","","","0.3492343966","0.3753843975","0.02401392238","0.1838323472","","","","","","","74","J","1","","","71","main_expt"
"255","","bandit","150","511022","0.0-111.0-0.0","77920439","wem/bandit_either","A12VDN3TJJCAQQ","either","8","","","","","","","0","0","1","0.3861429343","","0.4","0.6","0.8","0.2","","","","","0.3502155883","0.3861429343","0.008756159955","0.1749810972","","","","","","","74","J","1","","","72","main_expt"
"338","","bandit","151","512894","0.0-112.0-0.0","77920439","wem/bandit_either","A12VDN3TJJCAQQ","either","8","","","","","","","0","0","1","","0.3978436086","0.4","0.6","0.8","0.2","0.3568691787","0.3978436086","0.006257651783","0.1664097112","","","","","","","","","","","74","J","1","","","73","main_expt"
"336","","bandit","152","514768","0.0-113.0-0.0","77920439","wem/bandit_either","A12VDN3TJJCAQQ","either","8","","","","","","","0","0","1","0.3847979518","","0.4","0.6","0.8","0.2","","","","","0.3303653739","0.3847979518","0.004732084297","0.2001176207","","","","","","","74","J","1","","","74","main_expt"
"270","","bandit","153","516564","0.0-114.0-0.0","77920439","wem/bandit_either","A12VDN3TJJCAQQ","either","8","","","","","","","0","1","0","","0.3974319157","0.4","0.6","0.8","0.2","0.3353283381","0.3974319157","0.006967558871","0.1848717924","","","","","","","","","","","74","J","1","","","75","main_expt"
"309","","bandit","154","518412","0.0-115.0-0.0","77920439","wem/bandit_either","A12VDN3TJJCAQQ","either","8","","","","","","","0","0","1","0.3987985884","","0.4","0.6","0.8","0.2","","","","","0.3009524994","0.3987985884","0.004525860487","0.1510178238","","","","","","","74","J","1","","","76","main_expt"
"260","","bandit","155","520203","0.0-116.0-0.0","77920439","wem/bandit_either","A12VDN3TJJCAQQ","either","8","","","","","","","0","0","1","","0.3316028908","0.4","0.6","0.8","0.2","0.3316028908","0.4127312768","0.007245535115","0.2089633591","","","","","","","","","","","72","H","0","img/none_selected.jpg","","77","main_expt"
"658","","bandit","156","522394","0.0-117.0-0.0","77920439","wem/bandit_either","A12VDN3TJJCAQQ","either","8","","","","","","","0","0","1","0.00483057751","","0.4","0.6","0.8","0.2","","","","","0.3571024926","0.4257675477","0.00483057751","0.2285147345","","","","","","","75","K","2","","","78","main_expt"
"406","","bandit","157","524318","0.0-118.0-0.0","77920439","wem/bandit_either","A12VDN3TJJCAQQ","either","8","","","","","","","0","0","1","","0.4331167668","0.4","0.6","0.8","0.2","0.3542776451","0.4331167668","0.005956317848","0.2246975601","","","","","","","","","","","74","J","1","","","79","main_expt"
"294","","bandit","158","526132","0.0-119.0-0.0","77920439","wem/bandit_either","A12VDN3TJJCAQQ","either","8","","","","","","","0","0","1","0.4294395537","","0.4","0.6","0.8","0.2","","","","","0.3201174307","0.4294395537","0.0076590047","0.1878766281","","","","","","","74","J","1","","","80","main_expt"
"431","","bandit","159","528093","0.0-120.0-0.0","77920439","wem/bandit_either","A12VDN3TJJCAQQ","either","8","","","","","","","0","0","1","0.4234249918","","0.4","0.6","0.8","0.2","","","","","0.3503003334","0.4234249918","0.009115568074","0.2436254364","","","","","","","74","J","1","","","81","main_expt"
"353","","bandit","160","529962","0.0-121.0-0.0","77920439","wem/bandit_either","A12VDN3TJJCAQQ","either","8","","","","","","","0","0","1","0.3956977209","","0.4","0.6","0.8","0.2","","","","","0.3509066846","0.3956977209","0.01382977225","0.2627531714","","","","","","","74","J","1","","","82","main_expt"
"369","","bandit","161","531873","0.0-122.0-0.0","77920439","wem/bandit_either","A12VDN3TJJCAQQ","either","8","","","","","","","0","1","0","","0.4248650233","0.4","0.6","0.8","0.2","0.3951868033","0.4248650233","0.01500629599","0.2672212524","","","","","","","","","","","74","J","1","","","83","main_expt"
"294","","bandit","162","533689","0.0-123.0-0.0","77920439","wem/bandit_either","A12VDN3TJJCAQQ","either","8","","","","","","","0","1","0","","0.4196907627","0.4","0.6","0.8","0.2","0.4131477378","0.4196907627","0.02310127573","0.2817484998","","","","","","","","","","","74","J","1","","","84","main_expt"
"324","","bandit","163","535532","0.0-124.0-0.0","77920439","wem/bandit_either","A12VDN3TJJCAQQ","either","8","","","","","","","0","0","1","0.435633498","","0.4","0.6","0.8","0.2","","","","","0.3889697292","0.435633498","0.02639065846","0.3074775227","","","","","","","74","J","1","","","85","main_expt"
"853","","bandit","164","537909","0.0-125.0-0.0","77920439","wem/bandit_either","A12VDN3TJJCAQQ","either","8","","","","","","","0","0","1","","0.4322222521","0.4","0.6","0.8","0.2","0.3885636443","0.4322222521","0.01746441632","0.2717847629","","","","","","","","","","","74","J","1","","","86","main_expt"
"560","","bandit","165","540008","0.0-126.0-0.0","77920439","wem/bandit_either","A12VDN3TJJCAQQ","either","8","","","","","","","0","1","0","","0.4028282504","0.4","0.6","0.8","0.2","0.4028282504","0.4476119451","0.01256144444","0.2183858348","","","","","","","","","","","72","H","0","img/none_selected.jpg","","87","main_expt"
"462","","bandit","166","541994","0.0-127.0-0.0","77920439","wem/bandit_either","A12VDN3TJJCAQQ","either","8","","","","","","","0","1","0","","0.4306890759","0.4","0.6","0.8","0.2","0.4306890759","0.4073123198","0.01178158386","0.2054961256","","","","","","","","","","","72","H","0","img/none_selected.jpg","","88","main_expt"
"3860","","bandit","167","547383","0.0-128.0-0.0","77920439","wem/bandit_either","A12VDN3TJJCAQQ","either","8","","","","","","","0","1","0","","0.4103738654","0.4","0.6","0.8","0.2","0.4103738654","0.3862301724","0.008722555822","0.1452714398","","","","","","","","","","","72","H","0","img/none_selected.jpg","","89","main_expt"
"5221","","bandit","168","554124","0.0-129.0-0.0","77920439","wem/bandit_either","A12VDN3TJJCAQQ","either","8","","","","","","","0","0","1","0.3980827974","","0.4","0.6","0.8","0.2","","","","","0.3980827974","0.3596745144","0.008232471735","0.1077779513","","","","","","","72","H","0","img/none_selected.jpg","","90","main_expt"
"297","","bandit","169","555953","0.0-130.0-0.0","77920439","wem/bandit_either","A12VDN3TJJCAQQ","either","8","","","","","","","0","1","0","","0.4040531024","0.4","0.6","0.8","0.2","0.4040531024","0.3082854458","0.01249180717","0.1308407065","","","","","","","","","","","72","H","0","img/none_selected.jpg","","91","main_expt"
"272","","bandit","170","557760","0.0-131.0-0.0","77920439","wem/bandit_either","A12VDN3TJJCAQQ","either","8","","","","","","","0","0","1","","0.3462944796","0.4","0.6","0.8","0.2","0.3462944796","0.312225492","0.01470986316","0.1652322036","","","","","","","","","","","72","H","0","img/none_selected.jpg","","92","main_expt"
"279","","bandit","171","559576","0.0-132.0-0.0","77920439","wem/bandit_either","A12VDN3TJJCAQQ","either","8","","","","","","","0","1","0","","0.3411451966","0.4","0.6","0.8","0.2","0.3411451966","0.3671658277","0.02655281846","0.1344678182","","","","","","","","","","","72","H","0","img/none_selected.jpg","","93","main_expt"
"395","","bandit","172","561514","0.0-133.0-0.0","77920439","wem/bandit_either","A12VDN3TJJCAQQ","either","8","","","","","","","1","0","0","0.3384154489","","0.4","0.6","0.8","0.2","","","","","0.3384154489","0.3401731108","0.02575246025","0.1301314301","","","","","","","72","H","0","img/none_selected.jpg","","94","main_expt"
"322","","bandit","173","563379","0.0-134.0-0.0","77920439","wem/bandit_either","A12VDN3TJJCAQQ","either","8","","","","","","","1","0","0","0.3126988266","","0.4","0.6","0.8","0.2","","","","","0.3126988266","0.3413923724","0.02262355665","0.1746055711","","","","","","","72","H","0","img/none_selected.jpg","","95","main_expt"
"411","","bandit","174","565307","0.0-135.0-0.0","77920439","wem/bandit_either","A12VDN3TJJCAQQ","either","8","","","","","","","0","0","1","","0.3800019137","0.4","0.6","0.8","0.2","0.3800019137","0.3570420485","0.02047181149","0.1994244555","","","","","","","","","","","72","H","0","img/none_selected.jpg","","96","main_expt"
"268","","bandit","175","567099","0.0-136.0-0.0","77920439","wem/bandit_either","A12VDN3TJJCAQQ","either","8","","","","","","","0","0","1","","0.3328121005","0.4","0.6","0.8","0.2","0.3328121005","0.3435474977","0.0207754381","0.1834602947","","","","","","","","","","","72","H","0","img/none_selected.jpg","","97","main_expt"
"294","","bandit","176","568931","0.0-137.0-0.0","77920439","wem/bandit_either","A12VDN3TJJCAQQ","either","8","","","","","","","0","0","1","","0.332228596","0.4","0.6","0.8","0.2","0.332228596","0.3614714926","0.02955834597","0.1719221531","","","","","","","","","","","72","H","0","img/none_selected.jpg","","98","main_expt"
"191","","bandit","177","570777","0.0-138.0-0.0","77920439","wem/bandit_either","A12VDN3TJJCAQQ","either","8","","","","","","","0","0","1","","0.2843854285","0.4","0.6","0.8","0.2","0.2843854285","0.3176405447","0.0383131093","0.1183399241","","","","","","","","","","","72","H","0","img/none_selected.jpg","","99","main_expt"
"361","","bandit","178","572676","0.0-139.0-0.0","77920439","wem/bandit_either","A12VDN3TJJCAQQ","either","8","","","","","","","0","0","1","","0.309751149","0.4","0.6","0.8","0.2","0.309751149","0.3586553183","0.03580757471","0.1558635017","","","","","","","","","","","72","H","0","img/none_selected.jpg","","100","main_expt"
"283","","bandit","179","574502","0.0-140.0-0.0","77920439","wem/bandit_either","A12VDN3TJJCAQQ","either","8","","","","","","","0","0","1","","0.2993195944","0.4","0.6","0.8","0.2","0.2993195944","0.2951503345","0.04899620691","0.1389665978","","","","","","","","","","","72","H","0","img/none_selected.jpg","","101","main_expt"
"578","","bandit","180","576603","0.0-141.0-0.0","77920439","wem/bandit_either","A12VDN3TJJCAQQ","either","8","","","","","","","0","0","1","","0.2998391809","0.4","0.6","0.8","0.2","0.3551890872","0.2998391809","0.08055650644","0.1377203561","","","","","","","","","","","74","J","1","","","102","main_expt"
"118","","bandit","181","578249","0.0-142.0-0.0","77920439","wem/bandit_either","A12VDN3TJJCAQQ","either","8","","","","","","","0","1","0","","0.2791823827","0.4","0.6","0.8","0.2","0.3148404956","0.2791823827","0.1040447627","0.1285548106","","","","","","","","","","","74","J","1","","","103","main_expt"
"253","","bandit","182","580019","0.0-143.0-0.0","77920439","wem/bandit_either","A12VDN3TJJCAQQ","either","8","","","","","","","1","0","0","0.3382769334","","0.4","0.6","0.8","0.2","","","","","0.3286912191","0.3382769334","0.1143547335","0.1555523735","","","","","","","74","J","1","","","104","main_expt"
"259","","bandit","183","581820","0.0-144.0-0.0","77920439","wem/bandit_either","A12VDN3TJJCAQQ","either","8","","","","","","","0","0","1","","0.3339697125","0.4","0.6","0.8","0.2","0.298340497","0.3339697125","0.1487676438","0.1775592141","","","","","","","","","","","74","J","1","","","105","main_expt"
"274","","bandit","184","583618","0.0-145.0-0.0","77920439","wem/bandit_either","A12VDN3TJJCAQQ","either","8","","","","","","","0","0","1","0.3124129253","","0.4","0.6","0.8","0.2","","","","","0.3504464386","0.3124129253","0.152088545","0.2263451353","","","","","","","74","J","1","","","106","main_expt"
"161","","bandit","185","585317","0.0-146.0-0.0","77920439","wem/bandit_either","A12VDN3TJJCAQQ","either","8","","","","","","","0","1","0","","0.3400683723","0.4","0.6","0.8","0.2","0.3510410077","0.3400683723","0.2406734145","0.1679769802","","","","","","","","","","","74","J","1","","","107","main_expt"
"304","","bandit","186","587136","0.0-147.0-0.0","77920439","wem/bandit_either","A12VDN3TJJCAQQ","either","8","","","","","","","1","0","0","0.3557340834","","0.4","0.6","0.8","0.2","","","","","0.3282766846","0.3557340834","0.3048040024","0.1999870147","","","","","","","74","J","1","","","108","main_expt"
"255","","bandit","187","588928","0.0-148.0-0.0","77920439","wem/bandit_either","A12VDN3TJJCAQQ","either","8","","","","","","","0","1","0","","0.3846418901","0.4","0.6","0.8","0.2","0.3561186451","0.3846418901","0.3418503096","0.208992856","","","","","","","","","","","74","J","1","","","109","main_expt"
"314","","bandit","188","590775","0.0-149.0-0.0","77920439","wem/bandit_either","A12VDN3TJJCAQQ","either","8","","","","","","","0","1","0","","0.4057962062","0.4","0.6","0.8","0.2","0.3576445865","0.4057962062","0.3198501315","0.1716040471","","","","","","","","","","","74","J","1","","","110","main_expt"
"370","","bandit","189","592664","0.0-150.0-0.0","77920439","wem/bandit_either","A12VDN3TJJCAQQ","either","8","","","","","","","0","0","1","0.3692451483","","0.4","0.6","0.8","0.2","","","","","0.3377543854","0.3692451483","0.3681534847","0.08984071331","","","","","","","74","J","1","","","111","main_expt"
"271","","bandit","190","594469","0.0-151.0-0.0","77920439","wem/bandit_either","A12VDN3TJJCAQQ","either","8","","","","","","","1","0","0","0.3577317973","","0.4","0.6","0.8","0.2","","","","","0.286234052","0.3577317973","0.3757830796","0.1243463141","","","","","","","74","J","1","","","112","main_expt"
"428","","bandit","191","596441","0.0-152.0-0.0","77920439","wem/bandit_either","A12VDN3TJJCAQQ","either","8","","","","","","","0","0","1","0.3328808086","","0.4","0.6","0.8","0.2","","","","","0.1932674395","0.3328808086","0.3838999828","0.1433440675","","","","","","","74","J","1","","","113","main_expt"
"385","","bandit","192","598346","0.0-153.0-0.0","77920439","wem/bandit_either","A12VDN3TJJCAQQ","either","8","","","","","","","0","0","1","0.3416979579","","0.4","0.6","0.8","0.2","","","","","0.2403040534","0.3416979579","0.4157938717","0.1510662198","","","","","","","74","J","1","","","114","main_expt"
"433","","bandit","193","600317","0.0-154.0-0.0","77920439","wem/bandit_either","A12VDN3TJJCAQQ","either","8","","","","","","","0","1","0","","0.3377137281","0.4","0.6","0.8","0.2","0.254937398","0.3377137281","0.4055870595","0.09845245139","","","","","","","","","","","74","J","1","","","115","main_expt"
"274","","bandit","194","602133","0.0-155.0-0.0","77920439","wem/bandit_either","A12VDN3TJJCAQQ","either","8","","","","","","","1","0","0","0.3039448029","","0.4","0.6","0.8","0.2","","","","","0.2605063941","0.3039448029","0.4161015278","0.107393795","","","","","","","74","J","1","","","116","main_expt"
"309","","bandit","195","603957","0.0-156.0-0.0","77920439","wem/bandit_either","A12VDN3TJJCAQQ","either","8","","","","","","","0","0","1","0.2974336912","","0.4","0.6","0.8","0.2","","","","","0.2161328783","0.2974336912","0.414877819","0.07879800556","","","","","","","74","J","1","","","117","main_expt"
"620","","bandit","196","606122","0.0-157.0-0.0","77920439","wem/bandit_either","A12VDN3TJJCAQQ","either","8","","","","","","","1","0","0","0.2651867246","","0.4","0.6","0.8","0.2","","","","","0.1931197841","0.2651867246","0.3968259953","0.08383735875","","","","","","","74","J","1","","","118","main_expt"
"512","","bandit","197","608166","0.0-158.0-0.0","77920439","wem/bandit_either","A12VDN3TJJCAQQ","either","8","","","","","","","0","0","1","0.3131666206","","0.4","0.6","0.8","0.2","","","","","0.1638183597","0.3131666206","0.4198241006","0.1392474383","","","","","","","74","J","1","","","119","main_expt"
"382","","bandit","198","610077","0.0-159.0-0.0","77920439","wem/bandit_either","A12VDN3TJJCAQQ","either","8","","","","","","","0","0","1","0.358829095","","0.4","0.6","0.8","0.2","","","","","0.1893282748","0.358829095","0.4286088018","0.1649404926","","","","","","","74","J","1","","","120","main_expt"
"420","","bandit","199","612042","0.0-160.0-0.0","77920439","wem/bandit_either","A12VDN3TJJCAQQ","either","8","","","","","","","0","1","0","","0.3189860171","0.4","0.6","0.8","0.2","0.2290368179","0.3189860171","0.4253829576","0.1764152442","","","","","","","","","","","74","J","1","","","121","main_expt"
"279","","bandit","200","613840","0.0-161.0-0.0","77920439","wem/bandit_either","A12VDN3TJJCAQQ","either","8","","","","","","","0","0","1","0.3011672979","","0.4","0.6","0.8","0.2","","","","","0.2445441383","0.3011672979","0.4235175979","0.2092397698","","","","","","","74","J","1","","","122","main_expt"
"664","","bandit","201","616023","0.0-162.0-0.0","77920439","wem/bandit_either","A12VDN3TJJCAQQ","either","8","","","","","","","0","0","1","0.3037948063","","0.4","0.6","0.8","0.2","","","","","0.2091075756","0.3037948063","0.4182090072","0.1884058447","","","","","","","74","J","1","","","123","main_expt"
"287","","bandit","202","617846","0.0-163.0-0.0","77920439","wem/bandit_either","A12VDN3TJJCAQQ","either","8","","","","","","","1","0","0","0.4356016004","","0.4","0.6","0.8","0.2","","","","","0.2216111921","0.2446200253","0.4356016004","0.1876417206","","","","","","","75","K","2","","","124","main_expt"
"291","","bandit","203","619656","0.0-164.0-0.0","77920439","wem/bandit_either","A12VDN3TJJCAQQ","either","8","","","","","","","0","0","1","0.403953628","","0.4","0.6","0.8","0.2","","","","","0.1622020501","0.2464628806","0.403953628","0.1890564589","","","","","","","75","K","2","","","125","main_expt"
"419","","bandit","204","621610","0.0-165.0-0.0","77920439","wem/bandit_either","A12VDN3TJJCAQQ","either","8","","","","","","","0","0","1","0.4020675328","","0.4","0.6","0.8","0.2","","","","","0.173533554","0.281169445","0.4020675328","0.1659850756","","","","","","","75","K","2","","","126","main_expt"
"169","","bandit","205","623313","0.0-166.0-0.0","77920439","wem/bandit_either","A12VDN3TJJCAQQ","either","8","","","","","","","0","0","1","0.290080064","","0.4","0.6","0.8","0.2","","","","","0.189829559","0.290080064","0.338443572","0.2006343121","","","","","","","74","J","1","","","127","main_expt"
"182","","bandit","206","625066","0.0-167.0-0.0","77920439","wem/bandit_either","A12VDN3TJJCAQQ","either","8","","","","","","","0","0","1","0.323123489","","0.4","0.6","0.8","0.2","","","","","0.1764696366","0.3280989756","0.323123489","0.2637444583","","","","","","","75","K","2","","","128","main_expt"
"217","","bandit","207","626810","0.0-168.0-0.0","77920439","wem/bandit_either","A12VDN3TJJCAQQ","either","8","","","","","","","1","0","0","0.2783394686","","0.4","0.6","0.8","0.2","","","","","0.172709194","0.3052704822","0.3615310162","0.2783394686","","","","","","","76","L","3","","","129","main_expt"
"293","","bandit","208","628637","0.0-169.0-0.0","77920439","wem/bandit_either","A12VDN3TJJCAQQ","either","8","","","","","","","0","0","1","","0.2674474002","0.4","0.6","0.8","0.2","0.1407460215","0.314718742","0.3667448715","0.2674474002","","","","","","","","","","","76","L","3","","","130","main_expt"
"314","","bandit","209","630501","0.0-170.0-0.0","77920439","wem/bandit_either","A12VDN3TJJCAQQ","either","8","","","","","","","0","1","0","","0.2122920843","0.4","0.6","0.8","0.2","0.143826562","0.2492347367","0.341745941","0.2122920843","","","","","","","","","","","76","L","3","","","131","main_expt"
"366","","bandit","210","632408","0.0-171.0-0.0","77920439","wem/bandit_either","A12VDN3TJJCAQQ","either","8","","","","","","","0","0","1","","0.1969346152","0.4","0.6","0.8","0.2","0.1862992663","0.2495736985","0.2615325727","0.1969346152","","","","","","","","","","","76","L","3","","","132","main_expt"
"223","","bandit","211","634172","0.0-172.0-0.0","77920439","wem/bandit_either","A12VDN3TJJCAQQ","either","8","","","","","","","0","0","1","0.1390835973","","0.4","0.6","0.8","0.2","","","","","0.185648564","0.2487120015","0.27905624","0.1390835973","","","","","","","76","L","3","","","133","main_expt"
"229","","bandit","212","635928","0.0-173.0-0.0","77920439","wem/bandit_either","A12VDN3TJJCAQQ","either","8","","","","","","","0","0","1","","0.1437640715","0.4","0.6","0.8","0.2","0.2002276213","0.3239420422","0.2751163123","0.1437640715","","","","","","","","","","","76","L","3","","","134","main_expt"
"349","","bandit","213","637811","0.0-174.0-0.0","77920439","wem/bandit_either","A12VDN3TJJCAQQ","either","8","","","","","","","0","0","1","0.2586507773","","0.4","0.6","0.8","0.2","","","","","0.2474552851","0.3903525049","0.2586507773","0.1175999949","","","","","","","75","K","2","","","135","main_expt"
"404","","bandit","214","639756","0.0-175.0-0.0","77920439","wem/bandit_either","A12VDN3TJJCAQQ","either","8","","","","","","","0","0","1","0.3703049055","","0.4","0.6","0.8","0.2","","","","","0.2454982057","0.3703049055","0.2385277364","0.1108499649","","","","","","","74","J","1","","","136","main_expt"
"482","","bandit","215","641792","0.0-176.0-0.0","77920439","wem/bandit_either","A12VDN3TJJCAQQ","either","8","","","","","","","0","0","1","","0.3657944308","0.4","0.6","0.8","0.2","0.2708690816","0.3657944308","0.1935782534","0.1208727618","","","","","","","","","","","74","J","1","","","137","main_expt"
"430","","bandit","216","643780","0.0-177.0-0.0","77920439","wem/bandit_either","A12VDN3TJJCAQQ","either","8","","","","","","","0","0","1","0.3452946514","","0.4","0.6","0.8","0.2","","","","","0.2219039101","0.3452946514","0.14087624","0.1098805161","","","","","","","74","J","1","","","138","main_expt"
"263","","bandit","217","645603","0.0-178.0-0.0","77920439","wem/bandit_either","A12VDN3TJJCAQQ","either","8","","","","","","","0","0","1","0.2485571535","","0.4","0.6","0.8","0.2","","","","","0.2485571535","0.3225052804","0.1340930794","0.1359731218","","","","","","","72","H","0","img/none_selected.jpg","","139","main_expt"
"348","","bandit","218","647499","0.0-179.0-0.0","77920439","wem/bandit_either","A12VDN3TJJCAQQ","either","8","","","","","","","0","0","1","0.2997250911","","0.4","0.6","0.8","0.2","","","","","0.2605640439","0.2997250911","0.1170750994","0.1419248406","","","","","","","74","J","1","","","140","main_expt"
"57","","bandit","219","649082","0.0-180.0-0.0","77920439","wem/bandit_either","A12VDN3TJJCAQQ","either","8","","","","","","","1","0","0","0.311933389","","0.4","0.6","0.8","0.2","","","","","0.2260680923","0.311933389","0.1316830279","0.1269577117","","","","","","","74","J","1","","","141","main_expt"
"262","","bandit","220","650873","0.0-181.0-0.0","77920439","wem/bandit_either","A12VDN3TJJCAQQ","either","8","","","","","","","0","0","1","0.3442568425","","0.4","0.6","0.8","0.2","","","","","0.2354846983","0.3442568425","0.09490366034","0.1073819056","","","","","","","74","J","1","","","142","main_expt"
"570","","bandit","221","652972","0.0-182.0-0.0","77920439","wem/bandit_either","A12VDN3TJJCAQQ","either","8","","","","","","","0","1","0","","0.3117203045","0.4","0.6","0.8","0.2","0.2089358464","0.3117203045","0.1246024154","0.1152767294","","","","","","","","","","","74","J","1","","","143","main_expt"
"294","","bandit","222","654796","0.0-183.0-0.0","77920439","wem/bandit_either","A12VDN3TJJCAQQ","either","8","","","","","","","1","0","0","0.3080771123","","0.4","0.6","0.8","0.2","","","","","0.1844607625","0.3080771123","0.1179874238","0.1317444946","","","","","","","74","J","1","","","144","main_expt"
"297","","bandit","223","656685","0.0-184.0-0.0","77920439","wem/bandit_either","A12VDN3TJJCAQQ","either","8","","","","","","","1","0","0","0.3146876691","","0.4","0.6","0.8","0.2","","","","","0.1940384654","0.3146876691","0.1211842963","0.1058600218","","","","","","","74","J","1","","","145","main_expt"
"480","","bandit","224","658699","0.0-185.0-0.0","77920439","wem/bandit_either","A12VDN3TJJCAQQ","either","8","","","","","","","1","0","0","0.3526806189","","0.4","0.6","0.8","0.2","","","","","0.2532022814","0.3526806189","0.06212451067","0.1862633901","","","","","","","74","J","1","","","146","main_expt"
"907","","bandit","225","661133","0.0-186.0-0.0","77920439","wem/bandit_either","A12VDN3TJJCAQQ","either","8","","","","","","","0","0","1","0.3859334927","","0.4","0.6","0.8","0.2","","","","","0.272856749","0.3859334927","0.05826033827","0.1944793183","","","","","","","74","J","1","","","147","main_expt"
"442","","bandit","226","663100","0.0-187.0-0.0","77920439","wem/bandit_either","A12VDN3TJJCAQQ","either","8","","","","","","","0","0","1","0.4089873985","","0.4","0.6","0.8","0.2","","","","","0.2441255329","0.4089873985","0.04847575149","0.1572605535","","","","","","","74","J","1","","","148","main_expt"
"474","","bandit","227","665110","0.0-188.0-0.0","77920439","wem/bandit_either","A12VDN3TJJCAQQ","either","8","","","","","","","0","1","0","","0.3317076441","0.4","0.6","0.8","0.2","0.2304797635","0.3317076441","0.07397138717","0.1632070519","","","","","","","","","","","74","J","1","","","149","main_expt"
"408","","bandit","228","667056","0.0-189.0-0.0","77920439","wem/bandit_either","A12VDN3TJJCAQQ","either","8","","","","","","","0","0","1","0.2514439341","","0.4","0.6","0.8","0.2","","","","","0.2645424191","0.2514439341","0.1178437277","0.2162169298","","","","","","","74","J","1","","","150","main_expt"
"559","","bandit","229","669141","0.0-190.0-0.0","77920439","wem/bandit_either","A12VDN3TJJCAQQ","either","8","","","","","","","0","0","1","","0.2209696772","0.4","0.6","0.8","0.2","0.2919476008","0.2209696772","0.1116740648","0.2806681102","","","","","","","","","","","74","J","1","","","151","main_expt"
"352","","bandit","230","671020","0.0-191.0-0.0","77920439","wem/bandit_either","A12VDN3TJJCAQQ","either","8","","","","","","","0","0","1","","0.2004300668","0.4","0.6","0.8","0.2","0.3004198658","0.2004300668","0.09681320826","0.25223767","","","","","","","","","","","74","J","1","","","152","main_expt"
"846","","bandit","231","673412","0.0-192.0-0.0","77920439","wem/bandit_either","A12VDN3TJJCAQQ","either","8","","","","","","","0","0","1","0.1803159607","","0.4","0.6","0.8","0.2","","","","","0.2910243242","0.1803159607","0.1162344283","0.2259503681","","","","","","","74","J","1","","","153","main_expt"
"376","","bandit","232","675330","0.0-193.0-0.0","77920439","wem/bandit_either","A12VDN3TJJCAQQ","either","8","","","","","","","0","0","1","0.1441765144","","0.4","0.6","0.8","0.2","","","","","0.2858680692","0.1793353988","0.1441765144","0.2520515582","","","","","","","75","K","2","","","154","main_expt"
"295","","bandit","233","677150","0.0-194.0-0.0","77920439","wem/bandit_either","A12VDN3TJJCAQQ","either","8","","","","","","","0","0","1","0.175125938","","0.4","0.6","0.8","0.2","","","","","0.276906037","0.175125938","0.1506434262","0.246895917","","","","","","","74","J","1","","","155","main_expt"
"385","","bandit","234","679059","0.0-195.0-0.0","77920439","wem/bandit_either","A12VDN3TJJCAQQ","either","8","","","","","","","0","0","1","","0.3087514371","0.4","0.6","0.8","0.2","0.3087514371","0.19004546","0.1691825384","0.2067462234","","","","","","","","","","","72","H","0","img/none_selected.jpg","","156","main_expt"
"1530","","bandit","235","682111","0.0-196.0-0.0","77920439","wem/bandit_either","A12VDN3TJJCAQQ","either","8","","","","","","","0","0","1","","0.3400763937","0.4","0.6","0.8","0.2","0.3400763937","0.1538528063","0.1465267651","0.1736677602","","","","","","","","","","","72","H","0","img/none_selected.jpg","","157","main_expt"
"234","","bandit","236","683875","0.0-197.0-0.0","77920439","wem/bandit_either","A12VDN3TJJCAQQ","either","8","","","","","","","0","0","1","0.1624419901","","0.4","0.6","0.8","0.2","","","","","0.3388441277","0.1624419901","0.1517260174","0.2437422656","","","","","","","74","J","1","","","158","main_expt"
"392","","bandit","237","685788","0.0-198.0-0.0","77920439","wem/bandit_either","A12VDN3TJJCAQQ","either","8","","","","","","","0","0","1","","0.1749682205","0.4","0.6","0.8","0.2","0.3496437485","0.1749682205","0.143579764","0.2627628197","","","","","","","","","","","74","J","1","","","159","main_expt"
"654","","bandit","238","687966","0.0-199.0-0.0","77920439","wem/bandit_either","A12VDN3TJJCAQQ","either","8","","","","","","","0","0","1","","0.2532756584","0.4","0.6","0.8","0.2","0.3347491532","0.2227833177","0.1701049762","0.2532756584","","","","","","","","","","","76","L","3","","","160","main_expt"
"424","","bandit","239","689919","0.0-200.0-0.0","77920439","wem/bandit_either","A12VDN3TJJCAQQ","either","8","","","","","","","0","0","1","0.1596038406","","0.4","0.6","0.8","0.2","","","","","0.3036625801","0.1616195486","0.1596038406","0.2846030245","","","","","","","75","K","2","","","161","main_expt"
"8","","bandit","240","691469","0.0-201.0-0.0","77920439","wem/bandit_either","A12VDN3TJJCAQQ","either","8","","","","","","","0","0","1","0.2735804545","","0.4","0.6","0.8","0.2","","","","","0.2735804545","0.1440802068","0.1186271452","0.2480450928","","","","","","","72","H","0","img/none_selected.jpg","","162","main_expt"
"108","","bandit","241","693106","0.0-202.0-0.0","77920439","wem/bandit_either","A12VDN3TJJCAQQ","either","8","","","","","","","0","0","1","","0.1349250059","0.4","0.6","0.8","0.2","0.2219233964","0.1349250059","0.1460830151","0.3217860246","","","","","","","","","","","74","J","1","","","163","main_expt"
"258","","bandit","242","694892","0.0-203.0-0.0","77920439","wem/bandit_either","A12VDN3TJJCAQQ","either","8","","","","","","","0","0","1","0.1482528248","","0.4","0.6","0.8","0.2","","","","","0.2489701673","0.1482528248","0.1924179555","0.3528623486","","","","","","","74","J","1","","","164","main_expt"
"311","","bandit","243","696751","0.0-204.0-0.0","77920439","wem/bandit_either","A12VDN3TJJCAQQ","either","8","","","","","","","0","0","1","0.1444116863","","0.4","0.6","0.8","0.2","","","","","0.2424219606","0.1444116863","0.1909643941","0.3113737792","","","","","","","74","J","1","","","165","main_expt"
"261","","bandit","244","698532","0.0-205.0-0.0","77920439","wem/bandit_either","A12VDN3TJJCAQQ","either","8","","","","","","","0","0","1","","0.1621449425","0.4","0.6","0.8","0.2","0.1899742571","0.1621449425","0.1917506842","0.2820045276","","","","","","","","","","","74","J","1","","","166","main_expt"
"255","","bandit","245","700315","0.0-206.0-0.0","77920439","wem/bandit_either","A12VDN3TJJCAQQ","either","8","","","","","","","0","0","1","","0.1695256229","0.4","0.6","0.8","0.2","0.2298880826","0.1695256229","0.2238056512","0.2539690707","","","","","","","","","","","74","J","1","","","167","main_expt"
"272","","bandit","246","702124","0.0-207.0-0.0","77920439","wem/bandit_either","A12VDN3TJJCAQQ","either","8","","","","","","","0","0","1","0.1712445676","","0.4","0.6","0.8","0.2","","","","","0.241220494","0.1712445676","0.2132240521","0.2177565821","","","","","","","74","J","1","","","168","main_expt"
"265","","bandit","247","703924","0.0-208.0-0.0","77920439","wem/bandit_either","A12VDN3TJJCAQQ","either","8","","","","","","","0","0","1","","0.1363713625","0.4","0.6","0.8","0.2","0.2113351254","0.191079104","0.1363713625","0.183214586","","","","","","","","","","","75","K","2","","","169","main_expt"
"245","","bandit","248","705689","0.0-209.0-0.0","77920439","wem/bandit_either","A12VDN3TJJCAQQ","either","8","","","","","","","1","0","0","0.2007690262","","0.4","0.6","0.8","0.2","","","","","0.2224744884","0.2227666825","0.2007690262","0.1757282231","","","","","","","75","K","2","","","170","main_expt"
"311","","bandit","249","707540","0.0-210.0-0.0","77920439","wem/bandit_either","A12VDN3TJJCAQQ","either","8","","","","","","","1","0","0","0.1238998316","","0.4","0.6","0.8","0.2","","","","","0.262177911","0.2719914804","0.1238998316","0.1679331046","","","","","","","75","K","2","","","171","main_expt"
"280","","bandit","250","709370","0.0-211.0-0.0","77920439","wem/bandit_either","A12VDN3TJJCAQQ","either","8","","","","","","","0","0","1","0.09746419185","","0.4","0.6","0.8","0.2","","","","","0.2822992514","0.2330128459","0.09746419185","0.14560319","","","","","","","75","K","2","","","172","main_expt"
"256","","bandit","251","711145","0.0-212.0-0.0","77920439","wem/bandit_either","A12VDN3TJJCAQQ","either","8","","","","","","","1","0","0","0.1018164217","","0.4","0.6","0.8","0.2","","","","","0.2545762091","0.2840251313","0.1018164217","0.1341549344","","","","","","","75","K","2","","","173","main_expt"
"255","","bandit","252","712927","0.0-213.0-0.0","77920439","wem/bandit_either","A12VDN3TJJCAQQ","either","8","","","","","","","0","0","1","0.1401689619","","0.4","0.6","0.8","0.2","","","","","0.2838184637","0.2739042306","0.1401689619","0.1471305278","","","","","","","75","K","2","","","174","main_expt"
"123","","bandit","253","714571","0.0-214.0-0.0","77920439","wem/bandit_either","A12VDN3TJJCAQQ","either","8","","","","","","","0","0","1","0.1697524679","","0.4","0.6","0.8","0.2","","","","","0.3002790513","0.3444735506","0.1697524679","0.173963405","","","","","","","75","K","2","","","175","main_expt"
"399","","bandit","254","716498","0.0-215.0-0.0","77920439","wem/bandit_either","A12VDN3TJJCAQQ","either","8","","","","","","","0","0","1","0.1896898672","","0.4","0.6","0.8","0.2","","","","","0.3771690292","0.3223017316","0.1896898672","0.1821857965","","","","","","","75","K","2","","","176","main_expt"
"679","","bandit","255","718716","0.0-216.0-0.0","77920439","wem/bandit_either","A12VDN3TJJCAQQ","either","8","","","","","","","1","0","0","0.2441254625","","0.4","0.6","0.8","0.2","","","","","0.4047809956","0.2964924158","0.2441254625","0.1444884472","","","","","","","75","K","2","","","177","main_expt"
"519","","bandit","256","720763","0.0-217.0-0.0","77920439","wem/bandit_either","A12VDN3TJJCAQQ","either","8","","","","","","","0","0","1","0.2427722412","","0.4","0.6","0.8","0.2","","","","","0.4344960837","0.2780576925","0.2427722412","0.1207783293","","","","","","","75","K","2","","","178","main_expt"
"291","","bandit","257","722603","0.0-218.0-0.0","77920439","wem/bandit_either","A12VDN3TJJCAQQ","either","8","","","","","","","0","1","0","","0.2284650367","0.4","0.6","0.8","0.2","0.4287912686","0.2859751729","0.2284650367","0.111585665","","","","","","","","","","","75","K","2","","","179","main_expt"
"90","","bandit","258","724229","0.0-219.0-0.0","77920439","wem/bandit_either","A12VDN3TJJCAQQ","either","8","","","","","","","0","0","1","0.2694081366","","0.4","0.6","0.8","0.2","","","","","0.4294180747","0.283533164","0.2694081366","0.06891525065","","","","","","","75","K","2","","","180","main_expt"
"1541","","bandit","259","727287","0.0-220.0-0.0","77920439","wem/bandit_either","A12VDN3TJJCAQQ","either","8","","","","","","","0","0","1","0.2471628034","","0.4","0.6","0.8","0.2","","","","","0.3887332701","0.2430023428","0.2471628034","0.07407739619","","","","","","","75","K","2","","","181","main_expt"
"3285","","bandit","260","732101","0.0-221.0-0.0","77920439","wem/bandit_either","A12VDN3TJJCAQQ","either","8","","","","","","","0","0","1","0.275372354","","0.4","0.6","0.8","0.2","","","","","0.3910635387","0.223254837","0.275372354","0.07501704201","","","","","","","75","K","2","","","182","main_expt"
"851","","bandit","261","734498","0.0-222.0-0.0","77920439","wem/bandit_either","A12VDN3TJJCAQQ","either","8","","","","","","","0","0","1","0.2378950907","","0.4","0.6","0.8","0.2","","","","","0.3957792538","0.2274286797","0.2378950907","0.09354103142","","","","","","","75","K","2","","","183","main_expt"
"367","","bandit","262","736403","0.0-223.0-0.0","77920439","wem/bandit_either","A12VDN3TJJCAQQ","either","8","","","","","","","0","0","1","","0.2611999536","0.4","0.6","0.8","0.2","0.3777829694","0.2485964068","0.2611999536","0.06673830493","","","","","","","","","","","75","K","2","","","184","main_expt"
"224","","bandit","263","738173","0.0-224.0-0.0","77920439","wem/bandit_either","A12VDN3TJJCAQQ","either","8","","","","","","","0","0","1","0.08617836821","","0.4","0.6","0.8","0.2","","","","","0.4130939835","0.2080173303","0.2799245071","0.08617836821","","","","","","","76","L","3","","","185","main_expt"
"62","","bandit","264","739751","0.0-225.0-0.0","77920439","wem/bandit_either","A12VDN3TJJCAQQ","either","8","","","","","","","0","0","1","","0.05054014018","0.4","0.6","0.8","0.2","0.376930599","0.2538883687","0.2275386122","0.05054014018","","","","","","","","","","","76","L","3","","","186","main_expt"
"316","","bandit","265","741592","0.0-226.0-0.0","77920439","wem/bandit_either","A12VDN3TJJCAQQ","either","8","","","","","","","0","0","1","","0.1101456656","0.4","0.6","0.8","0.2","0.3934592684","0.2267652077","0.2558518805","0.1101456656","","","","","","","","","","","76","L","3","","","187","main_expt"
"445","","bandit","266","743574","0.0-227.0-0.0","77920439","wem/bandit_either","A12VDN3TJJCAQQ","either","8","","","","","","","0","0","1","0.2757393749","","0.4","0.6","0.8","0.2","","","","","0.4086060551","0.2583789709","0.2757393749","0.1076418148","","","","","","","75","K","2","","","188","main_expt"
"360","","bandit","267","745480","0.0-228.0-0.0","77920439","wem/bandit_either","A12VDN3TJJCAQQ","either","8","","","","","","","0","0","1","0.2329768584","","0.4","0.6","0.8","0.2","","","","","0.447145564","0.2329768584","0.3326758055","0.1230456027","","","","","","","74","J","1","","","189","main_expt"
"200","","bandit","268","747211","0.0-229.0-0.0","77920439","wem/bandit_either","A12VDN3TJJCAQQ","either","8","","","","","","","0","0","1","0.2002510669","","0.4","0.6","0.8","0.2","","","","","0.386091063","0.2002510669","0.332927569","0.1872873117","","","","","","","74","J","1","","","190","main_expt"
"271","","bandit","269","749059","0.0-230.0-0.0","77920439","wem/bandit_either","A12VDN3TJJCAQQ","either","8","","","","","","","0","0","1","0.4221145333","","0.4","0.6","0.8","0.2","","","","","0.4221145333","0.2182600554","0.3859199101","0.1413073252","","","","","","","72","H","0","img/none_selected.jpg","","191","main_expt"
"293","","bandit","270","750879","0.0-231.0-0.0","77920439","wem/bandit_either","A12VDN3TJJCAQQ","either","8","","","","","","","0","1","0","","0.3913199708","0.4","0.6","0.8","0.2","0.3913199708","0.2681613901","0.392668484","0.1868627967","","","","","","","","","","","72","H","0","img/none_selected.jpg","","192","main_expt"
"313","","bandit","271","752730","0.0-232.0-0.0","77920439","wem/bandit_either","A12VDN3TJJCAQQ","either","8","","","","","","","0","1","0","","0.4013624592","0.4","0.6","0.8","0.2","0.4013624592","0.3035027483","0.3789843676","0.2312719224","","","","","","","","","","","72","H","0","img/none_selected.jpg","","193","main_expt"
"552","","bandit","272","754813","0.0-233.0-0.0","77920439","wem/bandit_either","A12VDN3TJJCAQQ","either","8","","","","","","","0","0","1","","0.3668237699","0.4","0.6","0.8","0.2","0.3668237699","0.275531754","0.3689216281","0.2585201677","","","","","","","","","","","72","H","0","img/none_selected.jpg","","194","main_expt"
"300","","bandit","273","756639","0.0-234.0-0.0","77920439","wem/bandit_either","A12VDN3TJJCAQQ","either","8","","","","","","","0","1","0","","0.3856266791","0.4","0.6","0.8","0.2","0.3856266791","0.2716401532","0.4136905162","0.2786104129","","","","","","","","","","","72","H","0","img/none_selected.jpg","","195","main_expt"
"334","","bandit","274","758509","0.0-235.0-0.0","77920439","wem/bandit_either","A12VDN3TJJCAQQ","either","8","","","","","","","0","1","0","","0.3702439493","0.4","0.6","0.8","0.2","0.3702439493","0.2814611543","0.4258575101","0.2407834285","","","","","","","","","","","72","H","0","img/none_selected.jpg","","196","main_expt"
"277","","bandit","275","760326","0.0-236.0-0.0","77920439","wem/bandit_either","A12VDN3TJJCAQQ","either","8","","","","","","","0","0","1","","0.3665926528","0.4","0.6","0.8","0.2","0.3665926528","0.2588010394","0.3976178043","0.2550568011","","","","","","","","","","","72","H","0","img/none_selected.jpg","","197","main_expt"
"768","","bandit","276","762618","0.0-237.0-0.0","77920439","wem/bandit_either","A12VDN3TJJCAQQ","either","8","","","","","","","0","1","0","","0.3432124584","0.4","0.6","0.8","0.2","0.3432124584","0.3094610495","0.3802378075","0.3094863904","","","","","","","","","","","72","H","0","img/none_selected.jpg","","198","main_expt"
"300","","bandit","277","764452","0.0-238.0-0.0","77920439","wem/bandit_either","A12VDN3TJJCAQQ","either","8","","","","","","","0","1","0","","0.4096574544","0.4","0.6","0.8","0.2","0.4096574544","0.3139278769","0.3926800246","0.3012985694","","","","","","","","","","","72","H","0","img/none_selected.jpg","","199","main_expt"
"353","","bandit","278","766371","0.0-239.0-0.0","77920439","wem/bandit_either","A12VDN3TJJCAQQ","either","8","","","","","","","0","1","0","","0.3799023259","0.4","0.6","0.8","0.2","0.3799023259","0.3459706187","0.3814844917","0.3149132519","","","","","","","","","","","72","H","0","img/none_selected.jpg","","200","main_expt"
"326","","bandit","279","768243","0.0-240.0-0.0","77920439","wem/bandit_either","A12VDN3TJJCAQQ","either","8","","","","","","","0","1","0","","0.3513783521","0.4","0.6","0.8","0.2","0.3513783521","0.3038365479","0.3831630738","0.3236307962","","","","","","","","","","","72","H","0","img/none_selected.jpg","","201","main_expt"
"187","","bandit","280","769975","0.0-241.0-0.0","77920439","wem/bandit_either","A12VDN3TJJCAQQ","either","8","","","","","","","1","0","0","0.3439351057","","0.4","0.6","0.8","0.2","","","","","0.3439351057","0.2964599608","0.3957430938","0.3163717903","","","","","","","72","H","0","img/none_selected.jpg","","202","main_expt"
"251","","bandit","281","771757","0.0-242.0-0.0","77920439","wem/bandit_either","A12VDN3TJJCAQQ","either","8","","","","","","","0","0","1","","0.2615327891","0.4","0.6","0.8","0.2","0.2615327891","0.280336616","0.4175506619","0.3165936227","","","","","","","","","","","72","H","0","img/none_selected.jpg","","203","main_expt"
"311","","bandit","282","773600","0.0-243.0-0.0","77920439","wem/bandit_either","A12VDN3TJJCAQQ","either","8","","","","","","","0","0","1","","0.2211517471","0.4","0.6","0.8","0.2","0.2211517471","0.262900641","0.4356800279","0.3166231072","","","","","","","","","","","72","H","0","img/none_selected.jpg","","204","main_expt"
"555","","bandit","283","775710","0.0-244.0-0.0","77920439","wem/bandit_either","A12VDN3TJJCAQQ","either","8","","","","","","","0","0","1","","0.1955747294","0.4","0.6","0.8","0.2","0.1955747294","0.3403150927","0.4342993254","0.2983153058","","","","","","","","","","","72","H","0","img/none_selected.jpg","","205","main_expt"
"336","","bandit","284","777589","0.0-245.0-0.0","77920439","wem/bandit_either","A12VDN3TJJCAQQ","either","8","","","","","","","0","0","1","","0.3137251184","0.4","0.6","0.8","0.2","0.3137251184","0.3407188883","0.4515967499","0.255573156","","","","","","","","","","","72","H","0","img/none_selected.jpg","","206","main_expt"
"349","","bandit","285","779471","0.0-246.0-0.0","77920439","wem/bandit_either","A12VDN3TJJCAQQ","either","8","","","","","","","1","0","0","0.2982459604","","0.4","0.6","0.8","0.2","","","","","0.2982459604","0.2955601217","0.4559700358","0.2816724171","","","","","","","72","H","0","img/none_selected.jpg","","207","main_expt"
"785","","bandit","286","781789","0.0-247.0-0.0","77920439","wem/bandit_either","A12VDN3TJJCAQQ","either","8","","","","","","","1","0","0","0.2359404152","","0.4","0.6","0.8","0.2","","","","","0.2359404152","0.2832193826","0.4711787588","0.2462622089","","","","","","","72","H","0","img/none_selected.jpg","","208","main_expt"
"827","","bandit","287","784140","0.0-248.0-0.0","77920439","wem/bandit_either","A12VDN3TJJCAQQ","either","8","","","","","","","0","0","1","","0.2396635106","0.4","0.6","0.8","0.2","0.2396635106","0.25637755","0.4859779177","0.2608633631","","","","","","","","","","","72","H","0","img/none_selected.jpg","","209","main_expt"
"512","","bandit","288","786191","0.0-249.0-0.0","77920439","wem/bandit_either","A12VDN3TJJCAQQ","either","8","","","","","","","0","0","1","0.2320506775","","0.4","0.6","0.8","0.2","","","","","0.2320506775","0.2500912527","0.4798195452","0.2649708152","","","","","","","72","H","0","img/none_selected.jpg","","210","main_expt"
"356","","bandit","289","788087","0.0-250.0-0.0","77920439","wem/bandit_either","A12VDN3TJJCAQQ","either","8","","","","","","","0","0","1","0.1894847828","","0.4","0.6","0.8","0.2","","","","","0.1894847828","0.2481129288","0.4754072522","0.2658594566","","","","","","","72","H","0","img/none_selected.jpg","","211","main_expt"
"282","","bandit","290","789895","0.0-251.0-0.0","77920439","wem/bandit_either","A12VDN3TJJCAQQ","either","8","","","","","","","0","0","1","0.2330804604","","0.4","0.6","0.8","0.2","","","","","0.2330804604","0.3192168596","0.4780703898","0.2648449814","","","","","","","72","H","0","img/none_selected.jpg","","212","main_expt"
"731","","bandit","291","792160","0.0-252.0-0.0","77920439","wem/bandit_either","A12VDN3TJJCAQQ","either","8","","","","","","","0","0","1","0.2484053244","","0.4","0.6","0.8","0.2","","","","","0.2484053244","0.2361953268","0.4883488692","0.286492297","","","","","","","72","H","0","img/none_selected.jpg","","213","main_expt"
"760","","bandit","292","794453","0.0-253.0-0.0","77920439","wem/bandit_either","A12VDN3TJJCAQQ","either","8","","","","","","","0","0","1","","0.2182548364","0.4","0.6","0.8","0.2","0.2182548364","0.2308921763","0.4872562331","0.2540339129","","","","","","","","","","","72","H","0","img/none_selected.jpg","","214","main_expt"
"308","","bandit","293","796285","0.0-254.0-0.0","77920439","wem/bandit_either","A12VDN3TJJCAQQ","either","8","","","","","","","0","0","1","0.1824073789","","0.4","0.6","0.8","0.2","","","","","0.1824073789","0.2161033537","0.4749609167","0.254651127","","","","","","","72","H","0","img/none_selected.jpg","","215","main_expt"
"384","","bandit","294","798191","0.0-255.0-0.0","77920439","wem/bandit_either","A12VDN3TJJCAQQ","either","8","","","","","","","0","0","1","0.1896756427","","0.4","0.6","0.8","0.2","","","","","0.1923730387","0.1896756427","0.4798413464","0.3140517816","","","","","","","74","J","1","","","216","main_expt"
"4","","bandit","295","799727","0.0-256.0-0.0","77920439","wem/bandit_either","A12VDN3TJJCAQQ","either","8","","","","","","","1","0","0","0.2266612446","","0.4","0.6","0.8","0.2","","","","","0.2266612446","0.1724286307","0.4865144435","0.3338676317","","","","","","","72","H","0","img/none_selected.jpg","","217","main_expt"
"348","","bandit","296","801606","0.0-257.0-0.0","77920439","wem/bandit_either","A12VDN3TJJCAQQ","either","8","","","","","","","0","0","1","0.1702705737","","0.4","0.6","0.8","0.2","","","","","0.1702705737","0.161168334","0.4789145001","0.3397001125","","","","","","","72","H","0","img/none_selected.jpg","","218","main_expt"
"299","","bandit","297","803436","0.0-258.0-0.0","77920439","wem/bandit_either","A12VDN3TJJCAQQ","either","8","","","","","","","0","0","1","","0.1159766116","0.4","0.6","0.8","0.2","0.1159766116","0.2021763003","0.4834748692","0.2982528089","","","","","","","","","","","72","H","0","img/none_selected.jpg","","219","main_expt"
"253","","bandit","298","805225","0.0-259.0-0.0","77920439","wem/bandit_either","A12VDN3TJJCAQQ","either","8","","","","","","","0","0","1","","0.09529473055","0.4","0.6","0.8","0.2","0.09529473055","0.2142164272","0.4722371777","0.2770934022","","","","","","","","","","","72","H","0","img/none_selected.jpg","","220","main_expt"
"183","","bandit","299","806948","0.0-260.0-0.0","77920439","wem/bandit_either","A12VDN3TJJCAQQ","either","8","","","","","","","0","0","1","","0.09060922323","0.4","0.6","0.8","0.2","0.09060922323","0.189068297","0.4654689219","0.2696770889","","","","","","","","","","","72","H","0","img/none_selected.jpg","","221","main_expt"
"164","","bandit","300","808657","0.0-261.0-0.0","77920439","wem/bandit_either","A12VDN3TJJCAQQ","either","8","","","","","","","0","0","1","","0.1250772464","0.4","0.6","0.8","0.2","0.1250772464","0.2120997892","0.4533789701","0.3103502417","","","","","","","","","","","72","H","0","img/none_selected.jpg","","222","main_expt"
"293","","bandit","301","810504","0.0-262.0-0.0","77920439","wem/bandit_either","A12VDN3TJJCAQQ","either","8","","","","","","","0","0","1","0.1177235221","","0.4","0.6","0.8","0.2","","","","","0.1177235221","0.1937664477","0.4473019993","0.3477728299","","","","","","","72","H","0","img/none_selected.jpg","","223","main_expt"
"4193","","bandit","302","816232","0.0-263.0-0.0","77920439","wem/bandit_either","A12VDN3TJJCAQQ","either","8","","","","","","","0","0","1","","0.1589673504","0.4","0.6","0.8","0.2","0.1589673504","0.2195846313","0.4651086175","0.3230244909","","","","","","","","","","","72","H","0","img/none_selected.jpg","","224","main_expt"
"1926","","bandit","303","819711","0.0-264.0-0.0","77920439","wem/bandit_either","A12VDN3TJJCAQQ","either","8","","","","","","","0","0","1","","0.1582937281","0.4","0.6","0.8","0.2","0.1582937281","0.1973587738","0.4704934375","0.3641913847","","","","","","","","","","","72","H","0","img/none_selected.jpg","","225","main_expt"
"74","","bandit","304","821311","0.0-265.0-0.0","77920439","wem/bandit_either","A12VDN3TJJCAQQ","either","8","","","","","","","0","1","0","","0.2029059012","0.4","0.6","0.8","0.2","0.1585786296","0.2029059012","0.4545632724","0.3211822138","","","","","","","","","","","74","J","1","","","226","main_expt"
"230","","bandit","305","823069","0.0-266.0-0.0","77920439","wem/bandit_either","A12VDN3TJJCAQQ","either","8","","","","","","","0","0","1","0.1677618241","","0.4","0.6","0.8","0.2","","","","","0.1614007709","0.1677618241","0.4313330006","0.3318596792","","","","","","","74","J","1","","","227","main_expt"
"256","","bandit","306","824866","0.0-267.0-0.0","77920439","wem/bandit_either","A12VDN3TJJCAQQ","either","8","","","","","","","0","1","0","","0.2079318551","0.4","0.6","0.8","0.2","0.1160982884","0.2079318551","0.4253897179","0.3715738924","","","","","","","","","","","74","J","1","","","228","main_expt"
"274","","bandit","307","826666","0.0-268.0-0.0","77920439","wem/bandit_either","A12VDN3TJJCAQQ","either","8","","","","","","","0","0","1","0.1860779256","","0.4","0.6","0.8","0.2","","","","","0.1327168588","0.1860779256","0.4416009531","0.3571583743","","","","","","","74","J","1","","","229","main_expt"
"497","","bandit","308","828714","0.0-269.0-0.0","77920439","wem/bandit_either","A12VDN3TJJCAQQ","either","8","","","","","","","0","0","1","0.1294985144","","0.4","0.6","0.8","0.2","","","","","0.1751239199","0.1294985144","0.4612445757","0.3455313741","","","","","","","74","J","1","","","230","main_expt"
"38","","bandit","309","830270","0.0-270.0-0.0","77920439","wem/bandit_either","A12VDN3TJJCAQQ","either","8","","","","","","","0","0","1","0.4455927364","","0.4","0.6","0.8","0.2","","","","","0.2080149414","0.1424139305","0.4455927364","0.3114256563","","","","","","","75","K","2","","","231","main_expt"
"306","","bandit","310","832106","0.0-271.0-0.0","77920439","wem/bandit_either","A12VDN3TJJCAQQ","either","8","","","","","","","0","0","1","0.4449483857","","0.4","0.6","0.8","0.2","","","","","0.2305008548","0.1777617008","0.4449483857","0.3127001645","","","","","","","75","K","2","","","232","main_expt"
"583","","bandit","311","834215","0.0-272.0-0.0","77920439","wem/bandit_either","A12VDN3TJJCAQQ","either","8","","","","","","","0","0","1","","0.1408291819","0.4","0.6","0.8","0.2","0.2331895239","0.1408291819","0.4570404202","0.2953609795","","","","","","","","","","","74","J","1","","","233","main_expt"
"444","","bandit","312","836187","0.0-273.0-0.0","77920439","wem/bandit_either","A12VDN3TJJCAQQ","either","8","","","","","","","0","0","1","0.4785018613","","0.4","0.6","0.8","0.2","","","","","0.2007149185","0.09563300426","0.4785018613","0.2743769666","","","","","","","75","K","2","","","234","main_expt"
"336","","bandit","313","838048","0.0-274.0-0.0","77920439","wem/bandit_either","A12VDN3TJJCAQQ","either","8","","","","","","","0","1","0","","0.2842570603","0.4","0.6","0.8","0.2","0.1428876463","0.06508254785","0.4708517218","0.2842570603","","","","","","","","","","","76","L","3","","","235","main_expt"
"238","","bandit","314","839839","0.0-275.0-0.0","77920439","wem/bandit_either","A12VDN3TJJCAQQ","either","8","","","","","","","1","0","0","0.3536106974","","0.4","0.6","0.8","0.2","","","","","0.1327756685","0.05272484418","0.4721911582","0.3536106974","","","","","","","76","L","3","","","236","main_expt"
"328","","bandit","315","841710","0.0-276.0-0.0","77920439","wem/bandit_either","A12VDN3TJJCAQQ","either","8","","","","","","","0","0","1","","0.3777879982","0.4","0.6","0.8","0.2","0.1969646424","0.05000735717","0.4567984566","0.3777879982","","","","","","","","","","","76","L","3","","","237","main_expt"
"253","","bandit","316","843508","0.0-277.0-0.0","77920439","wem/bandit_either","A12VDN3TJJCAQQ","either","8","","","","","","","0","1","0","","0.3819628943","0.4","0.6","0.8","0.2","0.2040955009","0.03409798278","0.4601910044","0.3819628943","","","","","","","","","","","76","L","3","","","238","main_expt"
"2435","","bandit","317","847481","0.0-278.0-0.0","77920439","wem/bandit_either","A12VDN3TJJCAQQ","either","8","","","","","","","0","0","1","","0.3590612953","0.4","0.6","0.8","0.2","0.1885012088","0.03555143528","0.4663275819","0.3590612953","","","","","","","","","","","76","L","3","","","239","main_expt"
"430","","bandit","318","849458","0.0-279.0-0.0","77920439","wem/bandit_either","A12VDN3TJJCAQQ","either","8","","","","","","","0","0","1","","0.3943681209","0.4","0.6","0.8","0.2","0.1779850251","0.06633834621","0.4781926851","0.3943681209","","","","","","","","","","","76","L","3","","","240","main_expt"
"424","","bandit","319","851423","0.0-280.0-0.0","77920439","wem/bandit_either","A12VDN3TJJCAQQ","either","8","","","","","","","0","0","1","","0.4178476804","0.4","0.6","0.8","0.2","0.2132761508","0.0332650027","0.4813407325","0.4178476804","","","","","","","","","","","76","L","3","","","241","main_expt"
"326","","bandit","320","853273","0.0-281.0-0.0","77920439","wem/bandit_either","A12VDN3TJJCAQQ","either","8","","","","","","","0","1","0","","0.4083523659","0.4","0.6","0.8","0.2","0.2181708985","0.03674005559","0.4758201438","0.4083523659","","","","","","","","","","","76","L","3","","","242","main_expt"
"331","","bandit","321","855132","0.0-282.0-0.0","77920439","wem/bandit_either","A12VDN3TJJCAQQ","either","8","","","","","","","0","1","0","","0.4107673147","0.4","0.6","0.8","0.2","0.1880751836","0.02732183546","0.4739127226","0.4107673147","","","","","","","","","","","76","L","3","","","243","main_expt"
"247","","bandit","322","856919","0.0-283.0-0.0","77920439","wem/bandit_either","A12VDN3TJJCAQQ","either","8","","","","","","","1","0","0","0.3914084711","","0.4","0.6","0.8","0.2","","","","","0.2693527465","0.02742276317","0.4467527753","0.3914084711","","","","","","","76","L","3","","","244","main_expt"
"278","","bandit","323","858726","0.0-284.0-0.0","77920439","wem/bandit_either","A12VDN3TJJCAQQ","either","8","","","","","","","0","0","1","","0.4117032301","0.4","0.6","0.8","0.2","0.2474629182","0.03322496416","0.4492118003","0.4117032301","","","","","","","","","","","76","L","3","","","245","main_expt"
"291","","bandit","324","860555","0.0-285.0-0.0","77920439","wem/bandit_either","A12VDN3TJJCAQQ","either","8","","","","","","","0","0","1","","0.4225436654","0.4","0.6","0.8","0.2","0.3019125269","0.0538648904","0.4702058379","0.4225436654","","","","","","","","","","","76","L","3","","","246","main_expt"
"300","","bandit","325","862391","0.0-286.0-0.0","77920439","wem/bandit_either","A12VDN3TJJCAQQ","either","8","","","","","","","0","1","0","","0.4327875568","0.4","0.6","0.8","0.2","0.3013832462","0.05538537946","0.4717010128","0.4327875568","","","","","","","","","","","76","L","3","","","247","main_expt"
"284","","bandit","326","864212","0.0-287.0-0.0","77920439","wem/bandit_either","A12VDN3TJJCAQQ","either","8","","","","","","","0","0","1","","0.4478523955","0.4","0.6","0.8","0.2","0.2917300956","0.07377210468","0.4750055548","0.4478523955","","","","","","","","","","","76","L","3","","","248","main_expt"
"192","","bandit","327","865944","0.0-288.0-0.0","77920439","wem/bandit_either","A12VDN3TJJCAQQ","either","8","","","","","","","0","1","0","","0.4221620221","0.4","0.6","0.8","0.2","0.2976682537","0.07098242635","0.4608113614","0.4221620221","","","","","","","","","","","76","L","3","","","249","main_expt"
"263","","bandit","328","867756","0.0-289.0-0.0","77920439","wem/bandit_either","A12VDN3TJJCAQQ","either","8","","","","","","","0","0","1","","0.3998447204","0.4","0.6","0.8","0.2","0.2921609534","0.08291081884","0.4361301801","0.3998447204","","","","","","","","","","","76","L","3","","","250","main_expt"
"352","","bandit","329","869646","0.0-290.0-0.0","77920439","wem/bandit_either","A12VDN3TJJCAQQ","either","8","","","","","","","0","0","1","0.4053116556","","0.4","0.6","0.8","0.2","","","","","0.3026336231","0.07668358207","0.4203652199","0.4053116556","","","","","","","76","L","3","","","251","main_expt"
"274","","bandit","330","871460","0.0-291.0-0.0","77920439","wem/bandit_either","A12VDN3TJJCAQQ","either","8","","","","","","","1","0","0","0.3780439072","","0.4","0.6","0.8","0.2","","","","","0.3303824841","0.05892609675","0.4465363659","0.3780439072","","","","","","","76","L","3","","","252","main_expt"
