"rt","responses","trial_type","trial_index","time_elapsed","internal_node_id","subjID","study","MID","cond","drift","key_press","expt_phase","target","like","value","connected","gems","bombs","no_reward","GemPrChosen","BombPrChosen","GainOverPainPr_0","GainOverPainPr_1","GainOverPainPr_2","GainOverPainPr_3","LosePr_0","LosePr_1","LosePr_2","LosePr_3","WinPr_0","WinPr_1","WinPr_2","WinPr_3","Q0","Q1","Q2","gender","age","ethnicity","respCharCode","respKey","respChoiceNum","respChoice","practice","trial_counter","trial_label"
"5839","{""Q0"":""A9YJYYOWOVCR1""}","survey-text","0","5859","0.0-0.0","78810878","wem/bandit_either","A9YJYYOWOVCR1","either","3","","","","","","","","","","","","","","","","","","","","","","","","","","","","","","","","","","","",""
"65260","","text","1","72132","0.0-1.0","78810878","wem/bandit_either","A9YJYYOWOVCR1","either","3","32","","","","","","","","","","","","","","","","","","","","","","","","","","","","","","","","","","",""
"38887","","text","2","111023","0.0-2.0","78810878","wem/bandit_either","A9YJYYOWOVCR1","either","3","32","","","","","","","","","","","","","","","","","","","","","","","","","","","","","","","","","","",""
"43506","","text","3","154534","0.0-3.0","78810878","wem/bandit_either","A9YJYYOWOVCR1","either","3","32","","","","","","","","","","","","","","","","","","","","","","","","","","","","","","","","","","",""
"21381","","text","4","175919","0.0-4.0","78810878","wem/bandit_either","A9YJYYOWOVCR1","either","3","32","","","","","","","","","","","","","","","","","","","","","","","","","","","","","","","","","","",""
"43668","","text","5","219590","0.0-5.0","78810878","wem/bandit_either","A9YJYYOWOVCR1","either","3","32","","","","","","","","","","","","","","","","","","","","","","","","","","","","","","","","","","",""
"16277","","text","6","235872","0.0-6.0","78810878","wem/bandit_either","A9YJYYOWOVCR1","either","3","32","","","","","","","","","","","","","","","","","","","","","","","","","","","","","","","","","","",""
"11292","","text","7","247167","0.0-7.0","78810878","wem/bandit_either","A9YJYYOWOVCR1","either","3","32","","","","","","","","","","","","","","","","","","","","","","","","","","","","","","","","","","",""
"14125","","identification","8","261355","0.0-8.0-0.0","78810878","wem/bandit_either","A9YJYYOWOVCR1","either","3","","identification_pre","the village of Zur","","","","","","","","","","","","","","","","","","","","","","","","","","","","","","","","",""
"8803","","identification","9","271198","0.0-8.0-1.0","78810878","wem/bandit_either","A9YJYYOWOVCR1","either","3","","identification_pre","the village of Nyx","","","","","","","","","","","","","","","","","","","","","","","","","","","","","","","","",""
"11932","","text","10","284136","0.0-9.0","78810878","wem/bandit_either","A9YJYYOWOVCR1","either","3","32","","","","","","","","","","","","","","","","","","","","","","","","","","","","","","","","","","",""
"7041","","text","11","291181","0.0-10.0","78810878","wem/bandit_either","A9YJYYOWOVCR1","either","3","32","","","","","","","","","","","","","","","","","","","","","","","","","","","","","","","","","","",""
"6687","","text","12","297872","0.0-11.0","78810878","wem/bandit_either","A9YJYYOWOVCR1","either","3","32","","","","","","","","","","","","","","","","","","","","","","","","","","","","","","","","","","",""
"9874","","text","13","307751","0.0-12.0","78810878","wem/bandit_either","A9YJYYOWOVCR1","either","3","32","","","","","","","","","","","","","","","","","","","","","","","","","","","","","","","","","","",""
"3646","","bandit","14","312916","0.0-13.0-0.0","78810878","wem/bandit_either","A9YJYYOWOVCR1","either","3","","","","","","","0","0","1","0","0","","","","","0","","","","0","","","","","","","","","","74","J","0","img/none_selected_demo.jpg","true","0",""
"3625","","bandit","15","318056","0.0-14.0-0.0","78810878","wem/bandit_either","A9YJYYOWOVCR1","either","3","","","","","","","0","0","1","0","0","","","","","0","","","","0","","","","","","","","","","75","K","0","img/none_selected_demo.jpg","true","0",""
"13121","","text","16","331182","0.0-15.0","78810878","wem/bandit_either","A9YJYYOWOVCR1","either","3","32","","","","","","","","","","","","","","","","","","","","","","","","","","","","","","","","","","",""
"15037","","text","17","346222","0.0-16.0","78810878","wem/bandit_either","A9YJYYOWOVCR1","either","3","32","","","","","","","","","","","","","","","","","","","","","","","","","","","","","","","","","","",""
"10359","","text","18","356585","0.0-17.0","78810878","wem/bandit_either","A9YJYYOWOVCR1","either","3","32","","","","","","","","","","","","","","","","","","","","","","","","","","","","","","","","","","",""
"6033","","text","19","362623","0.0-18.0","78810878","wem/bandit_either","A9YJYYOWOVCR1","either","3","32","","","","","","","","","","","","","","","","","","","","","","","","","","","","","","","","","","",""
"1210","","bandit","20","365347","0.0-19.0-0.0","78810878","wem/bandit_either","A9YJYYOWOVCR1","either","3","","","","","","","0","0","1","0.8","","0.5","0.5","","","","","","","0.8","0.2","","","","","","","","","74","J","0","img/none_selected_demo.jpg","true","0","80_20_practice"
"1464","","bandit","21","368330","0.0-19.0-1.0","78810878","wem/bandit_either","A9YJYYOWOVCR1","either","3","","","","","","","0","0","1","0.8","","0.5","0.5","","","","","","","0.8","0.2","","","","","","","","","74","J","0","img/none_selected_demo.jpg","true","0","80_20_practice"
"677","","bandit","22","370520","0.0-19.0-2.0","78810878","wem/bandit_either","A9YJYYOWOVCR1","either","3","","","","","","","0","0","1","0.2","","0.5","0.5","","","","","","","0.8","0.2","","","","","","","","","75","K","1","","true","0","80_20_practice"
"821","","bandit","23","372855","0.0-19.0-3.0","78810878","wem/bandit_either","A9YJYYOWOVCR1","either","3","","","","","","","1","0","0","0.8","","0.5","0.5","","","","","","","0.8","0.2","","","","","","","","","74","J","0","img/none_selected_demo.jpg","true","0","80_20_practice"
"898","","bandit","24","375267","0.0-19.0-4.0","78810878","wem/bandit_either","A9YJYYOWOVCR1","either","3","","","","","","","0","1","0","","0.8","0.5","0.5","","","0.8","0.2","","","","","","","","","","","","","74","J","0","img/none_selected_demo.jpg","true","0","80_20_practice"
"1393","","bandit","25","378175","0.0-19.0-5.0","78810878","wem/bandit_either","A9YJYYOWOVCR1","either","3","","","","","","","0","1","0","","0.2","0.5","0.5","","","0.8","0.2","","","","","","","","","","","","","75","K","1","","true","0","80_20_practice"
"625","","bandit","26","380313","0.0-19.0-6.0","78810878","wem/bandit_either","A9YJYYOWOVCR1","either","3","","","","","","","0","1","0","","0.8","0.5","0.5","","","0.8","0.2","","","","","","","","","","","","","74","J","0","img/none_selected_demo.jpg","true","0","80_20_practice"
"741","","bandit","27","382568","0.0-19.0-7.0","78810878","wem/bandit_either","A9YJYYOWOVCR1","either","3","","","","","","","1","0","0","0.8","","0.5","0.5","","","","","","","0.8","0.2","","","","","","","","","74","J","0","img/none_selected_demo.jpg","true","0","80_20_practice"
"620","","bandit","28","384703","0.0-19.0-8.0","78810878","wem/bandit_either","A9YJYYOWOVCR1","either","3","","","","","","","1","0","0","0.8","","0.5","0.5","","","","","","","0.8","0.2","","","","","","","","","74","J","0","img/none_selected_demo.jpg","true","0","80_20_practice"
"709","","bandit","29","386929","0.0-19.0-9.0","78810878","wem/bandit_either","A9YJYYOWOVCR1","either","3","","","","","","","0","1","0","","0.8","0.5","0.5","","","0.8","0.2","","","","","","","","","","","","","74","J","0","img/none_selected_demo.jpg","true","0","80_20_practice"
"650","","bandit","30","389094","0.0-19.0-10.0","78810878","wem/bandit_either","A9YJYYOWOVCR1","either","3","","","","","","","0","0","1","0.2","","0.5","0.5","","","","","","","0.8","0.2","","","","","","","","","75","K","1","","true","0","80_20_practice"
"376","","bandit","31","390984","0.0-19.0-11.0","78810878","wem/bandit_either","A9YJYYOWOVCR1","either","3","","","","","","","0","0","1","0.8","","0.5","0.5","","","","","","","0.8","0.2","","","","","","","","","74","J","0","img/none_selected_demo.jpg","true","0","80_20_practice"
"499","","bandit","32","392998","0.0-19.0-12.0","78810878","wem/bandit_either","A9YJYYOWOVCR1","either","3","","","","","","","0","0","1","0.2","","0.5","0.5","","","","","","","0.8","0.2","","","","","","","","","75","K","1","","true","0","80_20_practice"
"404","","bandit","33","394919","0.0-19.0-13.0","78810878","wem/bandit_either","A9YJYYOWOVCR1","either","3","","","","","","","1","0","0","0.8","","0.5","0.5","","","","","","","0.8","0.2","","","","","","","","","74","J","0","img/none_selected_demo.jpg","true","0","80_20_practice"
"459","","bandit","34","396897","0.0-19.0-14.0","78810878","wem/bandit_either","A9YJYYOWOVCR1","either","3","","","","","","","0","1","0","","0.8","0.5","0.5","","","0.8","0.2","","","","","","","","","","","","","74","J","0","img/none_selected_demo.jpg","true","0","80_20_practice"
"475","","bandit","35","398889","0.0-19.0-15.0","78810878","wem/bandit_either","A9YJYYOWOVCR1","either","3","","","","","","","0","1","0","","0.8","0.5","0.5","","","0.8","0.2","","","","","","","","","","","","","74","J","0","img/none_selected_demo.jpg","true","0","80_20_practice"
"379","","bandit","36","400786","0.0-19.0-16.0","78810878","wem/bandit_either","A9YJYYOWOVCR1","either","3","","","","","","","1","0","0","0.8","","0.5","0.5","","","","","","","0.8","0.2","","","","","","","","","74","J","0","img/none_selected_demo.jpg","true","0","80_20_practice"
"362","","bandit","37","402664","0.0-19.0-17.0","78810878","wem/bandit_either","A9YJYYOWOVCR1","either","3","","","","","","","0","0","1","","0.8","0.5","0.5","","","0.8","0.2","","","","","","","","","","","","","74","J","0","img/none_selected_demo.jpg","true","0","80_20_practice"
"387","","bandit","38","404568","0.0-19.0-18.0","78810878","wem/bandit_either","A9YJYYOWOVCR1","either","3","","","","","","","0","1","0","","0.2","0.5","0.5","","","0.8","0.2","","","","","","","","","","","","","75","K","1","","true","0","80_20_practice"
"399","","bandit","39","406483","0.0-19.0-19.0","78810878","wem/bandit_either","A9YJYYOWOVCR1","either","3","","","","","","","0","0","1","0.2","","0.5","0.5","","","","","","","0.8","0.2","","","","","","","","","75","K","1","","true","0","80_20_practice"
"11943","","text","40","418432","0.0-20.0","78810878","wem/bandit_either","A9YJYYOWOVCR1","either","3","32","","","","","","","","","","","","","","","","","","","","","","","","","","","","","","","","","","",""
"997","","bandit","41","420944","0.0-21.0-0.0","78810878","wem/bandit_either","A9YJYYOWOVCR1","either","3","","","","","","","1","0","0","1","0","","","","","0","1","","","1","0","","","","","","","","","74","J","0","img/none_selected_demo.jpg","true","0",""
"11151","","text","42","432111","0.0-22.0","78810878","wem/bandit_either","A9YJYYOWOVCR1","either","3","32","","","","","","","","","","","","","","","","","","","","","","","","","","","","","","","","","","",""
"5865","","text","43","437984","0.0-23.0","78810878","wem/bandit_either","A9YJYYOWOVCR1","either","3","32","","","","","","","","","","","","","","","","","","","","","","","","","","","","","","","","","","",""
"6825","","text","44","444816","0.0-24.0","78810878","wem/bandit_either","A9YJYYOWOVCR1","either","3","32","","","","","","","","","","","","","","","","","","","","","","","","","","","","","","","","","","",""
"4615","","text","45","449438","0.0-25.0","78810878","wem/bandit_either","A9YJYYOWOVCR1","either","3","32","","","","","","","","","","","","","","","","","","","","","","","","","","","","","","","","","","",""
"13325","","text","46","462769","0.0-26.0","78810878","wem/bandit_either","A9YJYYOWOVCR1","either","3","32","","","","","","","","","","","","","","","","","","","","","","","","","","","","","","","","","","",""
"6512","","text","47","469287","0.0-27.0","78810878","wem/bandit_either","A9YJYYOWOVCR1","either","3","32","","","","","","","","","","","","","","","","","","","","","","","","","","","","","","","","","","",""
"6821","","text","48","476112","0.0-28.0","78810878","wem/bandit_either","A9YJYYOWOVCR1","either","3","32","","","","","","","","","","","","","","","","","","","","","","","","","","","","","","","","","","",""
"7375","","text","49","483495","0.0-29.0","78810878","wem/bandit_either","A9YJYYOWOVCR1","either","3","32","","","","","","","","","","","","","","","","","","","","","","","","","","","","","","","","","","",""
"6435","","text","50","489937","0.0-30.0","78810878","wem/bandit_either","A9YJYYOWOVCR1","either","3","32","","","","","","","","","","","","","","","","","","","","","","","","","","","","","","","","","","",""
"2982","","text","51","492927","0.0-31.0","78810878","wem/bandit_either","A9YJYYOWOVCR1","either","3","32","","","","","","","","","","","","","","","","","","","","","","","","","","","","","","","","","","",""
"5745","","text","52","498678","0.0-32.0","78810878","wem/bandit_either","A9YJYYOWOVCR1","either","3","32","","","","","","","","","","","","","","","","","","","","","","","","","","","","","","","","","","",""
"1880","","bandit","53","502074","0.0-33.0-0.0","78810878","wem/bandit_either","A9YJYYOWOVCR1","either","3","","","","","","","0","0","1","","0.2","0.5","0.5","0.5","0.5","0.8","0.2","0.6","0.2","","","","","","","","","","","74","J","1","","true","0","full_practice"
"471","","bandit","54","504063","0.0-33.0-1.0","78810878","wem/bandit_either","A9YJYYOWOVCR1","either","3","","","","","","","0","0","1","0.6","","0.5","0.5","0.5","0.5","","","","","0.8","0.2","0.6","0.2","","","","","","","75","K","2","","true","0","full_practice"
"339","","bandit","55","505920","0.0-33.0-2.0","78810878","wem/bandit_either","A9YJYYOWOVCR1","either","3","","","","","","","0","0","1","","0.2","0.5","0.5","0.5","0.5","0.8","0.2","0.6","0.2","","","","","","","","","","","74","J","1","","true","0","full_practice"
"323","","bandit","56","507758","0.0-33.0-3.0","78810878","wem/bandit_either","A9YJYYOWOVCR1","either","3","","","","","","","0","1","0","","0.8","0.5","0.5","0.5","0.5","0.8","0.2","0.6","0.2","","","","","","","","","","","72","H","0","img/none_selected.jpg","true","0","full_practice"
"380","","bandit","57","509657","0.0-33.0-4.0","78810878","wem/bandit_either","A9YJYYOWOVCR1","either","3","","","","","","","0","0","1","0.8","","0.5","0.5","0.5","0.5","","","","","0.8","0.2","0.6","0.2","","","","","","","72","H","0","img/none_selected.jpg","true","0","full_practice"
"614","","bandit","58","511785","0.0-33.0-5.0","78810878","wem/bandit_either","A9YJYYOWOVCR1","either","3","","","","","","","1","0","0","0.8","","0.5","0.5","0.5","0.5","","","","","0.8","0.2","0.6","0.2","","","","","","","72","H","0","img/none_selected.jpg","true","0","full_practice"
"314","","bandit","59","513619","0.0-33.0-6.0","78810878","wem/bandit_either","A9YJYYOWOVCR1","either","3","","","","","","","0","1","0","","0.8","0.5","0.5","0.5","0.5","0.8","0.2","0.6","0.2","","","","","","","","","","","72","H","0","img/none_selected.jpg","true","0","full_practice"
"355","","bandit","60","515490","0.0-33.0-7.0","78810878","wem/bandit_either","A9YJYYOWOVCR1","either","3","","","","","","","1","0","0","0.8","","0.5","0.5","0.5","0.5","","","","","0.8","0.2","0.6","0.2","","","","","","","72","H","0","img/none_selected.jpg","true","0","full_practice"
"315","","bandit","61","517320","0.0-33.0-8.0","78810878","wem/bandit_either","A9YJYYOWOVCR1","either","3","","","","","","","1","0","0","0.8","","0.5","0.5","0.5","0.5","","","","","0.8","0.2","0.6","0.2","","","","","","","72","H","0","img/none_selected.jpg","true","0","full_practice"
"361","","bandit","62","519202","0.0-33.0-9.0","78810878","wem/bandit_either","A9YJYYOWOVCR1","either","3","","","","","","","0","1","0","","0.8","0.5","0.5","0.5","0.5","0.8","0.2","0.6","0.2","","","","","","","","","","","72","H","0","img/none_selected.jpg","true","0","full_practice"
"360","","bandit","63","521073","0.0-33.0-10.0","78810878","wem/bandit_either","A9YJYYOWOVCR1","either","3","","","","","","","0","1","0","","0.8","0.5","0.5","0.5","0.5","0.8","0.2","0.6","0.2","","","","","","","","","","","72","H","0","img/none_selected.jpg","true","0","full_practice"
"306","","bandit","64","522899","0.0-33.0-11.0","78810878","wem/bandit_either","A9YJYYOWOVCR1","either","3","","","","","","","0","1","0","","0.8","0.5","0.5","0.5","0.5","0.8","0.2","0.6","0.2","","","","","","","","","","","72","H","0","img/none_selected.jpg","true","0","full_practice"
"325","","bandit","65","524736","0.0-33.0-12.0","78810878","wem/bandit_either","A9YJYYOWOVCR1","either","3","","","","","","","1","0","0","0.8","","0.5","0.5","0.5","0.5","","","","","0.8","0.2","0.6","0.2","","","","","","","72","H","0","img/none_selected.jpg","true","0","full_practice"
"394","","bandit","66","526647","0.0-33.0-13.0","78810878","wem/bandit_either","A9YJYYOWOVCR1","either","3","","","","","","","0","0","1","0.2","","0.5","0.5","0.5","0.5","","","","","0.8","0.2","0.6","0.2","","","","","","","76","L","3","","true","0","full_practice"
"395","","bandit","67","528561","0.0-33.0-14.0","78810878","wem/bandit_either","A9YJYYOWOVCR1","either","3","","","","","","","1","0","0","0.8","","0.5","0.5","0.5","0.5","","","","","0.8","0.2","0.6","0.2","","","","","","","72","H","0","img/none_selected.jpg","true","0","full_practice"
"336","","bandit","68","530417","0.0-33.0-15.0","78810878","wem/bandit_either","A9YJYYOWOVCR1","either","3","","","","","","","0","1","0","","0.8","0.5","0.5","0.5","0.5","0.8","0.2","0.6","0.2","","","","","","","","","","","72","H","0","img/none_selected.jpg","true","0","full_practice"
"173","","bandit","69","532104","0.0-33.0-16.0","78810878","wem/bandit_either","A9YJYYOWOVCR1","either","3","","","","","","","1","0","0","0.8","","0.5","0.5","0.5","0.5","","","","","0.8","0.2","0.6","0.2","","","","","","","72","H","0","img/none_selected.jpg","true","0","full_practice"
"203","","bandit","70","533824","0.0-33.0-17.0","78810878","wem/bandit_either","A9YJYYOWOVCR1","either","3","","","","","","","1","0","0","0.8","","0.5","0.5","0.5","0.5","","","","","0.8","0.2","0.6","0.2","","","","","","","72","H","0","img/none_selected.jpg","true","0","full_practice"
"247","","bandit","71","535585","0.0-33.0-18.0","78810878","wem/bandit_either","A9YJYYOWOVCR1","either","3","","","","","","","1","0","0","0.8","","0.5","0.5","0.5","0.5","","","","","0.8","0.2","0.6","0.2","","","","","","","72","H","0","img/none_selected.jpg","true","0","full_practice"
"261","","bandit","72","537360","0.0-33.0-19.0","78810878","wem/bandit_either","A9YJYYOWOVCR1","either","3","","","","","","","0","0","1","","0.8","0.5","0.5","0.5","0.5","0.8","0.2","0.6","0.2","","","","","","","","","","","72","H","0","img/none_selected.jpg","true","0","full_practice"
"5040","","text","73","542424","0.0-34.0","78810878","wem/bandit_either","A9YJYYOWOVCR1","either","3","32","","","","","","","","","","","","","","","","","","","","","","","","","","","","","","","","","","",""
"48823","","text","74","592256","0.0-35.0","78810878","wem/bandit_either","A9YJYYOWOVCR1","either","3","32","","","","","","","","","","","","","","","","","","","","","","","","","","","","","","","","","","",""
"21834","","text","75","614098","0.0-36.0","78810878","wem/bandit_either","A9YJYYOWOVCR1","either","3","32","","","","","","","","","","","","","","","","","","","","","","","","","","","","","","","","","","",""
"10960","","text","76","625066","0.0-37.0","78810878","wem/bandit_either","A9YJYYOWOVCR1","either","3","32","","","","","","","","","","","","","","","","","","","","","","","","","","","","","","","","","","",""
"12278","","text","77","637352","0.0-38.0","78810878","wem/bandit_either","A9YJYYOWOVCR1","either","3","32","","","","","","","","","","","","","","","","","","","","","","","","","","","","","","","","","","",""
"8889","","text","78","646248","0.0-39.0","78810878","wem/bandit_either","A9YJYYOWOVCR1","either","3","32","","","","","","","","","","","","","","","","","","","","","","","","","","","","","","","","","","",""
"2881","","bandit","79","650645","0.0-40.0-0.0","78810878","wem/bandit_either","A9YJYYOWOVCR1","either","3","","","","","","","0","0","1","","0.07685641067","0.2","0.8","0.6","0.4","0.07685641067","0.1646489015","0.1426046982","0.4870892339","","","","","","","","","","","72","H","0","img/none_selected.jpg","","1","main_expt"
"422","","bandit","80","652586","0.0-41.0-0.0","78810878","wem/bandit_either","A9YJYYOWOVCR1","either","3","","","","","","","0","0","1","","0.2180431119","0.2","0.8","0.6","0.4","0.08388143876","0.2180431119","0.1597004976","0.4875162112","","","","","","","","","","","74","J","1","","","2","main_expt"
"1868","","bandit","81","655970","0.0-42.0-0.0","78810878","wem/bandit_either","A9YJYYOWOVCR1","either","3","","","","","","","0","0","1","","0.4909945117","0.2","0.8","0.6","0.4","0.06528774038","0.2294217256","0.1381850853","0.4909945117","","","","","","","","","","","76","L","3","","","3","main_expt"
"654","","bandit","82","658144","0.0-43.0-0.0","78810878","wem/bandit_either","A9YJYYOWOVCR1","either","3","","","","","","","0","0","1","","0.07987899881","0.2","0.8","0.6","0.4","0.07987899881","0.2162119515","0.1787932262","0.482579304","","","","","","","","","","","72","H","0","img/none_selected.jpg","","4","main_expt"
"771","","bandit","83","660434","0.0-44.0-0.0","78810878","wem/bandit_either","A9YJYYOWOVCR1","either","3","","","","","","","0","0","1","","0.0432391811","0.2","0.8","0.6","0.4","0.0432391811","0.2246316054","0.1795032464","0.4887913002","","","","","","","","","","","72","H","0","img/none_selected.jpg","","5","main_expt"
"718","","bandit","84","662667","0.0-45.0-0.0","78810878","wem/bandit_either","A9YJYYOWOVCR1","either","3","","","","","","","0","0","1","0.2061018479","","0.2","0.8","0.6","0.4","","","","","0.03467601655","0.2061018479","0.164375756","0.4887860333","","","","","","","74","J","1","","","6","main_expt"
"583","","bandit","85","664769","0.0-46.0-0.0","78810878","wem/bandit_either","A9YJYYOWOVCR1","either","3","","","","","","","0","0","1","0.1795347326","","0.2","0.8","0.6","0.4","","","","","0.05033951668","0.1795347326","0.204957223","0.4901971563","","","","","","","74","J","1","","","7","main_expt"
"779","","bandit","86","667068","0.0-47.0-0.0","78810878","wem/bandit_either","A9YJYYOWOVCR1","either","3","","","","","","","0","0","1","","0.2162036531","0.2","0.8","0.6","0.4","0.07676355645","0.1290452752","0.2162036531","0.4862230721","","","","","","","","","","","75","K","2","","","8","main_expt"
"532","","bandit","87","669123","0.0-48.0-0.0","78810878","wem/bandit_either","A9YJYYOWOVCR1","either","3","","","","","","","0","0","1","","0.2167418122","0.2","0.8","0.6","0.4","0.08620859221","0.1559184374","0.2167418122","0.4759730645","","","","","","","","","","","75","K","2","","","9","main_expt"
"405","","bandit","88","671048","0.0-49.0-0.0","78810878","wem/bandit_either","A9YJYYOWOVCR1","either","3","","","","","","","0","0","1","0.4560980466","","0.2","0.8","0.6","0.4","","","","","0.1103839657","0.1381514788","0.1607923637","0.4560980466","","","","","","","76","L","3","","","10","main_expt"
"433","","bandit","89","673002","0.0-50.0-0.0","78810878","wem/bandit_either","A9YJYYOWOVCR1","either","3","","","","","","","1","0","0","0.4775116046","","0.2","0.8","0.6","0.4","","","","","0.1334948588","0.1271140015","0.1386410957","0.4775116046","","","","","","","76","L","3","","","11","main_expt"
"585","","bandit","90","675106","0.0-51.0-0.0","78810878","wem/bandit_either","A9YJYYOWOVCR1","either","3","","","","","","","1","0","0","0.4705073552","","0.2","0.8","0.6","0.4","","","","","0.1535602519","0.1854664659","0.1718380738","0.4705073552","","","","","","","76","L","3","","","12","main_expt"
"554","","bandit","91","677181","0.0-52.0-0.0","78810878","wem/bandit_either","A9YJYYOWOVCR1","either","3","","","","","","","0","0","1","","0.4851887342","0.2","0.8","0.6","0.4","0.127854239","0.1869952656","0.1686303413","0.4851887342","","","","","","","","","","","76","L","3","","","13","main_expt"
"426","","bandit","92","679129","0.0-53.0-0.0","78810878","wem/bandit_either","A9YJYYOWOVCR1","either","3","","","","","","","0","0","1","0.4731273917","","0.2","0.8","0.6","0.4","","","","","0.1507911491","0.2035171393","0.1460019496","0.4731273917","","","","","","","76","L","3","","","14","main_expt"
"472","","bandit","93","681122","0.0-54.0-0.0","78810878","wem/bandit_either","A9YJYYOWOVCR1","either","3","","","","","","","1","0","0","0.4585867004","","0.2","0.8","0.6","0.4","","","","","0.1741212098","0.2800299461","0.1667614464","0.4585867004","","","","","","","76","L","3","","","15","main_expt"
"440","","bandit","94","683082","0.0-55.0-0.0","78810878","wem/bandit_either","A9YJYYOWOVCR1","either","3","","","","","","","0","1","0","","0.4366533258","0.2","0.8","0.6","0.4","0.1918308831","0.2725454461","0.1973644546","0.4366533258","","","","","","","","","","","76","L","3","","","16","main_expt"
"501","","bandit","95","685104","0.0-56.0-0.0","78810878","wem/bandit_either","A9YJYYOWOVCR1","either","3","","","","","","","0","0","1","0.4405228744","","0.2","0.8","0.6","0.4","","","","","0.1950212473","0.1570621471","0.1873415792","0.4405228744","","","","","","","76","L","3","","","17","main_expt"
"394","","bandit","96","687018","0.0-57.0-0.0","78810878","wem/bandit_either","A9YJYYOWOVCR1","either","3","","","","","","","1","0","0","0.4678551263","","0.2","0.8","0.6","0.4","","","","","0.2094813194","0.1968188506","0.1875860444","0.4678551263","","","","","","","76","L","3","","","18","main_expt"
"469","","bandit","97","689010","0.0-58.0-0.0","78810878","wem/bandit_either","A9YJYYOWOVCR1","either","3","","","","","","","1","0","0","0.466140525","","0.2","0.8","0.6","0.4","","","","","0.2628959394","0.2439518204","0.1988439388","0.466140525","","","","","","","76","L","3","","","19","main_expt"
"438","","bandit","98","690970","0.0-59.0-0.0","78810878","wem/bandit_either","A9YJYYOWOVCR1","either","3","","","","","","","0","0","1","0.4094087999","","0.2","0.8","0.6","0.4","","","","","0.2116504525","0.2806117898","0.1813993393","0.4094087999","","","","","","","76","L","3","","","20","main_expt"
"431","","bandit","99","692921","0.0-60.0-0.0","78810878","wem/bandit_either","A9YJYYOWOVCR1","either","3","","","","","","","0","0","1","","0.4386974508","0.2","0.8","0.6","0.4","0.1904426465","0.2658005831","0.2012004452","0.4386974508","","","","","","","","","","","76","L","3","","","21","main_expt"
"489","","bandit","100","694932","0.0-61.0-0.0","78810878","wem/bandit_either","A9YJYYOWOVCR1","either","3","","","","","","","0","1","0","","0.4505723784","0.2","0.8","0.6","0.4","0.1581796968","0.2774390086","0.1958646163","0.4505723784","","","","","","","","","","","76","L","3","","","22","main_expt"
"492","","bandit","101","696945","0.0-62.0-0.0","78810878","wem/bandit_either","A9YJYYOWOVCR1","either","3","","","","","","","0","0","1","0.4568000239","","0.2","0.8","0.6","0.4","","","","","0.2039009352","0.2795917474","0.2626819079","0.4568000239","","","","","","","76","L","3","","","23","main_expt"
"464","","bandit","102","698929","0.0-63.0-0.0","78810878","wem/bandit_either","A9YJYYOWOVCR1","either","3","","","","","","","0","0","1","0.4518339256","","0.2","0.8","0.6","0.4","","","","","0.228339491","0.2981059477","0.2906682881","0.4518339256","","","","","","","76","L","3","","","24","main_expt"
"407","","bandit","103","700856","0.0-64.0-0.0","78810878","wem/bandit_either","A9YJYYOWOVCR1","either","3","","","","","","","1","0","0","0.4120159309","","0.2","0.8","0.6","0.4","","","","","0.2602465224","0.3272059922","0.3270173502","0.4120159309","","","","","","","76","L","3","","","25","main_expt"
"528","","bandit","104","702908","0.0-65.0-0.0","78810878","wem/bandit_either","A9YJYYOWOVCR1","either","3","","","","","","","0","1","0","","0.4134154185","0.2","0.8","0.6","0.4","0.1939420306","0.3369826645","0.2951289915","0.4134154185","","","","","","","","","","","76","L","3","","","26","main_expt"
"501","","bandit","105","704929","0.0-66.0-0.0","78810878","wem/bandit_either","A9YJYYOWOVCR1","either","3","","","","","","","0","0","1","","0.4031068294","0.2","0.8","0.6","0.4","0.2387331149","0.2531212506","0.3520126272","0.4031068294","","","","","","","","","","","76","L","3","","","27","main_expt"
"472","","bandit","106","706925","0.0-67.0-0.0","78810878","wem/bandit_either","A9YJYYOWOVCR1","either","3","","","","","","","0","1","0","","0.2183458617","0.2","0.8","0.6","0.4","0.2183458617","0.2170461037","0.3369287003","0.4305883772","","","","","","","","","","","72","H","0","img/none_selected.jpg","","28","main_expt"
"772","","bandit","107","709215","0.0-68.0-0.0","78810878","wem/bandit_either","A9YJYYOWOVCR1","either","3","","","","","","","0","0","1","","0.2151501268","0.2","0.8","0.6","0.4","0.2151501268","0.2346211465","0.3591799128","0.4383329838","","","","","","","","","","","72","H","0","img/none_selected.jpg","","29","main_expt"
"462","","bandit","108","711192","0.0-69.0-0.0","78810878","wem/bandit_either","A9YJYYOWOVCR1","either","3","","","","","","","0","0","1","","0.2267233056","0.2","0.8","0.6","0.4","0.2267233056","0.2450860663","0.3324285477","0.4233276099","","","","","","","","","","","72","H","0","img/none_selected.jpg","","30","main_expt"
"421","","bandit","109","713133","0.0-70.0-0.0","78810878","wem/bandit_either","A9YJYYOWOVCR1","either","3","","","","","","","1","0","0","0.2141169407","","0.2","0.8","0.6","0.4","","","","","0.2663701676","0.2141169407","0.327032362","0.4016185005","","","","","","","74","J","1","","","31","main_expt"
"435","","bandit","110","715091","0.0-71.0-0.0","78810878","wem/bandit_either","A9YJYYOWOVCR1","either","3","","","","","","","0","0","1","","0.2347854155","0.2","0.8","0.6","0.4","0.275969473","0.2347854155","0.3230905041","0.4134940178","","","","","","","","","","","74","J","1","","","32","main_expt"
"334","","bandit","111","716945","0.0-72.0-0.0","78810878","wem/bandit_either","A9YJYYOWOVCR1","either","3","","","","","","","0","0","1","0.246596708","","0.2","0.8","0.6","0.4","","","","","0.3365270118","0.246596708","0.2969008969","0.4331174495","","","","","","","74","J","1","","","33","main_expt"
"381","","bandit","112","718849","0.0-73.0-0.0","78810878","wem/bandit_either","A9YJYYOWOVCR1","either","3","","","","","","","0","0","1","","0.2536392951","0.2","0.8","0.6","0.4","0.2916301021","0.1914370393","0.2536392951","0.4454497031","","","","","","","","","","","75","K","2","","","34","main_expt"
"285","","bandit","113","720657","0.0-74.0-0.0","78810878","wem/bandit_either","A9YJYYOWOVCR1","either","3","","","","","","","0","0","1","0.2336030597","","0.2","0.8","0.6","0.4","","","","","0.3236538836","0.1408207185","0.2336030597","0.4419706984","","","","","","","75","K","2","","","35","main_expt"
"342","","bandit","114","722520","0.0-75.0-0.0","78810878","wem/bandit_either","A9YJYYOWOVCR1","either","3","","","","","","","0","0","1","","0.4205940312","0.2","0.8","0.6","0.4","0.3317439785","0.09539735145","0.3110392291","0.4205940312","","","","","","","","","","","76","L","3","","","36","main_expt"
"252","","bandit","115","724296","0.0-76.0-0.0","78810878","wem/bandit_either","A9YJYYOWOVCR1","either","3","","","","","","","0","1","0","","0.4227305347","0.2","0.8","0.6","0.4","0.3620900841","0.08867332122","0.3354302382","0.4227305347","","","","","","","","","","","76","L","3","","","37","main_expt"
"364","","bandit","116","726176","0.0-77.0-0.0","78810878","wem/bandit_either","A9YJYYOWOVCR1","either","3","","","","","","","0","1","0","","0.3904174821","0.2","0.8","0.6","0.4","0.3649119955","0.0804097964","0.3359947902","0.3904174821","","","","","","","","","","","76","L","3","","","38","main_expt"
"436","","bandit","117","728128","0.0-78.0-0.0","78810878","wem/bandit_either","A9YJYYOWOVCR1","either","3","","","","","","","0","0","1","","0.3704092514","0.2","0.8","0.6","0.4","0.3993258453","0.1092906338","0.3719467902","0.3704092514","","","","","","","","","","","76","L","3","","","39","main_expt"
"355","","bandit","118","730007","0.0-79.0-0.0","78810878","wem/bandit_either","A9YJYYOWOVCR1","either","3","","","","","","","0","0","1","0.3250394812","","0.2","0.8","0.6","0.4","","","","","0.43145226","0.08771014895","0.37180955","0.3250394812","","","","","","","76","L","3","","","40","main_expt"
"296","","bandit","119","731826","0.0-80.0-0.0","78810878","wem/bandit_either","A9YJYYOWOVCR1","either","3","","","","","","","0","1","0","","0.3633775572","0.2","0.8","0.6","0.4","0.3925837484","0.1065106481","0.3972707938","0.3633775572","","","","","","","","","","","76","L","3","","","41","main_expt"
"299","","bandit","120","733648","0.0-81.0-0.0","78810878","wem/bandit_either","A9YJYYOWOVCR1","either","3","","","","","","","0","1","0","","0.3708570881","0.2","0.8","0.6","0.4","0.4020613291","0.0926848955","0.3981555674","0.3708570881","","","","","","","","","","","76","L","3","","","42","main_expt"
"530","","bandit","121","735703","0.0-82.0-0.0","78810878","wem/bandit_either","A9YJYYOWOVCR1","either","3","","","","","","","0","0","1","","0.3852030547","0.2","0.8","0.6","0.4","0.4199094288","0.09213729174","0.3698022864","0.3852030547","","","","","","","","","","","76","L","3","","","43","main_expt"
"363","","bandit","122","737582","0.0-83.0-0.0","78810878","wem/bandit_either","A9YJYYOWOVCR1","either","3","","","","","","","0","0","1","","0.3653477133","0.2","0.8","0.6","0.4","0.4362917367","0.0950319608","0.3278340923","0.3653477133","","","","","","","","","","","76","L","3","","","44","main_expt"
"333","","bandit","123","739433","0.0-84.0-0.0","78810878","wem/bandit_either","A9YJYYOWOVCR1","either","3","","","","","","","0","0","1","","0.3423722135","0.2","0.8","0.6","0.4","0.4310393502","0.07917944011","0.4004869948","0.3423722135","","","","","","","","","","","76","L","3","","","45","main_expt"
"397","","bandit","124","741352","0.0-85.0-0.0","78810878","wem/bandit_either","A9YJYYOWOVCR1","either","3","","","","","","","0","0","1","","0.4301719659","0.2","0.8","0.6","0.4","0.4301719659","0.08528552535","0.4389658195","0.2713785315","","","","","","","","","","","72","H","0","img/none_selected.jpg","","46","main_expt"
"437","","bandit","125","743313","0.0-86.0-0.0","78810878","wem/bandit_either","A9YJYYOWOVCR1","either","3","","","","","","","0","0","1","0.08303267599","","0.2","0.8","0.6","0.4","","","","","0.4274268526","0.08303267599","0.4294918489","0.2675382036","","","","","","","74","J","1","","","47","main_expt"
"347","","bandit","126","745178","0.0-87.0-0.0","78810878","wem/bandit_either","A9YJYYOWOVCR1","either","3","","","","","","","0","0","1","0.1183490009","","0.2","0.8","0.6","0.4","","","","","0.4559220927","0.1183490009","0.3948346084","0.3006553151","","","","","","","74","J","1","","","48","main_expt"
"280","","bandit","127","746976","0.0-88.0-0.0","78810878","wem/bandit_either","A9YJYYOWOVCR1","either","3","","","","","","","0","0","1","","0.09831357925","0.2","0.8","0.6","0.4","0.4362936898","0.09831357925","0.4226663974","0.2865645246","","","","","","","","","","","74","J","1","","","49","main_expt"
"318","","bandit","128","748817","0.0-89.0-0.0","78810878","wem/bandit_either","A9YJYYOWOVCR1","either","3","","","","","","","1","0","0","0.3943232949","","0.2","0.8","0.6","0.4","","","","","0.4001593617","0.0896163698","0.3943232949","0.2842330123","","","","","","","75","K","2","","","50","main_expt"
"331","","bandit","129","750674","0.0-90.0-0.0","78810878","wem/bandit_either","A9YJYYOWOVCR1","either","3","","","","","","","0","0","1","0.3911898034","","0.2","0.8","0.6","0.4","","","","","0.3737598101","0.08239790895","0.3911898034","0.2933637591","","","","","","","75","K","2","","","51","main_expt"
"292","","bandit","130","752487","0.0-91.0-0.0","78810878","wem/bandit_either","A9YJYYOWOVCR1","either","3","","","","","","","1","0","0","0.3897106723","","0.2","0.8","0.6","0.4","","","","","0.3490564905","0.06509061927","0.3897106723","0.2802127762","","","","","","","75","K","2","","","52","main_expt"
"387","","bandit","131","754393","0.0-92.0-0.0","78810878","wem/bandit_either","A9YJYYOWOVCR1","either","3","","","","","","","0","0","1","0.3977919118","","0.2","0.8","0.6","0.4","","","","","0.3606416198","0.05503049918","0.3977919118","0.2567133084","","","","","","","75","K","2","","","53","main_expt"
"306","","bandit","132","756216","0.0-93.0-0.0","78810878","wem/bandit_either","A9YJYYOWOVCR1","either","3","","","","","","","0","1","0","","0.3803623479","0.2","0.8","0.6","0.4","0.3920172378","0.06606451817","0.3803623479","0.304436262","","","","","","","","","","","75","K","2","","","54","main_expt"
"314","","bandit","133","758047","0.0-94.0-0.0","78810878","wem/bandit_either","A9YJYYOWOVCR1","either","3","","","","","","","0","1","0","","0.3898030924","0.2","0.8","0.6","0.4","0.3841867886","0.0812436444","0.3898030924","0.3050376594","","","","","","","","","","","75","K","2","","","55","main_expt"
"318","","bandit","134","759889","0.0-95.0-0.0","78810878","wem/bandit_either","A9YJYYOWOVCR1","either","3","","","","","","","1","0","0","0.4332266089","","0.2","0.8","0.6","0.4","","","","","0.3752679739","0.05752214818","0.4332266089","0.2874076515","","","","","","","75","K","2","","","56","main_expt"
"338","","bandit","135","761756","0.0-96.0-0.0","78810878","wem/bandit_either","A9YJYYOWOVCR1","either","3","","","","","","","0","1","0","","0.4598680415","0.2","0.8","0.6","0.4","0.3595388075","0.05957573693","0.4598680415","0.2633226407","","","","","","","","","","","75","K","2","","","57","main_expt"
"306","","bandit","136","763584","0.0-97.0-0.0","78810878","wem/bandit_either","A9YJYYOWOVCR1","either","3","","","","","","","0","0","1","0.4510058242","","0.2","0.8","0.6","0.4","","","","","0.2926617498","0.08347810371","0.4510058242","0.282557186","","","","","","","75","K","2","","","58","main_expt"
"297","","bandit","137","765399","0.0-98.0-0.0","78810878","wem/bandit_either","A9YJYYOWOVCR1","either","3","","","","","","","0","1","0","","0.4587464736","0.2","0.8","0.6","0.4","0.2854140482","0.1166757522","0.4587464736","0.2675679041","","","","","","","","","","","75","K","2","","","59","main_expt"
"312","","bandit","138","767240","0.0-99.0-0.0","78810878","wem/bandit_either","A9YJYYOWOVCR1","either","3","","","","","","","0","0","1","0.4534111386","","0.2","0.8","0.6","0.4","","","","","0.2767785787","0.1223048521","0.4534111386","0.2654645802","","","","","","","75","K","2","","","60","main_expt"
"321","","bandit","139","769081","0.0-100.0-0.0","78810878","wem/bandit_either","A9YJYYOWOVCR1","either","3","","","","","","","0","0","1","0.4581751116","","0.2","0.8","0.6","0.4","","","","","0.3110110239","0.1341525672","0.4581751116","0.2326588137","","","","","","","75","K","2","","","61","main_expt"
"308","","bandit","140","770911","0.0-101.0-0.0","78810878","wem/bandit_either","A9YJYYOWOVCR1","either","3","","","","","","","0","0","1","","0.4447189615","0.2","0.8","0.6","0.4","0.2739379344","0.1748443247","0.4447189615","0.2430345153","","","","","","","","","","","75","K","2","","","62","main_expt"
"301","","bandit","141","772737","0.0-102.0-0.0","78810878","wem/bandit_either","A9YJYYOWOVCR1","either","3","","","","","","","0","0","1","0.4351057758","","0.2","0.8","0.6","0.4","","","","","0.2518438402","0.1872250423","0.4351057758","0.2682261916","","","","","","","75","K","2","","","63","main_expt"
"324","","bandit","142","774587","0.0-103.0-0.0","78810878","wem/bandit_either","A9YJYYOWOVCR1","either","3","","","","","","","0","0","1","0.3136585585","","0.2","0.8","0.6","0.4","","","","","0.216118181","0.1592276408","0.4559228662","0.3136585585","","","","","","","76","L","3","","","64","main_expt"
"353","","bandit","143","776471","0.0-104.0-0.0","78810878","wem/bandit_either","A9YJYYOWOVCR1","either","3","","","","","","","0","0","1","0.3208042698","","0.2","0.8","0.6","0.4","","","","","0.1961712117","0.1881419285","0.4526438492","0.3208042698","","","","","","","76","L","3","","","65","main_expt"
"262","","bandit","144","778258","0.0-105.0-0.0","78810878","wem/bandit_either","A9YJYYOWOVCR1","either","3","","","","","","","0","0","1","0.3550213758","","0.2","0.8","0.6","0.4","","","","","0.1821057022","0.2075830042","0.4604690516","0.3550213758","","","","","","","76","L","3","","","66","main_expt"
"339","","bandit","145","780123","0.0-106.0-0.0","78810878","wem/bandit_either","A9YJYYOWOVCR1","either","3","","","","","","","0","1","0","","0.2221692745","0.2","0.8","0.6","0.4","0.2221692745","0.210321401","0.4479534522","0.2883445083","","","","","","","","","","","72","H","0","img/none_selected.jpg","","67","main_expt"
"361","","bandit","146","782009","0.0-107.0-0.0","78810878","wem/bandit_either","A9YJYYOWOVCR1","either","3","","","","","","","0","0","1","","0.2385328342","0.2","0.8","0.6","0.4","0.2385328342","0.1740681144","0.4420076102","0.2492112051","","","","","","","","","","","72","H","0","img/none_selected.jpg","","68","main_expt"
"19","","bandit","147","783554","0.0-108.0-0.0","78810878","wem/bandit_either","A9YJYYOWOVCR1","either","3","","","","","","","0","0","1","","0.2693988132","0.2","0.8","0.6","0.4","0.2693988132","0.1495678232","0.3840886122","0.1725364023","","","","","","","","","","","72","H","0","img/none_selected.jpg","","69","main_expt"
"499","","bandit","148","785577","0.0-109.0-0.0","78810878","wem/bandit_either","A9YJYYOWOVCR1","either","3","","","","","","","0","0","1","","0.2633889128","0.2","0.8","0.6","0.4","0.2633889128","0.1594524764","0.3764426572","0.2081322216","","","","","","","","","","","72","H","0","img/none_selected.jpg","","70","main_expt"
"321","","bandit","149","787417","0.0-110.0-0.0","78810878","wem/bandit_either","A9YJYYOWOVCR1","either","3","","","","","","","0","0","1","","0.2881785301","0.2","0.8","0.6","0.4","0.2881785301","0.1308665948","0.3925575972","0.2222096595","","","","","","","","","","","72","H","0","img/none_selected.jpg","","71","main_expt"
"313","","bandit","150","789259","0.0-111.0-0.0","78810878","wem/bandit_either","A9YJYYOWOVCR1","either","3","","","","","","","0","0","1","0.1413665491","","0.2","0.8","0.6","0.4","","","","","0.3496752211","0.1413665491","0.4055717031","0.2276413934","","","","","","","74","J","1","","","72","main_expt"
"329","","bandit","151","791106","0.0-112.0-0.0","78810878","wem/bandit_either","A9YJYYOWOVCR1","either","3","","","","","","","0","0","1","0.1562096843","","0.2","0.8","0.6","0.4","","","","","0.3662649551","0.1562096843","0.4313753627","0.202726327","","","","","","","74","J","1","","","73","main_expt"
"405","","bandit","152","793033","0.0-113.0-0.0","78810878","wem/bandit_either","A9YJYYOWOVCR1","either","3","","","","","","","0","0","1","0.4294283137","","0.2","0.8","0.6","0.4","","","","","0.3318597218","0.1601549975","0.4294283137","0.2465356434","","","","","","","75","K","2","","","74","main_expt"
"340","","bandit","153","794901","0.0-114.0-0.0","78810878","wem/bandit_either","A9YJYYOWOVCR1","either","3","","","","","","","0","0","1","","0.4114775526","0.2","0.8","0.6","0.4","0.3129946244","0.1962365409","0.4114775526","0.2780880013","","","","","","","","","","","75","K","2","","","75","main_expt"
"287","","bandit","154","796713","0.0-115.0-0.0","78810878","wem/bandit_either","A9YJYYOWOVCR1","either","3","","","","","","","0","0","1","","0.4038916894","0.2","0.8","0.6","0.4","0.3299880354","0.2315068675","0.4038916894","0.230570622","","","","","","","","","","","75","K","2","","","76","main_expt"
"387","","bandit","155","798629","0.0-116.0-0.0","78810878","wem/bandit_either","A9YJYYOWOVCR1","either","3","","","","","","","1","0","0","0.4028298088","","0.2","0.8","0.6","0.4","","","","","0.2704336052","0.1749603823","0.4028298088","0.1747897532","","","","","","","75","K","2","","","77","main_expt"
"344","","bandit","156","800500","0.0-117.0-0.0","78810878","wem/bandit_either","A9YJYYOWOVCR1","either","3","","","","","","","0","1","0","","0.4004321452","0.2","0.8","0.6","0.4","0.2489008917","0.2091975686","0.4004321452","0.2009150394","","","","","","","","","","","75","K","2","","","78","main_expt"
"406","","bandit","157","802427","0.0-118.0-0.0","78810878","wem/bandit_either","A9YJYYOWOVCR1","either","3","","","","","","","0","0","1","0.3909827091","","0.2","0.8","0.6","0.4","","","","","0.2182462247","0.2699334682","0.3909827091","0.2090883318","","","","","","","75","K","2","","","79","main_expt"
"298","","bandit","158","804250","0.0-119.0-0.0","78810878","wem/bandit_either","A9YJYYOWOVCR1","either","3","","","","","","","1","0","0","0.4289339141","","0.2","0.8","0.6","0.4","","","","","0.1591694045","0.2712134299","0.4289339141","0.215522018","","","","","","","75","K","2","","","80","main_expt"
"305","","bandit","159","806072","0.0-120.0-0.0","78810878","wem/bandit_either","A9YJYYOWOVCR1","either","3","","","","","","","0","0","1","0.4256341571","","0.2","0.8","0.6","0.4","","","","","0.1661146317","0.2563236188","0.4256341571","0.2655955182","","","","","","","75","K","2","","","81","main_expt"
"403","","bandit","160","808002","0.0-121.0-0.0","78810878","wem/bandit_either","A9YJYYOWOVCR1","either","3","","","","","","","0","0","1","0.4153375647","","0.2","0.8","0.6","0.4","","","","","0.2249160828","0.2474856626","0.4153375647","0.2642342948","","","","","","","75","K","2","","","82","main_expt"
"322","","bandit","161","809851","0.0-122.0-0.0","78810878","wem/bandit_either","A9YJYYOWOVCR1","either","3","","","","","","","0","0","1","0.4239102097","","0.2","0.8","0.6","0.4","","","","","0.2194800234","0.2338037125","0.4239102097","0.2615040017","","","","","","","75","K","2","","","83","main_expt"
"332","","bandit","162","811713","0.0-123.0-0.0","78810878","wem/bandit_either","A9YJYYOWOVCR1","either","3","","","","","","","0","1","0","","0.3136368113","0.2","0.8","0.6","0.4","0.2020024956","0.2929655049","0.4021041833","0.3136368113","","","","","","","","","","","76","L","3","","","84","main_expt"
"381","","bandit","163","813612","0.0-124.0-0.0","78810878","wem/bandit_either","A9YJYYOWOVCR1","either","3","","","","","","","0","0","1","","0.2433538552","0.2","0.8","0.6","0.4","0.1639230135","0.2755572306","0.4322374594","0.2433538552","","","","","","","","","","","76","L","3","","","85","main_expt"
"462","","bandit","164","815602","0.0-125.0-0.0","78810878","wem/bandit_either","A9YJYYOWOVCR1","either","3","","","","","","","0","0","1","0.4247618508","","0.2","0.8","0.6","0.4","","","","","0.1423092638","0.2706615249","0.4247618508","0.2583740773","","","","","","","75","K","2","","","86","main_expt"
"353","","bandit","165","817481","0.0-126.0-0.0","78810878","wem/bandit_either","A9YJYYOWOVCR1","either","3","","","","","","","0","0","1","0.2656778135","","0.2","0.8","0.6","0.4","","","","","0.1623313408","0.3259805539","0.4130492334","0.2656778135","","","","","","","76","L","3","","","87","main_expt"
"432","","bandit","166","819434","0.0-127.0-0.0","78810878","wem/bandit_either","A9YJYYOWOVCR1","either","3","","","","","","","0","0","1","","0.2565525481","0.2","0.8","0.6","0.4","0.1459946163","0.3471137027","0.3883747858","0.2565525481","","","","","","","","","","","76","L","3","","","88","main_expt"
"312","","bandit","167","821271","0.0-128.0-0.0","78810878","wem/bandit_either","A9YJYYOWOVCR1","either","3","","","","","","","0","0","1","","0.2471999074","0.2","0.8","0.6","0.4","0.1684807643","0.3715311126","0.3950807547","0.2471999074","","","","","","","","","","","76","L","3","","","89","main_expt"
"345","","bandit","168","823139","0.0-129.0-0.0","78810878","wem/bandit_either","A9YJYYOWOVCR1","either","3","","","","","","","0","0","1","0.2204199549","","0.2","0.8","0.6","0.4","","","","","0.1937692241","0.3571728809","0.420982679","0.2204199549","","","","","","","76","L","3","","","90","main_expt"
"551","","bandit","169","825217","0.0-130.0-0.0","78810878","wem/bandit_either","A9YJYYOWOVCR1","either","3","","","","","","","0","0","1","","0.3348642023","0.2","0.8","0.6","0.4","0.1670397906","0.3348642023","0.4012606491","0.2013548925","","","","","","","","","","","74","J","1","","","91","main_expt"
"341","","bandit","170","827081","0.0-131.0-0.0","78810878","wem/bandit_either","A9YJYYOWOVCR1","either","3","","","","","","","0","0","1","0.3551195155","","0.2","0.8","0.6","0.4","","","","","0.1936095216","0.3551195155","0.3950870333","0.174921714","","","","","","","74","J","1","","","92","main_expt"
"337","","bandit","171","828946","0.0-132.0-0.0","78810878","wem/bandit_either","A9YJYYOWOVCR1","either","3","","","","","","","0","0","1","0.3494458231","","0.2","0.8","0.6","0.4","","","","","0.2399824117","0.3494458231","0.3797372222","0.1972058505","","","","","","","74","J","1","","","93","main_expt"
"313","","bandit","172","830785","0.0-133.0-0.0","78810878","wem/bandit_either","A9YJYYOWOVCR1","either","3","","","","","","","0","0","1","0.3759818745","","0.2","0.8","0.6","0.4","","","","","0.242536602","0.3759818745","0.3346339076","0.2144007407","","","","","","","74","J","1","","","94","main_expt"
"359","","bandit","173","832675","0.0-134.0-0.0","78810878","wem/bandit_either","A9YJYYOWOVCR1","either","3","","","","","","","0","1","0","","0.3081296623","0.2","0.8","0.6","0.4","0.3081296623","0.3467088588","0.3433005441","0.2025691914","","","","","","","","","","","72","H","0","img/none_selected.jpg","","95","main_expt"
"345","","bandit","174","834538","0.0-135.0-0.0","78810878","wem/bandit_either","A9YJYYOWOVCR1","either","3","","","","","","","0","0","1","0.371766452","","0.2","0.8","0.6","0.4","","","","","0.371766452","0.3520186383","0.2900415689","0.1750118246","","","","","","","72","H","0","img/none_selected.jpg","","96","main_expt"
"352","","bandit","175","836410","0.0-136.0-0.0","78810878","wem/bandit_either","A9YJYYOWOVCR1","either","3","","","","","","","0","0","1","","0.3737721809","0.2","0.8","0.6","0.4","0.3737721809","0.342216001","0.3136050561","0.2433812568","","","","","","","","","","","72","H","0","img/none_selected.jpg","","97","main_expt"
"303","","bandit","176","838233","0.0-137.0-0.0","78810878","wem/bandit_either","A9YJYYOWOVCR1","either","3","","","","","","","0","0","1","","0.3662625892","0.2","0.8","0.6","0.4","0.3662625892","0.3775958225","0.3236610102","0.1834100281","","","","","","","","","","","72","H","0","img/none_selected.jpg","","98","main_expt"
"330","","bandit","177","840092","0.0-138.0-0.0","78810878","wem/bandit_either","A9YJYYOWOVCR1","either","3","","","","","","","0","1","0","","0.3912879072","0.2","0.8","0.6","0.4","0.3912879072","0.3490624926","0.3116662608","0.146161558","","","","","","","","","","","72","H","0","img/none_selected.jpg","","99","main_expt"
"325","","bandit","178","841945","0.0-139.0-0.0","78810878","wem/bandit_either","A9YJYYOWOVCR1","either","3","","","","","","","0","1","0","","0.3916888764","0.2","0.8","0.6","0.4","0.3916888764","0.3418910903","0.3806420769","0.1186266926","","","","","","","","","","","72","H","0","img/none_selected.jpg","","100","main_expt"
"418","","bandit","179","843880","0.0-140.0-0.0","78810878","wem/bandit_either","A9YJYYOWOVCR1","either","3","","","","","","","1","0","0","0.3803758031","","0.2","0.8","0.6","0.4","","","","","0.3803758031","0.3544055354","0.3825052475","0.1467879228","","","","","","","72","H","0","img/none_selected.jpg","","101","main_expt"
"384","","bandit","180","845794","0.0-141.0-0.0","78810878","wem/bandit_either","A9YJYYOWOVCR1","either","3","","","","","","","0","1","0","","0.3685266224","0.2","0.8","0.6","0.4","0.3685266224","0.3580864163","0.3799327693","0.1336514036","","","","","","","","","","","72","H","0","img/none_selected.jpg","","102","main_expt"
"400","","bandit","181","847720","0.0-142.0-0.0","78810878","wem/bandit_either","A9YJYYOWOVCR1","either","3","","","","","","","0","0","1","0.3754978655","","0.2","0.8","0.6","0.4","","","","","0.3754978655","0.336528594","0.3502018886","0.1325092095","","","","","","","72","H","0","img/none_selected.jpg","","103","main_expt"
"319","","bandit","182","849569","0.0-143.0-0.0","78810878","wem/bandit_either","A9YJYYOWOVCR1","either","3","","","","","","","0","1","0","","0.4033056484","0.2","0.8","0.6","0.4","0.4033056484","0.3190078166","0.3443431466","0.1162839287","","","","","","","","","","","72","H","0","img/none_selected.jpg","","104","main_expt"
"378","","bandit","183","851476","0.0-144.0-0.0","78810878","wem/bandit_either","A9YJYYOWOVCR1","either","3","","","","","","","0","0","1","","0.3617388181","0.2","0.8","0.6","0.4","0.3617388181","0.3100940773","0.3551378046","0.115620258","","","","","","","","","","","72","H","0","img/none_selected.jpg","","105","main_expt"
"406","","bandit","184","853410","0.0-145.0-0.0","78810878","wem/bandit_either","A9YJYYOWOVCR1","either","3","","","","","","","0","1","0","","0.3656875331","0.2","0.8","0.6","0.4","0.3656875331","0.2964842485","0.3177956882","0.1102569517","","","","","","","","","","","72","H","0","img/none_selected.jpg","","106","main_expt"
"359","","bandit","185","855290","0.0-146.0-0.0","78810878","wem/bandit_either","A9YJYYOWOVCR1","either","3","","","","","","","0","1","0","","0.3478183852","0.2","0.8","0.6","0.4","0.3478183852","0.3224579283","0.3463124521","0.110599846","","","","","","","","","","","72","H","0","img/none_selected.jpg","","107","main_expt"
"423","","bandit","186","857242","0.0-147.0-0.0","78810878","wem/bandit_either","A9YJYYOWOVCR1","either","3","","","","","","","0","0","1","","0.3715517583","0.2","0.8","0.6","0.4","0.3715517583","0.3365568187","0.330790185","0.1647947233","","","","","","","","","","","72","H","0","img/none_selected.jpg","","108","main_expt"
"345","","bandit","187","859113","0.0-148.0-0.0","78810878","wem/bandit_either","A9YJYYOWOVCR1","either","3","","","","","","","0","0","1","","0.3713851569","0.2","0.8","0.6","0.4","0.3713851569","0.3200824859","0.3259779601","0.146095753","","","","","","","","","","","72","H","0","img/none_selected.jpg","","109","main_expt"
"328","","bandit","188","860970","0.0-149.0-0.0","78810878","wem/bandit_either","A9YJYYOWOVCR1","either","3","","","","","","","1","0","0","0.3401672382","","0.2","0.8","0.6","0.4","","","","","0.3401672382","0.3179471713","0.3169053314","0.1691954855","","","","","","","72","H","0","img/none_selected.jpg","","110","main_expt"
"366","","bandit","189","862868","0.0-150.0-0.0","78810878","wem/bandit_either","A9YJYYOWOVCR1","either","3","","","","","","","0","0","1","","0.3242328008","0.2","0.8","0.6","0.4","0.3242328008","0.3168158386","0.342138516","0.1690298198","","","","","","","","","","","72","H","0","img/none_selected.jpg","","111","main_expt"
"332","","bandit","190","864730","0.0-151.0-0.0","78810878","wem/bandit_either","A9YJYYOWOVCR1","either","3","","","","","","","0","0","1","","0.2991119965","0.2","0.8","0.6","0.4","0.2991119965","0.3551606626","0.3597886873","0.2196992501","","","","","","","","","","","72","H","0","img/none_selected.jpg","","112","main_expt"
"321","","bandit","191","866572","0.0-152.0-0.0","78810878","wem/bandit_either","A9YJYYOWOVCR1","either","3","","","","","","","0","0","1","","0.3364281798","0.2","0.8","0.6","0.4","0.3364281798","0.3615444015","0.3580549124","0.2723467559","","","","","","","","","","","72","H","0","img/none_selected.jpg","","113","main_expt"
"349","","bandit","192","868442","0.0-153.0-0.0","78810878","wem/bandit_either","A9YJYYOWOVCR1","either","3","","","","","","","0","1","0","","0.3495122724","0.2","0.8","0.6","0.4","0.3495122724","0.4043222556","0.3556181037","0.2470985199","","","","","","","","","","","72","H","0","img/none_selected.jpg","","114","main_expt"
"297","","bandit","193","870260","0.0-154.0-0.0","78810878","wem/bandit_either","A9YJYYOWOVCR1","either","3","","","","","","","0","0","1","0.324938203","","0.2","0.8","0.6","0.4","","","","","0.324938203","0.4179696435","0.3489042174","0.2482590513","","","","","","","72","H","0","img/none_selected.jpg","","115","main_expt"
"267","","bandit","194","872050","0.0-155.0-0.0","78810878","wem/bandit_either","A9YJYYOWOVCR1","either","3","","","","","","","0","0","1","","0.3227512736","0.2","0.8","0.6","0.4","0.3227512736","0.4324393975","0.3466245191","0.1992012358","","","","","","","","","","","72","H","0","img/none_selected.jpg","","116","main_expt"
"272","","bandit","195","873853","0.0-156.0-0.0","78810878","wem/bandit_either","A9YJYYOWOVCR1","either","3","","","","","","","0","0","1","","0.2585209305","0.2","0.8","0.6","0.4","0.2585209305","0.4290779421","0.3581754781","0.216355905","","","","","","","","","","","72","H","0","img/none_selected.jpg","","117","main_expt"
"299","","bandit","196","875680","0.0-157.0-0.0","78810878","wem/bandit_either","A9YJYYOWOVCR1","either","3","","","","","","","0","0","1","0.2817260076","","0.2","0.8","0.6","0.4","","","","","0.2817260076","0.4459264202","0.283939031","0.1715453935","","","","","","","72","H","0","img/none_selected.jpg","","118","main_expt"
"416","","bandit","197","877625","0.0-158.0-0.0","78810878","wem/bandit_either","A9YJYYOWOVCR1","either","3","","","","","","","0","0","1","0.2992634423","","0.2","0.8","0.6","0.4","","","","","0.328214026","0.436995295","0.2992634423","0.1843456939","","","","","","","75","K","2","","","119","main_expt"
"364","","bandit","198","879522","0.0-159.0-0.0","78810878","wem/bandit_either","A9YJYYOWOVCR1","either","3","","","","","","","0","0","1","","0.4151314625","0.2","0.8","0.6","0.4","0.3355603121","0.4151314625","0.1878150733","0.1848061615","","","","","","","","","","","74","J","1","","","120","main_expt"
"406","","bandit","199","881450","0.0-160.0-0.0","78810878","wem/bandit_either","A9YJYYOWOVCR1","either","3","","","","","","","0","0","1","0.4384064527","","0.2","0.8","0.6","0.4","","","","","0.3829587724","0.4384064527","0.1447458933","0.1679578636","","","","","","","74","J","1","","","121","main_expt"
"288","","bandit","200","883258","0.0-161.0-0.0","78810878","wem/bandit_either","A9YJYYOWOVCR1","either","3","","","","","","","0","0","1","","0.4417589501","0.2","0.8","0.6","0.4","0.3995678287","0.4417589501","0.1176060398","0.197295971","","","","","","","","","","","74","J","1","","","122","main_expt"
"439","","bandit","201","885217","0.0-162.0-0.0","78810878","wem/bandit_either","A9YJYYOWOVCR1","either","3","","","","","","","0","1","0","","0.1097677055","0.2","0.8","0.6","0.4","0.3656739583","0.4017154396","0.1097677055","0.2184653352","","","","","","","","","","","75","K","2","","","123","main_expt"
"359","","bandit","202","887100","0.0-163.0-0.0","78810878","wem/bandit_either","A9YJYYOWOVCR1","either","3","","","","","","","0","0","1","","0.08048168986","0.2","0.8","0.6","0.4","0.3862549257","0.3619070526","0.08048168986","0.2147868977","","","","","","","","","","","75","K","2","","","124","main_expt"
"409","","bandit","203","889042","0.0-164.0-0.0","78810878","wem/bandit_either","A9YJYYOWOVCR1","either","3","","","","","","","0","0","1","0.07842900555","","0.2","0.8","0.6","0.4","","","","","0.3593796239","0.3567490645","0.07842900555","0.1667936559","","","","","","","75","K","2","","","125","main_expt"
"382","","bandit","204","890948","0.0-165.0-0.0","78810878","wem/bandit_either","A9YJYYOWOVCR1","either","3","","","","","","","0","0","1","","0.1453295256","0.2","0.8","0.6","0.4","0.3413194209","0.3558473019","0.08318363027","0.1453295256","","","","","","","","","","","76","L","3","","","126","main_expt"
"365","","bandit","205","892842","0.0-166.0-0.0","78810878","wem/bandit_either","A9YJYYOWOVCR1","either","3","","","","","","","0","0","1","0.1635755653","","0.2","0.8","0.6","0.4","","","","","0.3369929262","0.3543069734","0.06812438963","0.1635755653","","","","","","","76","L","3","","","127","main_expt"
"338","","bandit","206","894713","0.0-167.0-0.0","78810878","wem/bandit_either","A9YJYYOWOVCR1","either","3","","","","","","","0","0","1","","0.1872639566","0.2","0.8","0.6","0.4","0.2922989636","0.3328374851","0.08303766286","0.1872639566","","","","","","","","","","","76","L","3","","","128","main_expt"
"429","","bandit","207","896665","0.0-168.0-0.0","78810878","wem/bandit_either","A9YJYYOWOVCR1","either","3","","","","","","","0","1","0","","0.3095146075","0.2","0.8","0.6","0.4","0.3095146075","0.3238683282","0.09047360051","0.2032718864","","","","","","","","","","","72","H","0","img/none_selected.jpg","","129","main_expt"
"377","","bandit","208","898576","0.0-169.0-0.0","78810878","wem/bandit_either","A9YJYYOWOVCR1","either","3","","","","","","","0","0","1","","0.3068425872","0.2","0.8","0.6","0.4","0.3068425872","0.2750329062","0.131542256","0.2025864764","","","","","","","","","","","72","H","0","img/none_selected.jpg","","130","main_expt"
"460","","bandit","209","900560","0.0-170.0-0.0","78810878","wem/bandit_either","A9YJYYOWOVCR1","either","3","","","","","","","0","1","0","","0.3112504131","0.2","0.8","0.6","0.4","0.3112504131","0.2751886228","0.1492019489","0.2158584071","","","","","","","","","","","72","H","0","img/none_selected.jpg","","131","main_expt"
"512","","bandit","210","902595","0.0-171.0-0.0","78810878","wem/bandit_either","A9YJYYOWOVCR1","either","3","","","","","","","0","1","0","","0.3595653039","0.2","0.8","0.6","0.4","0.3595653039","0.2729729886","0.1571188116","0.2105840197","","","","","","","","","","","72","H","0","img/none_selected.jpg","","132","main_expt"
"642","","bandit","211","904762","0.0-172.0-0.0","78810878","wem/bandit_either","A9YJYYOWOVCR1","either","3","","","","","","","0","0","1","","0.3873527377","0.2","0.8","0.6","0.4","0.3873527377","0.3248088544","0.2021073832","0.2328486735","","","","","","","","","","","72","H","0","img/none_selected.jpg","","133","main_expt"
"698","","bandit","212","906995","0.0-173.0-0.0","78810878","wem/bandit_either","A9YJYYOWOVCR1","either","3","","","","","","","0","1","0","","0.3973884711","0.2","0.8","0.6","0.4","0.3973884711","0.3596446835","0.2693148074","0.2589092944","","","","","","","","","","","72","H","0","img/none_selected.jpg","","134","main_expt"
"721","","bandit","213","909252","0.0-174.0-0.0","78810878","wem/bandit_either","A9YJYYOWOVCR1","either","3","","","","","","","0","0","1","0.4080523157","","0.2","0.8","0.6","0.4","","","","","0.4080523157","0.318377279","0.2625780805","0.2637326353","","","","","","","72","H","0","img/none_selected.jpg","","135","main_expt"
"658","","bandit","214","911440","0.0-175.0-0.0","78810878","wem/bandit_either","A9YJYYOWOVCR1","either","3","","","","","","","0","1","0","","0.4176503084","0.2","0.8","0.6","0.4","0.4176503084","0.3160887017","0.2981707722","0.2718680576","","","","","","","","","","","72","H","0","img/none_selected.jpg","","136","main_expt"
"630","","bandit","215","913595","0.0-176.0-0.0","78810878","wem/bandit_either","A9YJYYOWOVCR1","either","3","","","","","","","0","1","0","","0.3859803947","0.2","0.8","0.6","0.4","0.3859803947","0.2883225013","0.3148158286","0.2919957672","","","","","","","","","","","72","H","0","img/none_selected.jpg","","137","main_expt"
"706","","bandit","216","915825","0.0-177.0-0.0","78810878","wem/bandit_either","A9YJYYOWOVCR1","either","3","","","","","","","0","0","1","","0.358492916","0.2","0.8","0.6","0.4","0.358492916","0.3009152141","0.3111523267","0.3193993407","","","","","","","","","","","72","H","0","img/none_selected.jpg","","138","main_expt"
"771","","bandit","217","918130","0.0-178.0-0.0","78810878","wem/bandit_either","A9YJYYOWOVCR1","either","3","","","","","","","0","0","1","0.3608756281","","0.2","0.8","0.6","0.4","","","","","0.3608756281","0.293720077","0.3034593298","0.3404434035","","","","","","","72","H","0","img/none_selected.jpg","","139","main_expt"
"709","","bandit","218","920372","0.0-179.0-0.0","78810878","wem/bandit_either","A9YJYYOWOVCR1","either","3","","","","","","","0","0","1","0.3421836092","","0.2","0.8","0.6","0.4","","","","","0.3421836092","0.286059761","0.2507495005","0.3278052243","","","","","","","72","H","0","img/none_selected.jpg","","140","main_expt"
"636","","bandit","219","922529","0.0-180.0-0.0","78810878","wem/bandit_either","A9YJYYOWOVCR1","either","3","","","","","","","0","0","1","","0.3737340371","0.2","0.8","0.6","0.4","0.3737340371","0.2931724706","0.2220694513","0.3038906839","","","","","","","","","","","72","H","0","img/none_selected.jpg","","141","main_expt"
"674","","bandit","220","924737","0.0-181.0-0.0","78810878","wem/bandit_either","A9YJYYOWOVCR1","either","3","","","","","","","0","0","1","","0.3461121542","0.2","0.8","0.6","0.4","0.3461121542","0.2182180164","0.2119249064","0.2924195757","","","","","","","","","","","72","H","0","img/none_selected.jpg","","142","main_expt"
"752","","bandit","221","927025","0.0-182.0-0.0","78810878","wem/bandit_either","A9YJYYOWOVCR1","either","3","","","","","","","0","0","1","","0.2015475508","0.2","0.8","0.6","0.4","0.3305931074","0.2015475508","0.2665135591","0.2816149275","","","","","","","","","","","74","J","1","","","143","main_expt"
"765","","bandit","222","929323","0.0-183.0-0.0","78810878","wem/bandit_either","A9YJYYOWOVCR1","either","3","","","","","","","0","0","1","0.2074070562","","0.2","0.8","0.6","0.4","","","","","0.3561039987","0.2074070562","0.2854155153","0.2355525614","","","","","","","74","J","1","","","144","main_expt"
"553","","bandit","223","931399","0.0-184.0-0.0","78810878","wem/bandit_either","A9YJYYOWOVCR1","either","3","","","","","","","0","0","1","0.1415368311","","0.2","0.8","0.6","0.4","","","","","0.3648023512","0.1415368311","0.2521048148","0.2185662272","","","","","","","74","J","1","","","145","main_expt"
"598","","bandit","224","933520","0.0-185.0-0.0","78810878","wem/bandit_either","A9YJYYOWOVCR1","either","3","","","","","","","0","0","1","","0.1549520657","0.2","0.8","0.6","0.4","0.3450315","0.1549520657","0.2321266643","0.2209315791","","","","","","","","","","","74","J","1","","","146","main_expt"
"644","","bandit","225","935697","0.0-186.0-0.0","78810878","wem/bandit_either","A9YJYYOWOVCR1","either","3","","","","","","","0","0","1","","0.3159383216","0.2","0.8","0.6","0.4","0.2720321141","0.1469310363","0.3159383216","0.2889766311","","","","","","","","","","","75","K","2","","","147","main_expt"
"648","","bandit","226","937871","0.0-187.0-0.0","78810878","wem/bandit_either","A9YJYYOWOVCR1","either","3","","","","","","","1","0","0","0.2673485129","","0.2","0.8","0.6","0.4","","","","","0.2598972664","0.1332828417","0.2673485129","0.2859466156","","","","","","","75","K","2","","","148","main_expt"
"575","","bandit","227","939969","0.0-188.0-0.0","78810878","wem/bandit_either","A9YJYYOWOVCR1","either","3","","","","","","","0","0","1","","0.3348600541","0.2","0.8","0.6","0.4","0.2343157719","0.1102010463","0.3348600541","0.2588478233","","","","","","","","","","","75","K","2","","","149","main_expt"
"506","","bandit","228","942011","0.0-189.0-0.0","78810878","wem/bandit_either","A9YJYYOWOVCR1","either","3","","","","","","","0","1","0","","0.3659656834","0.2","0.8","0.6","0.4","0.2451363599","0.1356103494","0.3659656834","0.2224653457","","","","","","","","","","","75","K","2","","","150","main_expt"
"541","","bandit","229","944086","0.0-190.0-0.0","78810878","wem/bandit_either","A9YJYYOWOVCR1","either","3","","","","","","","0","0","1","0.36397653","","0.2","0.8","0.6","0.4","","","","","0.2053737132","0.1621229287","0.36397653","0.2387237716","","","","","","","75","K","2","","","151","main_expt"
"437","","bandit","230","946056","0.0-191.0-0.0","78810878","wem/bandit_either","A9YJYYOWOVCR1","either","3","","","","","","","0","0","1","0.3710672623","","0.2","0.8","0.6","0.4","","","","","0.2396242378","0.1412745606","0.3710672623","0.2519133504","","","","","","","75","K","2","","","152","main_expt"
"446","","bandit","231","948026","0.0-192.0-0.0","78810878","wem/bandit_either","A9YJYYOWOVCR1","either","3","","","","","","","0","0","1","0.3828607765","","0.2","0.8","0.6","0.4","","","","","0.2923277395","0.1707580034","0.3828607765","0.3078499427","","","","","","","75","K","2","","","153","main_expt"
"459","","bandit","232","950011","0.0-193.0-0.0","78810878","wem/bandit_either","A9YJYYOWOVCR1","either","3","","","","","","","0","0","1","","0.3526468527","0.2","0.8","0.6","0.4","0.3166515581","0.1717455462","0.3526468527","0.3283820497","","","","","","","","","","","75","K","2","","","154","main_expt"
"641","","bandit","233","952188","0.0-194.0-0.0","78810878","wem/bandit_either","A9YJYYOWOVCR1","either","3","","","","","","","0","0","1","0.3303057687","","0.2","0.8","0.6","0.4","","","","","0.3194616596","0.1785539081","0.3865981945","0.3303057687","","","","","","","76","L","3","","","155","main_expt"
"448","","bandit","234","954160","0.0-195.0-0.0","78810878","wem/bandit_either","A9YJYYOWOVCR1","either","3","","","","","","","1","0","0","0.3178912443","","0.2","0.8","0.6","0.4","","","","","0.3767011333","0.2175815231","0.4328422877","0.3178912443","","","","","","","76","L","3","","","156","main_expt"
"575","","bandit","235","956259","0.0-196.0-0.0","78810878","wem/bandit_either","A9YJYYOWOVCR1","either","3","","","","","","","1","0","0","0.3236874272","","0.2","0.8","0.6","0.4","","","","","0.3853144204","0.216674397","0.4224906378","0.3236874272","","","","","","","76","L","3","","","157","main_expt"
"562","","bandit","236","958353","0.0-197.0-0.0","78810878","wem/bandit_either","A9YJYYOWOVCR1","either","3","","","","","","","0","0","1","0.3731337511","","0.2","0.8","0.6","0.4","","","","","0.3519128793","0.2184316938","0.4428847078","0.3731337511","","","","","","","76","L","3","","","158","main_expt"
"700","","bandit","237","960588","0.0-198.0-0.0","78810878","wem/bandit_either","A9YJYYOWOVCR1","either","3","","","","","","","0","0","1","","0.3758107074","0.2","0.8","0.6","0.4","0.3255157266","0.2603966468","0.4498083842","0.3758107074","","","","","","","","","","","76","L","3","","","159","main_expt"
"482","","bandit","238","962594","0.0-199.0-0.0","78810878","wem/bandit_either","A9YJYYOWOVCR1","either","3","","","","","","","0","0","1","","0.3494215766","0.2","0.8","0.6","0.4","0.379238532","0.2242017374","0.4319550234","0.3494215766","","","","","","","","","","","76","L","3","","","160","main_expt"
"700","","bandit","239","964819","0.0-200.0-0.0","78810878","wem/bandit_either","A9YJYYOWOVCR1","either","3","","","","","","","0","1","0","","0.3776335756","0.2","0.8","0.6","0.4","0.3776335756","0.2014027125","0.4417514389","0.3327111917","","","","","","","","","","","72","H","0","img/none_selected.jpg","","161","main_expt"
"648","","bandit","240","967001","0.0-201.0-0.0","78810878","wem/bandit_either","A9YJYYOWOVCR1","either","3","","","","","","","0","1","0","","0.2955751891","0.2","0.8","0.6","0.4","0.2955751891","0.2038621466","0.4081293495","0.3171011618","","","","","","","","","","","72","H","0","img/none_selected.jpg","","162","main_expt"
"804","","bandit","241","969341","0.0-202.0-0.0","78810878","wem/bandit_either","A9YJYYOWOVCR1","either","3","","","","","","","0","0","1","","0.30851492","0.2","0.8","0.6","0.4","0.30851492","0.1238136799","0.4265776113","0.364183239","","","","","","","","","","","72","H","0","img/none_selected.jpg","","163","main_expt"
"569","","bandit","242","971447","0.0-203.0-0.0","78810878","wem/bandit_either","A9YJYYOWOVCR1","either","3","","","","","","","0","1","0","","0.3074756362","0.2","0.8","0.6","0.4","0.3074756362","0.1104941302","0.427472809","0.3917374524","","","","","","","","","","","72","H","0","img/none_selected.jpg","","164","main_expt"
"547","","bandit","243","973522","0.0-204.0-0.0","78810878","wem/bandit_either","A9YJYYOWOVCR1","either","3","","","","","","","0","0","1","0.2743039079","","0.2","0.8","0.6","0.4","","","","","0.2743039079","0.1099358877","0.4016343469","0.3629360172","","","","","","","72","H","0","img/none_selected.jpg","","165","main_expt"
"458","","bandit","244","975515","0.0-205.0-0.0","78810878","wem/bandit_either","A9YJYYOWOVCR1","either","3","","","","","","","0","1","0","","0.2900226329","0.2","0.8","0.6","0.4","0.2900226329","0.08082918558","0.3578169927","0.3697042915","","","","","","","","","","","72","H","0","img/none_selected.jpg","","166","main_expt"
"523","","bandit","245","977560","0.0-206.0-0.0","78810878","wem/bandit_either","A9YJYYOWOVCR1","either","3","","","","","","","0","0","1","","0.3444017494","0.2","0.8","0.6","0.4","0.3444017494","0.08539074978","0.3346076013","0.3626443337","","","","","","","","","","","72","H","0","img/none_selected.jpg","","167","main_expt"
"443","","bandit","246","979538","0.0-207.0-0.0","78810878","wem/bandit_either","A9YJYYOWOVCR1","either","3","","","","","","","0","1","0","","0.3934904689","0.2","0.8","0.6","0.4","0.3934904689","0.1307687804","0.36326211","0.3488380128","","","","","","","","","","","72","H","0","img/none_selected.jpg","","168","main_expt"
"501","","bandit","247","981572","0.0-208.0-0.0","78810878","wem/bandit_either","A9YJYYOWOVCR1","either","3","","","","","","","0","0","1","","0.3712778229","0.2","0.8","0.6","0.4","0.3712778229","0.09435724838","0.3389060657","0.3338465455","","","","","","","","","","","72","H","0","img/none_selected.jpg","","169","main_expt"
"382","","bandit","248","983493","0.0-209.0-0.0","78810878","wem/bandit_either","A9YJYYOWOVCR1","either","3","","","","","","","0","0","1","0.3348119161","","0.2","0.8","0.6","0.4","","","","","0.3348119161","0.09371103674","0.3820287301","0.3675902536","","","","","","","72","H","0","img/none_selected.jpg","","170","main_expt"
"469","","bandit","249","985499","0.0-210.0-0.0","78810878","wem/bandit_either","A9YJYYOWOVCR1","either","3","","","","","","","0","0","1","","0.3697689907","0.2","0.8","0.6","0.4","0.3697689907","0.0912992704","0.3738350687","0.3663425941","","","","","","","","","","","72","H","0","img/none_selected.jpg","","171","main_expt"
"544","","bandit","250","987579","0.0-211.0-0.0","78810878","wem/bandit_either","A9YJYYOWOVCR1","either","3","","","","","","","0","0","1","","0.3438364448","0.2","0.8","0.6","0.4","0.3438364448","0.1053216192","0.3449486646","0.3571019768","","","","","","","","","","","72","H","0","img/none_selected.jpg","","172","main_expt"
"458","","bandit","251","989564","0.0-212.0-0.0","78810878","wem/bandit_either","A9YJYYOWOVCR1","either","3","","","","","","","0","0","1","","0.4064517123","0.2","0.8","0.6","0.4","0.4064517123","0.1119971747","0.3754463001","0.383943734","","","","","","","","","","","72","H","0","img/none_selected.jpg","","173","main_expt"
"476","","bandit","252","991563","0.0-213.0-0.0","78810878","wem/bandit_either","A9YJYYOWOVCR1","either","3","","","","","","","0","0","1","","0.3983783957","0.2","0.8","0.6","0.4","0.4266345201","0.1049574405","0.3983783957","0.378453819","","","","","","","","","","","75","K","2","","","174","main_expt"
"709","","bandit","253","993796","0.0-214.0-0.0","78810878","wem/bandit_either","A9YJYYOWOVCR1","either","3","","","","","","","0","0","1","","0.4176958341","0.2","0.8","0.6","0.4","0.4413212306","0.07351671593","0.4176958341","0.3577460836","","","","","","","","","","","75","K","2","","","175","main_expt"
"521","","bandit","254","995850","0.0-215.0-0.0","78810878","wem/bandit_either","A9YJYYOWOVCR1","either","3","","","","","","","0","0","1","0.06097876817","","0.2","0.8","0.6","0.4","","","","","0.438548454","0.06097876817","0.4336280271","0.3346789668","","","","","","","74","J","1","","","176","main_expt"
"500","","bandit","255","997875","0.0-216.0-0.0","78810878","wem/bandit_either","A9YJYYOWOVCR1","either","3","","","","","","","0","0","1","0.05873143133","","0.2","0.8","0.6","0.4","","","","","0.4350726265","0.05873143133","0.3863917124","0.3720341948","","","","","","","74","J","1","","","177","main_expt"
"1000","","bandit","256","1000412","0.0-217.0-0.0","78810878","wem/bandit_either","A9YJYYOWOVCR1","either","3","","","","","","","0","0","1","","0.07829718294","0.2","0.8","0.6","0.4","0.4029859975","0.07829718294","0.3826512014","0.4243236705","","","","","","","","","","","74","J","1","","","178","main_expt"
"471","","bandit","257","1002422","0.0-218.0-0.0","78810878","wem/bandit_either","A9YJYYOWOVCR1","either","3","","","","","","","0","0","1","0.05868413977","","0.2","0.8","0.6","0.4","","","","","0.3738585124","0.05868413977","0.3681046487","0.4396564102","","","","","","","74","J","1","","","179","main_expt"
"1105","","bandit","258","1005053","0.0-219.0-0.0","78810878","wem/bandit_either","A9YJYYOWOVCR1","either","3","","","","","","","1","0","0","0.4501825932","","0.2","0.8","0.6","0.4","","","","","0.3884150149","0.04540529238","0.374340785","0.4501825932","","","","","","","76","L","3","","","180","main_expt"
"635","","bandit","259","1007225","0.0-220.0-0.0","78810878","wem/bandit_either","A9YJYYOWOVCR1","either","3","","","","","","","0","0","1","0.4527537228","","0.2","0.8","0.6","0.4","","","","","0.3977335033","0.04810206047","0.3844034803","0.4527537228","","","","","","","76","L","3","","","181","main_expt"
"485","","bandit","260","1009233","0.0-221.0-0.0","78810878","wem/bandit_either","A9YJYYOWOVCR1","either","3","","","","","","","0","1","0","","0.4733821952","0.2","0.8","0.6","0.4","0.4194204302","0.0564969073","0.3569363444","0.4733821952","","","","","","","","","","","76","L","3","","","182","main_expt"
"722","","bandit","261","1011482","0.0-222.0-0.0","78810878","wem/bandit_either","A9YJYYOWOVCR1","either","3","","","","","","","0","0","1","0.4741352064","","0.2","0.8","0.6","0.4","","","","","0.4050300101","0.06674959941","0.3930074682","0.4741352064","","","","","","","76","L","3","","","183","main_expt"
"480","","bandit","262","1013499","0.0-223.0-0.0","78810878","wem/bandit_either","A9YJYYOWOVCR1","either","3","","","","","","","0","0","1","","0.4835015011","0.2","0.8","0.6","0.4","0.4272992256","0.05730522946","0.4105724965","0.4835015011","","","","","","","","","","","76","L","3","","","184","main_expt"
"642","","bandit","263","1015668","0.0-224.0-0.0","78810878","wem/bandit_either","A9YJYYOWOVCR1","either","3","","","","","","","0","0","1","","0.4907566516","0.2","0.8","0.6","0.4","0.4213026748","0.0759668512","0.4230276401","0.4907566516","","","","","","","","","","","76","L","3","","","185","main_expt"
"415","","bandit","264","1017617","0.0-225.0-0.0","78810878","wem/bandit_either","A9YJYYOWOVCR1","either","3","","","","","","","1","0","0","0.4777100538","","0.2","0.8","0.6","0.4","","","","","0.3729626057","0.0736669194","0.4243078066","0.4777100538","","","","","","","76","L","3","","","186","main_expt"
"450","","bandit","265","1019594","0.0-226.0-0.0","78810878","wem/bandit_either","A9YJYYOWOVCR1","either","3","","","","","","","0","0","1","","0.4751658893","0.2","0.8","0.6","0.4","0.4022080601","0.1020870739","0.419104652","0.4751658893","","","","","","","","","","","76","L","3","","","187","main_expt"
"620","","bandit","266","1021754","0.0-227.0-0.0","78810878","wem/bandit_either","A9YJYYOWOVCR1","either","3","","","","","","","0","1","0","","0.4711403756","0.2","0.8","0.6","0.4","0.4218987807","0.110066606","0.3917910895","0.4711403756","","","","","","","","","","","76","L","3","","","188","main_expt"
"382","","bandit","267","1023674","0.0-228.0-0.0","78810878","wem/bandit_either","A9YJYYOWOVCR1","either","3","","","","","","","0","0","1","","0.4848283219","0.2","0.8","0.6","0.4","0.4284519853","0.1616324423","0.3696037293","0.4848283219","","","","","","","","","","","76","L","3","","","189","main_expt"
"512","","bandit","268","1025721","0.0-229.0-0.0","78810878","wem/bandit_either","A9YJYYOWOVCR1","either","3","","","","","","","0","0","1","","0.4906713727","0.2","0.8","0.6","0.4","0.4104863902","0.1401199573","0.3722688899","0.4906713727","","","","","","","","","","","76","L","3","","","190","main_expt"
"499","","bandit","269","1027748","0.0-230.0-0.0","78810878","wem/bandit_either","A9YJYYOWOVCR1","either","3","","","","","","","0","0","1","","0.4944082075","0.2","0.8","0.6","0.4","0.4071825693","0.1782786715","0.3956575009","0.4944082075","","","","","","","","","","","76","L","3","","","191","main_expt"
"638","","bandit","270","1029921","0.0-231.0-0.0","78810878","wem/bandit_either","A9YJYYOWOVCR1","either","3","","","","","","","0","0","1","","0.4172763132","0.2","0.8","0.6","0.4","0.4172763132","0.203517815","0.3843500594","0.4922337742","","","","","","","","","","","72","H","0","img/none_selected.jpg","","192","main_expt"
"870","","bandit","271","1032329","0.0-232.0-0.0","78810878","wem/bandit_either","A9YJYYOWOVCR1","either","3","","","","","","","1","0","0","0.3965334946","","0.2","0.8","0.6","0.4","","","","","0.3965334946","0.172030281","0.3801723293","0.4887356563","","","","","","","72","H","0","img/none_selected.jpg","","193","main_expt"
"831","","bandit","272","1034695","0.0-233.0-0.0","78810878","wem/bandit_either","A9YJYYOWOVCR1","either","3","","","","","","","0","0","1","","0.383316574","0.2","0.8","0.6","0.4","0.383316574","0.1813301739","0.3871645121","0.4850955297","","","","","","","","","","","72","H","0","img/none_selected.jpg","","194","main_expt"
"505","","bandit","273","1036740","0.0-234.0-0.0","78810878","wem/bandit_either","A9YJYYOWOVCR1","either","3","","","","","","","0","0","1","","0.4848341758","0.2","0.8","0.6","0.4","0.3965345796","0.2284295163","0.3633903175","0.4848341758","","","","","","","","","","","76","L","3","","","195","main_expt"
"573","","bandit","274","1038850","0.0-235.0-0.0","78810878","wem/bandit_either","A9YJYYOWOVCR1","either","3","","","","","","","0","0","1","0.490049139","","0.2","0.8","0.6","0.4","","","","","0.3978469093","0.2501246714","0.3811675741","0.490049139","","","","","","","76","L","3","","","196","main_expt"
"268","","bandit","275","1040656","0.0-236.0-0.0","78810878","wem/bandit_either","A9YJYYOWOVCR1","either","3","","","","","","","0","0","1","","0.4912643012","0.2","0.8","0.6","0.4","0.3172926233","0.3150809007","0.3487868089","0.4912643012","","","","","","","","","","","76","L","3","","","197","main_expt"
"477","","bandit","276","1042673","0.0-237.0-0.0","78810878","wem/bandit_either","A9YJYYOWOVCR1","either","3","","","","","","","0","0","1","0.2986771554","","0.2","0.8","0.6","0.4","","","","","0.3113170709","0.3442077965","0.2986771554","0.4793615714","","","","","","","75","K","2","","","198","main_expt"
"563","","bandit","277","1044778","0.0-238.0-0.0","78810878","wem/bandit_either","A9YJYYOWOVCR1","either","3","","","","","","","1","0","0","0.3481418533","","0.2","0.8","0.6","0.4","","","","","0.3066116159","0.3675051223","0.3481418533","0.4661622676","","","","","","","75","K","2","","","199","main_expt"
"729","","bandit","278","1047044","0.0-239.0-0.0","78810878","wem/bandit_either","A9YJYYOWOVCR1","either","3","","","","","","","1","0","0","0.353319573","","0.2","0.8","0.6","0.4","","","","","0.2521122026","0.3044821291","0.353319573","0.4479238565","","","","","","","75","K","2","","","200","main_expt"
"507","","bandit","279","1049090","0.0-240.0-0.0","78810878","wem/bandit_either","A9YJYYOWOVCR1","either","3","","","","","","","1","0","0","0.3676338631","","0.2","0.8","0.6","0.4","","","","","0.2679963248","0.3013824411","0.3676338631","0.4429166455","","","","","","","75","K","2","","","201","main_expt"
"669","","bandit","280","1051298","0.0-241.0-0.0","78810878","wem/bandit_either","A9YJYYOWOVCR1","either","3","","","","","","","0","0","1","0.311657493","","0.2","0.8","0.6","0.4","","","","","0.2076546236","0.3001954661","0.311657493","0.442820363","","","","","","","75","K","2","","","202","main_expt"
"564","","bandit","281","1053401","0.0-242.0-0.0","78810878","wem/bandit_either","A9YJYYOWOVCR1","either","3","","","","","","","0","0","1","","0.4539008368","0.2","0.8","0.6","0.4","0.1881707852","0.3189156814","0.3364041998","0.4539008368","","","","","","","","","","","76","L","3","","","203","main_expt"
"515","","bandit","282","1055439","0.0-243.0-0.0","78810878","wem/bandit_either","A9YJYYOWOVCR1","either","3","","","","","","","0","0","1","0.3148670147","","0.2","0.8","0.6","0.4","","","","","0.2057853427","0.3162062407","0.3148670147","0.4163307037","","","","","","","75","K","2","","","204","main_expt"
"651","","bandit","283","1057617","0.0-244.0-0.0","78810878","wem/bandit_either","A9YJYYOWOVCR1","either","3","","","","","","","0","1","0","","0.3293187519","0.2","0.8","0.6","0.4","0.2564451259","0.347278619","0.3293187519","0.4045388199","","","","","","","","","","","75","K","2","","","205","main_expt"
"423","","bandit","284","1059577","0.0-245.0-0.0","78810878","wem/bandit_either","A9YJYYOWOVCR1","either","3","","","","","","","0","0","1","0.2705077244","","0.2","0.8","0.6","0.4","","","","","0.3082896296","0.2970129147","0.2705077244","0.4083422121","","","","","","","75","K","2","","","206","main_expt"
"493","","bandit","285","1061611","0.0-246.0-0.0","78810878","wem/bandit_either","A9YJYYOWOVCR1","either","3","","","","","","","0","0","1","","0.3083591011","0.2","0.8","0.6","0.4","0.3235103938","0.3331481178","0.3083591011","0.4033585138","","","","","","","","","","","75","K","2","","","207","main_expt"
"837","","bandit","286","1063985","0.0-247.0-0.0","78810878","wem/bandit_either","A9YJYYOWOVCR1","either","3","","","","","","","0","0","1","0.3563539536","","0.2","0.8","0.6","0.4","","","","","0.3563539536","0.3195917859","0.2489273718","0.3753320851","","","","","","","72","H","0","img/none_selected.jpg","","208","main_expt"
"573","","bandit","287","1066098","0.0-248.0-0.0","78810878","wem/bandit_either","A9YJYYOWOVCR1","either","3","","","","","","","0","0","1","","0.3821305916","0.2","0.8","0.6","0.4","0.3821305916","0.3642345195","0.2224321457","0.3864970555","","","","","","","","","","","72","H","0","img/none_selected.jpg","","209","main_expt"
"1109","","bandit","288","1068747","0.0-249.0-0.0","78810878","wem/bandit_either","A9YJYYOWOVCR1","either","3","","","","","","","0","0","1","0.2184729634","","0.2","0.8","0.6","0.4","","","","","0.4067483812","0.3518797164","0.2184729634","0.3894881908","","","","","","","75","K","2","","","210","main_expt"
"267","","bandit","289","1070555","0.0-250.0-0.0","78810878","wem/bandit_either","A9YJYYOWOVCR1","either","3","","","","","","","0","1","0","","0.4052823736","0.2","0.8","0.6","0.4","0.376825818","0.3781537602","0.2178464352","0.4052823736","","","","","","","","","","","76","L","3","","","211","main_expt"
"449","","bandit","290","1072530","0.0-251.0-0.0","78810878","wem/bandit_either","A9YJYYOWOVCR1","either","3","","","","","","","0","0","1","0.3783189977","","0.2","0.8","0.6","0.4","","","","","0.3481764155","0.3773353051","0.1644702768","0.3783189977","","","","","","","76","L","3","","","212","main_expt"
"434","","bandit","291","1074491","0.0-252.0-0.0","78810878","wem/bandit_either","A9YJYYOWOVCR1","either","3","","","","","","","1","0","0","0.3804187243","","0.2","0.8","0.6","0.4","","","","","0.3239198888","0.3448860985","0.1271660564","0.3804187243","","","","","","","76","L","3","","","213","main_expt"
"395","","bandit","292","1076426","0.0-253.0-0.0","78810878","wem/bandit_either","A9YJYYOWOVCR1","either","3","","","","","","","0","0","1","","0.3964056757","0.2","0.8","0.6","0.4","0.3592643085","0.3622000499","0.1368129038","0.3964056757","","","","","","","","","","","76","L","3","","","214","main_expt"
"298","","bandit","293","1078266","0.0-254.0-0.0","78810878","wem/bandit_either","A9YJYYOWOVCR1","either","3","","","","","","","0","0","1","0.3939862607","","0.2","0.8","0.6","0.4","","","","","0.3482739819","0.3408682726","0.07615368859","0.3939862607","","","","","","","76","L","3","","","215","main_expt"
"251","","bandit","294","1080044","0.0-255.0-0.0","78810878","wem/bandit_either","A9YJYYOWOVCR1","either","3","","","","","","","0","0","1","0.328819006","","0.2","0.8","0.6","0.4","","","","","0.2972527025","0.328819006","0.07711559412","0.4062496234","","","","","","","74","J","1","","","216","main_expt"
"194","","bandit","295","1081779","0.0-256.0-0.0","78810878","wem/bandit_either","A9YJYYOWOVCR1","either","3","","","","","","","1","0","0","0.3229374792","","0.2","0.8","0.6","0.4","","","","","0.2850944341","0.3229374792","0.07728173513","0.3440498305","","","","","","","74","J","1","","","217","main_expt"
"556","","bandit","296","1083876","0.0-257.0-0.0","78810878","wem/bandit_either","A9YJYYOWOVCR1","either","3","","","","","","","0","0","1","0.3616220652","","0.2","0.8","0.6","0.4","","","","","0.2483413171","0.3616220652","0.07919919155","0.3198020565","","","","","","","74","J","1","","","218","main_expt"
"526","","bandit","297","1085938","0.0-258.0-0.0","78810878","wem/bandit_either","A9YJYYOWOVCR1","either","3","","","","","","","0","0","1","","0.3591176528","0.2","0.8","0.6","0.4","0.2680513607","0.3591176528","0.1270410367","0.3078290176","","","","","","","","","","","74","J","1","","","219","main_expt"
"452","","bandit","298","1087931","0.0-259.0-0.0","78810878","wem/bandit_either","A9YJYYOWOVCR1","either","3","","","","","","","1","0","0","0.2758994579","","0.2","0.8","0.6","0.4","","","","","0.304668496","0.2758994579","0.1117499599","0.2961895162","","","","","","","74","J","1","","","220","main_expt"
"465","","bandit","299","1089931","0.0-260.0-0.0","78810878","wem/bandit_either","A9YJYYOWOVCR1","either","3","","","","","","","0","0","1","0.3119987931","","0.2","0.8","0.6","0.4","","","","","0.2773284289","0.3119987931","0.1186324211","0.2658603678","","","","","","","74","J","1","","","221","main_expt"
"462","","bandit","300","1091930","0.0-261.0-0.0","78810878","wem/bandit_either","A9YJYYOWOVCR1","either","3","","","","","","","0","0","1","0.3106374463","","0.2","0.8","0.6","0.4","","","","","0.2152506718","0.3106374463","0.1141050397","0.274695037","","","","","","","74","J","1","","","222","main_expt"
"355","","bandit","301","1093826","0.0-262.0-0.0","78810878","wem/bandit_either","A9YJYYOWOVCR1","either","3","","","","","","","1","0","0","0.3131570504","","0.2","0.8","0.6","0.4","","","","","0.2445797097","0.3131570504","0.1007228699","0.2210940289","","","","","","","74","J","1","","","223","main_expt"
"573","","bandit","302","1095938","0.0-263.0-0.0","78810878","wem/bandit_either","A9YJYYOWOVCR1","either","3","","","","","","","0","0","1","","0.3025994915","0.2","0.8","0.6","0.4","0.2559263424","0.3025994915","0.1380584308","0.1843933297","","","","","","","","","","","74","J","1","","","224","main_expt"
"310","","bandit","303","1097785","0.0-264.0-0.0","78810878","wem/bandit_either","A9YJYYOWOVCR1","either","3","","","","","","","0","0","1","0.2994132709","","0.2","0.8","0.6","0.4","","","","","0.2702522324","0.2994132709","0.1393521225","0.212211923","","","","","","","74","J","1","","","225","main_expt"
"331","","bandit","304","1099659","0.0-265.0-0.0","78810878","wem/bandit_either","A9YJYYOWOVCR1","either","3","","","","","","","0","1","0","","0.2866794375","0.2","0.8","0.6","0.4","0.2646860425","0.2866794375","0.2094269877","0.2315036379","","","","","","","","","","","74","J","1","","","226","main_expt"
"360","","bandit","305","1101554","0.0-266.0-0.0","78810878","wem/bandit_either","A9YJYYOWOVCR1","either","3","","","","","","","1","0","0","0.2299222882","","0.2","0.8","0.6","0.4","","","","","0.269556559","0.2299222882","0.2959232149","0.2646353212","","","","","","","74","J","1","","","227","main_expt"
"506","","bandit","306","1103604","0.0-267.0-0.0","78810878","wem/bandit_either","A9YJYYOWOVCR1","either","3","","","","","","","0","0","1","0.2991813551","","0.2","0.8","0.6","0.4","","","","","0.2498152532","0.2991813551","0.374355758","0.2443517867","","","","","","","74","J","1","","","228","main_expt"
"378","","bandit","307","1105523","0.0-268.0-0.0","78810878","wem/bandit_either","A9YJYYOWOVCR1","either","3","","","","","","","0","0","1","0.3295538921","","0.2","0.8","0.6","0.4","","","","","0.2495566458","0.3295538921","0.3876740502","0.2569692975","","","","","","","74","J","1","","","229","main_expt"
"350","","bandit","308","1107406","0.0-269.0-0.0","78810878","wem/bandit_either","A9YJYYOWOVCR1","either","3","","","","","","","0","0","1","0.2713593359","","0.2","0.8","0.6","0.4","","","","","0.2134382902","0.2713593359","0.3341674595","0.2490290172","","","","","","","74","J","1","","","230","main_expt"
"436","","bandit","309","1109381","0.0-270.0-0.0","78810878","wem/bandit_either","A9YJYYOWOVCR1","either","3","","","","","","","0","1","0","","0.2746975787","0.2","0.8","0.6","0.4","0.2099205747","0.2746975787","0.3558281537","0.2368643707","","","","","","","","","","","74","J","1","","","231","main_expt"
"422","","bandit","310","1111345","0.0-271.0-0.0","78810878","wem/bandit_either","A9YJYYOWOVCR1","either","3","","","","","","","0","1","0","","0.2817934899","0.2","0.8","0.6","0.4","0.1598609145","0.2817934899","0.3293076861","0.2857324616","","","","","","","","","","","74","J","1","","","232","main_expt"
"534","","bandit","311","1113413","0.0-272.0-0.0","78810878","wem/bandit_either","A9YJYYOWOVCR1","either","3","","","","","","","0","0","1","0.3139736629","","0.2","0.8","0.6","0.4","","","","","0.1472569172","0.3139736629","0.3271309306","0.226619475","","","","","","","74","J","1","","","233","main_expt"
"408","","bandit","312","1115366","0.0-273.0-0.0","78810878","wem/bandit_either","A9YJYYOWOVCR1","either","3","","","","","","","0","0","1","0.3332560948","","0.2","0.8","0.6","0.4","","","","","0.1123375355","0.3332560948","0.3510228885","0.2448251662","","","","","","","74","J","1","","","234","main_expt"
"335","","bandit","313","1117243","0.0-274.0-0.0","78810878","wem/bandit_either","A9YJYYOWOVCR1","either","3","","","","","","","0","0","1","0.3475281657","","0.2","0.8","0.6","0.4","","","","","0.1562424728","0.3475281657","0.3346663699","0.2996798263","","","","","","","74","J","1","","","235","main_expt"
"358","","bandit","314","1119129","0.0-275.0-0.0","78810878","wem/bandit_either","A9YJYYOWOVCR1","either","3","","","","","","","0","0","1","0.3170984437","","0.2","0.8","0.6","0.4","","","","","0.1623269298","0.3170984437","0.332043614","0.3220329496","","","","","","","74","J","1","","","236","main_expt"
"487","","bandit","315","1121157","0.0-276.0-0.0","78810878","wem/bandit_either","A9YJYYOWOVCR1","either","3","","","","","","","0","1","0","","0.3672390457","0.2","0.8","0.6","0.4","0.1362759337","0.3611259067","0.2780661838","0.3672390457","","","","","","","","","","","76","L","3","","","237","main_expt"
"583","","bandit","316","1123280","0.0-277.0-0.0","78810878","wem/bandit_either","A9YJYYOWOVCR1","either","3","","","","","","","1","0","0","0.3702030288","","0.2","0.8","0.6","0.4","","","","","0.1282223372","0.3449339383","0.3071002506","0.3702030288","","","","","","","76","L","3","","","238","main_expt"
"586","","bandit","317","1125396","0.0-278.0-0.0","78810878","wem/bandit_either","A9YJYYOWOVCR1","either","3","","","","","","","0","0","1","","0.3486367063","0.2","0.8","0.6","0.4","0.08262393641","0.3006984684","0.3101279526","0.3486367063","","","","","","","","","","","76","L","3","","","239","main_expt"
"789","","bandit","318","1127714","0.0-279.0-0.0","78810878","wem/bandit_either","A9YJYYOWOVCR1","either","3","","","","","","","1","0","0","0.3355390738","","0.2","0.8","0.6","0.4","","","","","0.09366491666","0.3355390738","0.3071576631","0.3422639114","","","","","","","74","J","1","","","240","main_expt"
"728","","bandit","319","1129985","0.0-280.0-0.0","78810878","wem/bandit_either","A9YJYYOWOVCR1","either","3","","","","","","","0","0","1","0.3513118525","","0.2","0.8","0.6","0.4","","","","","0.09778426954","0.3513118525","0.3213727252","0.3703795114","","","","","","","74","J","1","","","241","main_expt"
"411","","bandit","320","1131938","0.0-281.0-0.0","78810878","wem/bandit_either","A9YJYYOWOVCR1","either","3","","","","","","","0","0","1","","0.3362310887","0.2","0.8","0.6","0.4","0.0684580113","0.2871404103","0.3303042821","0.3362310887","","","","","","","","","","","76","L","3","","","242","main_expt"
"456","","bandit","321","1133938","0.0-282.0-0.0","78810878","wem/bandit_either","A9YJYYOWOVCR1","either","3","","","","","","","0","0","1","0.2582353252","","0.2","0.8","0.6","0.4","","","","","0.05756719403","0.2582353252","0.386578507","0.3855302341","","","","","","","74","J","1","","","243","main_expt"
"459","","bandit","322","1135940","0.0-283.0-0.0","78810878","wem/bandit_either","A9YJYYOWOVCR1","either","3","","","","","","","0","0","1","","0.07954378931","0.2","0.8","0.6","0.4","0.07954378931","0.2108553612","0.3582196724","0.3504604058","","","","","","","","","","","72","H","0","img/none_selected.jpg","","244","main_expt"
"611","","bandit","323","1138097","0.0-284.0-0.0","78810878","wem/bandit_either","A9YJYYOWOVCR1","either","3","","","","","","","0","0","1","0.190308294","","0.2","0.8","0.6","0.4","","","","","0.07668718344","0.190308294","0.3626170977","0.3586275713","","","","","","","74","J","1","","","245","main_expt"
"445","","bandit","324","1140098","0.0-285.0-0.0","78810878","wem/bandit_either","A9YJYYOWOVCR1","either","3","","","","","","","1","0","0","0.2079876503","","0.2","0.8","0.6","0.4","","","","","0.08627194322","0.2079876503","0.2778980274","0.3202710015","","","","","","","74","J","1","","","246","main_expt"
"366","","bandit","325","1142010","0.0-286.0-0.0","78810878","wem/bandit_either","A9YJYYOWOVCR1","either","3","","","","","","","0","0","1","0.2053262284","","0.2","0.8","0.6","0.4","","","","","0.1009858539","0.2053262284","0.2864864277","0.2874587678","","","","","","","74","J","1","","","247","main_expt"
"505","","bandit","326","1144058","0.0-287.0-0.0","78810878","wem/bandit_either","A9YJYYOWOVCR1","either","3","","","","","","","0","0","1","0.2699327364","","0.2","0.8","0.6","0.4","","","","","0.1044033157","0.2699327364","0.2883304048","0.2703076155","","","","","","","74","J","1","","","248","main_expt"
"438","","bandit","327","1146037","0.0-288.0-0.0","78810878","wem/bandit_either","A9YJYYOWOVCR1","either","3","","","","","","","0","0","1","","0.2212833967","0.2","0.8","0.6","0.4","0.07254640656","0.2917851334","0.3034325887","0.2212833967","","","","","","","","","","","76","L","3","","","249","main_expt"
"374","","bandit","328","1147956","0.0-289.0-0.0","78810878","wem/bandit_either","A9YJYYOWOVCR1","either","3","","","","","","","0","0","1","","0.2530543584","0.2","0.8","0.6","0.4","0.09512939239","0.2530543584","0.2582013927","0.2174917034","","","","","","","","","","","74","J","1","","","250","main_expt"
"380","","bandit","329","1149883","0.0-290.0-0.0","78810878","wem/bandit_either","A9YJYYOWOVCR1","either","3","","","","","","","0","0","1","0.2345859063","","0.2","0.8","0.6","0.4","","","","","0.06759478125","0.2345859063","0.2337836179","0.2008338107","","","","","","","74","J","1","","","251","main_expt"
"424","","bandit","330","1151851","0.0-291.0-0.0","78810878","wem/bandit_either","A9YJYYOWOVCR1","either","3","","","","","","","0","0","1","0.2477033955","","0.2","0.8","0.6","0.4","","","","","0.05682902113","0.2407419433","0.2477033955","0.2294508047","","","","","","","75","K","2","","","252","main_expt"
"479","","bandit","331","1153875","0.0-292.0-0.0","78810878","wem/bandit_either","A9YJYYOWOVCR1","either","3","","","","","","","0","0","1","","0.2187012899","0.2","0.8","0.6","0.4","0.04662337877","0.2016139721","0.2187012899","0.2678406235","","","","","","","","","","","75","K","2","","","253","main_expt"
