"rt","responses","trial_type","trial_index","time_elapsed","internal_node_id","subjID","study","MID","cond","drift","key_press","expt_phase","target","like","value","connected","respCharCode","respKey","respChoiceNum","respChoice","gems","bombs","no_reward","GemPrChosen","BombPrChosen","practice","trial_counter","WinPr_0","LosePr_0","trial_label","GainOverPainPr_0","WinPr_1","GainOverPainPr_1","LosePr_1","WinPr_2","GainOverPainPr_2","WinPr_3","GainOverPainPr_3","LosePr_2","LosePr_3","Q0","Q1","Q2","gender","age","ethnicity"
"42890","{""Q0"":""A1QQQ7KKM896QY""}","survey-text","0","42901","0.0-0.0","79127471","wem/bandit_either","A1QQQ7KKM896QY","either","1","","","","","","","","","","","","","","","","","","","","","","","","","","","","","","","","","","","",""
"10629","","text","1","54551","0.0-1.0","79127471","wem/bandit_either","A1QQQ7KKM896QY","either","1","32","","","","","","","","","","","","","","","","","","","","","","","","","","","","","","","","","","",""
"12333","","text","2","66887","0.0-2.0","79127471","wem/bandit_either","A1QQQ7KKM896QY","either","1","32","","","","","","","","","","","","","","","","","","","","","","","","","","","","","","","","","","",""
"24006","","text","3","90898","0.0-3.0","79127471","wem/bandit_either","A1QQQ7KKM896QY","either","1","32","","","","","","","","","","","","","","","","","","","","","","","","","","","","","","","","","","",""
"21180","","text","4","112086","0.0-4.0","79127471","wem/bandit_either","A1QQQ7KKM896QY","either","1","32","","","","","","","","","","","","","","","","","","","","","","","","","","","","","","","","","","",""
"72837","","text","5","184929","0.0-5.0","79127471","wem/bandit_either","A1QQQ7KKM896QY","either","1","32","","","","","","","","","","","","","","","","","","","","","","","","","","","","","","","","","","",""
"7578","","text","6","192513","0.0-6.0","79127471","wem/bandit_either","A1QQQ7KKM896QY","either","1","32","","","","","","","","","","","","","","","","","","","","","","","","","","","","","","","","","","",""
"6404","","text","7","198923","0.0-7.0","79127471","wem/bandit_either","A1QQQ7KKM896QY","either","1","32","","","","","","","","","","","","","","","","","","","","","","","","","","","","","","","","","","",""
"5947","","identification","8","204960","0.0-8.0-0.0","79127471","wem/bandit_either","A1QQQ7KKM896QY","either","1","","identification_pre","the village of Zur","6","6","6","","","","","","","","","","","","","","","","","","","","","","","","","","","","","",""
"4302","","identification","9","210404","0.0-8.0-1.0","79127471","wem/bandit_either","A1QQQ7KKM896QY","either","1","","identification_pre","the village of Nyx","0","0","0","","","","","","","","","","","","","","","","","","","","","","","","","","","","","",""
"4573","","text","10","215982","0.0-9.0","79127471","wem/bandit_either","A1QQQ7KKM896QY","either","1","32","","","","","","","","","","","","","","","","","","","","","","","","","","","","","","","","","","",""
"2926","","text","11","218912","0.0-10.0","79127471","wem/bandit_either","A1QQQ7KKM896QY","either","1","32","","","","","","","","","","","","","","","","","","","","","","","","","","","","","","","","","","",""
"4160","","text","12","223076","0.0-11.0","79127471","wem/bandit_either","A1QQQ7KKM896QY","either","1","32","","","","","","","","","","","","","","","","","","","","","","","","","","","","","","","","","","",""
"5455","","text","13","228535","0.0-12.0","79127471","wem/bandit_either","A1QQQ7KKM896QY","either","1","32","","","","","","","","","","","","","","","","","","","","","","","","","","","","","","","","","","",""
"4302","","bandit","14","234360","0.0-13.0-0.0","79127471","wem/bandit_either","A1QQQ7KKM896QY","either","1","","","","","","","74","J","0","img/none_selected_demo.jpg","0","0","1","0","0","true","0","0","0","","","","","","","","","","","","","","","","",""
"1016","","bandit","15","236881","0.0-14.0-0.0","79127471","wem/bandit_either","A1QQQ7KKM896QY","either","1","","","","","","","75","K","0","img/none_selected_demo.jpg","0","0","1","0","0","true","0","0","0","","","","","","","","","","","","","","","","",""
"25024","","text","16","261911","0.0-15.0","79127471","wem/bandit_either","A1QQQ7KKM896QY","either","1","32","","","","","","","","","","","","","","","","","","","","","","","","","","","","","","","","","","",""
"10136","","text","17","272052","0.0-16.0","79127471","wem/bandit_either","A1QQQ7KKM896QY","either","1","32","","","","","","","","","","","","","","","","","","","","","","","","","","","","","","","","","","",""
"7755","","text","18","279810","0.0-17.0","79127471","wem/bandit_either","A1QQQ7KKM896QY","either","1","32","","","","","","","","","","","","","","","","","","","","","","","","","","","","","","","","","","",""
"6318","","text","19","286131","0.0-18.0","79127471","wem/bandit_either","A1QQQ7KKM896QY","either","1","32","","","","","","","","","","","","","","","","","","","","","","","","","","","","","","","","","","",""
"1114","","bandit","20","288759","0.0-19.0-0.0","79127471","wem/bandit_either","A1QQQ7KKM896QY","either","1","","","","","","","75","K","1","","1","0","0","0.2","","true","0","0.8","","80_20_practice","0.5","0.2","0.5","","","","","","","","","","","","",""
"709","","bandit","21","290979","0.0-19.0-1.0","79127471","wem/bandit_either","A1QQQ7KKM896QY","either","1","","","","","","","75","K","1","","0","1","0","","0.2","true","0","","0.8","80_20_practice","0.5","","0.5","0.2","","","","","","","","","","","",""
"453","","bandit","22","292944","0.0-19.0-2.0","79127471","wem/bandit_either","A1QQQ7KKM896QY","either","1","","","","","","","75","K","1","","0","0","1","0.2","","true","0","0.8","","80_20_practice","0.5","0.2","0.5","","","","","","","","","","","","",""
"518","","bandit","23","294969","0.0-19.0-3.0","79127471","wem/bandit_either","A1QQQ7KKM896QY","either","1","","","","","","","74","J","0","img/none_selected_demo.jpg","0","1","0","","0.8","true","0","","0.8","80_20_practice","0.5","","0.5","0.2","","","","","","","","","","","",""
"205","","bandit","24","296679","0.0-19.0-4.0","79127471","wem/bandit_either","A1QQQ7KKM896QY","either","1","","","","","","","75","K","1","","0","0","1","","0.2","true","0","","0.8","80_20_practice","0.5","","0.5","0.2","","","","","","","","","","","",""
"20","","bandit","25","298217","0.0-19.0-5.0","79127471","wem/bandit_either","A1QQQ7KKM896QY","either","1","","","","","","","75","K","1","","0","0","1","0.2","","true","0","0.8","","80_20_practice","0.5","0.2","0.5","","","","","","","","","","","","",""
"322","","bandit","26","300048","0.0-19.0-6.0","79127471","wem/bandit_either","A1QQQ7KKM896QY","either","1","","","","","","","74","J","0","img/none_selected_demo.jpg","0","1","0","","0.8","true","0","","0.8","80_20_practice","0.5","","0.5","0.2","","","","","","","","","","","",""
"285","","bandit","27","301840","0.0-19.0-7.0","79127471","wem/bandit_either","A1QQQ7KKM896QY","either","1","","","","","","","74","J","0","img/none_selected_demo.jpg","0","0","1","","0.8","true","0","","0.8","80_20_practice","0.5","","0.5","0.2","","","","","","","","","","","",""
"468","","bandit","28","303826","0.0-19.0-8.0","79127471","wem/bandit_either","A1QQQ7KKM896QY","either","1","","","","","","","75","K","1","","0","0","1","0.2","","true","0","0.8","","80_20_practice","0.5","0.2","0.5","","","","","","","","","","","","",""
"59","","bandit","29","305419","0.0-19.0-9.0","79127471","wem/bandit_either","A1QQQ7KKM896QY","either","1","","","","","","","75","K","1","","0","0","1","0.2","","true","0","0.8","","80_20_practice","0.5","0.2","0.5","","","","","","","","","","","","",""
"162","","bandit","30","307104","0.0-19.0-10.0","79127471","wem/bandit_either","A1QQQ7KKM896QY","either","1","","","","","","","74","J","0","img/none_selected_demo.jpg","0","1","0","","0.8","true","0","","0.8","80_20_practice","0.5","","0.5","0.2","","","","","","","","","","","",""
"267","","bandit","31","308887","0.0-19.0-11.0","79127471","wem/bandit_either","A1QQQ7KKM896QY","either","1","","","","","","","74","J","0","img/none_selected_demo.jpg","0","1","0","","0.8","true","0","","0.8","80_20_practice","0.5","","0.5","0.2","","","","","","","","","","","",""
"253","","bandit","32","310652","0.0-19.0-12.0","79127471","wem/bandit_either","A1QQQ7KKM896QY","either","1","","","","","","","74","J","0","img/none_selected_demo.jpg","0","1","0","","0.8","true","0","","0.8","80_20_practice","0.5","","0.5","0.2","","","","","","","","","","","",""
"359","","bandit","33","312526","0.0-19.0-13.0","79127471","wem/bandit_either","A1QQQ7KKM896QY","either","1","","","","","","","74","J","0","img/none_selected_demo.jpg","0","1","0","","0.8","true","0","","0.8","80_20_practice","0.5","","0.5","0.2","","","","","","","","","","","",""
"306","","bandit","34","314351","0.0-19.0-14.0","79127471","wem/bandit_either","A1QQQ7KKM896QY","either","1","","","","","","","74","J","0","img/none_selected_demo.jpg","1","0","0","0.8","","true","0","0.8","","80_20_practice","0.5","0.2","0.5","","","","","","","","","","","","",""
"166","","bandit","35","316032","0.0-19.0-15.0","79127471","wem/bandit_either","A1QQQ7KKM896QY","either","1","","","","","","","75","K","1","","0","0","1","0.2","","true","0","0.8","","80_20_practice","0.5","0.2","0.5","","","","","","","","","","","","",""
"138","","bandit","36","317682","0.0-19.0-16.0","79127471","wem/bandit_either","A1QQQ7KKM896QY","either","1","","","","","","","74","J","0","img/none_selected_demo.jpg","0","1","0","","0.8","true","0","","0.8","80_20_practice","0.5","","0.5","0.2","","","","","","","","","","","",""
"226","","bandit","37","319415","0.0-19.0-17.0","79127471","wem/bandit_either","A1QQQ7KKM896QY","either","1","","","","","","","74","J","0","img/none_selected_demo.jpg","1","0","0","0.8","","true","0","0.8","","80_20_practice","0.5","0.2","0.5","","","","","","","","","","","","",""
"1514","","bandit","38","322446","0.0-19.0-18.0","79127471","wem/bandit_either","A1QQQ7KKM896QY","either","1","","","","","","","74","J","0","img/none_selected_demo.jpg","1","0","0","0.8","","true","0","0.8","","80_20_practice","0.5","0.2","0.5","","","","","","","","","","","","",""
"284","","bandit","39","324241","0.0-19.0-19.0","79127471","wem/bandit_either","A1QQQ7KKM896QY","either","1","","","","","","","74","J","0","img/none_selected_demo.jpg","0","0","1","0.8","","true","0","0.8","","80_20_practice","0.5","0.2","0.5","","","","","","","","","","","","",""
"7443","","text","40","331689","0.0-20.0","79127471","wem/bandit_either","A1QQQ7KKM896QY","either","1","32","","","","","","","","","","","","","","","","","","","","","","","","","","","","","","","","","","",""
"1649","","bandit","41","334847","0.0-21.0-0.0","79127471","wem/bandit_either","A1QQQ7KKM896QY","either","1","","","","","","","75","K","1","","0","1","0","0","1","true","0","1","0","","","0","","1","","","","","","","","","","","",""
"6025","","text","42","340881","0.0-22.0","79127471","wem/bandit_either","A1QQQ7KKM896QY","either","1","32","","","","","","","","","","","","","","","","","","","","","","","","","","","","","","","","","","",""
"3860","","text","43","344750","0.0-23.0","79127471","wem/bandit_either","A1QQQ7KKM896QY","either","1","32","","","","","","","","","","","","","","","","","","","","","","","","","","","","","","","","","","",""
"2964","","text","44","347717","0.0-24.0","79127471","wem/bandit_either","A1QQQ7KKM896QY","either","1","32","","","","","","","","","","","","","","","","","","","","","","","","","","","","","","","","","","",""
"3327","","text","45","351049","0.0-25.0","79127471","wem/bandit_either","A1QQQ7KKM896QY","either","1","32","","","","","","","","","","","","","","","","","","","","","","","","","","","","","","","","","","",""
"13129","","text","46","364186","0.0-26.0","79127471","wem/bandit_either","A1QQQ7KKM896QY","either","1","32","","","","","","","","","","","","","","","","","","","","","","","","","","","","","","","","","","",""
"4485","","text","47","368680","0.0-27.0","79127471","wem/bandit_either","A1QQQ7KKM896QY","either","1","32","","","","","","","","","","","","","","","","","","","","","","","","","","","","","","","","","","",""
"5628","","text","48","374316","0.0-28.0","79127471","wem/bandit_either","A1QQQ7KKM896QY","either","1","32","","","","","","","","","","","","","","","","","","","","","","","","","","","","","","","","","","",""
"6152","","text","49","380471","0.0-29.0","79127471","wem/bandit_either","A1QQQ7KKM896QY","either","1","32","","","","","","","","","","","","","","","","","","","","","","","","","","","","","","","","","","",""
"5577","","text","50","386052","0.0-30.0","79127471","wem/bandit_either","A1QQQ7KKM896QY","either","1","32","","","","","","","","","","","","","","","","","","","","","","","","","","","","","","","","","","",""
"3732","","text","51","389787","0.0-31.0","79127471","wem/bandit_either","A1QQQ7KKM896QY","either","1","32","","","","","","","","","","","","","","","","","","","","","","","","","","","","","","","","","","",""
"2253","","text","52","392045","0.0-32.0","79127471","wem/bandit_either","A1QQQ7KKM896QY","either","1","32","","","","","","","","","","","","","","","","","","","","","","","","","","","","","","","","","","",""
"492","","bandit","53","394062","0.0-33.0-0.0","79127471","wem/bandit_either","A1QQQ7KKM896QY","either","1","","","","","","","72","H","0","img/none_selected.jpg","0","0","1","0.8","","true","0","0.8","","full_practice","0.5","0.2","0.5","","0.6","0.5","0.2","0.5","","","","","","","",""
"54","","bandit","54","395624","0.0-33.0-1.0","79127471","wem/bandit_either","A1QQQ7KKM896QY","either","1","","","","","","","74","J","1","","0","0","1","","0.2","true","0","","0.8","full_practice","0.5","","0.5","0.2","","0.5","","0.5","0.6","0.2","","","","","",""
"389","","bandit","55","397528","0.0-33.0-2.0","79127471","wem/bandit_either","A1QQQ7KKM896QY","either","1","","","","","","","75","K","2","","0","1","0","","0.6","true","0","","0.8","full_practice","0.5","","0.5","0.2","","0.5","","0.5","0.6","0.2","","","","","",""
"365","","bandit","56","399412","0.0-33.0-3.0","79127471","wem/bandit_either","A1QQQ7KKM896QY","either","1","","","","","","","76","L","3","","0","1","0","","0.2","true","0","","0.8","full_practice","0.5","","0.5","0.2","","0.5","","0.5","0.6","0.2","","","","","",""
"233","","bandit","57","401152","0.0-33.0-4.0","79127471","wem/bandit_either","A1QQQ7KKM896QY","either","1","","","","","","","76","L","3","","0","0","1","","0.2","true","0","","0.8","full_practice","0.5","","0.5","0.2","","0.5","","0.5","0.6","0.2","","","","","",""
"293","","bandit","58","402955","0.0-33.0-5.0","79127471","wem/bandit_either","A1QQQ7KKM896QY","either","1","","","","","","","75","K","2","","1","0","0","0.6","","true","0","0.8","","full_practice","0.5","0.2","0.5","","0.6","0.5","0.2","0.5","","","","","","","",""
"233","","bandit","59","404703","0.0-33.0-6.0","79127471","wem/bandit_either","A1QQQ7KKM896QY","either","1","","","","","","","75","K","2","","1","0","0","0.6","","true","0","0.8","","full_practice","0.5","0.2","0.5","","0.6","0.5","0.2","0.5","","","","","","","",""
"240","","bandit","60","406458","0.0-33.0-7.0","79127471","wem/bandit_either","A1QQQ7KKM896QY","either","1","","","","","","","75","K","2","","0","1","0","","0.6","true","0","","0.8","full_practice","0.5","","0.5","0.2","","0.5","","0.5","0.6","0.2","","","","","",""
"196","","bandit","61","408164","0.0-33.0-8.0","79127471","wem/bandit_either","A1QQQ7KKM896QY","either","1","","","","","","","75","K","2","","1","0","0","0.6","","true","0","0.8","","full_practice","0.5","0.2","0.5","","0.6","0.5","0.2","0.5","","","","","","","",""
"177","","bandit","62","409854","0.0-33.0-9.0","79127471","wem/bandit_either","A1QQQ7KKM896QY","either","1","","","","","","","75","K","2","","0","0","1","","0.6","true","0","","0.8","full_practice","0.5","","0.5","0.2","","0.5","","0.5","0.6","0.2","","","","","",""
"157","","bandit","63","411539","0.0-33.0-10.0","79127471","wem/bandit_either","A1QQQ7KKM896QY","either","1","","","","","","","76","L","3","","0","0","1","0.2","","true","0","0.8","","full_practice","0.5","0.2","0.5","","0.6","0.5","0.2","0.5","","","","","","","",""
"164","","bandit","64","413224","0.0-33.0-11.0","79127471","wem/bandit_either","A1QQQ7KKM896QY","either","1","","","","","","","75","K","2","","0","0","1","0.6","","true","0","0.8","","full_practice","0.5","0.2","0.5","","0.6","0.5","0.2","0.5","","","","","","","",""
"27","","bandit","65","414768","0.0-33.0-12.0","79127471","wem/bandit_either","A1QQQ7KKM896QY","either","1","","","","","","","74","J","1","","0","0","1","","0.2","true","0","","0.8","full_practice","0.5","","0.5","0.2","","0.5","","0.5","0.6","0.2","","","","","",""
"706","","bandit","66","416986","0.0-33.0-13.0","79127471","wem/bandit_either","A1QQQ7KKM896QY","either","1","","","","","","","72","H","0","img/none_selected.jpg","1","0","0","0.8","","true","0","0.8","","full_practice","0.5","0.2","0.5","","0.6","0.5","0.2","0.5","","","","","","","",""
"73","","bandit","67","418578","0.0-33.0-14.0","79127471","wem/bandit_either","A1QQQ7KKM896QY","either","1","","","","","","","72","H","0","img/none_selected.jpg","1","0","0","0.8","","true","0","0.8","","full_practice","0.5","0.2","0.5","","0.6","0.5","0.2","0.5","","","","","","","",""
"290","","bandit","68","420385","0.0-33.0-15.0","79127471","wem/bandit_either","A1QQQ7KKM896QY","either","1","","","","","","","72","H","0","img/none_selected.jpg","1","0","0","0.8","","true","0","0.8","","full_practice","0.5","0.2","0.5","","0.6","0.5","0.2","0.5","","","","","","","",""
"254","","bandit","69","422164","0.0-33.0-16.0","79127471","wem/bandit_either","A1QQQ7KKM896QY","either","1","","","","","","","72","H","0","img/none_selected.jpg","0","1","0","","0.8","true","0","","0.8","full_practice","0.5","","0.5","0.2","","0.5","","0.5","0.6","0.2","","","","","",""
"441","","bandit","70","424142","0.0-33.0-17.0","79127471","wem/bandit_either","A1QQQ7KKM896QY","either","1","","","","","","","72","H","0","img/none_selected.jpg","1","0","0","0.8","","true","0","0.8","","full_practice","0.5","0.2","0.5","","0.6","0.5","0.2","0.5","","","","","","","",""
"312","","bandit","71","425971","0.0-33.0-18.0","79127471","wem/bandit_either","A1QQQ7KKM896QY","either","1","","","","","","","72","H","0","img/none_selected.jpg","0","0","1","0.8","","true","0","0.8","","full_practice","0.5","0.2","0.5","","0.6","0.5","0.2","0.5","","","","","","","",""
"98","","bandit","72","427589","0.0-33.0-19.0","79127471","wem/bandit_either","A1QQQ7KKM896QY","either","1","","","","","","","74","J","1","","0","0","1","","0.2","true","0","","0.8","full_practice","0.5","","0.5","0.2","","0.5","","0.5","0.6","0.2","","","","","",""
"2860","","text","73","430473","0.0-34.0","79127471","wem/bandit_either","A1QQQ7KKM896QY","either","1","32","","","","","","","","","","","","","","","","","","","","","","","","","","","","","","","","","","",""
"149609","","text","74","581093","0.0-35.0","79127471","wem/bandit_either","A1QQQ7KKM896QY","either","1","32","","","","","","","","","","","","","","","","","","","","","","","","","","","","","","","","","","",""
"19492","","text","75","600602","0.0-36.0","79127471","wem/bandit_either","A1QQQ7KKM896QY","either","1","32","","","","","","","","","","","","","","","","","","","","","","","","","","","","","","","","","","",""
"7424","","text","76","608035","0.0-37.0","79127471","wem/bandit_either","A1QQQ7KKM896QY","either","1","32","","","","","","","","","","","","","","","","","","","","","","","","","","","","","","","","","","",""
"5028","","text","77","613072","0.0-38.0","79127471","wem/bandit_either","A1QQQ7KKM896QY","either","1","32","","","","","","","","","","","","","","","","","","","","","","","","","","","","","","","","","","",""
"5901","","text","78","618978","0.0-39.0","79127471","wem/bandit_either","A1QQQ7KKM896QY","either","1","32","","","","","","","","","","","","","","","","","","","","","","","","","","","","","","","","","","",""
"1320","","bandit","79","621829","0.0-40.0-0.0","79127471","wem/bandit_either","A1QQQ7KKM896QY","either","1","","","","","","","72","H","0","img/none_selected.jpg","0","0","1","0.0798457429","","","1","0.0798457429","","main_expt","0.8","0.3592836462","0.6","","0.02943109976","0.2","0.4269289603","0.4","","","","","","","",""
"276","","bandit","80","623614","0.0-41.0-0.0","79127471","wem/bandit_either","A1QQQ7KKM896QY","either","1","","","","","","","74","J","1","","0","0","1","","0.3454903542","","2","","0.07621336767","main_expt","0.8","","0.6","0.3454903542","","0.2","","0.4","0.06336112212","0.4660243271","","","","","",""
"98","","bandit","81","625231","0.0-42.0-0.0","79127471","wem/bandit_either","A1QQQ7KKM896QY","either","1","","","","","","","75","K","2","","0","0","1","","0.07335687118","","3","","0.07476295528","main_expt","0.8","","0.6","0.2941512374","","0.2","","0.4","0.07335687118","0.4738503749","","","","","",""
"528","","bandit","82","627281","0.0-43.0-0.0","79127471","wem/bandit_either","A1QQQ7KKM896QY","either","1","","","","","","","76","L","3","","0","0","1","","0.4618500418","","4","","0.06526985361","main_expt","0.8","","0.6","0.2851241965","","0.2","","0.4","0.06156305515","0.4618500418","","","","","",""
"259","","bandit","83","629058","0.0-44.0-0.0","79127471","wem/bandit_either","A1QQQ7KKM896QY","either","1","","","","","","","76","L","3","","0","0","1","","0.4488935273","","5","","0.05487735528","main_expt","0.8","","0.6","0.3172925843","","0.2","","0.4","0.08141194251","0.4488935273","","","","","",""
"264","","bandit","84","630841","0.0-45.0-0.0","79127471","wem/bandit_either","A1QQQ7KKM896QY","either","1","","","","","","","76","L","3","","0","0","1","","0.4437832297","","6","","0.04340015571","main_expt","0.8","","0.6","0.3319153021","","0.2","","0.4","0.1104821702","0.4437832297","","","","","",""
"277","","bandit","85","632637","0.0-46.0-0.0","79127471","wem/bandit_either","A1QQQ7KKM896QY","either","1","","","","","","","75","K","2","","0","0","1","0.1191408541","","","7","0.04575060371","","main_expt","0.8","0.3553039772","0.6","","0.1191408541","0.2","0.4310077805","0.4","","","","","","","",""
"357","","bandit","86","634535","0.0-47.0-0.0","79127471","wem/bandit_either","A1QQQ7KKM896QY","either","1","","","","","","","74","J","1","","0","0","1","0.3868093767","","","8","0.06112087539","","main_expt","0.8","0.3868093767","0.6","","0.1517570037","0.2","0.4480386191","0.4","","","","","","","",""
"273","","bandit","87","636340","0.0-48.0-0.0","79127471","wem/bandit_either","A1QQQ7KKM896QY","either","1","","","","","","","72","H","0","img/none_selected.jpg","0","0","1","0.07854191076","","","9","0.07854191076","","main_expt","0.8","0.3754406694","0.6","","0.1738087075","0.2","0.4460224538","0.4","","","","","","","",""
"292","","bandit","88","638147","0.0-49.0-0.0","79127471","wem/bandit_either","A1QQQ7KKM896QY","either","1","","","","","","","72","H","0","img/none_selected.jpg","0","0","1","","0.06865483858","","10","","0.06865483858","main_expt","0.8","","0.6","0.3537433427","","0.2","","0.4","0.2033535465","0.3954493452","","","","","",""
"323","","bandit","89","639992","0.0-50.0-0.0","79127471","wem/bandit_either","A1QQQ7KKM896QY","either","1","","","","","","","74","J","1","","0","1","0","","0.3793358735","","11","","0.05083805298","main_expt","0.8","","0.6","0.3793358735","","0.2","","0.4","0.1751631116","0.4064238371","","","","","",""
"225","","bandit","90","641742","0.0-51.0-0.0","79127471","wem/bandit_either","A1QQQ7KKM896QY","either","1","","","","","","","74","J","1","","0","0","1","","0.3800428212","","12","","0.1038792476","main_expt","0.8","","0.6","0.3800428212","","0.2","","0.4","0.1787487179","0.3800839449","","","","","",""
"366","","bandit","91","643630","0.0-52.0-0.0","79127471","wem/bandit_either","A1QQQ7KKM896QY","either","1","","","","","","","75","K","2","","0","0","1","0.1794712961","","","13","0.1197284353","","main_expt","0.8","0.3647981021","0.6","","0.1794712961","0.2","0.3866628193","0.4","","","","","","","",""
"280","","bandit","92","645444","0.0-53.0-0.0","79127471","wem/bandit_either","A1QQQ7KKM896QY","either","1","","","","","","","76","L","3","","0","0","1","","0.326509825","","14","","0.135681701","main_expt","0.8","","0.6","0.3646471907","","0.2","","0.4","0.2482140722","0.326509825","","","","","",""
"298","","bandit","93","647257","0.0-54.0-0.0","79127471","wem/bandit_either","A1QQQ7KKM896QY","either","1","","","","","","","74","J","1","","0","0","1","0.3549291363","","","15","0.125153919","","main_expt","0.8","0.3549291363","0.6","","0.2859415589","0.2","0.2428529647","0.4","","","","","","","",""
"39","","bandit","94","648814","0.0-55.0-0.0","79127471","wem/bandit_either","A1QQQ7KKM896QY","either","1","","","","","","","74","J","1","","0","0","1","","0.3727350689","","16","","0.1096891688","main_expt","0.8","","0.6","0.3727350689","","0.2","","0.4","0.26587149","0.2332962783","","","","","",""
"190","","bandit","95","650527","0.0-56.0-0.0","79127471","wem/bandit_either","A1QQQ7KKM896QY","either","1","","","","","","","76","L","3","","0","1","0","","0.2271032234","","17","","0.1051581447","main_expt","0.8","","0.6","0.3112083829","","0.2","","0.4","0.2776265896","0.2271032234","","","","","",""
"254","","bandit","96","652293","0.0-57.0-0.0","79127471","wem/bandit_either","A1QQQ7KKM896QY","either","1","","","","","","","76","L","3","","0","0","1","","0.1701710303","","18","","0.1437943492","main_expt","0.8","","0.6","0.2403081055","","0.2","","0.4","0.3223387563","0.1701710303","","","","","",""
"226","","bandit","97","654031","0.0-58.0-0.0","79127471","wem/bandit_either","A1QQQ7KKM896QY","either","1","","","","","","","76","L","3","","0","0","1","","0.2070198111","","19","","0.1405615485","main_expt","0.8","","0.6","0.2377482675","","0.2","","0.4","0.3192918255","0.2070198111","","","","","",""
"50","","bandit","98","655603","0.0-59.0-0.0","79127471","wem/bandit_either","A1QQQ7KKM896QY","either","1","","","","","","","75","K","2","","0","0","1","","0.2739159796","","20","","0.1063334751","main_expt","0.8","","0.6","0.2607530295","","0.2","","0.4","0.2739159796","0.2412547966","","","","","",""
"246","","bandit","99","657371","0.0-60.0-0.0","79127471","wem/bandit_either","A1QQQ7KKM896QY","either","1","","","","","","","75","K","2","","0","0","1","","0.2454385858","","21","","0.07848250716","main_expt","0.8","","0.6","0.2919400674","","0.2","","0.4","0.2454385858","0.2184758186","","","","","",""
"175","","bandit","100","659067","0.0-61.0-0.0","79127471","wem/bandit_either","A1QQQ7KKM896QY","either","1","","","","","","","74","J","1","","0","0","1","0.2995681058","","","22","0.1005082742","","main_expt","0.8","0.2995681058","0.6","","0.2340842041","0.2","0.1849325376","0.4","","","","","","","",""
"72","","bandit","101","660651","0.0-62.0-0.0","79127471","wem/bandit_either","A1QQQ7KKM896QY","either","1","","","","","","","72","H","0","img/none_selected.jpg","0","0","1","0.0792694407","","","23","0.0792694407","","main_expt","0.8","0.292554742","0.6","","0.1840173947","0.2","0.1521197653","0.4","","","","","","","",""
"252","","bandit","102","662447","0.0-63.0-0.0","79127471","wem/bandit_either","A1QQQ7KKM896QY","either","1","","","","","","","72","H","0","img/none_selected.jpg","0","0","1","0.07358699385","","","24","0.07358699385","","main_expt","0.8","0.3616894364","0.6","","0.1745529383","0.2","0.1759403195","0.4","","","","","","","",""
"301","","bandit","103","664258","0.0-64.0-0.0","79127471","wem/bandit_either","A1QQQ7KKM896QY","either","1","","","","","","","74","J","1","","0","0","1","","0.3575757263","","25","","0.142208116","main_expt","0.8","","0.6","0.3575757263","","0.2","","0.4","0.1756582033","0.09479311865","","","","","",""
"243","","bandit","104","666022","0.0-65.0-0.0","79127471","wem/bandit_either","A1QQQ7KKM896QY","either","1","","","","","","","75","K","2","","0","0","1","","0.2086365416","","26","","0.1245113583","main_expt","0.8","","0.6","0.3635346368","","0.2","","0.4","0.2086365416","0.08156123497","","","","","",""
"89","","bandit","105","667636","0.0-66.0-0.0","79127471","wem/bandit_either","A1QQQ7KKM896QY","either","1","","","","","","","76","L","3","","0","0","1","0.1102307873","","","27","0.118364605","","main_expt","0.8","0.4109801844","0.6","","0.2139763749","0.2","0.1102307873","0.4","","","","","","","",""
"61","","bandit","106","669222","0.0-67.0-0.0","79127471","wem/bandit_either","A1QQQ7KKM896QY","either","1","","","","","","","76","L","3","","1","0","0","0.08274430796","","","28","0.1105930361","","main_expt","0.8","0.3772962545","0.6","","0.1613483267","0.2","0.08274430796","0.4","","","","","","","",""
"376","","bandit","107","671123","0.0-68.0-0.0","79127471","wem/bandit_either","A1QQQ7KKM896QY","either","1","","","","","","","76","L","3","","0","0","1","","0.1086911099","","29","","0.1118713044","main_expt","0.8","","0.6","0.3875745016","","0.2","","0.4","0.1712488152","0.1086911099","","","","","",""
"130","","bandit","108","672789","0.0-69.0-0.0","79127471","wem/bandit_either","A1QQQ7KKM896QY","either","1","","","","","","","76","L","3","","0","0","1","","0.1116575632","","30","","0.1914750456","main_expt","0.8","","0.6","0.3780019893","","0.2","","0.4","0.1675524316","0.1116575632","","","","","",""
"22","","bandit","109","674328","0.0-70.0-0.0","79127471","wem/bandit_either","A1QQQ7KKM896QY","either","1","","","","","","","75","K","2","","0","0","1","","0.140325158","","31","","0.2367730164","main_expt","0.8","","0.6","0.416860241","","0.2","","0.4","0.140325158","0.07828091442","","","","","",""
"259","","bandit","110","676111","0.0-71.0-0.0","79127471","wem/bandit_either","A1QQQ7KKM896QY","either","1","","","","","","","75","K","2","","0","0","1","","0.1553940025","","32","","0.2109574779","main_expt","0.8","","0.6","0.4242573056","","0.2","","0.4","0.1553940025","0.07550395781","","","","","",""
"260","","bandit","111","677887","0.0-72.0-0.0","79127471","wem/bandit_either","A1QQQ7KKM896QY","either","1","","","","","","","74","J","1","","1","0","0","0.4185546122","","","33","0.2005542758","","main_expt","0.8","0.4185546122","0.6","","0.1925614924","0.2","0.1445529326","0.4","","","","","","","",""
"42","","bandit","112","679441","0.0-73.0-0.0","79127471","wem/bandit_either","A1QQQ7KKM896QY","either","1","","","","","","","74","J","1","","0","0","1","","0.4268308419","","34","","0.180377021","main_expt","0.8","","0.6","0.4268308419","","0.2","","0.4","0.2150530123","0.1091775744","","","","","",""
"299","","bandit","113","681251","0.0-74.0-0.0","79127471","wem/bandit_either","A1QQQ7KKM896QY","either","1","","","","","","","74","J","1","","1","0","0","0.4265642185","","","35","0.2111187229","","main_expt","0.8","0.4265642185","0.6","","0.2688968874","0.2","0.1297995116","0.4","","","","","","","",""
"225","","bandit","114","682987","0.0-75.0-0.0","79127471","wem/bandit_either","A1QQQ7KKM896QY","either","1","","","","","","","74","J","1","","0","0","1","0.4066287969","","","36","0.2119332756","","main_expt","0.8","0.4066287969","0.6","","0.2977459964","0.2","0.09468550628","0.4","","","","","","","",""
"271","","bandit","115","684781","0.0-76.0-0.0","79127471","wem/bandit_either","A1QQQ7KKM896QY","either","1","","","","","","","74","J","1","","1","0","0","0.4611471687","","","37","0.2256131965","","main_expt","0.8","0.4611471687","0.6","","0.2684429955","0.2","0.09396978408","0.4","","","","","","","",""
"255","","bandit","116","686547","0.0-77.0-0.0","79127471","wem/bandit_either","A1QQQ7KKM896QY","either","1","","","","","","","74","J","1","","0","0","1","0.4482708269","","","38","0.1975147253","","main_expt","0.8","0.4482708269","0.6","","0.2490186117","0.2","0.1062257399","0.4","","","","","","","",""
"114","","bandit","117","688171","0.0-78.0-0.0","79127471","wem/bandit_either","A1QQQ7KKM896QY","either","1","","","","","","","74","J","1","","1","0","0","0.4402774387","","","39","0.1595648847","","main_expt","0.8","0.4402774387","0.6","","0.2548033483","0.2","0.09676453159","0.4","","","","","","","",""
"283","","bandit","118","689977","0.0-79.0-0.0","79127471","wem/bandit_either","A1QQQ7KKM896QY","either","1","","","","","","","74","J","1","","0","1","0","","0.4385128538","","40","","0.1626610004","main_expt","0.8","","0.6","0.4385128538","","0.2","","0.4","0.2688720753","0.08197179495","","","","","",""
"195","","bandit","119","691682","0.0-80.0-0.0","79127471","wem/bandit_either","A1QQQ7KKM896QY","either","1","","","","","","","74","J","1","","0","1","0","","0.4380640779","","41","","0.1982402655","main_expt","0.8","","0.6","0.4380640779","","0.2","","0.4","0.297778532","0.14416382","","","","","",""
"282","","bandit","120","693475","0.0-81.0-0.0","79127471","wem/bandit_either","A1QQQ7KKM896QY","either","1","","","","","","","74","J","1","","1","0","0","0.4265224768","","","42","0.1863610343","","main_expt","0.8","0.4265224768","0.6","","0.2449207522","0.2","0.1070927036","0.4","","","","","","","",""
"296","","bandit","121","695294","0.0-82.0-0.0","79127471","wem/bandit_either","A1QQQ7KKM896QY","either","1","","","","","","","74","J","1","","0","0","1","","0.435880106","","43","","0.2418389683","main_expt","0.8","","0.6","0.435880106","","0.2","","0.4","0.2457567503","0.1214526226","","","","","",""
"173","","bandit","122","696989","0.0-83.0-0.0","79127471","wem/bandit_either","A1QQQ7KKM896QY","either","1","","","","","","","74","J","1","","1","0","0","0.4450576882","","","44","0.1943491227","","main_expt","0.8","0.4450576882","0.6","","0.2432732657","0.2","0.1450738833","0.4","","","","","","","",""
"262","","bandit","123","698764","0.0-84.0-0.0","79127471","wem/bandit_either","A1QQQ7KKM896QY","either","1","","","","","","","74","J","1","","0","1","0","","0.4382030275","","45","","0.1543250971","main_expt","0.8","","0.6","0.4382030275","","0.2","","0.4","0.2656772236","0.09632230927","","","","","",""
"9","","bandit","124","700291","0.0-85.0-0.0","79127471","wem/bandit_either","A1QQQ7KKM896QY","either","1","","","","","","","74","J","1","","0","0","1","","0.4412369426","","46","","0.09719433791","main_expt","0.8","","0.6","0.4412369426","","0.2","","0.4","0.2432112423","0.103211431","","","","","",""
"274","","bandit","125","702096","0.0-86.0-0.0","79127471","wem/bandit_either","A1QQQ7KKM896QY","either","1","","","","","","","74","J","1","","0","1","0","","0.4588863431","","47","","0.1228880329","main_expt","0.8","","0.6","0.4588863431","","0.2","","0.4","0.2992745976","0.09916324924","","","","","",""
"253","","bandit","126","703871","0.0-87.0-0.0","79127471","wem/bandit_either","A1QQQ7KKM896QY","either","1","","","","","","","74","J","1","","0","1","0","","0.4408788818","","48","","0.1068532567","main_expt","0.8","","0.6","0.4408788818","","0.2","","0.4","0.2594611615","0.1090242341","","","","","",""
"763","","bandit","127","706147","0.0-88.0-0.0","79127471","wem/bandit_either","A1QQQ7KKM896QY","either","1","","","","","","","74","J","1","","0","1","0","","0.4232064109","","49","","0.1044048509","main_expt","0.8","","0.6","0.4232064109","","0.2","","0.4","0.2767916858","0.1265186769","","","","","",""
"1671","","bandit","128","709341","0.0-89.0-0.0","79127471","wem/bandit_either","A1QQQ7KKM896QY","either","1","","","","","","","74","J","1","","0","0","1","0.4210883962","","","50","0.1072026782","","main_expt","0.8","0.4210883962","0.6","","0.2762534014","0.2","0.1397440907","0.4","","","","","","","",""
"62","","bandit","129","710935","0.0-90.0-0.0","79127471","wem/bandit_either","A1QQQ7KKM896QY","either","1","","","","","","","74","J","1","","1","0","0","0.4225635581","","","51","0.1287882573","","main_expt","0.8","0.4225635581","0.6","","0.3379376541","0.2","0.153600331","0.4","","","","","","","",""
"71","","bandit","130","712535","0.0-91.0-0.0","79127471","wem/bandit_either","A1QQQ7KKM896QY","either","1","","","","","","","74","J","1","","0","0","1","","0.4146237098","","52","","0.1298059469","main_expt","0.8","","0.6","0.4146237098","","0.2","","0.4","0.3395267946","0.1718407591","","","","","",""
"139","","bandit","131","714196","0.0-92.0-0.0","79127471","wem/bandit_either","A1QQQ7KKM896QY","either","1","","","","","","","74","J","1","","0","0","1","","0.3763623321","","53","","0.07423060895","main_expt","0.8","","0.6","0.3763623321","","0.2","","0.4","0.29674647","0.1945727614","","","","","",""
"162","","bandit","132","715885","0.0-93.0-0.0","79127471","wem/bandit_either","A1QQQ7KKM896QY","either","1","","","","","","","74","J","1","","0","0","1","0.3289081181","","","54","0.08562383645","","main_expt","0.8","0.3289081181","0.6","","0.3372955831","0.2","0.2450542523","0.4","","","","","","","",""
"218","","bandit","133","717620","0.0-94.0-0.0","79127471","wem/bandit_either","A1QQQ7KKM896QY","either","1","","","","","","","74","J","1","","0","0","1","","0.3025984711","","55","","0.0757818623","main_expt","0.8","","0.6","0.3025984711","","0.2","","0.4","0.3506099842","0.2547241938","","","","","",""
"418","","bandit","134","719564","0.0-95.0-0.0","79127471","wem/bandit_either","A1QQQ7KKM896QY","either","1","","","","","","","72","H","0","img/none_selected.jpg","0","0","1","0.09897923035","","","56","0.09897923035","","main_expt","0.8","0.2921333137","0.6","","0.3418029788","0.2","0.2595112895","0.4","","","","","","","",""
"161","","bandit","135","721262","0.0-96.0-0.0","79127471","wem/bandit_either","A1QQQ7KKM896QY","either","1","","","","","","","72","H","0","img/none_selected.jpg","0","0","1","0.1160875525","","","57","0.1160875525","","main_expt","0.8","0.3317177772","0.6","","0.3162475816","0.2","0.2610276213","0.4","","","","","","","",""
"236","","bandit","136","723042","0.0-97.0-0.0","79127471","wem/bandit_either","A1QQQ7KKM896QY","either","1","","","","","","","75","K","2","","0","0","1","","0.3269881105","","58","","0.1134641846","main_expt","0.8","","0.6","0.3240244649","","0.2","","0.4","0.3269881105","0.2354201416","","","","","",""
"72","","bandit","137","724633","0.0-98.0-0.0","79127471","wem/bandit_either","A1QQQ7KKM896QY","either","1","","","","","","","75","K","2","","0","0","1","","0.2901324944","","59","","0.1177083384","main_expt","0.8","","0.6","0.2988076671","","0.2","","0.4","0.2901324944","0.2346370837","","","","","",""
"155","","bandit","138","726318","0.0-99.0-0.0","79127471","wem/bandit_either","A1QQQ7KKM896QY","either","1","","","","","","","76","L","3","","0","0","1","","0.2315637733","","60","","0.1125723432","main_expt","0.8","","0.6","0.3096792726","","0.2","","0.4","0.289588464","0.2315637733","","","","","",""
"154","","bandit","139","728002","0.0-100.0-0.0","79127471","wem/bandit_either","A1QQQ7KKM896QY","either","1","","","","","","","76","L","3","","0","0","1","","0.2599537756","","61","","0.09911093426","main_expt","0.8","","0.6","0.2821336973","","0.2","","0.4","0.2782845563","0.2599537756","","","","","",""
"259","","bandit","140","729785","0.0-101.0-0.0","79127471","wem/bandit_either","A1QQQ7KKM896QY","either","1","","","","","","","76","L","3","","0","0","1","","0.2594941563","","62","","0.09440438105","main_expt","0.8","","0.6","0.2414244345","","0.2","","0.4","0.3165490401","0.2594941563","","","","","",""
"85","","bandit","141","731423","0.0-102.0-0.0","79127471","wem/bandit_either","A1QQQ7KKM896QY","either","1","","","","","","","75","K","2","","0","1","0","","0.3034564924","","63","","0.1015409351","main_expt","0.8","","0.6","0.213639373","","0.2","","0.4","0.3034564924","0.2660839385","","","","","",""
"106","","bandit","142","733066","0.0-103.0-0.0","79127471","wem/bandit_either","A1QQQ7KKM896QY","either","1","","","","","","","75","K","2","","0","0","1","","0.2506654962","","64","","0.07049798599","main_expt","0.8","","0.6","0.1876308072","","0.2","","0.4","0.2506654962","0.2426585031","","","","","",""
"252","","bandit","143","734835","0.0-104.0-0.0","79127471","wem/bandit_either","A1QQQ7KKM896QY","either","1","","","","","","","75","K","2","","0","0","1","","0.253414466","","65","","0.05735603507","main_expt","0.8","","0.6","0.1841803182","","0.2","","0.4","0.253414466","0.2581047566","","","","","",""
"260","","bandit","144","736616","0.0-105.0-0.0","79127471","wem/bandit_either","A1QQQ7KKM896QY","either","1","","","","","","","75","K","2","","0","0","1","","0.2836500186","","66","","0.0621258055","main_expt","0.8","","0.6","0.187417598","","0.2","","0.4","0.2836500186","0.2872127433","","","","","",""
"87","","bandit","145","738233","0.0-106.0-0.0","79127471","wem/bandit_either","A1QQQ7KKM896QY","either","1","","","","","","","75","K","2","","0","0","1","","0.3217852231","","67","","0.06966106928","main_expt","0.8","","0.6","0.1395950637","","0.2","","0.4","0.3217852231","0.3232337643","","","","","",""
"1","","bandit","146","739751","0.0-107.0-0.0","79127471","wem/bandit_either","A1QQQ7KKM896QY","either","1","","","","","","","74","J","1","","0","0","1","","0.1363519197","","68","","0.09965709916","main_expt","0.8","","0.6","0.1363519197","","0.2","","0.4","0.3574581916","0.3376006622","","","","","",""
"0","","bandit","147","741264","0.0-108.0-0.0","79127471","wem/bandit_either","A1QQQ7KKM896QY","either","1","","","","","","","72","H","0","img/none_selected.jpg","0","0","1","0.1428217854","","","69","0.1428217854","","main_expt","0.8","0.1117144852","0.6","","0.3884563005","0.2","0.2917609244","0.4","","","","","","","",""
"239","","bandit","148","743028","0.0-109.0-0.0","79127471","wem/bandit_either","A1QQQ7KKM896QY","either","1","","","","","","","72","H","0","img/none_selected.jpg","0","0","1","0.1866845388","","","70","0.1866845388","","main_expt","0.8","0.09667493602","0.6","","0.3920047773","0.2","0.2218665627","0.4","","","","","","","",""
"164","","bandit","149","744718","0.0-110.0-0.0","79127471","wem/bandit_either","A1QQQ7KKM896QY","either","1","","","","","","","72","H","0","img/none_selected.jpg","0","0","1","0.1702545286","","","71","0.1702545286","","main_expt","0.8","0.09186933139","0.6","","0.4066376731","0.2","0.2409383839","0.4","","","","","","","",""
"322","","bandit","150","746550","0.0-111.0-0.0","79127471","wem/bandit_either","A1QQQ7KKM896QY","either","1","","","","","","","72","H","0","img/none_selected.jpg","0","0","1","0.1836279043","","","72","0.1836279043","","main_expt","0.8","0.09472009463","0.6","","0.3443789926","0.2","0.1920783453","0.4","","","","","","","",""
"118","","bandit","151","748184","0.0-112.0-0.0","79127471","wem/bandit_either","A1QQQ7KKM896QY","either","1","","","","","","","74","J","1","","0","1","0","","0.1167805336","","73","","0.1644348242","main_expt","0.8","","0.6","0.1167805336","","0.2","","0.4","0.3227553012","0.1905254877","","","","","",""
"162","","bandit","152","749875","0.0-113.0-0.0","79127471","wem/bandit_either","A1QQQ7KKM896QY","either","1","","","","","","","74","J","1","","0","0","1","0.1465151254","","","74","0.1833421201","","main_expt","0.8","0.1465151254","0.6","","0.3336652139","0.2","0.184198213","0.4","","","","","","","",""
"121","","bandit","153","751530","0.0-114.0-0.0","79127471","wem/bandit_either","A1QQQ7KKM896QY","either","1","","","","","","","74","J","1","","0","0","1","","0.123285719","","75","","0.1519653276","main_expt","0.8","","0.6","0.123285719","","0.2","","0.4","0.2890150868","0.1881920243","","","","","",""
"122","","bandit","154","753185","0.0-115.0-0.0","79127471","wem/bandit_either","A1QQQ7KKM896QY","either","1","","","","","","","74","J","1","","0","0","1","0.1392606081","","","76","0.1506622639","","main_expt","0.8","0.1392606081","0.6","","0.2673490463","0.2","0.1988930589","0.4","","","","","","","",""
"239","","bandit","155","754953","0.0-116.0-0.0","79127471","wem/bandit_either","A1QQQ7KKM896QY","either","1","","","","","","","74","J","1","","0","0","1","0.099337717","","","77","0.1860897766","","main_expt","0.8","0.099337717","0.6","","0.2858541315","0.2","0.2255968657","0.4","","","","","","","",""
"235","","bandit","156","756710","0.0-117.0-0.0","79127471","wem/bandit_either","A1QQQ7KKM896QY","either","1","","","","","","","75","K","2","","0","0","1","","0.2639968829","","78","","0.1618556875","main_expt","0.8","","0.6","0.09666605973","","0.2","","0.4","0.2639968829","0.1917014014","","","","","",""
"209","","bandit","157","758478","0.0-118.0-0.0","79127471","wem/bandit_either","A1QQQ7KKM896QY","either","1","","","","","","","75","K","2","","0","0","1","","0.2304888896","","79","","0.1976853889","main_expt","0.8","","0.6","0.09639353985","","0.2","","0.4","0.2304888896","0.2092129429","","","","","",""
"134","","bandit","158","760127","0.0-119.0-0.0","79127471","wem/bandit_either","A1QQQ7KKM896QY","either","1","","","","","","","75","K","2","","0","0","1","0.1991809665","","","80","0.2198838985","","main_expt","0.8","0.09566996791","0.6","","0.1991809665","0.2","0.1974306726","0.4","","","","","","","",""
"310","","bandit","159","761973","0.0-120.0-0.0","79127471","wem/bandit_either","A1QQQ7KKM896QY","either","1","","","","","","","76","L","3","","0","0","1","","0.1414754506","","81","","0.2167005254","main_expt","0.8","","0.6","0.07958501382","","0.2","","0.4","0.1627434897","0.1414754506","","","","","",""
"227","","bandit","160","763714","0.0-121.0-0.0","79127471","wem/bandit_either","A1QQQ7KKM896QY","either","1","","","","","","","76","L","3","","0","0","1","","0.1422587364","","82","","0.2527486409","main_expt","0.8","","0.6","0.08833774835","","0.2","","0.4","0.1624637972","0.1422587364","","","","","",""
"244","","bandit","161","765477","0.0-122.0-0.0","79127471","wem/bandit_either","A1QQQ7KKM896QY","either","1","","","","","","","76","L","3","","0","0","1","","0.1079415531","","83","","0.2569721607","main_expt","0.8","","0.6","0.09109006352","","0.2","","0.4","0.1900332","0.1079415531","","","","","",""
"223","","bandit","162","767218","0.0-123.0-0.0","79127471","wem/bandit_either","A1QQQ7KKM896QY","either","1","","","","","","","76","L","3","","0","0","1","0.07696487024","","","84","0.2535394321","","main_expt","0.8","0.05321730921","0.6","","0.1705646391","0.2","0.07696487024","0.4","","","","","","","",""
"79","","bandit","163","768833","0.0-124.0-0.0","79127471","wem/bandit_either","A1QQQ7KKM896QY","either","1","","","","","","","76","L","3","","0","0","1","","0.08313016423","","85","","0.2255799186","main_expt","0.8","","0.6","0.03321009489","","0.2","","0.4","0.2053302659","0.08313016423","","","","","",""
"202","","bandit","164","770557","0.0-125.0-0.0","79127471","wem/bandit_either","A1QQQ7KKM896QY","either","1","","","","","","","75","K","2","","0","0","1","","0.2128685413","","86","","0.2197080914","main_expt","0.8","","0.6","0.04864990798","","0.2","","0.4","0.2128685413","0.102083396","","","","","",""
"229","","bandit","165","772309","0.0-126.0-0.0","79127471","wem/bandit_either","A1QQQ7KKM896QY","either","1","","","","","","","75","K","2","","0","0","1","","0.213778815","","87","","0.2230338057","main_expt","0.8","","0.6","0.07919268752","","0.2","","0.4","0.213778815","0.09067070718","","","","","",""
"235","","bandit","166","774063","0.0-127.0-0.0","79127471","wem/bandit_either","A1QQQ7KKM896QY","either","1","","","","","","","74","J","1","","0","0","1","0.05835116993","","","88","0.2484269739","","main_expt","0.8","0.05835116993","0.6","","0.2102340809","0.2","0.1421970704","0.4","","","","","","","",""
"25","","bandit","167","775616","0.0-128.0-0.0","79127471","wem/bandit_either","A1QQQ7KKM896QY","either","1","","","","","","","74","J","1","","0","0","1","0.05115519592","","","89","0.2733562597","","main_expt","0.8","0.05115519592","0.6","","0.1809358483","0.2","0.219142046","0.4","","","","","","","",""
"266","","bandit","168","777414","0.0-129.0-0.0","79127471","wem/bandit_either","A1QQQ7KKM896QY","either","1","","","","","","","72","H","0","img/none_selected.jpg","1","0","0","0.2973868449","","","90","0.2973868449","","main_expt","0.8","0.07819273649","0.6","","0.1293356972","0.2","0.2806923657","0.4","","","","","","","",""
"78","","bandit","169","779009","0.0-130.0-0.0","79127471","wem/bandit_either","A1QQQ7KKM896QY","either","1","","","","","","","72","H","0","img/none_selected.jpg","0","0","1","0.3067689268","","","91","0.3067689268","","main_expt","0.8","0.05564661524","0.6","","0.1136224352","0.2","0.2819660137","0.4","","","","","","","",""
"42","","bandit","170","780580","0.0-131.0-0.0","79127471","wem/bandit_either","A1QQQ7KKM896QY","either","1","","","","","","","72","H","0","img/none_selected.jpg","0","0","1","0.2719776188","","","92","0.2719776188","","main_expt","0.8","0.05914103421","0.6","","0.07539152519","0.2","0.3370305887","0.4","","","","","","","",""
"169","","bandit","171","782269","0.0-132.0-0.0","79127471","wem/bandit_either","A1QQQ7KKM896QY","either","1","","","","","","","72","H","0","img/none_selected.jpg","0","0","1","","0.3081791896","","93","","0.3081791896","main_expt","0.8","","0.6","0.03944324463","","0.2","","0.4","0.08243558305","0.3722719914","","","","","",""
"61","","bandit","172","783862","0.0-133.0-0.0","79127471","wem/bandit_either","A1QQQ7KKM896QY","either","1","","","","","","","72","H","0","img/none_selected.jpg","0","0","1","0.356667856","","","94","0.356667856","","main_expt","0.8","0.05023017475","0.6","","0.09807673793","0.2","0.3840030774","0.4","","","","","","","",""
"0","","bandit","173","785381","0.0-134.0-0.0","79127471","wem/bandit_either","A1QQQ7KKM896QY","either","1","","","","","","","72","H","0","img/none_selected.jpg","1","0","0","0.3300765204","","","95","0.3300765204","","main_expt","0.8","0.07311956304","0.6","","0.09746204728","0.2","0.4050844552","0.4","","","","","","","",""
"37","","bandit","174","786945","0.0-135.0-0.0","79127471","wem/bandit_either","A1QQQ7KKM896QY","either","1","","","","","","","72","H","0","img/none_selected.jpg","0","1","0","","0.3642735905","","96","","0.3642735905","main_expt","0.8","","0.6","0.09573717159","","0.2","","0.4","0.08559835745","0.4081076376","","","","","",""
"155","","bandit","175","788615","0.0-136.0-0.0","79127471","wem/bandit_either","A1QQQ7KKM896QY","either","1","","","","","","","72","H","0","img/none_selected.jpg","0","0","1","0.3885664579","","","97","0.3885664579","","main_expt","0.8","0.1235519285","0.6","","0.0732645996","0.2","0.4142780263","0.4","","","","","","","",""
"121","","bandit","176","790252","0.0-137.0-0.0","79127471","wem/bandit_either","A1QQQ7KKM896QY","either","1","","","","","","","72","H","0","img/none_selected.jpg","1","0","0","0.4162912028","","","98","0.4162912028","","main_expt","0.8","0.1274282425","0.6","","0.05343209845","0.2","0.4131193208","0.4","","","","","","","",""
"250","","bandit","177","792020","0.0-138.0-0.0","79127471","wem/bandit_either","A1QQQ7KKM896QY","either","1","","","","","","","72","H","0","img/none_selected.jpg","0","0","1","0.4074153657","","","99","0.4074153657","","main_expt","0.8","0.1457321849","0.6","","0.05144299931","0.2","0.428944851","0.4","","","","","","","",""
"125","","bandit","178","793674","0.0-139.0-0.0","79127471","wem/bandit_either","A1QQQ7KKM896QY","either","1","","","","","","","72","H","0","img/none_selected.jpg","1","0","0","0.3349137267","","","100","0.3349137267","","main_expt","0.8","0.1492128348","0.6","","0.03934302155","0.2","0.4279797645","0.4","","","","","","","",""
"995","","bandit","179","796197","0.0-140.0-0.0","79127471","wem/bandit_either","A1QQQ7KKM896QY","either","1","","","","","","","72","H","0","img/none_selected.jpg","1","0","0","0.2732947861","","","101","0.2732947861","","main_expt","0.8","0.125019219","0.6","","0.05783306622","0.2","0.4189249443","0.4","","","","","","","",""
"1843","","bandit","180","799557","0.0-141.0-0.0","79127471","wem/bandit_either","A1QQQ7KKM896QY","either","1","","","","","","","72","H","0","img/none_selected.jpg","1","0","0","0.2584454073","","","102","0.2584454073","","main_expt","0.8","0.1008510245","0.6","","0.06484492547","0.2","0.4279241466","0.4","","","","","","","",""
"333","","bandit","181","801442","0.0-142.0-0.0","79127471","wem/bandit_either","A1QQQ7KKM896QY","either","1","","","","","","","72","H","0","img/none_selected.jpg","0","0","1","0.2143891894","","","103","0.2143891894","","main_expt","0.8","0.1087281004","0.6","","0.0701259157","0.2","0.419390052","0.4","","","","","","","",""
"333","","bandit","182","803295","0.0-143.0-0.0","79127471","wem/bandit_either","A1QQQ7KKM896QY","either","1","","","","","","","72","H","0","img/none_selected.jpg","0","0","1","0.1354346047","","","104","0.1354346047","","main_expt","0.8","0.143855427","0.6","","0.06922647753","0.2","0.3761202226","0.4","","","","","","","",""
"551","","bandit","183","805366","0.0-144.0-0.0","79127471","wem/bandit_either","A1QQQ7KKM896QY","either","1","","","","","","","72","H","0","img/none_selected.jpg","0","0","1","","0.1615963473","","105","","0.1615963473","main_expt","0.8","","0.6","0.1606853024","","0.2","","0.4","0.07802312096","0.4229881466","","","","","",""
"152","","bandit","184","807065","0.0-145.0-0.0","79127471","wem/bandit_either","A1QQQ7KKM896QY","either","1","","","","","","","72","H","0","img/none_selected.jpg","0","0","1","0.1738621023","","","106","0.1738621023","","main_expt","0.8","0.1612939645","0.6","","0.08930313369","0.2","0.4110558218","0.4","","","","","","","",""
"585","","bandit","185","809191","0.0-146.0-0.0","79127471","wem/bandit_either","A1QQQ7KKM896QY","either","1","","","","","","","72","H","0","img/none_selected.jpg","0","0","1","0.1799671425","","","107","0.1799671425","","main_expt","0.8","0.1778053335","0.6","","0.1397733654","0.2","0.4176599015","0.4","","","","","","","",""
"302","","bandit","186","811018","0.0-147.0-0.0","79127471","wem/bandit_either","A1QQQ7KKM896QY","either","1","","","","","","","72","H","0","img/none_selected.jpg","1","0","0","0.1844274074","","","108","0.1844274074","","main_expt","0.8","0.1826465361","0.6","","0.1505899732","0.2","0.4210396584","0.4","","","","","","","",""
"1822","","bandit","187","814370","0.0-148.0-0.0","79127471","wem/bandit_either","A1QQQ7KKM896QY","either","1","","","","","","","72","H","0","img/none_selected.jpg","0","0","1","0.1702708828","","","109","0.1702708828","","main_expt","0.8","0.1737022726","0.6","","0.1162436109","0.2","0.4328015469","0.4","","","","","","","",""
"270","","bandit","188","816170","0.0-149.0-0.0","79127471","wem/bandit_either","A1QQQ7KKM896QY","either","1","","","","","","","72","H","0","img/none_selected.jpg","0","0","1","0.1964407335","","","110","0.1964407335","","main_expt","0.8","0.1658344406","0.6","","0.08267976014","0.2","0.4495585744","0.4","","","","","","","",""
"749","","bandit","189","818441","0.0-150.0-0.0","79127471","wem/bandit_either","A1QQQ7KKM896QY","either","1","","","","","","","72","H","0","img/none_selected.jpg","0","0","1","","0.1777579569","","111","","0.1777579569","main_expt","0.8","","0.6","0.240619448","","0.2","","0.4","0.09389793805","0.4237631325","","","","","",""
"50","","bandit","190","820027","0.0-151.0-0.0","79127471","wem/bandit_either","A1QQQ7KKM896QY","either","1","","","","","","","72","H","0","img/none_selected.jpg","0","0","1","0.1395994444","","","112","0.1395994444","","main_expt","0.8","0.1927397719","0.6","","0.07903418564","0.2","0.4521571561","0.4","","","","","","","",""
"254","","bandit","191","821809","0.0-152.0-0.0","79127471","wem/bandit_either","A1QQQ7KKM896QY","either","1","","","","","","","74","J","1","","0","0","1","0.234725565","","","113","0.1205999431","","main_expt","0.8","0.234725565","0.6","","0.05501139052","0.2","0.4350762846","0.4","","","","","","","",""
"206","","bandit","192","823538","0.0-153.0-0.0","79127471","wem/bandit_either","A1QQQ7KKM896QY","either","1","","","","","","","74","J","1","","0","0","1","","0.1950215869","","114","","0.09123355482","main_expt","0.8","","0.6","0.1950215869","","0.2","","0.4","0.07627702456","0.4315824664","","","","","",""
"135","","bandit","193","825203","0.0-154.0-0.0","79127471","wem/bandit_either","A1QQQ7KKM896QY","either","1","","","","","","","74","J","1","","0","0","1","0.2575833325","","","115","0.09554471192","","main_expt","0.8","0.2575833325","0.6","","0.03985247356","0.2","0.4127349624","0.4","","","","","","","",""
"278","","bandit","194","827035","0.0-155.0-0.0","79127471","wem/bandit_either","A1QQQ7KKM896QY","either","1","","","","","","","75","K","2","","0","0","1","","0.0683792979","","116","","0.1942182492","main_expt","0.8","","0.6","0.2296468005","","0.2","","0.4","0.0683792979","0.4468356006","","","","","",""
"64","","bandit","195","828630","0.0-156.0-0.0","79127471","wem/bandit_either","A1QQQ7KKM896QY","either","1","","","","","","","75","K","2","","0","0","1","","0.03956212276","","117","","0.2208250117","main_expt","0.8","","0.6","0.2816483341","","0.2","","0.4","0.03956212276","0.4458703805","","","","","",""
"576","","bandit","196","830724","0.0-157.0-0.0","79127471","wem/bandit_either","A1QQQ7KKM896QY","either","1","","","","","","","75","K","2","","0","0","1","","0.04459229253","","118","","0.1687975443","main_expt","0.8","","0.6","0.2626769985","","0.2","","0.4","0.04459229253","0.4500370674","","","","","",""
"252","","bandit","197","832496","0.0-158.0-0.0","79127471","wem/bandit_either","A1QQQ7KKM896QY","either","1","","","","","","","76","L","3","","0","1","0","","0.4704359259","","119","","0.1546105485","main_expt","0.8","","0.6","0.2418090277","","0.2","","0.4","0.03386957434","0.4704359259","","","","","",""
"740","","bandit","198","834781","0.0-159.0-0.0","79127471","wem/bandit_either","A1QQQ7KKM896QY","either","1","","","","","","","76","L","3","","0","0","1","0.4578798539","","","120","0.143668411","","main_expt","0.8","0.2603236095","0.6","","0.03305427522","0.2","0.4578798539","0.4","","","","","","","",""
"174","","bandit","199","836471","0.0-160.0-0.0","79127471","wem/bandit_either","A1QQQ7KKM896QY","either","1","","","","","","","76","L","3","","0","1","0","","0.4591190262","","121","","0.1098317425","main_expt","0.8","","0.6","0.2381785671","","0.2","","0.4","0.03146098963","0.4591190262","","","","","",""
"1","","bandit","200","837984","0.0-161.0-0.0","79127471","wem/bandit_either","A1QQQ7KKM896QY","either","1","","","","","","","76","L","3","","0","1","0","","0.4643737298","","122","","0.1097832873","main_expt","0.8","","0.6","0.2388462554","","0.2","","0.4","0.02311797033","0.4643737298","","","","","",""
"83","","bandit","201","839584","0.0-162.0-0.0","79127471","wem/bandit_either","A1QQQ7KKM896QY","either","1","","","","","","","76","L","3","","0","1","0","","0.451586091","","123","","0.1145900252","main_expt","0.8","","0.6","0.2079929623","","0.2","","0.4","0.0171261738","0.451586091","","","","","",""
"113","","bandit","202","841209","0.0-163.0-0.0","79127471","wem/bandit_either","A1QQQ7KKM896QY","either","1","","","","","","","76","L","3","","1","0","0","0.4456906556","","","124","0.1137783892","","main_expt","0.8","0.2148400852","0.6","","0.03468299263","0.2","0.4456906556","0.4","","","","","","","",""
"151","","bandit","203","842873","0.0-164.0-0.0","79127471","wem/bandit_either","A1QQQ7KKM896QY","either","1","","","","","","","76","L","3","","0","0","1","","0.4240876494","","125","","0.145605256","main_expt","0.8","","0.6","0.2185056602","","0.2","","0.4","0.02544516396","0.4240876494","","","","","",""
"47","","bandit","204","844489","0.0-165.0-0.0","79127471","wem/bandit_either","A1QQQ7KKM896QY","either","1","","","","","","","76","L","3","","0","0","1","","0.4008501573","","126","","0.1443839055","main_expt","0.8","","0.6","0.2152323899","","0.2","","0.4","0.03059506073","0.4008501573","","","","","",""
"452","","bandit","205","846461","0.0-166.0-0.0","79127471","wem/bandit_either","A1QQQ7KKM896QY","either","1","","","","","","","76","L","3","","0","0","1","","0.4066073101","","127","","0.1434222382","main_expt","0.8","","0.6","0.1699446714","","0.2","","0.4","0.0339638967","0.4066073101","","","","","",""
"309","","bandit","206","848292","0.0-167.0-0.0","79127471","wem/bandit_either","A1QQQ7KKM896QY","either","1","","","","","","","76","L","3","","0","0","1","0.4270302575","","","128","0.1412168693","","main_expt","0.8","0.1299446217","0.6","","0.02632978063","0.2","0.4270302575","0.4","","","","","","","",""
"346","","bandit","207","850176","0.0-168.0-0.0","79127471","wem/bandit_either","A1QQQ7KKM896QY","either","1","","","","","","","76","L","3","","0","0","1","0.4401824822","","","129","0.1086871361","","main_expt","0.8","0.1299487573","0.6","","0.02640977482","0.2","0.4401824822","0.4","","","","","","","",""
"252","","bandit","208","851943","0.0-169.0-0.0","79127471","wem/bandit_either","A1QQQ7KKM896QY","either","1","","","","","","","76","L","3","","0","0","1","","0.4160959849","","130","","0.1672766288","main_expt","0.8","","0.6","0.1172580566","","0.2","","0.4","0.03646961518","0.4160959849","","","","","",""
"277","","bandit","209","853761","0.0-170.0-0.0","79127471","wem/bandit_either","A1QQQ7KKM896QY","either","1","","","","","","","76","L","3","","0","0","1","","0.4374535298","","131","","0.157110596","main_expt","0.8","","0.6","0.1289979545","","0.2","","0.4","0.02171712127","0.4374535298","","","","","",""
"261","","bandit","210","855578","0.0-171.0-0.0","79127471","wem/bandit_either","A1QQQ7KKM896QY","either","1","","","","","","","76","L","3","","0","0","1","0.4382483821","","","132","0.1338697581","","main_expt","0.8","0.1243754988","0.6","","0.01004766493","0.2","0.4382483821","0.4","","","","","","","",""
"26","","bandit","211","857140","0.0-172.0-0.0","79127471","wem/bandit_either","A1QQQ7KKM896QY","either","1","","","","","","","75","K","2","","0","0","1","","0.005153708139","","133","","0.1101669797","main_expt","0.8","","0.6","0.1189203389","","0.2","","0.4","0.005153708139","0.3913946914","","","","","",""
"274","","bandit","212","858955","0.0-173.0-0.0","79127471","wem/bandit_either","A1QQQ7KKM896QY","either","1","","","","","","","75","K","2","","0","0","1","","0.01308543257","","134","","0.060775537","main_expt","0.8","","0.6","0.07075860378","","0.2","","0.4","0.01308543257","0.4280120537","","","","","",""
"187","","bandit","213","860658","0.0-174.0-0.0","79127471","wem/bandit_either","A1QQQ7KKM896QY","either","1","","","","","","","75","K","2","","0","0","1","","0.02634180281","","135","","0.0714416082","main_expt","0.8","","0.6","0.1073185777","","0.2","","0.4","0.02634180281","0.4385213509","","","","","",""
"199","","bandit","214","862441","0.0-175.0-0.0","79127471","wem/bandit_either","A1QQQ7KKM896QY","either","1","","","","","","","75","K","2","","0","0","1","","0.04122629063","","136","","0.1115096907","main_expt","0.8","","0.6","0.1001442491","","0.2","","0.4","0.04122629063","0.4605212521","","","","","",""
"157","","bandit","215","864120","0.0-176.0-0.0","79127471","wem/bandit_either","A1QQQ7KKM896QY","either","1","","","","","","","74","J","1","","0","0","1","","0.1736681681","","137","","0.1307091067","main_expt","0.8","","0.6","0.1736681681","","0.2","","0.4","0.05517648788","0.4729500637","","","","","",""
"14","","bandit","216","865674","0.0-177.0-0.0","79127471","wem/bandit_either","A1QQQ7KKM896QY","either","1","","","","","","","74","J","1","","0","0","1","0.1839908368","","","138","0.1289533412","","main_expt","0.8","0.1839908368","0.6","","0.05929415862","0.2","0.4705425907","0.4","","","","","","","",""
"177","","bandit","217","867385","0.0-178.0-0.0","79127471","wem/bandit_either","A1QQQ7KKM896QY","either","1","","","","","","","74","J","1","","0","0","1","","0.1500833973","","139","","0.1215972271","main_expt","0.8","","0.6","0.1500833973","","0.2","","0.4","0.05470710098","0.465423541","","","","","",""
"288","","bandit","218","869198","0.0-179.0-0.0","79127471","wem/bandit_either","A1QQQ7KKM896QY","either","1","","","","","","","74","J","1","","1","0","0","0.1718879457","","","140","0.1158179575","","main_expt","0.8","0.1718879457","0.6","","0.06062538604","0.2","0.4486857012","0.4","","","","","","","",""
"23","","bandit","219","870737","0.0-180.0-0.0","79127471","wem/bandit_either","A1QQQ7KKM896QY","either","1","","","","","","","74","J","1","","0","0","1","","0.2025036279","","141","","0.08691297649","main_expt","0.8","","0.6","0.2025036279","","0.2","","0.4","0.05819772386","0.4053061298","","","","","",""
"110","","bandit","220","872389","0.0-181.0-0.0","79127471","wem/bandit_either","A1QQQ7KKM896QY","either","1","","","","","","","74","J","1","","0","0","1","0.1872564568","","","142","0.1425267255","","main_expt","0.8","0.1872564568","0.6","","0.05329701838","0.2","0.3989731656","0.4","","","","","","","",""
"158","","bandit","221","874080","0.0-182.0-0.0","79127471","wem/bandit_either","A1QQQ7KKM896QY","either","1","","","","","","","72","H","0","img/none_selected.jpg","0","0","1","0.1425141192","","","143","0.1425141192","","main_expt","0.8","0.1676641842","0.6","","0.06209903385","0.2","0.3783570596","0.4","","","","","","","",""
"82","","bandit","222","875695","0.0-183.0-0.0","79127471","wem/bandit_either","A1QQQ7KKM896QY","either","1","","","","","","","72","H","0","img/none_selected.jpg","0","0","1","","0.1362652721","","144","","0.1362652721","main_expt","0.8","","0.6","0.1502987652","","0.2","","0.4","0.06954729647","0.3485663762","","","","","",""
"276","","bandit","223","877490","0.0-184.0-0.0","79127471","wem/bandit_either","A1QQQ7KKM896QY","either","1","","","","","","","72","H","0","img/none_selected.jpg","0","0","1","0.1335650053","","","145","0.1335650053","","main_expt","0.8","0.1050568962","0.6","","0.062760129","0.2","0.3534190037","0.4","","","","","","","",""
"191","","bandit","224","879202","0.0-185.0-0.0","79127471","wem/bandit_either","A1QQQ7KKM896QY","either","1","","","","","","","72","H","0","img/none_selected.jpg","0","0","1","0.1392461982","","","146","0.1392461982","","main_expt","0.8","0.1266784727","0.6","","0.05014677947","0.2","0.342282706","0.4","","","","","","","",""
"277","","bandit","225","881004","0.0-186.0-0.0","79127471","wem/bandit_either","A1QQQ7KKM896QY","either","1","","","","","","","74","J","1","","0","0","1","0.1121887101","","","147","0.1060810453","","main_expt","0.8","0.1121887101","0.6","","0.04801868921","0.2","0.3497384939","0.4","","","","","","","",""
"256","","bandit","226","882789","0.0-187.0-0.0","79127471","wem/bandit_either","A1QQQ7KKM896QY","either","1","","","","","","","74","J","1","","0","0","1","0.1050077765","","","148","0.1076054289","","main_expt","0.8","0.1050077765","0.6","","0.05298179562","0.2","0.3507348305","0.4","","","","","","","",""
"166","","bandit","227","884495","0.0-188.0-0.0","79127471","wem/bandit_either","A1QQQ7KKM896QY","either","1","","","","","","","75","K","2","","0","0","1","","0.05271587927","","149","","0.09143227578","main_expt","0.8","","0.6","0.08725679698","","0.2","","0.4","0.05271587927","0.306786392","","","","","",""
"14","","bandit","228","886065","0.0-189.0-0.0","79127471","wem/bandit_either","A1QQQ7KKM896QY","either","1","","","","","","","75","K","2","","0","0","1","0.06153260368","","","150","0.08361181256","","main_expt","0.8","0.04813781364","0.6","","0.06153260368","0.2","0.3289077467","0.4","","","","","","","",""
"255","","bandit","229","887855","0.0-190.0-0.0","79127471","wem/bandit_either","A1QQQ7KKM896QY","either","1","","","","","","","76","L","3","","0","1","0","","0.2844912386","","151","","0.1038450747","main_expt","0.8","","0.6","0.04690393958","","0.2","","0.4","0.07716317934","0.2844912386","","","","","",""
"595","","bandit","230","889978","0.0-191.0-0.0","79127471","wem/bandit_either","A1QQQ7KKM896QY","either","1","","","","","","","76","L","3","","1","0","0","0.3221551402","","","152","0.1311897928","","main_expt","0.8","0.05051779207","0.6","","0.08370894892","0.2","0.3221551402","0.4","","","","","","","",""
"256","","bandit","231","891757","0.0-192.0-0.0","79127471","wem/bandit_either","A1QQQ7KKM896QY","either","1","","","","","","","76","L","3","","0","1","0","","0.288581716","","153","","0.1106636196","main_expt","0.8","","0.6","0.0417019452","","0.2","","0.4","0.06235129306","0.288581716","","","","","",""
"273","","bandit","232","893566","0.0-193.0-0.0","79127471","wem/bandit_either","A1QQQ7KKM896QY","either","1","","","","","","","76","L","3","","0","0","1","","0.3674714493","","154","","0.08044616817","main_expt","0.8","","0.6","0.04565059468","","0.2","","0.4","0.08808261531","0.3674714493","","","","","",""
"198","","bandit","233","895317","0.0-194.0-0.0","79127471","wem/bandit_either","A1QQQ7KKM896QY","either","1","","","","","","","76","L","3","","0","0","1","","0.3836765626","","155","","0.09849608375","main_expt","0.8","","0.6","0.0249337719","","0.2","","0.4","0.08415746701","0.3836765626","","","","","",""
"269","","bandit","234","897127","0.0-195.0-0.0","79127471","wem/bandit_either","A1QQQ7KKM896QY","either","1","","","","","","","76","L","3","","1","0","0","0.3499766022","","","156","0.0679626842","","main_expt","0.8","0.0207568711","0.6","","0.1363215429","0.2","0.3499766022","0.4","","","","","","","",""
"185","","bandit","235","898845","0.0-196.0-0.0","79127471","wem/bandit_either","A1QQQ7KKM896QY","either","1","","","","","","","76","L","3","","0","0","1","0.3083455354","","","157","0.06316877849","","main_expt","0.8","0.01044871803","0.6","","0.176329139","0.2","0.3083455354","0.4","","","","","","","",""
"70","","bandit","236","900452","0.0-197.0-0.0","79127471","wem/bandit_either","A1QQQ7KKM896QY","either","1","","","","","","","76","L","3","","1","0","0","0.2780985587","","","158","0.06381796224","","main_expt","0.8","0.008486032171","0.6","","0.2239815039","0.2","0.2780985587","0.4","","","","","","","",""
"276","","bandit","237","902257","0.0-198.0-0.0","79127471","wem/bandit_either","A1QQQ7KKM896QY","either","1","","","","","","","76","L","3","","0","0","1","","0.2721424699","","159","","0.09986374221","main_expt","0.8","","0.6","0.006770001311","","0.2","","0.4","0.1754735631","0.2721424699","","","","","",""
"251","","bandit","238","904025","0.0-199.0-0.0","79127471","wem/bandit_either","A1QQQ7KKM896QY","either","1","","","","","","","76","L","3","","0","0","1","0.3005636977","","","160","0.08334790929","","main_expt","0.8","0.005009972043","0.6","","0.1820859676","0.2","0.3005636977","0.4","","","","","","","",""
"322","","bandit","239","905879","0.0-200.0-0.0","79127471","wem/bandit_either","A1QQQ7KKM896QY","either","1","","","","","","","76","L","3","","0","0","1","","0.2481613967","","161","","0.1094566723","main_expt","0.8","","0.6","0.003825417776","","0.2","","0.4","0.1771527669","0.2481613967","","","","","",""
"237","","bandit","240","907640","0.0-201.0-0.0","79127471","wem/bandit_either","A1QQQ7KKM896QY","either","1","","","","","","","76","L","3","","0","0","1","0.2040880477","","","162","0.1287108975","","main_expt","0.8","0.006458278423","0.6","","0.209245514","0.2","0.2040880477","0.4","","","","","","","",""
"232","","bandit","241","909450","0.0-202.0-0.0","79127471","wem/bandit_either","A1QQQ7KKM896QY","either","1","","","","","","","76","L","3","","0","0","1","","0.256608811","","163","","0.1811808859","main_expt","0.8","","0.6","0.01344146107","","0.2","","0.4","0.1864252411","0.256608811","","","","","",""
"71","","bandit","242","911041","0.0-203.0-0.0","79127471","wem/bandit_either","A1QQQ7KKM896QY","either","1","","","","","","","75","K","2","","0","1","0","","0.1662237337","","164","","0.1374611454","main_expt","0.8","","0.6","0.004940614731","","0.2","","0.4","0.1662237337","0.2798468236","","","","","",""
"75","","bandit","243","912633","0.0-204.0-0.0","79127471","wem/bandit_either","A1QQQ7KKM896QY","either","1","","","","","","","75","K","2","","0","0","1","0.1375661656","","","165","0.1640313333","","main_expt","0.8","0.007349038951","0.6","","0.1375661656","0.2","0.2689568899","0.4","","","","","","","",""
"24","","bandit","244","914193","0.0-205.0-0.0","79127471","wem/bandit_either","A1QQQ7KKM896QY","either","1","","","","","","","75","K","2","","0","0","1","","0.1416727521","","166","","0.20052236","main_expt","0.8","","0.6","0.005679103294","","0.2","","0.4","0.1416727521","0.2786045926","","","","","",""
"212","","bandit","245","915936","0.0-206.0-0.0","79127471","wem/bandit_either","A1QQQ7KKM896QY","either","1","","","","","","","75","K","2","","0","0","1","","0.1497541138","","167","","0.1945206589","main_expt","0.8","","0.6","0.004037182679","","0.2","","0.4","0.1497541138","0.2507583434","","","","","",""
"140","","bandit","246","917591","0.0-207.0-0.0","79127471","wem/bandit_either","A1QQQ7KKM896QY","either","1","","","","","","","75","K","2","","0","0","1","","0.1761460581","","168","","0.1902154162","main_expt","0.8","","0.6","0.007111326723","","0.2","","0.4","0.1761460581","0.1827624484","","","","","",""
"228","","bandit","247","919363","0.0-208.0-0.0","79127471","wem/bandit_either","A1QQQ7KKM896QY","either","1","","","","","","","75","K","2","","0","0","1","0.2248215173","","","169","0.1931964682","","main_expt","0.8","0.01708305062","0.6","","0.2248215173","0.2","0.1558723634","0.4","","","","","","","",""
"18","","bandit","248","920900","0.0-209.0-0.0","79127471","wem/bandit_either","A1QQQ7KKM896QY","either","1","","","","","","","74","J","1","","0","0","1","","0.02105388628","","170","","0.236179436","main_expt","0.8","","0.6","0.02105388628","","0.2","","0.4","0.2503105048","0.1757164868","","","","","",""
"169","","bandit","249","922586","0.0-210.0-0.0","79127471","wem/bandit_either","A1QQQ7KKM896QY","either","1","","","","","","","74","J","1","","0","0","1","0.01477187034","","","171","0.2229285478","","main_expt","0.8","0.01477187034","0.6","","0.2515708499","0.2","0.1985597056","0.4","","","","","","","",""
"251","","bandit","250","924351","0.0-211.0-0.0","79127471","wem/bandit_either","A1QQQ7KKM896QY","either","1","","","","","","","74","J","1","","0","0","1","0.00639283578","","","172","0.1805811295","","main_expt","0.8","0.00639283578","0.6","","0.2601117771","0.2","0.1725269859","0.4","","","","","","","",""
"257","","bandit","251","926143","0.0-212.0-0.0","79127471","wem/bandit_either","A1QQQ7KKM896QY","either","1","","","","","","","74","J","1","","0","0","1","0.008503536177","","","173","0.2203049146","","main_expt","0.8","0.008503536177","0.6","","0.2277859889","0.2","0.1955807132","0.4","","","","","","","",""
"312","","bandit","252","928001","0.0-213.0-0.0","79127471","wem/bandit_either","A1QQQ7KKM896QY","either","1","","","","","","","72","H","0","img/none_selected.jpg","0","0","1","0.2079245196","","","174","0.2079245196","","main_expt","0.8","0.01512836446","0.6","","0.204090619","0.2","0.1712969398","0.4","","","","","","","",""
"171","","bandit","253","929707","0.0-214.0-0.0","79127471","wem/bandit_either","A1QQQ7KKM896QY","either","1","","","","","","","72","H","0","img/none_selected.jpg","0","0","1","0.1904909119","","","175","0.1904909119","","main_expt","0.8","0.034550241","0.6","","0.2264282848","0.2","0.2145566876","0.4","","","","","","","",""
"256","","bandit","254","931522","0.0-215.0-0.0","79127471","wem/bandit_either","A1QQQ7KKM896QY","either","1","","","","","","","72","H","0","img/none_selected.jpg","0","0","1","0.1611975006","","","176","0.1611975006","","main_expt","0.8","0.01969997198","0.6","","0.2263436383","0.2","0.1987050603","0.4","","","","","","","",""
"129","","bandit","255","933165","0.0-216.0-0.0","79127471","wem/bandit_either","A1QQQ7KKM896QY","either","1","","","","","","","72","H","0","img/none_selected.jpg","0","0","1","0.1747210449","","","177","0.1747210449","","main_expt","0.8","0.02558747067","0.6","","0.2449632337","0.2","0.2161967517","0.4","","","","","","","",""
"164","","bandit","256","934891","0.0-217.0-0.0","79127471","wem/bandit_either","A1QQQ7KKM896QY","either","1","","","","","","","72","H","0","img/none_selected.jpg","0","0","1","0.1667690144","","","178","0.1667690144","","main_expt","0.8","0.02865462312","0.6","","0.1923885174","0.2","0.1790488899","0.4","","","","","","","",""
"75","","bandit","257","936504","0.0-218.0-0.0","79127471","wem/bandit_either","A1QQQ7KKM896QY","either","1","","","","","","","74","J","1","","0","0","1","","0.05873937836","","179","","0.248539666","main_expt","0.8","","0.6","0.05873937836","","0.2","","0.4","0.1791230597","0.1254539317","","","","","",""
"109","","bandit","258","938142","0.0-219.0-0.0","79127471","wem/bandit_either","A1QQQ7KKM896QY","either","1","","","","","","","75","K","2","","0","0","1","","0.1641305094","","180","","0.2393284063","main_expt","0.8","","0.6","0.04996702027","","0.2","","0.4","0.1641305094","0.1761702366","","","","","",""
"266","","bandit","259","939922","0.0-220.0-0.0","79127471","wem/bandit_either","A1QQQ7KKM896QY","either","1","","","","","","","76","L","3","","0","1","0","","0.2307221343","","181","","0.2450765022","main_expt","0.8","","0.6","0.06192223509","","0.2","","0.4","0.1567194189","0.2307221343","","","","","",""
"35","","bandit","260","941485","0.0-221.0-0.0","79127471","wem/bandit_either","A1QQQ7KKM896QY","either","1","","","","","","","76","L","3","","0","0","1","","0.1656926355","","182","","0.2898963007","main_expt","0.8","","0.6","0.07865608963","","0.2","","0.4","0.1805899487","0.1656926355","","","","","",""
"126","","bandit","261","943132","0.0-222.0-0.0","79127471","wem/bandit_either","A1QQQ7KKM896QY","either","1","","","","","","","76","L","3","","0","0","1","0.1997223474","","","183","0.337419987","","main_expt","0.8","0.0695036973","0.6","","0.1381226487","0.2","0.1997223474","0.4","","","","","","","",""
"247","","bandit","262","944905","0.0-223.0-0.0","79127471","wem/bandit_either","A1QQQ7KKM896QY","either","1","","","","","","","76","L","3","","0","0","1","0.1936006223","","","184","0.3334404967","","main_expt","0.8","0.09883674892","0.6","","0.1157029232","0.2","0.1936006223","0.4","","","","","","","",""
"261","","bandit","263","946704","0.0-224.0-0.0","79127471","wem/bandit_either","A1QQQ7KKM896QY","either","1","","","","","","","76","L","3","","0","0","1","0.1794548994","","","185","0.3049781316","","main_expt","0.8","0.1344132801","0.6","","0.09007466759","0.2","0.1794548994","0.4","","","","","","","",""
"261","","bandit","264","948519","0.0-225.0-0.0","79127471","wem/bandit_either","A1QQQ7KKM896QY","either","1","","","","","","","76","L","3","","0","0","1","0.1679588243","","","186","0.322039184","","main_expt","0.8","0.1194183803","0.6","","0.07784091677","0.2","0.1679588243","0.4","","","","","","","",""
"252","","bandit","265","950287","0.0-226.0-0.0","79127471","wem/bandit_either","A1QQQ7KKM896QY","either","1","","","","","","","76","L","3","","0","0","1","0.1692259204","","","187","0.2898485093","","main_expt","0.8","0.1456002269","0.6","","0.1332261693","0.2","0.1692259204","0.4","","","","","","","",""
"257","","bandit","266","952068","0.0-227.0-0.0","79127471","wem/bandit_either","A1QQQ7KKM896QY","either","1","","","","","","","76","L","3","","0","0","1","0.1796926114","","","188","0.3046836684","","main_expt","0.8","0.1008589119","0.6","","0.1302169342","0.2","0.1796926114","0.4","","","","","","","",""
"278","","bandit","267","953887","0.0-228.0-0.0","79127471","wem/bandit_either","A1QQQ7KKM896QY","either","1","","","","","","","75","K","2","","0","0","1","","0.1459867673","","189","","0.3437642557","main_expt","0.8","","0.6","0.09109327247","","0.2","","0.4","0.1459867673","0.1463090895","","","","","",""
"253","","bandit","268","955666","0.0-229.0-0.0","79127471","wem/bandit_either","A1QQQ7KKM896QY","either","1","","","","","","","75","K","2","","0","0","1","0.1930387326","","","190","0.3685715368","","main_expt","0.8","0.133333279","0.6","","0.1930387326","0.2","0.1670442817","0.4","","","","","","","",""
"192","","bandit","269","957440","0.0-230.0-0.0","79127471","wem/bandit_either","A1QQQ7KKM896QY","either","1","","","","","","","75","K","2","","0","0","1","","0.1447045196","","191","","0.4063368095","main_expt","0.8","","0.6","0.1253338948","","0.2","","0.4","0.1447045196","0.2148667481","","","","","",""
"250","","bandit","270","959220","0.0-231.0-0.0","79127471","wem/bandit_either","A1QQQ7KKM896QY","either","1","","","","","","","74","J","1","","0","0","1","0.1371372983","","","192","0.4194789623","","main_expt","0.8","0.1371372983","0.6","","0.1521301445","0.2","0.1891029698","0.4","","","","","","","",""
"22","","bandit","271","960784","0.0-232.0-0.0","79127471","wem/bandit_either","A1QQQ7KKM896QY","either","1","","","","","","","74","J","1","","0","0","1","0.1269519223","","","193","0.3914453041","","main_expt","0.8","0.1269519223","0.6","","0.1216552598","0.2","0.1818436489","0.4","","","","","","","",""
"67","","bandit","272","962372","0.0-233.0-0.0","79127471","wem/bandit_either","A1QQQ7KKM896QY","either","1","","","","","","","74","J","1","","0","0","1","","0.1253972088","","194","","0.3988429791","main_expt","0.8","","0.6","0.1253972088","","0.2","","0.4","0.07681554104","0.2036833838","","","","","",""
"513","","bandit","273","964423","0.0-234.0-0.0","79127471","wem/bandit_either","A1QQQ7KKM896QY","either","1","","","","","","","74","J","1","","0","0","1","0.1231557279","","","195","0.4212514022","","main_expt","0.8","0.1231557279","0.6","","0.07468822185","0.2","0.2189502041","0.4","","","","","","","",""
"268","","bandit","274","966209","0.0-235.0-0.0","79127471","wem/bandit_either","A1QQQ7KKM896QY","either","1","","","","","","","72","H","0","img/none_selected.jpg","0","0","1","0.4128950903","","","196","0.4128950903","","main_expt","0.8","0.2304226507","0.6","","0.07634526252","0.2","0.2011136523","0.4","","","","","","","",""
"287","","bandit","275","968034","0.0-236.0-0.0","79127471","wem/bandit_either","A1QQQ7KKM896QY","either","1","","","","","","","72","H","0","img/none_selected.jpg","0","0","1","0.3979973083","","","197","0.3979973083","","main_expt","0.8","0.3102822931","0.6","","0.06680697181","0.2","0.2295646827","0.4","","","","","","","",""
"383","","bandit","276","969943","0.0-237.0-0.0","79127471","wem/bandit_either","A1QQQ7KKM896QY","either","1","","","","","","","72","H","0","img/none_selected.jpg","0","0","1","0.3153467244","","","198","0.3153467244","","main_expt","0.8","0.3222054514","0.6","","0.05107679344","0.2","0.2570874699","0.4","","","","","","","",""
"408","","bandit","277","971892","0.0-238.0-0.0","79127471","wem/bandit_either","A1QQQ7KKM896QY","either","1","","","","","","","72","H","0","img/none_selected.jpg","0","0","1","0.3121882746","","","199","0.3121882746","","main_expt","0.8","0.3416159467","0.6","","0.06140804873","0.2","0.2215013189","0.4","","","","","","","",""
"790","","bandit","278","974220","0.0-239.0-0.0","79127471","wem/bandit_either","A1QQQ7KKM896QY","either","1","","","","","","","72","H","0","img/none_selected.jpg","1","0","0","0.3789620948","","","200","0.3789620948","","main_expt","0.8","0.3826655938","0.6","","0.05697288244","0.2","0.1681318695","0.4","","","","","","","",""
"4","","bandit","279","975764","0.0-240.0-0.0","79127471","wem/bandit_either","A1QQQ7KKM896QY","either","1","","","","","","","72","H","0","img/none_selected.jpg","0","0","1","0.3575696279","","","201","0.3575696279","","main_expt","0.8","0.4117435103","0.6","","0.04802221103","0.2","0.1787039029","0.4","","","","","","","",""
"2","","bandit","280","977284","0.0-241.0-0.0","79127471","wem/bandit_either","A1QQQ7KKM896QY","either","1","","","","","","","72","H","0","img/none_selected.jpg","1","0","0","0.3937046418","","","202","0.3937046418","","main_expt","0.8","0.4023622846","0.6","","0.04583536071","0.2","0.2180442152","0.4","","","","","","","",""
"48","","bandit","281","978877","0.0-242.0-0.0","79127471","wem/bandit_either","A1QQQ7KKM896QY","either","1","","","","","","","72","H","0","img/none_selected.jpg","0","0","1","","0.3901943722","","203","","0.3901943722","main_expt","0.8","","0.6","0.4225273878","","0.2","","0.4","0.03655969434","0.262784421","","","","","",""
"34","","bandit","282","980440","0.0-243.0-0.0","79127471","wem/bandit_either","A1QQQ7KKM896QY","either","1","","","","","","","72","H","0","img/none_selected.jpg","0","0","1","0.4099131859","","","204","0.4099131859","","main_expt","0.8","0.4151046429","0.6","","0.05773518339","0.2","0.2843732649","0.4","","","","","","","",""
"42","","bandit","283","982003","0.0-244.0-0.0","79127471","wem/bandit_either","A1QQQ7KKM896QY","either","1","","","","","","","72","H","0","img/none_selected.jpg","0","0","1","0.4238238901","","","205","0.4238238901","","main_expt","0.8","0.4288165897","0.6","","0.06616346658","0.2","0.2549063301","0.4","","","","","","","",""
"375","","bandit","284","983902","0.0-245.0-0.0","79127471","wem/bandit_either","A1QQQ7KKM896QY","either","1","","","","","","","72","H","0","img/none_selected.jpg","0","1","0","","0.4139837541","","206","","0.4139837541","main_expt","0.8","","0.6","0.436745712","","0.2","","0.4","0.09055598832","0.2982701688","","","","","",""
"350","","bandit","285","985805","0.0-246.0-0.0","79127471","wem/bandit_either","A1QQQ7KKM896QY","either","1","","","","","","","72","H","0","img/none_selected.jpg","0","0","1","0.3544894801","","","207","0.3544894801","","main_expt","0.8","0.4484652972","0.6","","0.07583085731","0.2","0.3423773839","0.4","","","","","","","",""
"394","","bandit","286","987763","0.0-247.0-0.0","79127471","wem/bandit_either","A1QQQ7KKM896QY","either","1","","","","","","","72","H","0","img/none_selected.jpg","0","0","1","0.3703609936","","","208","0.3703609936","","main_expt","0.8","0.4516947584","0.6","","0.09768014643","0.2","0.3321535101","0.4","","","","","","","",""
"275","","bandit","287","989570","0.0-248.0-0.0","79127471","wem/bandit_either","A1QQQ7KKM896QY","either","1","","","","","","","72","H","0","img/none_selected.jpg","0","1","0","","0.3590511704","","209","","0.3590511704","main_expt","0.8","","0.6","0.4590139285","","0.2","","0.4","0.08389795445","0.3467721984","","","","","",""
"1254","","bandit","288","992347","0.0-249.0-0.0","79127471","wem/bandit_either","A1QQQ7KKM896QY","either","1","","","","","","","72","H","0","img/none_selected.jpg","0","0","1","0.3781523972","","","210","0.3781523972","","main_expt","0.8","0.4378910613","0.6","","0.07846525543","0.2","0.3513447539","0.4","","","","","","","",""
"382","","bandit","289","994260","0.0-250.0-0.0","79127471","wem/bandit_either","A1QQQ7KKM896QY","either","1","","","","","","","72","H","0","img/none_selected.jpg","0","0","1","0.3895188655","","","211","0.3895188655","","main_expt","0.8","0.4139384991","0.6","","0.05906932722","0.2","0.4003692624","0.4","","","","","","","",""
"133","","bandit","290","995924","0.0-251.0-0.0","79127471","wem/bandit_either","A1QQQ7KKM896QY","either","1","","","","","","","72","H","0","img/none_selected.jpg","1","0","0","0.4075098947","","","212","0.4075098947","","main_expt","0.8","0.3659234609","0.6","","0.04754192311","0.2","0.3949660502","0.4","","","","","","","",""
"257","","bandit","291","997699","0.0-252.0-0.0","79127471","wem/bandit_either","A1QQQ7KKM896QY","either","1","","","","","","","72","H","0","img/none_selected.jpg","0","0","1","0.4191075236","","","213","0.4191075236","","main_expt","0.8","0.3180572988","0.6","","0.05481920189","0.2","0.4233479157","0.4","","","","","","","",""
"157","","bandit","292","999375","0.0-253.0-0.0","79127471","wem/bandit_either","A1QQQ7KKM896QY","either","1","","","","","","","72","H","0","img/none_selected.jpg","1","0","0","0.3799529118","","","214","0.3799529118","","main_expt","0.8","0.2611162072","0.6","","0.07954578011","0.2","0.4182751871","0.4","","","","","","","",""
"56","","bandit","293","1000971","0.0-254.0-0.0","79127471","wem/bandit_either","A1QQQ7KKM896QY","either","1","","","","","","","72","H","0","img/none_selected.jpg","0","0","1","0.3924699069","","","215","0.3924699069","","main_expt","0.8","0.2331309726","0.6","","0.1078137614","0.2","0.3745823719","0.4","","","","","","","",""
"360","","bandit","294","1002846","0.0-255.0-0.0","79127471","wem/bandit_either","A1QQQ7KKM896QY","either","1","","","","","","","72","H","0","img/none_selected.jpg","0","1","0","","0.3556657658","","216","","0.3556657658","main_expt","0.8","","0.6","0.2428402293","","0.2","","0.4","0.1269525553","0.3809837923","","","","","",""
"279","","bandit","295","1004637","0.0-256.0-0.0","79127471","wem/bandit_either","A1QQQ7KKM896QY","either","1","","","","","","","72","H","0","img/none_selected.jpg","0","0","1","","0.3870416945","","217","","0.3870416945","main_expt","0.8","","0.6","0.2317762644","","0.2","","0.4","0.1849794572","0.4144294186","","","","","",""
"1952","","bandit","296","1008108","0.0-257.0-0.0","79127471","wem/bandit_either","A1QQQ7KKM896QY","either","1","","","","","","","72","H","0","img/none_selected.jpg","1","0","0","0.3944581396","","","218","0.3944581396","","main_expt","0.8","0.204309912","0.6","","0.1903787706","0.2","0.4090742927","0.4","","","","","","","",""
"668","","bandit","297","1010313","0.0-258.0-0.0","79127471","wem/bandit_either","A1QQQ7KKM896QY","either","1","","","","","","","72","H","0","img/none_selected.jpg","0","0","1","","0.4256173987","","219","","0.4256173987","main_expt","0.8","","0.6","0.1685596251","","0.2","","0.4","0.1768508397","0.3869695378","","","","","",""
"303","","bandit","298","1012133","0.0-259.0-0.0","79127471","wem/bandit_either","A1QQQ7KKM896QY","either","1","","","","","","","72","H","0","img/none_selected.jpg","0","0","1","0.4240862242","","","220","0.4240862242","","main_expt","0.8","0.2488487331","0.6","","0.2176561852","0.2","0.3814250035","0.4","","","","","","","",""
"253","","bandit","299","1013901","0.0-260.0-0.0","79127471","wem/bandit_either","A1QQQ7KKM896QY","either","1","","","","","","","74","J","1","","0","0","1","0.2789816034","","","221","0.4364702466","","main_expt","0.8","0.2789816034","0.6","","0.2075488201","0.2","0.3560431311","0.4","","","","","","","",""
"320","","bandit","300","1015735","0.0-261.0-0.0","79127471","wem/bandit_either","A1QQQ7KKM896QY","either","1","","","","","","","74","J","1","","1","0","0","0.242729834","","","222","0.4512924842","","main_expt","0.8","0.242729834","0.6","","0.2260831429","0.2","0.3424215647","0.4","","","","","","","",""
"249","","bandit","301","1017503","0.0-262.0-0.0","79127471","wem/bandit_either","A1QQQ7KKM896QY","either","1","","","","","","","74","J","1","","0","0","1","","0.196538567","","223","","0.4649948574","main_expt","0.8","","0.6","0.196538567","","0.2","","0.4","0.2512075751","0.3118962833","","","","","",""
"129","","bandit","302","1019151","0.0-263.0-0.0","79127471","wem/bandit_either","A1QQQ7KKM896QY","either","1","","","","","","","74","J","1","","0","1","0","","0.2189223785","","224","","0.4692106987","main_expt","0.8","","0.6","0.2189223785","","0.2","","0.4","0.3072691987","0.261290028","","","","","",""
"43","","bandit","303","1020722","0.0-264.0-0.0","79127471","wem/bandit_either","A1QQQ7KKM896QY","either","1","","","","","","","74","J","1","","0","0","1","","0.2131207899","","225","","0.4772226815","main_expt","0.8","","0.6","0.2131207899","","0.2","","0.4","0.3358063032","0.2748104332","","","","","",""
"1015","","bandit","304","1023285","0.0-265.0-0.0","79127471","wem/bandit_either","A1QQQ7KKM896QY","either","1","","","","","","","74","J","1","","0","0","1","0.187439681","","","226","0.4828013869","","main_expt","0.8","0.187439681","0.6","","0.2994610032","0.2","0.2112523614","0.4","","","","","","","",""
"372","","bandit","305","1025174","0.0-266.0-0.0","79127471","wem/bandit_either","A1QQQ7KKM896QY","either","1","","","","","","","74","J","1","","0","0","1","","0.1522087394","","227","","0.4805292857","main_expt","0.8","","0.6","0.1522087394","","0.2","","0.4","0.2719992041","0.1879164098","","","","","",""
"388","","bandit","306","1027078","0.0-267.0-0.0","79127471","wem/bandit_either","A1QQQ7KKM896QY","either","1","","","","","","","74","J","1","","1","0","0","0.1975586059","","","228","0.4770879938","","main_expt","0.8","0.1975586059","0.6","","0.2601066631","0.2","0.1857646906","0.4","","","","","","","",""
"50","","bandit","307","1028646","0.0-268.0-0.0","79127471","wem/bandit_either","A1QQQ7KKM896QY","either","1","","","","","","","74","J","1","","0","0","1","0.2280604414","","","229","0.4830225504","","main_expt","0.8","0.2280604414","0.6","","0.2333982712","0.2","0.1608888173","0.4","","","","","","","",""
"104","","bandit","308","1030268","0.0-269.0-0.0","79127471","wem/bandit_either","A1QQQ7KKM896QY","either","1","","","","","","","74","J","1","","0","0","1","","0.2120359748","","230","","0.4827210916","main_expt","0.8","","0.6","0.2120359748","","0.2","","0.4","0.2179366985","0.1139945837","","","","","",""
"402","","bandit","309","1032189","0.0-270.0-0.0","79127471","wem/bandit_either","A1QQQ7KKM896QY","either","1","","","","","","","74","J","1","","0","0","1","","0.2260377558","","231","","0.4764813513","main_expt","0.8","","0.6","0.2260377558","","0.2","","0.4","0.210335649","0.1071229599","","","","","",""
"459","","bandit","310","1034183","0.0-271.0-0.0","79127471","wem/bandit_either","A1QQQ7KKM896QY","either","1","","","","","","","74","J","1","","0","0","1","","0.2810037348","","232","","0.4794978353","main_expt","0.8","","0.6","0.2810037348","","0.2","","0.4","0.2154905401","0.1250262501","","","","","",""
"119","","bandit","311","1035829","0.0-272.0-0.0","79127471","wem/bandit_either","A1QQQ7KKM896QY","either","1","","","","","","","74","J","1","","0","0","1","0.3371590923","","","233","0.4717583679","","main_expt","0.8","0.3371590923","0.6","","0.2199054097","0.2","0.1262657767","0.4","","","","","","","",""
"243","","bandit","312","1037589","0.0-273.0-0.0","79127471","wem/bandit_either","A1QQQ7KKM896QY","either","1","","","","","","","75","K","2","","0","0","1","","0.2116885818","","234","","0.4801470087","main_expt","0.8","","0.6","0.2614597929","","0.2","","0.4","0.2116885818","0.1436583916","","","","","",""
"241","","bandit","313","1039349","0.0-274.0-0.0","79127471","wem/bandit_either","A1QQQ7KKM896QY","either","1","","","","","","","75","K","2","","0","0","1","","0.2037112673","","235","","0.4698449305","main_expt","0.8","","0.6","0.2855471023","","0.2","","0.4","0.2037112673","0.1776605917","","","","","",""
"229","","bandit","314","1041096","0.0-275.0-0.0","79127471","wem/bandit_either","A1QQQ7KKM896QY","either","1","","","","","","","75","K","2","","0","0","1","","0.2295670059","","236","","0.4750890902","main_expt","0.8","","0.6","0.2806831757","","0.2","","0.4","0.2295670059","0.2039581082","","","","","",""
"242","","bandit","315","1042876","0.0-276.0-0.0","79127471","wem/bandit_either","A1QQQ7KKM896QY","either","1","","","","","","","75","K","2","","0","0","1","","0.2602584061","","237","","0.490873849","main_expt","0.8","","0.6","0.3314479917","","0.2","","0.4","0.2602584061","0.1898025468","","","","","",""
"278","","bandit","316","1044667","0.0-277.0-0.0","79127471","wem/bandit_either","A1QQQ7KKM896QY","either","1","","","","","","","76","L","3","","1","0","0","0.20274426","","","238","0.4658125052","","main_expt","0.8","0.3495093658","0.6","","0.2505035884","0.2","0.20274426","0.4","","","","","","","",""
"73","","bandit","317","1046257","0.0-278.0-0.0","79127471","wem/bandit_either","A1QQQ7KKM896QY","either","1","","","","","","","76","L","3","","0","1","0","","0.2051086292","","239","","0.4717810478","main_expt","0.8","","0.6","0.3413466471","","0.2","","0.4","0.209031891","0.2051086292","","","","","",""
"746","","bandit","318","1048515","0.0-279.0-0.0","79127471","wem/bandit_either","A1QQQ7KKM896QY","either","1","","","","","","","76","L","3","","0","1","0","","0.1823871945","","240","","0.4751676635","main_expt","0.8","","0.6","0.3848911707","","0.2","","0.4","0.2203826704","0.1823871945","","","","","",""
"319","","bandit","319","1050348","0.0-280.0-0.0","79127471","wem/bandit_either","A1QQQ7KKM896QY","either","1","","","","","","","76","L","3","","0","0","1","0.2206124516","","","241","0.4782176083","","main_expt","0.8","0.3352713547","0.6","","0.2502218434","0.2","0.2206124516","0.4","","","","","","","",""
"630","","bandit","320","1052501","0.0-281.0-0.0","79127471","wem/bandit_either","A1QQQ7KKM896QY","either","1","","","","","","","76","L","3","","0","0","1","0.1822231347","","","242","0.4842593171","","main_expt","0.8","0.3898112853","0.6","","0.2465850657","0.2","0.1822231347","0.4","","","","","","","",""
"2391","","bandit","321","1056422","0.0-282.0-0.0","79127471","wem/bandit_either","A1QQQ7KKM896QY","either","1","","","","","","","76","L","3","","0","0","1","","0.1782216913","","243","","0.4877308522","main_expt","0.8","","0.6","0.3746092993","","0.2","","0.4","0.2768687636","0.1782216913","","","","","",""
"316","","bandit","322","1058254","0.0-283.0-0.0","79127471","wem/bandit_either","A1QQQ7KKM896QY","either","1","","","","","","","76","L","3","","0","0","1","","0.1683297066","","244","","0.4867000748","main_expt","0.8","","0.6","0.3551642001","","0.2","","0.4","0.3318130554","0.1683297066","","","","","",""
"315","","bandit","323","1060106","0.0-284.0-0.0","79127471","wem/bandit_either","A1QQQ7KKM896QY","either","1","","","","","","","76","L","3","","0","0","1","0.2394915997","","","245","0.4779689664","","main_expt","0.8","0.3556023966","0.6","","0.3549389872","0.2","0.2394915997","0.4","","","","","","","",""
"269","","bandit","324","1061892","0.0-285.0-0.0","79127471","wem/bandit_either","A1QQQ7KKM896QY","either","1","","","","","","","76","L","3","","0","0","1","0.2279590519","","","246","0.4691428495","","main_expt","0.8","0.3265039954","0.6","","0.333301522","0.2","0.2279590519","0.4","","","","","","","",""
"25","","bandit","325","1063437","0.0-286.0-0.0","79127471","wem/bandit_either","A1QQQ7KKM896QY","either","1","","","","","","","75","K","2","","1","0","0","0.3514606933","","","247","0.4726686318","","main_expt","0.8","0.2868106963","0.6","","0.3514606933","0.2","0.2464238951","0.4","","","","","","","",""
"217","","bandit","326","1065170","0.0-287.0-0.0","79127471","wem/bandit_either","A1QQQ7KKM896QY","either","1","","","","","","","75","K","2","","0","0","1","","0.3714826816","","248","","0.4803067915","main_expt","0.8","","0.6","0.3185934195","","0.2","","0.4","0.3714826816","0.2743013104","","","","","",""
"323","","bandit","327","1067010","0.0-288.0-0.0","79127471","wem/bandit_either","A1QQQ7KKM896QY","either","1","","","","","","","75","K","2","","0","0","1","","0.386783615","","249","","0.4711679289","main_expt","0.8","","0.6","0.358181829","","0.2","","0.4","0.386783615","0.265015958","","","","","",""
"246","","bandit","328","1068775","0.0-289.0-0.0","79127471","wem/bandit_either","A1QQQ7KKM896QY","either","1","","","","","","","75","K","2","","1","0","0","0.401921917","","","250","0.4353456883","","main_expt","0.8","0.3548152509","0.6","","0.401921917","0.2","0.2414596854","0.4","","","","","","","",""
"244","","bandit","329","1070555","0.0-290.0-0.0","79127471","wem/bandit_either","A1QQQ7KKM896QY","either","1","","","","","","","75","K","2","","0","0","1","","0.4214807698","","251","","0.4224206017","main_expt","0.8","","0.6","0.3481631732","","0.2","","0.4","0.4214807698","0.2747351927","","","","","",""
"100","","bandit","330","1072175","0.0-291.0-0.0","79127471","wem/bandit_either","A1QQQ7KKM896QY","either","1","","","","","","","75","K","2","","0","0","1","","0.3562017588","","252","","0.4171240554","main_expt","0.8","","0.6","0.3357984296","","0.2","","0.4","0.3562017588","0.2814651432","","","","","",""
"146","","bandit","331","1073859","0.0-292.0-0.0","79127471","wem/bandit_either","A1QQQ7KKM896QY","either","1","","","","","","","75","K","2","","0","0","1","","0.2749590952","","253","","0.4255780754","main_expt","0.8","","0.6","0.2585495719","","0.2","","0.4","0.2749590952","0.2185424791","","","","","",""
