"rt","responses","trial_type","trial_index","time_elapsed","internal_node_id","subjID","study","MID","cond","drift","key_press","expt_phase","target","like","value","connected","gems","bombs","no_reward","GemPrChosen","BombPrChosen","GainOverPainPr_0","GainOverPainPr_1","GainOverPainPr_2","GainOverPainPr_3","LosePr_0","LosePr_1","LosePr_2","LosePr_3","WinPr_0","WinPr_1","WinPr_2","WinPr_3","Q0","Q1","Q2","gender","age","ethnicity","respCharCode","respKey","respChoiceNum","respChoice","practice","trial_counter","trial_label"
"17994","{""Q0"":""A2NPLCJLXSG1LK""}","survey-text","0","17994","0.0-0.0","80314144","wem/bandit_either","A2NPLCJLXSG1LK","either","7","","","","","","","","","","","","","","","","","","","","","","","","","","","","","","","","","","","",""
"22578","","text","1","41574","0.0-1.0","80314144","wem/bandit_either","A2NPLCJLXSG1LK","either","7","32","","","","","","","","","","","","","","","","","","","","","","","","","","","","","","","","","","",""
"10400","","text","2","51974","0.0-2.0","80314144","wem/bandit_either","A2NPLCJLXSG1LK","either","7","32","","","","","","","","","","","","","","","","","","","","","","","","","","","","","","","","","","",""
"22097","","text","3","74071","0.0-3.0","80314144","wem/bandit_either","A2NPLCJLXSG1LK","either","7","32","","","","","","","","","","","","","","","","","","","","","","","","","","","","","","","","","","",""
"15580","","text","4","89651","0.0-4.0","80314144","wem/bandit_either","A2NPLCJLXSG1LK","either","7","32","","","","","","","","","","","","","","","","","","","","","","","","","","","","","","","","","","",""
"22899","","text","5","112550","0.0-5.0","80314144","wem/bandit_either","A2NPLCJLXSG1LK","either","7","32","","","","","","","","","","","","","","","","","","","","","","","","","","","","","","","","","","",""
"11501","","text","6","124051","0.0-6.0","80314144","wem/bandit_either","A2NPLCJLXSG1LK","either","7","32","","","","","","","","","","","","","","","","","","","","","","","","","","","","","","","","","","",""
"5439","","text","7","129490","0.0-7.0","80314144","wem/bandit_either","A2NPLCJLXSG1LK","either","7","32","","","","","","","","","","","","","","","","","","","","","","","","","","","","","","","","","","",""
"14903","","identification","8","144403","0.0-8.0-0.0","80314144","wem/bandit_either","A2NPLCJLXSG1LK","either","7","","identification_pre","the village of Zur","","","","","","","","","","","","","","","","","","","","","","","","","","","","","","","","",""
"7242","","identification","9","152650","0.0-8.0-1.0","80314144","wem/bandit_either","A2NPLCJLXSG1LK","either","7","","identification_pre","the village of Nyx","","","","","","","","","","","","","","","","","","","","","","","","","","","","","","","","",""
"6033","","text","10","159698","0.0-9.0","80314144","wem/bandit_either","A2NPLCJLXSG1LK","either","7","32","","","","","","","","","","","","","","","","","","","","","","","","","","","","","","","","","","",""
"3779","","text","11","163477","0.0-10.0","80314144","wem/bandit_either","A2NPLCJLXSG1LK","either","7","32","","","","","","","","","","","","","","","","","","","","","","","","","","","","","","","","","","",""
"1810","","text","12","165287","0.0-11.0","80314144","wem/bandit_either","A2NPLCJLXSG1LK","either","7","32","","","","","","","","","","","","","","","","","","","","","","","","","","","","","","","","","","",""
"6463","","text","13","171750","0.0-12.0","80314144","wem/bandit_either","A2NPLCJLXSG1LK","either","7","32","","","","","","","","","","","","","","","","","","","","","","","","","","","","","","","","","","",""
"3217","","bandit","14","176478","0.0-13.0-0.0","80314144","wem/bandit_either","A2NPLCJLXSG1LK","either","7","","","","","","","0","0","1","0","0","","","","","0","","","","0","","","","","","","","","","74","J","0","img/none_selected_demo.jpg","true","0",""
"1131","","bandit","15","179121","0.0-14.0-0.0","80314144","wem/bandit_either","A2NPLCJLXSG1LK","either","7","","","","","","","0","0","1","0","0","","","","","0","","","","0","","","","","","","","","","75","K","0","img/none_selected_demo.jpg","true","0",""
"46310","","text","16","225431","0.0-15.0","80314144","wem/bandit_either","A2NPLCJLXSG1LK","either","7","32","","","","","","","","","","","","","","","","","","","","","","","","","","","","","","","","","","",""
"18300","","text","17","243731","0.0-16.0","80314144","wem/bandit_either","A2NPLCJLXSG1LK","either","7","32","","","","","","","","","","","","","","","","","","","","","","","","","","","","","","","","","","",""
"10290","","text","18","254021","0.0-17.0","80314144","wem/bandit_either","A2NPLCJLXSG1LK","either","7","32","","","","","","","","","","","","","","","","","","","","","","","","","","","","","","","","","","",""
"4783","","text","19","258804","0.0-18.0","80314144","wem/bandit_either","A2NPLCJLXSG1LK","either","7","32","","","","","","","","","","","","","","","","","","","","","","","","","","","","","","","","","","",""
"1747","","bandit","20","262054","0.0-19.0-0.0","80314144","wem/bandit_either","A2NPLCJLXSG1LK","either","7","","","","","","","0","1","0","","0.8","0.5","0.5","","","0.8","0.2","","","","","","","","","","","","","74","J","0","img/none_selected_demo.jpg","true","0","80_20_practice"
"1218","","bandit","21","264781","0.0-19.0-1.0","80314144","wem/bandit_either","A2NPLCJLXSG1LK","either","7","","","","","","","0","1","0","","0.8","0.5","0.5","","","0.8","0.2","","","","","","","","","","","","","74","J","0","img/none_selected_demo.jpg","true","0","80_20_practice"
"343","","bandit","22","266641","0.0-19.0-2.0","80314144","wem/bandit_either","A2NPLCJLXSG1LK","either","7","","","","","","","0","0","1","","0.2","0.5","0.5","","","0.8","0.2","","","","","","","","","","","","","75","K","1","","true","0","80_20_practice"
"325","","bandit","23","268470","0.0-19.0-3.0","80314144","wem/bandit_either","A2NPLCJLXSG1LK","either","7","","","","","","","0","0","1","","0.2","0.5","0.5","","","0.8","0.2","","","","","","","","","","","","","75","K","1","","true","0","80_20_practice"
"346","","bandit","24","270320","0.0-19.0-4.0","80314144","wem/bandit_either","A2NPLCJLXSG1LK","either","7","","","","","","","0","1","0","","0.8","0.5","0.5","","","0.8","0.2","","","","","","","","","","","","","74","J","0","img/none_selected_demo.jpg","true","0","80_20_practice"
"327","","bandit","25","272157","0.0-19.0-5.0","80314144","wem/bandit_either","A2NPLCJLXSG1LK","either","7","","","","","","","1","0","0","0.8","","0.5","0.5","","","","","","","0.8","0.2","","","","","","","","","74","J","0","img/none_selected_demo.jpg","true","0","80_20_practice"
"373","","bandit","26","274037","0.0-19.0-6.0","80314144","wem/bandit_either","A2NPLCJLXSG1LK","either","7","","","","","","","0","0","1","0.8","","0.5","0.5","","","","","","","0.8","0.2","","","","","","","","","74","J","0","img/none_selected_demo.jpg","true","0","80_20_practice"
"282","","bandit","27","275829","0.0-19.0-7.0","80314144","wem/bandit_either","A2NPLCJLXSG1LK","either","7","","","","","","","1","0","0","0.8","","0.5","0.5","","","","","","","0.8","0.2","","","","","","","","","74","J","0","img/none_selected_demo.jpg","true","0","80_20_practice"
"448","","bandit","28","277791","0.0-19.0-8.0","80314144","wem/bandit_either","A2NPLCJLXSG1LK","either","7","","","","","","","1","0","0","0.8","","0.5","0.5","","","","","","","0.8","0.2","","","","","","","","","74","J","0","img/none_selected_demo.jpg","true","0","80_20_practice"
"272","","bandit","29","279580","0.0-19.0-9.0","80314144","wem/bandit_either","A2NPLCJLXSG1LK","either","7","","","","","","","1","0","0","0.8","","0.5","0.5","","","","","","","0.8","0.2","","","","","","","","","74","J","0","img/none_selected_demo.jpg","true","0","80_20_practice"
"477","","bandit","30","281561","0.0-19.0-10.0","80314144","wem/bandit_either","A2NPLCJLXSG1LK","either","7","","","","","","","0","1","0","","0.8","0.5","0.5","","","0.8","0.2","","","","","","","","","","","","","74","J","0","img/none_selected_demo.jpg","true","0","80_20_practice"
"456","","bandit","31","283521","0.0-19.0-11.0","80314144","wem/bandit_either","A2NPLCJLXSG1LK","either","7","","","","","","","0","1","0","","0.8","0.5","0.5","","","0.8","0.2","","","","","","","","","","","","","74","J","0","img/none_selected_demo.jpg","true","0","80_20_practice"
"385","","bandit","32","285410","0.0-19.0-12.0","80314144","wem/bandit_either","A2NPLCJLXSG1LK","either","7","","","","","","","0","1","0","","0.8","0.5","0.5","","","0.8","0.2","","","","","","","","","","","","","74","J","0","img/none_selected_demo.jpg","true","0","80_20_practice"
"486","","bandit","33","287400","0.0-19.0-13.0","80314144","wem/bandit_either","A2NPLCJLXSG1LK","either","7","","","","","","","0","0","1","0.8","","0.5","0.5","","","","","","","0.8","0.2","","","","","","","","","74","J","0","img/none_selected_demo.jpg","true","0","80_20_practice"
"281","","bandit","34","289187","0.0-19.0-14.0","80314144","wem/bandit_either","A2NPLCJLXSG1LK","either","7","","","","","","","1","0","0","0.8","","0.5","0.5","","","","","","","0.8","0.2","","","","","","","","","74","J","0","img/none_selected_demo.jpg","true","0","80_20_practice"
"273","","bandit","35","290966","0.0-19.0-15.0","80314144","wem/bandit_either","A2NPLCJLXSG1LK","either","7","","","","","","","1","0","0","0.8","","0.5","0.5","","","","","","","0.8","0.2","","","","","","","","","74","J","0","img/none_selected_demo.jpg","true","0","80_20_practice"
"250","","bandit","36","292730","0.0-19.0-16.0","80314144","wem/bandit_either","A2NPLCJLXSG1LK","either","7","","","","","","","1","0","0","0.8","","0.5","0.5","","","","","","","0.8","0.2","","","","","","","","","74","J","0","img/none_selected_demo.jpg","true","0","80_20_practice"
"205","","bandit","37","294439","0.0-19.0-17.0","80314144","wem/bandit_either","A2NPLCJLXSG1LK","either","7","","","","","","","0","0","1","","0.8","0.5","0.5","","","0.8","0.2","","","","","","","","","","","","","74","J","0","img/none_selected_demo.jpg","true","0","80_20_practice"
"314","","bandit","38","296258","0.0-19.0-18.0","80314144","wem/bandit_either","A2NPLCJLXSG1LK","either","7","","","","","","","0","1","0","","0.8","0.5","0.5","","","0.8","0.2","","","","","","","","","","","","","74","J","0","img/none_selected_demo.jpg","true","0","80_20_practice"
"236","","bandit","39","297996","0.0-19.0-19.0","80314144","wem/bandit_either","A2NPLCJLXSG1LK","either","7","","","","","","","1","0","0","0.8","","0.5","0.5","","","","","","","0.8","0.2","","","","","","","","","74","J","0","img/none_selected_demo.jpg","true","0","80_20_practice"
"3623","","text","40","301619","0.0-20.0","80314144","wem/bandit_either","A2NPLCJLXSG1LK","either","7","32","","","","","","","","","","","","","","","","","","","","","","","","","","","","","","","","","","",""
"869","","bandit","41","303991","0.0-21.0-0.0","80314144","wem/bandit_either","A2NPLCJLXSG1LK","either","7","","","","","","","1","0","0","1","0","","","","","0","1","","","1","0","","","","","","","","","74","J","0","img/none_selected_demo.jpg","true","0",""
"6558","","text","42","310549","0.0-22.0","80314144","wem/bandit_either","A2NPLCJLXSG1LK","either","7","32","","","","","","","","","","","","","","","","","","","","","","","","","","","","","","","","","","",""
"3361","","text","43","313910","0.0-23.0","80314144","wem/bandit_either","A2NPLCJLXSG1LK","either","7","32","","","","","","","","","","","","","","","","","","","","","","","","","","","","","","","","","","",""
"3488","","text","44","317398","0.0-24.0","80314144","wem/bandit_either","A2NPLCJLXSG1LK","either","7","32","","","","","","","","","","","","","","","","","","","","","","","","","","","","","","","","","","",""
"3372","","text","45","320770","0.0-25.0","80314144","wem/bandit_either","A2NPLCJLXSG1LK","either","7","32","","","","","","","","","","","","","","","","","","","","","","","","","","","","","","","","","","",""
"9858","","text","46","330628","0.0-26.0","80314144","wem/bandit_either","A2NPLCJLXSG1LK","either","7","32","","","","","","","","","","","","","","","","","","","","","","","","","","","","","","","","","","",""
"3100","","text","47","333728","0.0-27.0","80314144","wem/bandit_either","A2NPLCJLXSG1LK","either","7","32","","","","","","","","","","","","","","","","","","","","","","","","","","","","","","","","","","",""
"6950","","text","48","340688","0.0-28.0","80314144","wem/bandit_either","A2NPLCJLXSG1LK","either","7","32","","","","","","","","","","","","","","","","","","","","","","","","","","","","","","","","","","",""
"3292","","text","49","343990","0.0-29.0","80314144","wem/bandit_either","A2NPLCJLXSG1LK","either","7","32","","","","","","","","","","","","","","","","","","","","","","","","","","","","","","","","","","",""
"6466","","text","50","350456","0.0-30.0","80314144","wem/bandit_either","A2NPLCJLXSG1LK","either","7","32","","","","","","","","","","","","","","","","","","","","","","","","","","","","","","","","","","",""
"1723","","text","51","352179","0.0-31.0","80314144","wem/bandit_either","A2NPLCJLXSG1LK","either","7","32","","","","","","","","","","","","","","","","","","","","","","","","","","","","","","","","","","",""
"2448","","text","52","354627","0.0-32.0","80314144","wem/bandit_either","A2NPLCJLXSG1LK","either","7","32","","","","","","","","","","","","","","","","","","","","","","","","","","","","","","","","","","",""
"1247","","bandit","53","357376","0.0-33.0-0.0","80314144","wem/bandit_either","A2NPLCJLXSG1LK","either","7","","","","","","","0","0","1","0.6","","0.5","0.5","0.5","0.5","","","","","0.8","0.2","0.6","0.2","","","","","","","75","K","2","","true","0","full_practice"
"184","","bandit","54","359069","0.0-33.0-1.0","80314144","wem/bandit_either","A2NPLCJLXSG1LK","either","7","","","","","","","1","0","0","0.6","","0.5","0.5","0.5","0.5","","","","","0.8","0.2","0.6","0.2","","","","","","","75","K","2","","true","0","full_practice"
"133","","bandit","55","360707","0.0-33.0-2.0","80314144","wem/bandit_either","A2NPLCJLXSG1LK","either","7","","","","","","","0","0","1","","0.6","0.5","0.5","0.5","0.5","0.8","0.2","0.6","0.2","","","","","","","","","","","75","K","2","","true","0","full_practice"
"286","","bandit","56","362497","0.0-33.0-3.0","80314144","wem/bandit_either","A2NPLCJLXSG1LK","either","7","","","","","","","0","0","1","","0.2","0.5","0.5","0.5","0.5","0.8","0.2","0.6","0.2","","","","","","","","","","","76","L","3","","true","0","full_practice"
"119","","bandit","57","364129","0.0-33.0-4.0","80314144","wem/bandit_either","A2NPLCJLXSG1LK","either","7","","","","","","","0","0","1","","0.2","0.5","0.5","0.5","0.5","0.8","0.2","0.6","0.2","","","","","","","","","","","76","L","3","","true","0","full_practice"
"38","","bandit","58","365678","0.0-33.0-5.0","80314144","wem/bandit_either","A2NPLCJLXSG1LK","either","7","","","","","","","0","0","1","","0.2","0.5","0.5","0.5","0.5","0.8","0.2","0.6","0.2","","","","","","","","","","","76","L","3","","true","0","full_practice"
"130","","bandit","59","367316","0.0-33.0-6.0","80314144","wem/bandit_either","A2NPLCJLXSG1LK","either","7","","","","","","","0","1","0","","0.8","0.5","0.5","0.5","0.5","0.8","0.2","0.6","0.2","","","","","","","","","","","72","H","0","img/none_selected.jpg","true","0","full_practice"
"257","","bandit","60","369080","0.0-33.0-7.0","80314144","wem/bandit_either","A2NPLCJLXSG1LK","either","7","","","","","","","0","1","0","","0.8","0.5","0.5","0.5","0.5","0.8","0.2","0.6","0.2","","","","","","","","","","","72","H","0","img/none_selected.jpg","true","0","full_practice"
"286","","bandit","61","370878","0.0-33.0-8.0","80314144","wem/bandit_either","A2NPLCJLXSG1LK","either","7","","","","","","","0","0","1","0.8","","0.5","0.5","0.5","0.5","","","","","0.8","0.2","0.6","0.2","","","","","","","72","H","0","img/none_selected.jpg","true","0","full_practice"
"211","","bandit","62","372606","0.0-33.0-9.0","80314144","wem/bandit_either","A2NPLCJLXSG1LK","either","7","","","","","","","0","1","0","","0.8","0.5","0.5","0.5","0.5","0.8","0.2","0.6","0.2","","","","","","","","","","","72","H","0","img/none_selected.jpg","true","0","full_practice"
"215","","bandit","63","374325","0.0-33.0-10.0","80314144","wem/bandit_either","A2NPLCJLXSG1LK","either","7","","","","","","","1","0","0","0.8","","0.5","0.5","0.5","0.5","","","","","0.8","0.2","0.6","0.2","","","","","","","72","H","0","img/none_selected.jpg","true","0","full_practice"
"243","","bandit","64","376078","0.0-33.0-11.0","80314144","wem/bandit_either","A2NPLCJLXSG1LK","either","7","","","","","","","0","1","0","","0.8","0.5","0.5","0.5","0.5","0.8","0.2","0.6","0.2","","","","","","","","","","","72","H","0","img/none_selected.jpg","true","0","full_practice"
"227","","bandit","65","377813","0.0-33.0-12.0","80314144","wem/bandit_either","A2NPLCJLXSG1LK","either","7","","","","","","","0","0","1","0.8","","0.5","0.5","0.5","0.5","","","","","0.8","0.2","0.6","0.2","","","","","","","72","H","0","img/none_selected.jpg","true","0","full_practice"
"46","","bandit","66","379365","0.0-33.0-13.0","80314144","wem/bandit_either","A2NPLCJLXSG1LK","either","7","","","","","","","0","1","0","","0.2","0.5","0.5","0.5","0.5","0.8","0.2","0.6","0.2","","","","","","","","","","","74","J","1","","true","0","full_practice"
"127","","bandit","67","380998","0.0-33.0-14.0","80314144","wem/bandit_either","A2NPLCJLXSG1LK","either","7","","","","","","","0","0","1","0.2","","0.5","0.5","0.5","0.5","","","","","0.8","0.2","0.6","0.2","","","","","","","74","J","1","","true","0","full_practice"
"238","","bandit","68","382747","0.0-33.0-15.0","80314144","wem/bandit_either","A2NPLCJLXSG1LK","either","7","","","","","","","0","0","1","","0.2","0.5","0.5","0.5","0.5","0.8","0.2","0.6","0.2","","","","","","","","","","","74","J","1","","true","0","full_practice"
"359","","bandit","69","384606","0.0-33.0-16.0","80314144","wem/bandit_either","A2NPLCJLXSG1LK","either","7","","","","","","","0","1","0","","0.8","0.5","0.5","0.5","0.5","0.8","0.2","0.6","0.2","","","","","","","","","","","72","H","0","img/none_selected.jpg","true","0","full_practice"
"394","","bandit","70","386506","0.0-33.0-17.0","80314144","wem/bandit_either","A2NPLCJLXSG1LK","either","7","","","","","","","0","1","0","","0.8","0.5","0.5","0.5","0.5","0.8","0.2","0.6","0.2","","","","","","","","","","","72","H","0","img/none_selected.jpg","true","0","full_practice"
"280","","bandit","71","388295","0.0-33.0-18.0","80314144","wem/bandit_either","A2NPLCJLXSG1LK","either","7","","","","","","","0","0","1","","0.8","0.5","0.5","0.5","0.5","0.8","0.2","0.6","0.2","","","","","","","","","","","72","H","0","img/none_selected.jpg","true","0","full_practice"
"139","","bandit","72","389938","0.0-33.0-19.0","80314144","wem/bandit_either","A2NPLCJLXSG1LK","either","7","","","","","","","0","1","0","","0.8","0.5","0.5","0.5","0.5","0.8","0.2","0.6","0.2","","","","","","","","","","","72","H","0","img/none_selected.jpg","true","0","full_practice"
"6130","","text","73","396068","0.0-34.0","80314144","wem/bandit_either","A2NPLCJLXSG1LK","either","7","32","","","","","","","","","","","","","","","","","","","","","","","","","","","","","","","","","","",""
"12064","","text","74","409137","0.0-35.0","80314144","wem/bandit_either","A2NPLCJLXSG1LK","either","7","32","","","","","","","","","","","","","","","","","","","","","","","","","","","","","","","","","","",""
"14934","","text","75","424071","0.0-36.0","80314144","wem/bandit_either","A2NPLCJLXSG1LK","either","7","32","","","","","","","","","","","","","","","","","","","","","","","","","","","","","","","","","","",""
"22074","","text","76","446145","0.0-37.0","80314144","wem/bandit_either","A2NPLCJLXSG1LK","either","7","32","","","","","","","","","","","","","","","","","","","","","","","","","","","","","","","","","","",""
"5515","","text","77","451670","0.0-38.0","80314144","wem/bandit_either","A2NPLCJLXSG1LK","either","7","32","","","","","","","","","","","","","","","","","","","","","","","","","","","","","","","","","","",""
"5331","","text","78","457001","0.0-39.0","80314144","wem/bandit_either","A2NPLCJLXSG1LK","either","7","32","","","","","","","","","","","","","","","","","","","","","","","","","","","","","","","","","","",""
"2682","","bandit","79","461185","0.0-40.0-0.0","80314144","wem/bandit_either","A2NPLCJLXSG1LK","either","7","","","","","","","0","0","1","0.1952616071","","0.4","0.8","0.6","0.2","","","","","0.01738065524","0.1480066451","0.1952616071","0.06530018083","","","","","","","75","K","2","","","1","main_expt"
"197","","bandit","80","462894","0.0-41.0-0.0","80314144","wem/bandit_either","A2NPLCJLXSG1LK","either","7","","","","","","","0","0","1","0.1652234336","","0.4","0.8","0.6","0.2","","","","","0.0196943787","0.1053714073","0.1652234336","0.1011701763","","","","","","","75","K","2","","","2","main_expt"
"249","","bandit","81","464643","0.0-42.0-0.0","80314144","wem/bandit_either","A2NPLCJLXSG1LK","either","7","","","","","","","0","0","1","0.1347382479","","0.4","0.8","0.6","0.2","","","","","0.01678573497","0.1460078221","0.1347382479","0.09486719381","","","","","","","75","K","2","","","3","main_expt"
"108","","bandit","82","466261","0.0-43.0-0.0","80314144","wem/bandit_either","A2NPLCJLXSG1LK","either","7","","","","","","","0","0","1","","0.06705802814","0.4","0.8","0.6","0.2","0.02981965743","0.1866138214","0.1684625442","0.06705802814","","","","","","","","","","","76","L","3","","","4","main_expt"
"119","","bandit","83","467896","0.0-44.0-0.0","80314144","wem/bandit_either","A2NPLCJLXSG1LK","either","7","","","","","","","1","0","0","0.0822298525","","0.4","0.8","0.6","0.2","","","","","0.02600208211","0.2445348717","0.1792029032","0.0822298525","","","","","","","76","L","3","","","5","main_expt"
"235","","bandit","84","469633","0.0-45.0-0.0","80314144","wem/bandit_either","A2NPLCJLXSG1LK","either","7","","","","","","","0","0","1","","0.09162209411","0.4","0.8","0.6","0.2","0.02332436933","0.2546962146","0.2153873139","0.09162209411","","","","","","","","","","","76","L","3","","","6","main_expt"
"1799","","bandit","85","472946","0.0-46.0-0.0","80314144","wem/bandit_either","A2NPLCJLXSG1LK","either","7","","","","","","","0","0","1","0.02864040813","","0.4","0.8","0.6","0.2","","","","","0.02864040813","0.2344841702","0.1757762721","0.1028820098","","","","","","","72","H","0","img/none_selected.jpg","","7","main_expt"
"245","","bandit","86","474701","0.0-47.0-0.0","80314144","wem/bandit_either","A2NPLCJLXSG1LK","either","7","","","","","","","0","0","1","","0.02951264166","0.4","0.8","0.6","0.2","0.02951264166","0.2473344203","0.2241229746","0.1532270122","","","","","","","","","","","72","H","0","img/none_selected.jpg","","8","main_expt"
"680","","bandit","87","476890","0.0-48.0-0.0","80314144","wem/bandit_either","A2NPLCJLXSG1LK","either","7","","","","","","","0","0","1","0.02997011939","","0.4","0.8","0.6","0.2","","","","","0.02997011939","0.2642160399","0.2199426203","0.2131450397","","","","","","","72","H","0","img/none_selected.jpg","","9","main_expt"
"46","","bandit","88","478441","0.0-49.0-0.0","80314144","wem/bandit_either","A2NPLCJLXSG1LK","either","7","","","","","","","0","0","1","0.2104627424","","0.4","0.8","0.6","0.2","","","","","0.02489651457","0.2104627424","0.1520686932","0.2985754635","","","","","","","74","J","1","","","10","main_expt"
"220","","bandit","89","480168","0.0-50.0-0.0","80314144","wem/bandit_either","A2NPLCJLXSG1LK","either","7","","","","","","","0","0","1","0.219372878","","0.4","0.8","0.6","0.2","","","","","0.01651058827","0.219372878","0.2013349999","0.2924640086","","","","","","","74","J","1","","","11","main_expt"
"153","","bandit","90","481832","0.0-51.0-0.0","80314144","wem/bandit_either","A2NPLCJLXSG1LK","either","7","","","","","","","0","0","1","","0.2105839871","0.4","0.8","0.6","0.2","0.02341729431","0.2105839871","0.2156800105","0.3264291113","","","","","","","","","","","74","J","1","","","12","main_expt"
"283","","bandit","91","483621","0.0-52.0-0.0","80314144","wem/bandit_either","A2NPLCJLXSG1LK","either","7","","","","","","","1","0","0","0.1833947696","","0.4","0.8","0.6","0.2","","","","","0.0257410372","0.2511698571","0.1833947696","0.3254913314","","","","","","","75","K","2","","","13","main_expt"
"271","","bandit","92","485398","0.0-53.0-0.0","80314144","wem/bandit_either","A2NPLCJLXSG1LK","either","7","","","","","","","0","0","1","","0.243643366","0.4","0.8","0.6","0.2","0.02570014082","0.2158977649","0.243643366","0.3428504842","","","","","","","","","","","75","K","2","","","14","main_expt"
"73","","bandit","93","486991","0.0-54.0-0.0","80314144","wem/bandit_either","A2NPLCJLXSG1LK","either","7","","","","","","","0","0","1","0.2265365198","","0.4","0.8","0.6","0.2","","","","","0.04268316416","0.2762480727","0.2265365198","0.3244047679","","","","","","","75","K","2","","","15","main_expt"
"150","","bandit","94","488641","0.0-55.0-0.0","80314144","wem/bandit_either","A2NPLCJLXSG1LK","either","7","","","","","","","0","0","1","","0.2484951132","0.4","0.8","0.6","0.2","0.04667408308","0.3202890724","0.2484951132","0.3025313629","","","","","","","","","","","75","K","2","","","16","main_expt"
"180","","bandit","95","490332","0.0-56.0-0.0","80314144","wem/bandit_either","A2NPLCJLXSG1LK","either","7","","","","","","","0","1","0","","0.2570267238","0.4","0.8","0.6","0.2","0.0506688767","0.3680552247","0.2570267238","0.3291216938","","","","","","","","","","","75","K","2","","","17","main_expt"
"324","","bandit","96","492172","0.0-57.0-0.0","80314144","wem/bandit_either","A2NPLCJLXSG1LK","either","7","","","","","","","0","0","1","0.287418789","","0.4","0.8","0.6","0.2","","","","","0.02988526167","0.3968593921","0.287418789","0.2987881532","","","","","","","75","K","2","","","18","main_expt"
"711","","bandit","97","494398","0.0-58.0-0.0","80314144","wem/bandit_either","A2NPLCJLXSG1LK","either","7","","","","","","","0","0","1","","0.281207523","0.4","0.8","0.6","0.2","0.03476350355","0.4192996399","0.2338710899","0.281207523","","","","","","","","","","","76","L","3","","","19","main_expt"
"234","","bandit","98","496145","0.0-59.0-0.0","80314144","wem/bandit_either","A2NPLCJLXSG1LK","either","7","","","","","","","0","0","1","","0.291129981","0.4","0.8","0.6","0.2","0.0233687216","0.4362768361","0.2335293464","0.291129981","","","","","","","","","","","76","L","3","","","20","main_expt"
"627","","bandit","99","498282","0.0-60.0-0.0","80314144","wem/bandit_either","A2NPLCJLXSG1LK","either","7","","","","","","","0","0","1","","0.01272547494","0.4","0.8","0.6","0.2","0.01272547494","0.4599691003","0.2434826965","0.2729578326","","","","","","","","","","","72","H","0","img/none_selected.jpg","","21","main_expt"
"116","","bandit","100","499904","0.0-61.0-0.0","80314144","wem/bandit_either","A2NPLCJLXSG1LK","either","7","","","","","","","0","0","1","","0.01739491555","0.4","0.8","0.6","0.2","0.01739491555","0.44353765","0.2702300591","0.2805141014","","","","","","","","","","","72","H","0","img/none_selected.jpg","","22","main_expt"
"598","","bandit","101","502005","0.0-62.0-0.0","80314144","wem/bandit_either","A2NPLCJLXSG1LK","either","7","","","","","","","0","0","1","","0.006692102231","0.4","0.8","0.6","0.2","0.006692102231","0.4105594395","0.2424740502","0.3016389313","","","","","","","","","","","72","H","0","img/none_selected.jpg","","23","main_expt"
"93","","bandit","102","503599","0.0-63.0-0.0","80314144","wem/bandit_either","A2NPLCJLXSG1LK","either","7","","","","","","","0","0","1","0.4243351486","","0.4","0.8","0.6","0.2","","","","","0.01209419849","0.4243351486","0.1754503809","0.2475621169","","","","","","","74","J","1","","","24","main_expt"
"375","","bandit","103","505478","0.0-64.0-0.0","80314144","wem/bandit_either","A2NPLCJLXSG1LK","either","7","","","","","","","0","0","1","","0.2607476102","0.4","0.8","0.6","0.2","0.009734580702","0.4172780312","0.2023019753","0.2607476102","","","","","","","","","","","76","L","3","","","25","main_expt"
"96","","bandit","104","507075","0.0-65.0-0.0","80314144","wem/bandit_either","A2NPLCJLXSG1LK","either","7","","","","","","","0","0","1","","0.292589008","0.4","0.8","0.6","0.2","0.008596148908","0.3981062588","0.1887270612","0.292589008","","","","","","","","","","","76","L","3","","","26","main_expt"
"149","","bandit","105","508729","0.0-66.0-0.0","80314144","wem/bandit_either","A2NPLCJLXSG1LK","either","7","","","","","","","0","0","1","","0.2978950393","0.4","0.8","0.6","0.2","0.01380650739","0.3889188119","0.2526986378","0.2978950393","","","","","","","","","","","76","L","3","","","27","main_expt"
"247","","bandit","106","510491","0.0-67.0-0.0","80314144","wem/bandit_either","A2NPLCJLXSG1LK","either","7","","","","","","","0","0","1","","0.2536033627","0.4","0.8","0.6","0.2","0.01160852189","0.3699095679","0.2536033627","0.337392419","","","","","","","","","","","75","K","2","","","28","main_expt"
"89","","bandit","107","512087","0.0-68.0-0.0","80314144","wem/bandit_either","A2NPLCJLXSG1LK","either","7","","","","","","","1","0","0","0.258258936","","0.4","0.8","0.6","0.2","","","","","0.02858314752","0.4087832773","0.258258936","0.3830759015","","","","","","","75","K","2","","","29","main_expt"
"224","","bandit","108","513811","0.0-69.0-0.0","80314144","wem/bandit_either","A2NPLCJLXSG1LK","either","7","","","","","","","0","0","1","","0.3152574144","0.4","0.8","0.6","0.2","0.0265596094","0.4162513677","0.3152574144","0.3778881599","","","","","","","","","","","75","K","2","","","30","main_expt"
"50","","bandit","109","515371","0.0-70.0-0.0","80314144","wem/bandit_either","A2NPLCJLXSG1LK","either","7","","","","","","","0","1","0","","0.3508579725","0.4","0.8","0.6","0.2","0.02828816112","0.43337534","0.3508579725","0.3585458117","","","","","","","","","","","75","K","2","","","31","main_expt"
"254","","bandit","110","517129","0.0-71.0-0.0","80314144","wem/bandit_either","A2NPLCJLXSG1LK","either","7","","","","","","","0","0","1","0.3902021543","","0.4","0.8","0.6","0.2","","","","","0.03857304495","0.4399105216","0.3902021543","0.3511664436","","","","","","","75","K","2","","","32","main_expt"
"188","","bandit","111","518817","0.0-72.0-0.0","80314144","wem/bandit_either","A2NPLCJLXSG1LK","either","7","","","","","","","0","1","0","","0.4112626521","0.4","0.8","0.6","0.2","0.02642959278","0.3859623535","0.4112626521","0.3924960189","","","","","","","","","","","75","K","2","","","33","main_expt"
"195","","bandit","112","520522","0.0-73.0-0.0","80314144","wem/bandit_either","A2NPLCJLXSG1LK","either","7","","","","","","","0","1","0","","0.3912589523","0.4","0.8","0.6","0.2","0.06800028167","0.4231921331","0.3912589523","0.3713907517","","","","","","","","","","","75","K","2","","","34","main_expt"
"172","","bandit","113","522199","0.0-74.0-0.0","80314144","wem/bandit_either","A2NPLCJLXSG1LK","either","7","","","","","","","0","0","1","0.3663646496","","0.4","0.8","0.6","0.2","","","","","0.05710280771","0.3950458867","0.3663646496","0.3929004689","","","","","","","75","K","2","","","35","main_expt"
"91","","bandit","114","523802","0.0-75.0-0.0","80314144","wem/bandit_either","A2NPLCJLXSG1LK","either","7","","","","","","","0","0","1","0.3045225128","","0.4","0.8","0.6","0.2","","","","","0.07756943076","0.4005306787","0.3045225128","0.3820467604","","","","","","","75","K","2","","","36","main_expt"
"151","","bandit","115","525460","0.0-76.0-0.0","80314144","wem/bandit_either","A2NPLCJLXSG1LK","either","7","","","","","","","0","0","1","","0.2806474599","0.4","0.8","0.6","0.2","0.06074629621","0.3972735937","0.2806474599","0.3948022939","","","","","","","","","","","75","K","2","","","37","main_expt"
"368","","bandit","116","527340","0.0-77.0-0.0","80314144","wem/bandit_either","A2NPLCJLXSG1LK","either","7","","","","","","","0","0","1","","0.3558759705","0.4","0.8","0.6","0.2","0.07063042774","0.38339591","0.3558759705","0.3769579019","","","","","","","","","","","75","K","2","","","38","main_expt"
"361","","bandit","117","529209","0.0-78.0-0.0","80314144","wem/bandit_either","A2NPLCJLXSG1LK","either","7","","","","","","","0","0","1","0.3906354184","","0.4","0.8","0.6","0.2","","","","","0.06209293178","0.3906354184","0.3194138052","0.4030344636","","","","","","","74","J","1","","","39","main_expt"
"231","","bandit","118","530948","0.0-79.0-0.0","80314144","wem/bandit_either","A2NPLCJLXSG1LK","either","7","","","","","","","0","0","1","0.3623676206","","0.4","0.8","0.6","0.2","","","","","0.06952578958","0.3623676206","0.3549086085","0.3622335218","","","","","","","74","J","1","","","40","main_expt"
"222","","bandit","119","532671","0.0-80.0-0.0","80314144","wem/bandit_either","A2NPLCJLXSG1LK","either","7","","","","","","","0","0","1","","0.3911596719","0.4","0.8","0.6","0.2","0.1291245709","0.3873704927","0.3452113815","0.3911596719","","","","","","","","","","","76","L","3","","","41","main_expt"
"26","","bandit","120","534208","0.0-81.0-0.0","80314144","wem/bandit_either","A2NPLCJLXSG1LK","either","7","","","","","","","0","0","1","","0.3921858285","0.4","0.8","0.6","0.2","0.1174523948","0.359823116","0.3522960267","0.3921858285","","","","","","","","","","","76","L","3","","","42","main_expt"
"191","","bandit","121","535907","0.0-82.0-0.0","80314144","wem/bandit_either","A2NPLCJLXSG1LK","either","7","","","","","","","0","0","1","","0.1201484523","0.4","0.8","0.6","0.2","0.1201484523","0.3710191411","0.3093122096","0.3831213528","","","","","","","","","","","72","H","0","img/none_selected.jpg","","43","main_expt"
"149","","bandit","122","537560","0.0-83.0-0.0","80314144","wem/bandit_either","A2NPLCJLXSG1LK","either","7","","","","","","","0","0","1","0.09958360536","","0.4","0.8","0.6","0.2","","","","","0.09958360536","0.3874065465","0.3026159556","0.3518708159","","","","","","","72","H","0","img/none_selected.jpg","","44","main_expt"
"327","","bandit","123","539389","0.0-84.0-0.0","80314144","wem/bandit_either","A2NPLCJLXSG1LK","either","7","","","","","","","0","0","1","","0.05173655998","0.4","0.8","0.6","0.2","0.05173655998","0.3851533971","0.3336294247","0.3122870636","","","","","","","","","","","72","H","0","img/none_selected.jpg","","45","main_expt"
"330","","bandit","124","541228","0.0-85.0-0.0","80314144","wem/bandit_either","A2NPLCJLXSG1LK","either","7","","","","","","","0","1","0","","0.3400222736","0.4","0.8","0.6","0.2","0.05945041096","0.4055883719","0.3400222736","0.2635721956","","","","","","","","","","","75","K","2","","","46","main_expt"
"74","","bandit","125","542807","0.0-86.0-0.0","80314144","wem/bandit_either","A2NPLCJLXSG1LK","either","7","","","","","","","0","0","1","0.328707825","","0.4","0.8","0.6","0.2","","","","","0.04375763727","0.3671593179","0.328707825","0.2856785865","","","","","","","75","K","2","","","47","main_expt"
"252","","bandit","126","544570","0.0-87.0-0.0","80314144","wem/bandit_either","A2NPLCJLXSG1LK","either","7","","","","","","","0","0","1","0.3307690822","","0.4","0.8","0.6","0.2","","","","","0.0666370861","0.3198203038","0.3307690822","0.2649087478","","","","","","","75","K","2","","","48","main_expt"
"102","","bandit","127","546178","0.0-88.0-0.0","80314144","wem/bandit_either","A2NPLCJLXSG1LK","either","7","","","","","","","0","1","0","","0.3438067684","0.4","0.8","0.6","0.2","0.08266213623","0.3111357295","0.3438067684","0.2462979357","","","","","","","","","","","75","K","2","","","49","main_expt"
"181","","bandit","128","547867","0.0-89.0-0.0","80314144","wem/bandit_either","A2NPLCJLXSG1LK","either","7","","","","","","","0","0","1","0.4037002216","","0.4","0.8","0.6","0.2","","","","","0.08795051988","0.3196682981","0.4037002216","0.2490076798","","","","","","","75","K","2","","","50","main_expt"
"134","","bandit","129","549509","0.0-90.0-0.0","80314144","wem/bandit_either","A2NPLCJLXSG1LK","either","7","","","","","","","0","0","1","","0.3557518394","0.4","0.8","0.6","0.2","0.07533366945","0.3088596379","0.3557518394","0.305209751","","","","","","","","","","","75","K","2","","","51","main_expt"
"307","","bandit","130","551318","0.0-91.0-0.0","80314144","wem/bandit_either","A2NPLCJLXSG1LK","either","7","","","","","","","1","0","0","0.3254324358","","0.4","0.8","0.6","0.2","","","","","0.06506638851","0.3060924957","0.3254324358","0.3087204988","","","","","","","75","K","2","","","52","main_expt"
"396","","bandit","131","553229","0.0-92.0-0.0","80314144","wem/bandit_either","A2NPLCJLXSG1LK","either","7","","","","","","","0","0","1","0.2952150256","","0.4","0.8","0.6","0.2","","","","","0.06562792832","0.3229319808","0.2952150256","0.2984188648","","","","","","","75","K","2","","","53","main_expt"
"64","","bandit","132","554808","0.0-93.0-0.0","80314144","wem/bandit_either","A2NPLCJLXSG1LK","either","7","","","","","","","0","0","1","0.300320608","","0.4","0.8","0.6","0.2","","","","","0.04630081711","0.3280138586","0.300320608","0.3353917468","","","","","","","75","K","2","","","54","main_expt"
"507","","bandit","133","556818","0.0-94.0-0.0","80314144","wem/bandit_either","A2NPLCJLXSG1LK","either","7","","","","","","","0","1","0","","0.2985084879","0.4","0.8","0.6","0.2","0.03868373719","0.2777260571","0.2985084879","0.3259144651","","","","","","","","","","","75","K","2","","","55","main_expt"
"239","","bandit","134","558569","0.0-95.0-0.0","80314144","wem/bandit_either","A2NPLCJLXSG1LK","either","7","","","","","","","1","0","0","0.2607009345","","0.4","0.8","0.6","0.2","","","","","0.06235362297","0.1791004868","0.2607009345","0.3259049121","","","","","","","75","K","2","","","56","main_expt"
"278","","bandit","135","560358","0.0-96.0-0.0","80314144","wem/bandit_either","A2NPLCJLXSG1LK","either","7","","","","","","","0","0","1","","0.2565854794","0.4","0.8","0.6","0.2","0.04639461243","0.2182265394","0.2565854794","0.3687904078","","","","","","","","","","","75","K","2","","","57","main_expt"
"126","","bandit","136","561987","0.0-97.0-0.0","80314144","wem/bandit_either","A2NPLCJLXSG1LK","either","7","","","","","","","0","0","1","0.319121847","","0.4","0.8","0.6","0.2","","","","","0.08954448139","0.2970860181","0.319121847","0.3422038875","","","","","","","75","K","2","","","58","main_expt"
"36","","bandit","137","563529","0.0-98.0-0.0","80314144","wem/bandit_either","A2NPLCJLXSG1LK","either","7","","","","","","","0","1","0","","0.3269923399","0.4","0.8","0.6","0.2","0.07390342289","0.3249685468","0.3269923399","0.3771421139","","","","","","","","","","","75","K","2","","","59","main_expt"
"287","","bandit","138","565318","0.0-99.0-0.0","80314144","wem/bandit_either","A2NPLCJLXSG1LK","either","7","","","","","","","0","0","1","","0.3150968823","0.4","0.8","0.6","0.2","0.05801548519","0.2931470039","0.3150968823","0.3620124399","","","","","","","","","","","75","K","2","","","60","main_expt"
"174","","bandit","139","567008","0.0-100.0-0.0","80314144","wem/bandit_either","A2NPLCJLXSG1LK","either","7","","","","","","","0","0","1","0.324539239","","0.4","0.8","0.6","0.2","","","","","0.07333263924","0.2646536279","0.324539239","0.3958116198","","","","","","","75","K","2","","","61","main_expt"
"165","","bandit","140","568679","0.0-101.0-0.0","80314144","wem/bandit_either","A2NPLCJLXSG1LK","either","7","","","","","","","1","0","0","0.242461968","","0.4","0.8","0.6","0.2","","","","","0.07563430262","0.242461968","0.3066306166","0.3615218546","","","","","","","74","J","1","","","62","main_expt"
"188","","bandit","141","570368","0.0-102.0-0.0","80314144","wem/bandit_either","A2NPLCJLXSG1LK","either","7","","","","","","","1","0","0","0.2206683029","","0.4","0.8","0.6","0.2","","","","","0.06826526778","0.2206683029","0.3068900116","0.3574266064","","","","","","","74","J","1","","","63","main_expt"
"212","","bandit","142","572088","0.0-103.0-0.0","80314144","wem/bandit_either","A2NPLCJLXSG1LK","either","7","","","","","","","0","0","1","0.2288959862","","0.4","0.8","0.6","0.2","","","","","0.1175271989","0.2288959862","0.2936494982","0.3541915859","","","","","","","74","J","1","","","64","main_expt"
"216","","bandit","143","573810","0.0-104.0-0.0","80314144","wem/bandit_either","A2NPLCJLXSG1LK","either","7","","","","","","","1","0","0","0.2346523549","","0.4","0.8","0.6","0.2","","","","","0.1273865191","0.2346523549","0.290236101","0.3339820985","","","","","","","74","J","1","","","65","main_expt"
"154","","bandit","144","575477","0.0-105.0-0.0","80314144","wem/bandit_either","A2NPLCJLXSG1LK","either","7","","","","","","","0","0","1","0.1881688105","","0.4","0.8","0.6","0.2","","","","","0.09075088943","0.1881688105","0.2512036594","0.3195467083","","","","","","","74","J","1","","","66","main_expt"
"189","","bandit","145","577168","0.0-106.0-0.0","80314144","wem/bandit_either","A2NPLCJLXSG1LK","either","7","","","","","","","0","0","1","0.231043846","","0.4","0.8","0.6","0.2","","","","","0.08077075725","0.231043846","0.263747572","0.3477383846","","","","","","","74","J","1","","","67","main_expt"
"129","","bandit","146","578807","0.0-107.0-0.0","80314144","wem/bandit_either","A2NPLCJLXSG1LK","either","7","","","","","","","0","0","1","0.2576664243","","0.4","0.8","0.6","0.2","","","","","0.08810311296","0.2576664243","0.2892519303","0.3365352069","","","","","","","74","J","1","","","68","main_expt"
"587","","bandit","147","580897","0.0-108.0-0.0","80314144","wem/bandit_either","A2NPLCJLXSG1LK","either","7","","","","","","","0","0","1","0.2383664846","","0.4","0.8","0.6","0.2","","","","","0.1260156682","0.2183283259","0.2383664846","0.3148812039","","","","","","","75","K","2","","","69","main_expt"
"417","","bandit","148","582814","0.0-109.0-0.0","80314144","wem/bandit_either","A2NPLCJLXSG1LK","either","7","","","","","","","0","0","1","","0.08773951932","0.4","0.8","0.6","0.2","0.08773951932","0.2260484764","0.2497111545","0.3154014692","","","","","","","","","","","72","H","0","img/none_selected.jpg","","70","main_expt"
"243","","bandit","149","584565","0.0-110.0-0.0","80314144","wem/bandit_either","A2NPLCJLXSG1LK","either","7","","","","","","","0","0","1","","0.1154304285","0.4","0.8","0.6","0.2","0.1154304285","0.3196469567","0.2095843002","0.219815459","","","","","","","","","","","72","H","0","img/none_selected.jpg","","71","main_expt"
"0","","bandit","150","586072","0.0-111.0-0.0","80314144","wem/bandit_either","A2NPLCJLXSG1LK","either","7","","","","","","","0","0","1","0.10097247","","0.4","0.8","0.6","0.2","","","","","0.10097247","0.3644141189","0.1972488467","0.2623730272","","","","","","","72","H","0","img/none_selected.jpg","","72","main_expt"
"265","","bandit","151","587847","0.0-112.0-0.0","80314144","wem/bandit_either","A2NPLCJLXSG1LK","either","7","","","","","","","0","1","0","","0.2639805735","0.4","0.8","0.6","0.2","0.0746930591","0.4081842109","0.15494396","0.2639805735","","","","","","","","","","","76","L","3","","","73","main_expt"
"283","","bandit","152","589644","0.0-113.0-0.0","80314144","wem/bandit_either","A2NPLCJLXSG1LK","either","7","","","","","","","0","0","1","","0.2770925356","0.4","0.8","0.6","0.2","0.1124392477","0.4506698749","0.1324790415","0.2770925356","","","","","","","","","","","76","L","3","","","74","main_expt"
"162","","bandit","153","591317","0.0-114.0-0.0","80314144","wem/bandit_either","A2NPLCJLXSG1LK","either","7","","","","","","","0","0","1","0.2796652475","","0.4","0.8","0.6","0.2","","","","","0.113494578","0.454520075","0.179195356","0.2796652475","","","","","","","76","L","3","","","75","main_expt"
"162","","bandit","154","592988","0.0-115.0-0.0","80314144","wem/bandit_either","A2NPLCJLXSG1LK","either","7","","","","","","","0","0","1","","0.3153427244","0.4","0.8","0.6","0.2","0.1469344428","0.466199952","0.215808919","0.3153427244","","","","","","","","","","","76","L","3","","","76","main_expt"
"357","","bandit","155","594847","0.0-116.0-0.0","80314144","wem/bandit_either","A2NPLCJLXSG1LK","either","7","","","","","","","0","0","1","0.2312347408","","0.4","0.8","0.6","0.2","","","","","0.2152215887","0.4402141775","0.2312347408","0.3676911864","","","","","","","75","K","2","","","77","main_expt"
"143","","bandit","156","596504","0.0-117.0-0.0","80314144","wem/bandit_either","A2NPLCJLXSG1LK","either","7","","","","","","","1","0","0","0.2197025874","","0.4","0.8","0.6","0.2","","","","","0.2055177618","0.4525957793","0.2197025874","0.3434277392","","","","","","","75","K","2","","","78","main_expt"
"189","","bandit","157","598196","0.0-118.0-0.0","80314144","wem/bandit_either","A2NPLCJLXSG1LK","either","7","","","","","","","0","0","1","0.2227420924","","0.4","0.8","0.6","0.2","","","","","0.222262525","0.4630799716","0.2227420924","0.3758616161","","","","","","","75","K","2","","","79","main_expt"
"36","","bandit","158","599745","0.0-119.0-0.0","80314144","wem/bandit_either","A2NPLCJLXSG1LK","either","7","","","","","","","0","0","1","","0.2283057493","0.4","0.8","0.6","0.2","0.2700860438","0.423693353","0.2283057493","0.3862393514","","","","","","","","","","","75","K","2","","","80","main_expt"
"228","","bandit","159","601484","0.0-120.0-0.0","80314144","wem/bandit_either","A2NPLCJLXSG1LK","either","7","","","","","","","0","0","1","","0.3593770893","0.4","0.8","0.6","0.2","0.2642688004","0.4319112677","0.2721525977","0.3593770893","","","","","","","","","","","76","L","3","","","81","main_expt"
"52","","bandit","160","603046","0.0-121.0-0.0","80314144","wem/bandit_either","A2NPLCJLXSG1LK","either","7","","","","","","","0","1","0","","0.4035110645","0.4","0.8","0.6","0.2","0.2824164754","0.441827487","0.2850237184","0.4035110645","","","","","","","","","","","76","L","3","","","82","main_expt"
"237","","bandit","161","604795","0.0-122.0-0.0","80314144","wem/bandit_either","A2NPLCJLXSG1LK","either","7","","","","","","","0","0","1","","0.3719627038","0.4","0.8","0.6","0.2","0.2819095575","0.4288861504","0.3236436683","0.3719627038","","","","","","","","","","","76","L","3","","","83","main_expt"
"121","","bandit","162","606423","0.0-123.0-0.0","80314144","wem/bandit_either","A2NPLCJLXSG1LK","either","7","","","","","","","0","0","1","0.3349288927","","0.4","0.8","0.6","0.2","","","","","0.2589745902","0.4350385517","0.3339638593","0.3349288927","","","","","","","76","L","3","","","84","main_expt"
"240","","bandit","163","608166","0.0-124.0-0.0","80314144","wem/bandit_either","A2NPLCJLXSG1LK","either","7","","","","","","","0","1","0","","0.3626504113","0.4","0.8","0.6","0.2","0.3626504113","0.4255505645","0.3795022601","0.3247899262","","","","","","","","","","","72","H","0","img/none_selected.jpg","","85","main_expt"
"257","","bandit","164","609926","0.0-125.0-0.0","80314144","wem/bandit_either","A2NPLCJLXSG1LK","either","7","","","","","","","0","1","0","","0.3598915268","0.4","0.8","0.6","0.2","0.3598915268","0.4330938692","0.3835523064","0.3443557019","","","","","","","","","","","72","H","0","img/none_selected.jpg","","86","main_expt"
"106","","bandit","165","611547","0.0-126.0-0.0","80314144","wem/bandit_either","A2NPLCJLXSG1LK","either","7","","","","","","","0","0","1","","0.3433052933","0.4","0.8","0.6","0.2","0.3433052933","0.4548398529","0.3772514457","0.3648776167","","","","","","","","","","","72","H","0","img/none_selected.jpg","","87","main_expt"
"75","","bandit","166","613136","0.0-127.0-0.0","80314144","wem/bandit_either","A2NPLCJLXSG1LK","either","7","","","","","","","0","1","0","","0.4022938878","0.4","0.8","0.6","0.2","0.4022938878","0.4493124031","0.3766830519","0.3609631839","","","","","","","","","","","72","H","0","img/none_selected.jpg","","88","main_expt"
"147","","bandit","167","614794","0.0-128.0-0.0","80314144","wem/bandit_either","A2NPLCJLXSG1LK","either","7","","","","","","","0","0","1","","0.4141493151","0.4","0.8","0.6","0.2","0.4141493151","0.4161110063","0.3537755119","0.3636167192","","","","","","","","","","","72","H","0","img/none_selected.jpg","","89","main_expt"
"88","","bandit","168","616382","0.0-129.0-0.0","80314144","wem/bandit_either","A2NPLCJLXSG1LK","either","7","","","","","","","1","0","0","0.4136124289","","0.4","0.8","0.6","0.2","","","","","0.4136124289","0.405260856","0.3014761449","0.3563441379","","","","","","","72","H","0","img/none_selected.jpg","","90","main_expt"
"274","","bandit","169","618165","0.0-130.0-0.0","80314144","wem/bandit_either","A2NPLCJLXSG1LK","either","7","","","","","","","0","1","0","","0.4184852842","0.4","0.8","0.6","0.2","0.4184852842","0.3827048226","0.2694038268","0.3389138503","","","","","","","","","","","72","H","0","img/none_selected.jpg","","91","main_expt"
"478","","bandit","170","620155","0.0-131.0-0.0","80314144","wem/bandit_either","A2NPLCJLXSG1LK","either","7","","","","","","","0","0","1","0.4456808576","","0.4","0.8","0.6","0.2","","","","","0.4456808576","0.3552182969","0.2651536323","0.3263360165","","","","","","","72","H","0","img/none_selected.jpg","","92","main_expt"
"78","","bandit","171","621738","0.0-132.0-0.0","80314144","wem/bandit_either","A2NPLCJLXSG1LK","either","7","","","","","","","0","0","1","0.4355219805","","0.4","0.8","0.6","0.2","","","","","0.4355219805","0.3286897504","0.1997208586","0.2844131911","","","","","","","72","H","0","img/none_selected.jpg","","93","main_expt"
"250","","bandit","172","623493","0.0-133.0-0.0","80314144","wem/bandit_either","A2NPLCJLXSG1LK","either","7","","","","","","","0","0","1","0.4609821192","","0.4","0.8","0.6","0.2","","","","","0.4609821192","0.3422490236","0.2442555344","0.2978465223","","","","","","","72","H","0","img/none_selected.jpg","","94","main_expt"
"0","","bandit","173","625009","0.0-134.0-0.0","80314144","wem/bandit_either","A2NPLCJLXSG1LK","either","7","","","","","","","1","0","0","0.3160161054","","0.4","0.8","0.6","0.2","","","","","0.4419374505","0.3160161054","0.2638839348","0.2638723705","","","","","","","74","J","1","","","95","main_expt"
"306","","bandit","174","626815","0.0-135.0-0.0","80314144","wem/bandit_either","A2NPLCJLXSG1LK","either","7","","","","","","","0","1","0","","0.2945538732","0.4","0.8","0.6","0.2","0.39438674","0.2945538732","0.2265245807","0.2276010735","","","","","","","","","","","74","J","1","","","96","main_expt"
"210","","bandit","175","628533","0.0-136.0-0.0","80314144","wem/bandit_either","A2NPLCJLXSG1LK","either","7","","","","","","","1","0","0","0.393563827","","0.4","0.8","0.6","0.2","","","","","0.3617668419","0.393563827","0.1969189177","0.2045446072","","","","","","","74","J","1","","","97","main_expt"
"283","","bandit","176","630332","0.0-137.0-0.0","80314144","wem/bandit_either","A2NPLCJLXSG1LK","either","7","","","","","","","1","0","0","0.4046254927","","0.4","0.8","0.6","0.2","","","","","0.3737913853","0.4046254927","0.1761144245","0.2436418828","","","","","","","74","J","1","","","98","main_expt"
"294","","bandit","177","632128","0.0-138.0-0.0","80314144","wem/bandit_either","A2NPLCJLXSG1LK","either","7","","","","","","","0","1","0","","0.3659012549","0.4","0.8","0.6","0.2","0.4221129479","0.3659012549","0.1211630765","0.2473144087","","","","","","","","","","","74","J","1","","","99","main_expt"
"257","","bandit","178","633894","0.0-139.0-0.0","80314144","wem/bandit_either","A2NPLCJLXSG1LK","either","7","","","","","","","0","0","1","0.400368336","","0.4","0.8","0.6","0.2","","","","","0.3857893684","0.400368336","0.1257326749","0.2707360286","","","","","","","74","J","1","","","100","main_expt"
"192","","bandit","179","635599","0.0-140.0-0.0","80314144","wem/bandit_either","A2NPLCJLXSG1LK","either","7","","","","","","","0","1","0","","0.4367931528","0.4","0.8","0.6","0.2","0.3635527264","0.4367931528","0.09975532208","0.3250409822","","","","","","","","","","","74","J","1","","","101","main_expt"
"243","","bandit","180","637343","0.0-141.0-0.0","80314144","wem/bandit_either","A2NPLCJLXSG1LK","either","7","","","","","","","1","0","0","0.4371155326","","0.4","0.8","0.6","0.2","","","","","0.3738375489","0.4371155326","0.1127414424","0.3088580598","","","","","","","74","J","1","","","102","main_expt"
"264","","bandit","181","639119","0.0-142.0-0.0","80314144","wem/bandit_either","A2NPLCJLXSG1LK","either","7","","","","","","","0","0","1","0.388648264","","0.4","0.8","0.6","0.2","","","","","0.3860163181","0.388648264","0.1232600734","0.2901001995","","","","","","","74","J","1","","","103","main_expt"
"307","","bandit","182","640932","0.0-143.0-0.0","80314144","wem/bandit_either","A2NPLCJLXSG1LK","either","7","","","","","","","0","0","1","0.3718469433","","0.4","0.8","0.6","0.2","","","","","0.390692362","0.3718469433","0.08156843846","0.309645936","","","","","","","74","J","1","","","104","main_expt"
"273","","bandit","183","642712","0.0-144.0-0.0","80314144","wem/bandit_either","A2NPLCJLXSG1LK","either","7","","","","","","","1","0","0","0.08245659199","","0.4","0.8","0.6","0.2","","","","","0.4139082553","0.3920304628","0.08245659199","0.3386062745","","","","","","","75","K","2","","","105","main_expt"
"97","","bandit","184","644312","0.0-145.0-0.0","80314144","wem/bandit_either","A2NPLCJLXSG1LK","either","7","","","","","","","0","1","0","","0.1276639339","0.4","0.8","0.6","0.2","0.3295275825","0.3733497125","0.1276639339","0.3827539061","","","","","","","","","","","75","K","2","","","106","main_expt"
"268","","bandit","185","646092","0.0-146.0-0.0","80314144","wem/bandit_either","A2NPLCJLXSG1LK","either","7","","","","","","","0","0","1","","0.1812689745","0.4","0.8","0.6","0.2","0.3499712774","0.3878439861","0.1812689745","0.3401355396","","","","","","","","","","","75","K","2","","","107","main_expt"
"157","","bandit","186","647752","0.0-147.0-0.0","80314144","wem/bandit_either","A2NPLCJLXSG1LK","either","7","","","","","","","0","0","1","","0.2187982558","0.4","0.8","0.6","0.2","0.2666891207","0.3529013302","0.2187982558","0.3258039352","","","","","","","","","","","75","K","2","","","108","main_expt"
"80","","bandit","187","649335","0.0-148.0-0.0","80314144","wem/bandit_either","A2NPLCJLXSG1LK","either","7","","","","","","","0","0","1","0.374919859","","0.4","0.8","0.6","0.2","","","","","0.2575067634","0.3457683734","0.2201216928","0.374919859","","","","","","","76","L","3","","","109","main_expt"
"161","","bandit","188","651012","0.0-149.0-0.0","80314144","wem/bandit_either","A2NPLCJLXSG1LK","either","7","","","","","","","0","1","0","","0.3656186065","0.4","0.8","0.6","0.2","0.2664913793","0.3316873257","0.1789817232","0.3656186065","","","","","","","","","","","76","L","3","","","110","main_expt"
"228","","bandit","189","652752","0.0-150.0-0.0","80314144","wem/bandit_either","A2NPLCJLXSG1LK","either","7","","","","","","","0","1","0","","0.3649701027","0.4","0.8","0.6","0.2","0.2233446911","0.3434945318","0.2404947452","0.3649701027","","","","","","","","","","","76","L","3","","","111","main_expt"
"240","","bandit","190","654501","0.0-151.0-0.0","80314144","wem/bandit_either","A2NPLCJLXSG1LK","either","7","","","","","","","0","0","1","","0.3371716456","0.4","0.8","0.6","0.2","0.2170082082","0.2729480053","0.2959558532","0.3371716456","","","","","","","","","","","76","L","3","","","112","main_expt"
"267","","bandit","191","656268","0.0-152.0-0.0","80314144","wem/bandit_either","A2NPLCJLXSG1LK","either","7","","","","","","","0","0","1","","0.2587224119","0.4","0.8","0.6","0.2","0.1912277411","0.2579672073","0.2966985553","0.2587224119","","","","","","","","","","","76","L","3","","","113","main_expt"
"81","","bandit","192","657866","0.0-153.0-0.0","80314144","wem/bandit_either","A2NPLCJLXSG1LK","either","7","","","","","","","0","1","0","","0.1691995451","0.4","0.8","0.6","0.2","0.1691995451","0.24654084","0.3289730608","0.2384324947","","","","","","","","","","","72","H","0","img/none_selected.jpg","","114","main_expt"
"252","","bandit","193","659621","0.0-154.0-0.0","80314144","wem/bandit_either","A2NPLCJLXSG1LK","either","7","","","","","","","1","0","0","0.1263730162","","0.4","0.8","0.6","0.2","","","","","0.1263730162","0.246649757","0.2783705844","0.2705755989","","","","","","","72","H","0","img/none_selected.jpg","","115","main_expt"
"254","","bandit","194","661391","0.0-155.0-0.0","80314144","wem/bandit_either","A2NPLCJLXSG1LK","either","7","","","","","","","0","0","1","0.1130092975","","0.4","0.8","0.6","0.2","","","","","0.1130092975","0.2190482835","0.2990421824","0.2666822","","","","","","","72","H","0","img/none_selected.jpg","","116","main_expt"
"120","","bandit","195","663021","0.0-156.0-0.0","80314144","wem/bandit_either","A2NPLCJLXSG1LK","either","7","","","","","","","0","0","1","0.1317362661","","0.4","0.8","0.6","0.2","","","","","0.1317362661","0.1860086181","0.3214730448","0.2664749026","","","","","","","72","H","0","img/none_selected.jpg","","117","main_expt"
"178","","bandit","196","664701","0.0-157.0-0.0","80314144","wem/bandit_either","A2NPLCJLXSG1LK","either","7","","","","","","","0","0","1","0.3996160597","","0.4","0.8","0.6","0.2","","","","","0.08460291254","0.1765749983","0.3996160597","0.285497096","","","","","","","75","K","2","","","118","main_expt"
"219","","bandit","197","666420","0.0-158.0-0.0","80314144","wem/bandit_either","A2NPLCJLXSG1LK","either","7","","","","","","","0","1","0","","0.4143362638","0.4","0.8","0.6","0.2","0.09168363065","0.1840588368","0.4143362638","0.3004427434","","","","","","","","","","","75","K","2","","","119","main_expt"
"223","","bandit","198","668151","0.0-159.0-0.0","80314144","wem/bandit_either","A2NPLCJLXSG1LK","either","7","","","","","","","0","0","1","","0.372340151","0.4","0.8","0.6","0.2","0.06729372802","0.1988357929","0.372340151","0.2419855731","","","","","","","","","","","75","K","2","","","120","main_expt"
"239","","bandit","199","669894","0.0-160.0-0.0","80314144","wem/bandit_either","A2NPLCJLXSG1LK","either","7","","","","","","","1","0","0","0.2315674","","0.4","0.8","0.6","0.2","","","","","0.08346408207","0.2315674","0.3910424524","0.3054132847","","","","","","","74","J","1","","","121","main_expt"
"187","","bandit","200","671581","0.0-161.0-0.0","80314144","wem/bandit_either","A2NPLCJLXSG1LK","either","7","","","","","","","0","0","1","0.2041322171","","0.4","0.8","0.6","0.2","","","","","0.05632743158","0.2041322171","0.3813410711","0.2473202095","","","","","","","74","J","1","","","122","main_expt"
"10","","bandit","201","673100","0.0-162.0-0.0","80314144","wem/bandit_either","A2NPLCJLXSG1LK","either","7","","","","","","","0","0","1","","0.1945268209","0.4","0.8","0.6","0.2","0.05516745574","0.1945268209","0.4247291795","0.2909195989","","","","","","","","","","","74","J","1","","","123","main_expt"
"140","","bandit","202","674751","0.0-163.0-0.0","80314144","wem/bandit_either","A2NPLCJLXSG1LK","either","7","","","","","","","0","0","1","","0.3493750294","0.4","0.8","0.6","0.2","0.05528311039","0.2206749142","0.4311179713","0.3493750294","","","","","","","","","","","76","L","3","","","124","main_expt"
"246","","bandit","203","676501","0.0-164.0-0.0","80314144","wem/bandit_either","A2NPLCJLXSG1LK","either","7","","","","","","","0","0","1","","0.3883668019","0.4","0.8","0.6","0.2","0.07149807259","0.212012295","0.4085782939","0.3883668019","","","","","","","","","","","76","L","3","","","125","main_expt"
"410","","bandit","204","678420","0.0-165.0-0.0","80314144","wem/bandit_either","A2NPLCJLXSG1LK","either","7","","","","","","","0","0","1","0.4110861309","","0.4","0.8","0.6","0.2","","","","","0.1137803622","0.1656684785","0.4110861309","0.3888129637","","","","","","","75","K","2","","","126","main_expt"
"213","","bandit","205","680142","0.0-166.0-0.0","80314144","wem/bandit_either","A2NPLCJLXSG1LK","either","7","","","","","","","0","0","1","","0.4214671818","0.4","0.8","0.6","0.2","0.1003054442","0.1685301808","0.4214671818","0.3659195129","","","","","","","","","","","75","K","2","","","127","main_expt"
"214","","bandit","206","681871","0.0-167.0-0.0","80314144","wem/bandit_either","A2NPLCJLXSG1LK","either","7","","","","","","","0","0","1","0.1378169536","","0.4","0.8","0.6","0.2","","","","","0.1378169536","0.1703551811","0.36889317","0.3689954399","","","","","","","72","H","0","img/none_selected.jpg","","128","main_expt"
"102","","bandit","207","683480","0.0-168.0-0.0","80314144","wem/bandit_either","A2NPLCJLXSG1LK","either","7","","","","","","","0","0","1","","0.1333081235","0.4","0.8","0.6","0.2","0.1333081235","0.1624753709","0.3840267129","0.3600340942","","","","","","","","","","","72","H","0","img/none_selected.jpg","","129","main_expt"
"280","","bandit","208","685260","0.0-169.0-0.0","80314144","wem/bandit_either","A2NPLCJLXSG1LK","either","7","","","","","","","0","0","1","0.2335662737","","0.4","0.8","0.6","0.2","","","","","0.1682212827","0.2335662737","0.3809677701","0.3580797835","","","","","","","74","J","1","","","130","main_expt"
"257","","bandit","209","687031","0.0-170.0-0.0","80314144","wem/bandit_either","A2NPLCJLXSG1LK","either","7","","","","","","","0","0","1","0.240441026","","0.4","0.8","0.6","0.2","","","","","0.2193829955","0.240441026","0.3681933818","0.3785893338","","","","","","","74","J","1","","","131","main_expt"
"142","","bandit","210","688681","0.0-171.0-0.0","80314144","wem/bandit_either","A2NPLCJLXSG1LK","either","7","","","","","","","0","0","1","0.2266699971","","0.4","0.8","0.6","0.2","","","","","0.2693349046","0.2266699971","0.3664045944","0.3764735404","","","","","","","74","J","1","","","132","main_expt"
"412","","bandit","211","690600","0.0-172.0-0.0","80314144","wem/bandit_either","A2NPLCJLXSG1LK","either","7","","","","","","","0","0","1","","0.3433534211","0.4","0.8","0.6","0.2","0.2576546077","0.1994193025","0.4046437197","0.3433534211","","","","","","","","","","","76","L","3","","","133","main_expt"
"200","","bandit","212","692309","0.0-173.0-0.0","80314144","wem/bandit_either","A2NPLCJLXSG1LK","either","7","","","","","","","1","0","0","0.3606247271","","0.4","0.8","0.6","0.2","","","","","0.2412372273","0.1891464922","0.364490756","0.3606247271","","","","","","","76","L","3","","","134","main_expt"
"147","","bandit","213","693961","0.0-174.0-0.0","80314144","wem/bandit_either","A2NPLCJLXSG1LK","either","7","","","","","","","0","0","1","","0.3268624306","0.4","0.8","0.6","0.2","0.2198641054","0.1614798668","0.311914316","0.3268624306","","","","","","","","","","","76","L","3","","","135","main_expt"
"125","","bandit","214","695590","0.0-175.0-0.0","80314144","wem/bandit_either","A2NPLCJLXSG1LK","either","7","","","","","","","0","0","1","","0.2854606769","0.4","0.8","0.6","0.2","0.2504132697","0.1880386222","0.2653901568","0.2854606769","","","","","","","","","","","76","L","3","","","136","main_expt"
"290","","bandit","215","697389","0.0-176.0-0.0","80314144","wem/bandit_either","A2NPLCJLXSG1LK","either","7","","","","","","","0","0","1","0.2413295316","","0.4","0.8","0.6","0.2","","","","","0.1912230989","0.1961818793","0.2413295316","0.3311747399","","","","","","","75","K","2","","","137","main_expt"
"281","","bandit","216","699181","0.0-177.0-0.0","80314144","wem/bandit_either","A2NPLCJLXSG1LK","either","7","","","","","","","0","0","1","0.2060295423","","0.4","0.8","0.6","0.2","","","","","0.1576256809","0.2857678963","0.2060295423","0.2570785188","","","","","","","75","K","2","","","138","main_expt"
"98","","bandit","217","700801","0.0-178.0-0.0","80314144","wem/bandit_either","A2NPLCJLXSG1LK","either","7","","","","","","","0","0","1","0.1019788138","","0.4","0.8","0.6","0.2","","","","","0.1019788138","0.3449131854","0.1809645164","0.2858060749","","","","","","","72","H","0","img/none_selected.jpg","","139","main_expt"
"177","","bandit","218","702479","0.0-179.0-0.0","80314144","wem/bandit_either","A2NPLCJLXSG1LK","either","7","","","","","","","0","0","1","0.07754087054","","0.4","0.8","0.6","0.2","","","","","0.07754087054","0.2537716732","0.1843216893","0.2975559752","","","","","","","72","H","0","img/none_selected.jpg","","140","main_expt"
"242","","bandit","219","704221","0.0-180.0-0.0","80314144","wem/bandit_either","A2NPLCJLXSG1LK","either","7","","","","","","","0","0","1","0.09489610577","","0.4","0.8","0.6","0.2","","","","","0.09489610577","0.2858111263","0.1651876155","0.2802168405","","","","","","","72","H","0","img/none_selected.jpg","","141","main_expt"
"230","","bandit","220","705960","0.0-181.0-0.0","80314144","wem/bandit_either","A2NPLCJLXSG1LK","either","7","","","","","","","0","0","1","0.303049367","","0.4","0.8","0.6","0.2","","","","","0.09601428546","0.303049367","0.1536427928","0.2231986748","","","","","","","74","J","1","","","142","main_expt"
"0","","bandit","221","707469","0.0-182.0-0.0","80314144","wem/bandit_either","A2NPLCJLXSG1LK","either","7","","","","","","","0","0","1","0.2969419413","","0.4","0.8","0.6","0.2","","","","","0.08301142993","0.2969419413","0.1546140226","0.2032880393","","","","","","","74","J","1","","","143","main_expt"
"293","","bandit","222","709262","0.0-183.0-0.0","80314144","wem/bandit_either","A2NPLCJLXSG1LK","either","7","","","","","","","0","0","1","0.1746031107","","0.4","0.8","0.6","0.2","","","","","0.09599686985","0.3128690494","0.1746031107","0.1967741464","","","","","","","75","K","2","","","144","main_expt"
"347","","bandit","223","711130","0.0-184.0-0.0","80314144","wem/bandit_either","A2NPLCJLXSG1LK","either","7","","","","","","","0","0","1","0.2021387556","","0.4","0.8","0.6","0.2","","","","","0.07499383622","0.2991796355","0.2021387556","0.2283154954","","","","","","","75","K","2","","","145","main_expt"
"229","","bandit","224","712870","0.0-185.0-0.0","80314144","wem/bandit_either","A2NPLCJLXSG1LK","either","7","","","","","","","0","0","1","0.2118700154","","0.4","0.8","0.6","0.2","","","","","0.09566861","0.3163763193","0.2504344391","0.2118700154","","","","","","","76","L","3","","","146","main_expt"
"402","","bandit","225","714781","0.0-186.0-0.0","80314144","wem/bandit_either","A2NPLCJLXSG1LK","either","7","","","","","","","1","0","0","0.210437557","","0.4","0.8","0.6","0.2","","","","","0.08578591382","0.3198025905","0.2437718569","0.210437557","","","","","","","76","L","3","","","147","main_expt"
"250","","bandit","226","716540","0.0-187.0-0.0","80314144","wem/bandit_either","A2NPLCJLXSG1LK","either","7","","","","","","","0","1","0","","0.2370661354","0.4","0.8","0.6","0.2","0.1147887709","0.2588245921","0.2446677265","0.2370661354","","","","","","","","","","","76","L","3","","","148","main_expt"
"411","","bandit","227","718459","0.0-188.0-0.0","80314144","wem/bandit_either","A2NPLCJLXSG1LK","either","7","","","","","","","0","0","1","","0.2430363771","0.4","0.8","0.6","0.2","0.1378203382","0.248712437","0.2911002833","0.2430363771","","","","","","","","","","","76","L","3","","","149","main_expt"
"186","","bandit","228","720151","0.0-189.0-0.0","80314144","wem/bandit_either","A2NPLCJLXSG1LK","either","7","","","","","","","0","0","1","0.2242182381","","0.4","0.8","0.6","0.2","","","","","0.1414499273","0.179144869","0.3529655025","0.2242182381","","","","","","","76","L","3","","","150","main_expt"
"268","","bandit","229","721921","0.0-190.0-0.0","80314144","wem/bandit_either","A2NPLCJLXSG1LK","either","7","","","","","","","0","0","1","","0.1997145133","0.4","0.8","0.6","0.2","0.07852348772","0.1545669956","0.3885741111","0.1997145133","","","","","","","","","","","76","L","3","","","151","main_expt"
"130","","bandit","230","723560","0.0-191.0-0.0","80314144","wem/bandit_either","A2NPLCJLXSG1LK","either","7","","","","","","","0","0","1","","0.2195927633","0.4","0.8","0.6","0.2","0.08485793113","0.1651714415","0.3690499696","0.2195927633","","","","","","","","","","","76","L","3","","","152","main_expt"
"64","","bandit","231","725131","0.0-192.0-0.0","80314144","wem/bandit_either","A2NPLCJLXSG1LK","either","7","","","","","","","0","0","1","","0.2121816628","0.4","0.8","0.6","0.2","0.1083789561","0.2396245514","0.3710492515","0.2121816628","","","","","","","","","","","76","L","3","","","153","main_expt"
"125","","bandit","232","726771","0.0-193.0-0.0","80314144","wem/bandit_either","A2NPLCJLXSG1LK","either","7","","","","","","","0","0","1","","0.3483335413","0.4","0.8","0.6","0.2","0.109098481","0.2085838567","0.3483335413","0.1830588608","","","","","","","","","","","75","K","2","","","154","main_expt"
"290","","bandit","233","728570","0.0-194.0-0.0","80314144","wem/bandit_either","A2NPLCJLXSG1LK","either","7","","","","","","","0","0","1","","0.3343760247","0.4","0.8","0.6","0.2","0.1758262092","0.1864274254","0.3343760247","0.2031423662","","","","","","","","","","","75","K","2","","","155","main_expt"
"311","","bandit","234","730389","0.0-195.0-0.0","80314144","wem/bandit_either","A2NPLCJLXSG1LK","either","7","","","","","","","0","0","1","0.2046597001","","0.4","0.8","0.6","0.2","","","","","0.2046597001","0.1750870897","0.3742013553","0.2022731065","","","","","","","72","H","0","img/none_selected.jpg","","156","main_expt"
"259","","bandit","235","732151","0.0-196.0-0.0","80314144","wem/bandit_either","A2NPLCJLXSG1LK","either","7","","","","","","","0","0","1","","0.1774751899","0.4","0.8","0.6","0.2","0.1774751899","0.1321985386","0.3620366094","0.1826661219","","","","","","","","","","","72","H","0","img/none_selected.jpg","","157","main_expt"
"138","","bandit","236","733801","0.0-197.0-0.0","80314144","wem/bandit_either","A2NPLCJLXSG1LK","either","7","","","","","","","0","0","1","0.1341899746","","0.4","0.8","0.6","0.2","","","","","0.1612033886","0.1341899746","0.3671714071","0.1658993888","","","","","","","74","J","1","","","158","main_expt"
"463","","bandit","237","735771","0.0-198.0-0.0","80314144","wem/bandit_either","A2NPLCJLXSG1LK","either","7","","","","","","","0","0","1","0.1567784951","","0.4","0.8","0.6","0.2","","","","","0.1586838935","0.1567784951","0.4015988616","0.1620079643","","","","","","","74","J","1","","","159","main_expt"
"300","","bandit","238","737580","0.0-199.0-0.0","80314144","wem/bandit_either","A2NPLCJLXSG1LK","either","7","","","","","","","1","0","0","0.4004877553","","0.4","0.8","0.6","0.2","","","","","0.2159944071","0.1615549635","0.4004877553","0.2453635642","","","","","","","75","K","2","","","160","main_expt"
"251","","bandit","239","739348","0.0-200.0-0.0","80314144","wem/bandit_either","A2NPLCJLXSG1LK","either","7","","","","","","","0","0","1","0.4095849454","","0.4","0.8","0.6","0.2","","","","","0.2105769377","0.1854631015","0.4095849454","0.2456373749","","","","","","","75","K","2","","","161","main_expt"
"307","","bandit","240","741161","0.0-201.0-0.0","80314144","wem/bandit_either","A2NPLCJLXSG1LK","either","7","","","","","","","0","0","1","","0.3978002783","0.4","0.8","0.6","0.2","0.2006925765","0.21229469","0.3978002783","0.2460125232","","","","","","","","","","","75","K","2","","","162","main_expt"
"408","","bandit","241","743080","0.0-202.0-0.0","80314144","wem/bandit_either","A2NPLCJLXSG1LK","either","7","","","","","","","0","0","1","0.4180552148","","0.4","0.8","0.6","0.2","","","","","0.2365124807","0.162194177","0.4180552148","0.2013568893","","","","","","","75","K","2","","","163","main_expt"
"408","","bandit","242","744990","0.0-203.0-0.0","80314144","wem/bandit_either","A2NPLCJLXSG1LK","either","7","","","","","","","0","0","1","","0.4407560021","0.4","0.8","0.6","0.2","0.2157370886","0.1535707797","0.4407560021","0.1933595846","","","","","","","","","","","75","K","2","","","164","main_expt"
"227","","bandit","243","746728","0.0-204.0-0.0","80314144","wem/bandit_either","A2NPLCJLXSG1LK","either","7","","","","","","","0","0","1","","0.167552211","0.4","0.8","0.6","0.2","0.2166787898","0.2315934193","0.4582960521","0.167552211","","","","","","","","","","","76","L","3","","","165","main_expt"
"232","","bandit","244","748467","0.0-205.0-0.0","80314144","wem/bandit_either","A2NPLCJLXSG1LK","either","7","","","","","","","0","0","1","0.4337500892","","0.4","0.8","0.6","0.2","","","","","0.1846262972","0.2579087381","0.4337500892","0.1311237951","","","","","","","75","K","2","","","166","main_expt"
"274","","bandit","245","750241","0.0-206.0-0.0","80314144","wem/bandit_either","A2NPLCJLXSG1LK","either","7","","","","","","","0","0","1","","0.1888750078","0.4","0.8","0.6","0.2","0.1888750078","0.2496457694","0.4537582576","0.1714029316","","","","","","","","","","","72","H","0","img/none_selected.jpg","","167","main_expt"
"1","","bandit","246","751755","0.0-207.0-0.0","80314144","wem/bandit_either","A2NPLCJLXSG1LK","either","7","","","","","","","0","0","1","0.234558796","","0.4","0.8","0.6","0.2","","","","","0.2315683769","0.234558796","0.4473485534","0.1494402723","","","","","","","74","J","1","","","168","main_expt"
"188","","bandit","247","753447","0.0-208.0-0.0","80314144","wem/bandit_either","A2NPLCJLXSG1LK","either","7","","","","","","","1","0","0","0.4471591033","","0.4","0.8","0.6","0.2","","","","","0.2018123945","0.2458600006","0.4471591033","0.1819888556","","","","","","","75","K","2","","","169","main_expt"
"287","","bandit","248","755241","0.0-209.0-0.0","80314144","wem/bandit_either","A2NPLCJLXSG1LK","either","7","","","","","","","1","0","0","0.4581839475","","0.4","0.8","0.6","0.2","","","","","0.139238222","0.2214583157","0.4581839475","0.2329206984","","","","","","","75","K","2","","","170","main_expt"
"240","","bandit","249","756994","0.0-210.0-0.0","80314144","wem/bandit_either","A2NPLCJLXSG1LK","either","7","","","","","","","0","0","1","0.4674995421","","0.4","0.8","0.6","0.2","","","","","0.1466511374","0.296208115","0.4674995421","0.2000607923","","","","","","","75","K","2","","","171","main_expt"
"244","","bandit","250","758749","0.0-211.0-0.0","80314144","wem/bandit_either","A2NPLCJLXSG1LK","either","7","","","","","","","0","0","1","","0.4455620345","0.4","0.8","0.6","0.2","0.1348290388","0.3062379281","0.4455620345","0.2342957318","","","","","","","","","","","75","K","2","","","172","main_expt"
"57","","bandit","251","760307","0.0-212.0-0.0","80314144","wem/bandit_either","A2NPLCJLXSG1LK","either","7","","","","","","","0","0","1","","0.2189308077","0.4","0.8","0.6","0.2","0.1521691919","0.2498067723","0.4471610379","0.2189308077","","","","","","","","","","","76","L","3","","","173","main_expt"
"267","","bandit","252","762090","0.0-213.0-0.0","80314144","wem/bandit_either","A2NPLCJLXSG1LK","either","7","","","","","","","0","0","1","","0.2373932689","0.4","0.8","0.6","0.2","0.2191935525","0.1803522277","0.4496576915","0.2373932689","","","","","","","","","","","76","L","3","","","174","main_expt"
"438","","bandit","253","764040","0.0-214.0-0.0","80314144","wem/bandit_either","A2NPLCJLXSG1LK","either","7","","","","","","","0","0","1","","0.2160264752","0.4","0.8","0.6","0.2","0.219961305","0.2014319342","0.4715297358","0.2160264752","","","","","","","","","","","76","L","3","","","175","main_expt"
"266","","bandit","254","765808","0.0-215.0-0.0","80314144","wem/bandit_either","A2NPLCJLXSG1LK","either","7","","","","","","","0","0","1","0.1882485239","","0.4","0.8","0.6","0.2","","","","","0.1882485239","0.2122003168","0.477956151","0.1990604306","","","","","","","72","H","0","img/none_selected.jpg","","176","main_expt"
"400","","bandit","255","767717","0.0-216.0-0.0","80314144","wem/bandit_either","A2NPLCJLXSG1LK","either","7","","","","","","","0","0","1","","0.1644902553","0.4","0.8","0.6","0.2","0.1644902553","0.2629069455","0.4563721206","0.1729978196","","","","","","","","","","","72","H","0","img/none_selected.jpg","","177","main_expt"
"303","","bandit","256","769527","0.0-217.0-0.0","80314144","wem/bandit_either","A2NPLCJLXSG1LK","either","7","","","","","","","0","0","1","0.2336104206","","0.4","0.8","0.6","0.2","","","","","0.1713669852","0.2336104206","0.4409869931","0.1633080779","","","","","","","74","J","1","","","178","main_expt"
"233","","bandit","257","771260","0.0-218.0-0.0","80314144","wem/bandit_either","A2NPLCJLXSG1LK","either","7","","","","","","","0","0","1","0.1887504226","","0.4","0.8","0.6","0.2","","","","","0.2263400462","0.1887504226","0.4243126063","0.1243251356","","","","","","","74","J","1","","","179","main_expt"
"288","","bandit","258","773069","0.0-219.0-0.0","80314144","wem/bandit_either","A2NPLCJLXSG1LK","either","7","","","","","","","0","1","0","","0.4312830743","0.4","0.8","0.6","0.2","0.2036870175","0.138376641","0.4312830743","0.1150149055","","","","","","","","","","","75","K","2","","","180","main_expt"
"277","","bandit","259","774848","0.0-220.0-0.0","80314144","wem/bandit_either","A2NPLCJLXSG1LK","either","7","","","","","","","0","1","0","","0.4433127893","0.4","0.8","0.6","0.2","0.1934599198","0.1883992559","0.4433127893","0.1407924877","","","","","","","","","","","75","K","2","","","181","main_expt"
"255","","bandit","260","776607","0.0-221.0-0.0","80314144","wem/bandit_either","A2NPLCJLXSG1LK","either","7","","","","","","","1","0","0","0.440136403","","0.4","0.8","0.6","0.2","","","","","0.2424515525","0.128889003","0.440136403","0.09672650852","","","","","","","75","K","2","","","182","main_expt"
"216","","bandit","261","778326","0.0-222.0-0.0","80314144","wem/bandit_either","A2NPLCJLXSG1LK","either","7","","","","","","","0","0","1","0.4347693449","","0.4","0.8","0.6","0.2","","","","","0.1961777535","0.1748769843","0.4347693449","0.09888002855","","","","","","","75","K","2","","","183","main_expt"
"254","","bandit","262","780089","0.0-223.0-0.0","80314144","wem/bandit_either","A2NPLCJLXSG1LK","either","7","","","","","","","0","0","1","0.4277130926","","0.4","0.8","0.6","0.2","","","","","0.1489283113","0.1945994373","0.4277130926","0.07200145298","","","","","","","75","K","2","","","184","main_expt"
"106","","bandit","263","781697","0.0-224.0-0.0","80314144","wem/bandit_either","A2NPLCJLXSG1LK","either","7","","","","","","","0","0","1","0.3956248437","","0.4","0.8","0.6","0.2","","","","","0.1499965078","0.1644748654","0.3956248437","0.09476413333","","","","","","","75","K","2","","","185","main_expt"
"245","","bandit","264","783446","0.0-225.0-0.0","80314144","wem/bandit_either","A2NPLCJLXSG1LK","either","7","","","","","","","0","0","1","0.06556422103","","0.4","0.8","0.6","0.2","","","","","0.2169832988","0.1504635592","0.3748928266","0.06556422103","","","","","","","76","L","3","","","186","main_expt"
"287","","bandit","265","785240","0.0-226.0-0.0","80314144","wem/bandit_either","A2NPLCJLXSG1LK","either","7","","","","","","","1","0","0","0.3848139325","","0.4","0.8","0.6","0.2","","","","","0.2655186329","0.1760039214","0.3848139325","0.08901149072","","","","","","","75","K","2","","","187","main_expt"
"279","","bandit","266","787039","0.0-227.0-0.0","80314144","wem/bandit_either","A2NPLCJLXSG1LK","either","7","","","","","","","1","0","0","0.3990176401","","0.4","0.8","0.6","0.2","","","","","0.2738785118","0.1203267588","0.3990176401","0.09471428588","","","","","","","75","K","2","","","188","main_expt"
"407","","bandit","267","788948","0.0-228.0-0.0","80314144","wem/bandit_either","A2NPLCJLXSG1LK","either","7","","","","","","","0","0","1","","0.3581396838","0.4","0.8","0.6","0.2","0.3041874674","0.1171540391","0.3581396838","0.05118235823","","","","","","","","","","","75","K","2","","","189","main_expt"
"338","","bandit","268","790799","0.0-229.0-0.0","80314144","wem/bandit_either","A2NPLCJLXSG1LK","either","7","","","","","","","0","0","1","","0.05788318751","0.4","0.8","0.6","0.2","0.3229453735","0.1535230761","0.2882972244","0.05788318751","","","","","","","","","","","76","L","3","","","190","main_expt"
"265","","bandit","269","792567","0.0-230.0-0.0","80314144","wem/bandit_either","A2NPLCJLXSG1LK","either","7","","","","","","","0","0","1","","0.3145326233","0.4","0.8","0.6","0.2","0.3818249757","0.1372750947","0.3145326233","0.08736915481","","","","","","","","","","","75","K","2","","","191","main_expt"
"253","","bandit","270","794326","0.0-231.0-0.0","80314144","wem/bandit_either","A2NPLCJLXSG1LK","either","7","","","","","","","0","0","1","","0.3270603702","0.4","0.8","0.6","0.2","0.4157726243","0.1047771501","0.3270603702","0.08251019118","","","","","","","","","","","75","K","2","","","192","main_expt"
"354","","bandit","271","796189","0.0-232.0-0.0","80314144","wem/bandit_either","A2NPLCJLXSG1LK","either","7","","","","","","","0","0","1","0.3604030797","","0.4","0.8","0.6","0.2","","","","","0.4611608212","0.1100845432","0.3604030797","0.06897628064","","","","","","","75","K","2","","","193","main_expt"
"197","","bandit","272","797899","0.0-233.0-0.0","80314144","wem/bandit_either","A2NPLCJLXSG1LK","either","7","","","","","","","0","0","1","0.1468163818","","0.4","0.8","0.6","0.2","","","","","0.4508818777","0.1468163818","0.357423186","0.06801266305","","","","","","","74","J","1","","","194","main_expt"
"123","","bandit","273","799537","0.0-234.0-0.0","80314144","wem/bandit_either","A2NPLCJLXSG1LK","either","7","","","","","","","0","1","0","","0.4278921451","0.4","0.8","0.6","0.2","0.4278921451","0.1495594621","0.3697779856","0.09923709358","","","","","","","","","","","72","H","0","img/none_selected.jpg","","195","main_expt"
"199","","bandit","274","801240","0.0-235.0-0.0","80314144","wem/bandit_either","A2NPLCJLXSG1LK","either","7","","","","","","","0","1","0","","0.4256293003","0.4","0.8","0.6","0.2","0.4256293003","0.2263220537","0.3617177512","0.1103063831","","","","","","","","","","","72","H","0","img/none_selected.jpg","","196","main_expt"
"240","","bandit","275","802999","0.0-236.0-0.0","80314144","wem/bandit_either","A2NPLCJLXSG1LK","either","7","","","","","","","0","0","1","0.4476975038","","0.4","0.8","0.6","0.2","","","","","0.4476975038","0.2204718804","0.3775990084","0.07377144043","","","","","","","72","H","0","img/none_selected.jpg","","197","main_expt"
"273","","bandit","276","804785","0.0-237.0-0.0","80314144","wem/bandit_either","A2NPLCJLXSG1LK","either","7","","","","","","","0","1","0","","0.4434357272","0.4","0.8","0.6","0.2","0.4434357272","0.2401118457","0.4144042571","0.08863448313","","","","","","","","","","","72","H","0","img/none_selected.jpg","","198","main_expt"
"272","","bandit","277","806567","0.0-238.0-0.0","80314144","wem/bandit_either","A2NPLCJLXSG1LK","either","7","","","","","","","0","0","1","0.4245114622","","0.4","0.8","0.6","0.2","","","","","0.4245114622","0.2673724497","0.4081775392","0.1082179128","","","","","","","72","H","0","img/none_selected.jpg","","199","main_expt"
"273","","bandit","278","808348","0.0-239.0-0.0","80314144","wem/bandit_either","A2NPLCJLXSG1LK","either","7","","","","","","","0","1","0","","0.4087100315","0.4","0.8","0.6","0.2","0.4087100315","0.3125307902","0.4166156547","0.09350688576","","","","","","","","","","","72","H","0","img/none_selected.jpg","","200","main_expt"
"214","","bandit","279","810069","0.0-240.0-0.0","80314144","wem/bandit_either","A2NPLCJLXSG1LK","either","7","","","","","","","0","0","1","0.4361521275","","0.4","0.8","0.6","0.2","","","","","0.4361521275","0.2914574258","0.4306537176","0.1036625099","","","","","","","72","H","0","img/none_selected.jpg","","201","main_expt"
"110","","bandit","280","811687","0.0-241.0-0.0","80314144","wem/bandit_either","A2NPLCJLXSG1LK","either","7","","","","","","","0","1","0","","0.3332596158","0.4","0.8","0.6","0.2","0.3332596158","0.2550600684","0.449382563","0.1216733889","","","","","","","","","","","72","H","0","img/none_selected.jpg","","202","main_expt"
"218","","bandit","281","813408","0.0-242.0-0.0","80314144","wem/bandit_either","A2NPLCJLXSG1LK","either","7","","","","","","","0","0","1","","0.3581848779","0.4","0.8","0.6","0.2","0.3581848779","0.2769745997","0.4506576586","0.120655788","","","","","","","","","","","72","H","0","img/none_selected.jpg","","203","main_expt"
"114","","bandit","282","815032","0.0-243.0-0.0","80314144","wem/bandit_either","A2NPLCJLXSG1LK","either","7","","","","","","","0","0","1","0.3597133043","","0.4","0.8","0.6","0.2","","","","","0.3597133043","0.2752990059","0.454839243","0.1082970726","","","","","","","72","H","0","img/none_selected.jpg","","204","main_expt"
"273","","bandit","283","816812","0.0-244.0-0.0","80314144","wem/bandit_either","A2NPLCJLXSG1LK","either","7","","","","","","","1","0","0","0.2901512169","","0.4","0.8","0.6","0.2","","","","","0.3630183988","0.2901512169","0.4512889682","0.09143681274","","","","","","","74","J","1","","","205","main_expt"
"100","","bandit","284","818425","0.0-245.0-0.0","80314144","wem/bandit_either","A2NPLCJLXSG1LK","either","7","","","","","","","0","1","0","","0.2823763913","0.4","0.8","0.6","0.2","0.3737494834","0.2823763913","0.4591490044","0.08377413986","","","","","","","","","","","74","J","1","","","206","main_expt"
"253","","bandit","285","820188","0.0-246.0-0.0","80314144","wem/bandit_either","A2NPLCJLXSG1LK","either","7","","","","","","","0","0","1","0.2708062506","","0.4","0.8","0.6","0.2","","","","","0.3668784438","0.2708062506","0.4650593633","0.1585073664","","","","","","","74","J","1","","","207","main_expt"
"147","","bandit","286","821837","0.0-247.0-0.0","80314144","wem/bandit_either","A2NPLCJLXSG1LK","either","7","","","","","","","0","1","0","","0.2641553663","0.4","0.8","0.6","0.2","0.4045351895","0.2641553663","0.4641513068","0.162299901","","","","","","","","","","","74","J","1","","","208","main_expt"
"259","","bandit","287","823596","0.0-248.0-0.0","80314144","wem/bandit_either","A2NPLCJLXSG1LK","either","7","","","","","","","0","0","1","0.2704675845","","0.4","0.8","0.6","0.2","","","","","0.4402386934","0.2704675845","0.4567807332","0.1542266077","","","","","","","74","J","1","","","209","main_expt"
"296","","bandit","288","825402","0.0-249.0-0.0","80314144","wem/bandit_either","A2NPLCJLXSG1LK","either","7","","","","","","","1","0","0","0.3420868926","","0.4","0.8","0.6","0.2","","","","","0.4483623408","0.3420868926","0.428253188","0.1890415559","","","","","","","74","J","1","","","210","main_expt"
"250","","bandit","289","827158","0.0-250.0-0.0","80314144","wem/bandit_either","A2NPLCJLXSG1LK","either","7","","","","","","","0","1","0","","0.3069688952","0.4","0.8","0.6","0.2","0.4471415093","0.3069688952","0.410271385","0.1818133019","","","","","","","","","","","74","J","1","","","211","main_expt"
"257","","bandit","290","828922","0.0-251.0-0.0","80314144","wem/bandit_either","A2NPLCJLXSG1LK","either","7","","","","","","","0","0","1","0.3005379093","","0.4","0.8","0.6","0.2","","","","","0.4374655127","0.3005379093","0.4065587724","0.1782747956","","","","","","","74","J","1","","","212","main_expt"
"216","","bandit","291","830652","0.0-252.0-0.0","80314144","wem/bandit_either","A2NPLCJLXSG1LK","either","7","","","","","","","0","0","1","","0.213882915","0.4","0.8","0.6","0.2","0.4381457257","0.213882915","0.4007116542","0.1935195711","","","","","","","","","","","74","J","1","","","213","main_expt"
"150","","bandit","292","832305","0.0-253.0-0.0","80314144","wem/bandit_either","A2NPLCJLXSG1LK","either","7","","","","","","","0","0","1","0.2138557204","","0.4","0.8","0.6","0.2","","","","","0.4643769008","0.2138557204","0.4246209323","0.2421176173","","","","","","","74","J","1","","","214","main_expt"
"271","","bandit","293","834088","0.0-254.0-0.0","80314144","wem/bandit_either","A2NPLCJLXSG1LK","either","7","","","","","","","1","0","0","0.3993057066","","0.4","0.8","0.6","0.2","","","","","0.4328812357","0.2142566612","0.3993057066","0.2629876012","","","","","","","75","K","2","","","215","main_expt"
"247","","bandit","294","835844","0.0-255.0-0.0","80314144","wem/bandit_either","A2NPLCJLXSG1LK","either","7","","","","","","","0","0","1","","0.3987772474","0.4","0.8","0.6","0.2","0.4064507999","0.1900351118","0.3987772474","0.2977714141","","","","","","","","","","","75","K","2","","","216","main_expt"
"207","","bandit","295","837555","0.0-256.0-0.0","80314144","wem/bandit_either","A2NPLCJLXSG1LK","either","7","","","","","","","1","0","0","0.4101433534","","0.4","0.8","0.6","0.2","","","","","0.4197961641","0.2185169477","0.4101433534","0.3017601552","","","","","","","75","K","2","","","217","main_expt"
"286","","bandit","296","839350","0.0-257.0-0.0","80314144","wem/bandit_either","A2NPLCJLXSG1LK","either","7","","","","","","","1","0","0","0.4448029092","","0.4","0.8","0.6","0.2","","","","","0.4167397569","0.2240895604","0.4448029092","0.2888566207","","","","","","","75","K","2","","","218","main_expt"
"301","","bandit","297","841156","0.0-258.0-0.0","80314144","wem/bandit_either","A2NPLCJLXSG1LK","either","7","","","","","","","0","0","1","","0.4454766299","0.4","0.8","0.6","0.2","0.4250944588","0.1990808675","0.4454766299","0.2844008008","","","","","","","","","","","75","K","2","","","219","main_expt"
"338","","bandit","298","842996","0.0-259.0-0.0","80314144","wem/bandit_either","A2NPLCJLXSG1LK","either","7","","","","","","","1","0","0","0.4610997771","","0.4","0.8","0.6","0.2","","","","","0.4173336587","0.266602996","0.4610997771","0.2225062479","","","","","","","75","K","2","","","220","main_expt"
"447","","bandit","299","844945","0.0-260.0-0.0","80314144","wem/bandit_either","A2NPLCJLXSG1LK","either","7","","","","","","","0","0","1","0.4642289789","","0.4","0.8","0.6","0.2","","","","","0.3944711005","0.2443661227","0.4642289789","0.2409900116","","","","","","","75","K","2","","","221","main_expt"
"205","","bandit","300","846674","0.0-261.0-0.0","80314144","wem/bandit_either","A2NPLCJLXSG1LK","either","7","","","","","","","0","0","1","","0.4641270597","0.4","0.8","0.6","0.2","0.3619306912","0.2205922116","0.4641270597","0.1989678636","","","","","","","","","","","75","K","2","","","222","main_expt"
"162","","bandit","301","848350","0.0-262.0-0.0","80314144","wem/bandit_either","A2NPLCJLXSG1LK","either","7","","","","","","","0","0","1","0.4697433819","","0.4","0.8","0.6","0.2","","","","","0.4117842179","0.1861223506","0.4697433819","0.1902867071","","","","","","","75","K","2","","","223","main_expt"
"310","","bandit","302","850169","0.0-263.0-0.0","80314144","wem/bandit_either","A2NPLCJLXSG1LK","either","7","","","","","","","0","0","1","","0.2076415522","0.4","0.8","0.6","0.2","0.3965092367","0.1668884863","0.460898083","0.2076415522","","","","","","","","","","","76","L","3","","","224","main_expt"
"96","","bandit","303","851786","0.0-264.0-0.0","80314144","wem/bandit_either","A2NPLCJLXSG1LK","either","7","","","","","","","1","0","0","0.1481472712","","0.4","0.8","0.6","0.2","","","","","0.4084477862","0.1481472712","0.4394890665","0.2393469174","","","","","","","74","J","1","","","225","main_expt"
"477","","bandit","304","853777","0.0-265.0-0.0","80314144","wem/bandit_either","A2NPLCJLXSG1LK","either","7","","","","","","","0","0","1","0.1140846591","","0.4","0.8","0.6","0.2","","","","","0.4104601526","0.1140846591","0.4520955237","0.2425440376","","","","","","","74","J","1","","","226","main_expt"
"340","","bandit","305","855630","0.0-266.0-0.0","80314144","wem/bandit_either","A2NPLCJLXSG1LK","either","7","","","","","","","0","0","1","0.1074218354","","0.4","0.8","0.6","0.2","","","","","0.3899733519","0.1074218354","0.4324220164","0.2365603363","","","","","","","74","J","1","","","227","main_expt"
"181","","bandit","306","857319","0.0-267.0-0.0","80314144","wem/bandit_either","A2NPLCJLXSG1LK","either","7","","","","","","","0","0","1","","0.08065165665","0.4","0.8","0.6","0.2","0.3796730737","0.08065165665","0.4220482421","0.2127958296","","","","","","","","","","","74","J","1","","","228","main_expt"
"136","","bandit","307","858965","0.0-268.0-0.0","80314144","wem/bandit_either","A2NPLCJLXSG1LK","either","7","","","","","","","0","0","1","0.4046866514","","0.4","0.8","0.6","0.2","","","","","0.4046866514","0.07774059362","0.3885749154","0.2207861463","","","","","","","72","H","0","img/none_selected.jpg","","229","main_expt"
"498","","bandit","308","860963","0.0-269.0-0.0","80314144","wem/bandit_either","A2NPLCJLXSG1LK","either","7","","","","","","","1","0","0","0.1109483114","","0.4","0.8","0.6","0.2","","","","","0.3988793555","0.1109483114","0.4023755806","0.2589226453","","","","","","","74","J","1","","","230","main_expt"
"428","","bandit","309","862905","0.0-270.0-0.0","80314144","wem/bandit_either","A2NPLCJLXSG1LK","either","7","","","","","","","0","0","1","0.05902300203","","0.4","0.8","0.6","0.2","","","","","0.3981898202","0.05902300203","0.3768725222","0.2956158432","","","","","","","74","J","1","","","231","main_expt"
"589","","bandit","310","865003","0.0-271.0-0.0","80314144","wem/bandit_either","A2NPLCJLXSG1LK","either","7","","","","","","","0","0","1","0.06675855664","","0.4","0.8","0.6","0.2","","","","","0.4411941832","0.06675855664","0.3619917427","0.3202484073","","","","","","","74","J","1","","","232","main_expt"
"733","","bandit","311","867243","0.0-272.0-0.0","80314144","wem/bandit_either","A2NPLCJLXSG1LK","either","7","","","","","","","0","0","1","","0.06703699679","0.4","0.8","0.6","0.2","0.42967461","0.06703699679","0.3833578816","0.2933644042","","","","","","","","","","","74","J","1","","","233","main_expt"
"246","","bandit","312","868995","0.0-273.0-0.0","80314144","wem/bandit_either","A2NPLCJLXSG1LK","either","7","","","","","","","0","0","1","","0.3106154811","0.4","0.8","0.6","0.2","0.4242798354","0.05331023031","0.3552131768","0.3106154811","","","","","","","","","","","76","L","3","","","234","main_expt"
"276","","bandit","313","870780","0.0-274.0-0.0","80314144","wem/bandit_either","A2NPLCJLXSG1LK","either","7","","","","","","","0","0","1","0.3135084543","","0.4","0.8","0.6","0.2","","","","","0.4617388459","0.05187545802","0.3135084543","0.3158990995","","","","","","","75","K","2","","","235","main_expt"
"282","","bandit","314","872563","0.0-275.0-0.0","80314144","wem/bandit_either","A2NPLCJLXSG1LK","either","7","","","","","","","0","0","1","0.244945467","","0.4","0.8","0.6","0.2","","","","","0.4619510484","0.06939909985","0.244945467","0.3036927748","","","","","","","75","K","2","","","236","main_expt"
"242","","bandit","315","874319","0.0-276.0-0.0","80314144","wem/bandit_either","A2NPLCJLXSG1LK","either","7","","","","","","","1","0","0","0.3491021326","","0.4","0.8","0.6","0.2","","","","","0.4482398789","0.1210409879","0.1823839079","0.3491021326","","","","","","","76","L","3","","","237","main_expt"
"246","","bandit","316","876075","0.0-277.0-0.0","80314144","wem/bandit_either","A2NPLCJLXSG1LK","either","7","","","","","","","0","0","1","","0.3939254097","0.4","0.8","0.6","0.2","0.4193969143","0.1147840357","0.1685050226","0.3939254097","","","","","","","","","","","76","L","3","","","238","main_expt"
"217","","bandit","317","877794","0.0-278.0-0.0","80314144","wem/bandit_either","A2NPLCJLXSG1LK","either","7","","","","","","","0","1","0","","0.379108978","0.4","0.8","0.6","0.2","0.4203848948","0.1006463842","0.1606472637","0.379108978","","","","","","","","","","","76","L","3","","","239","main_expt"
"354","","bandit","318","879653","0.0-279.0-0.0","80314144","wem/bandit_either","A2NPLCJLXSG1LK","either","7","","","","","","","0","1","0","","0.3876209848","0.4","0.8","0.6","0.2","0.4489383263","0.1008771133","0.1512795466","0.3876209848","","","","","","","","","","","76","L","3","","","240","main_expt"
"265","","bandit","319","881418","0.0-280.0-0.0","80314144","wem/bandit_either","A2NPLCJLXSG1LK","either","7","","","","","","","0","1","0","","0.3839625774","0.4","0.8","0.6","0.2","0.4636195567","0.09981833296","0.1916219391","0.3839625774","","","","","","","","","","","76","L","3","","","241","main_expt"
"236","","bandit","320","883161","0.0-281.0-0.0","80314144","wem/bandit_either","A2NPLCJLXSG1LK","either","7","","","","","","","0","0","1","","0.3477958629","0.4","0.8","0.6","0.2","0.4575307695","0.1171772993","0.1641013935","0.3477958629","","","","","","","","","","","76","L","3","","","242","main_expt"
"281","","bandit","321","884954","0.0-282.0-0.0","80314144","wem/bandit_either","A2NPLCJLXSG1LK","either","7","","","","","","","0","0","1","","0.3500658948","0.4","0.8","0.6","0.2","0.4449554393","0.1239984651","0.2064320789","0.3500658948","","","","","","","","","","","76","L","3","","","243","main_expt"
"332","","bandit","322","886794","0.0-283.0-0.0","80314144","wem/bandit_either","A2NPLCJLXSG1LK","either","7","","","","","","","1","0","0","0.2205496082","","0.4","0.8","0.6","0.2","","","","","0.4525763452","0.1126152289","0.2205496082","0.3452717574","","","","","","","75","K","2","","","244","main_expt"
"244","","bandit","323","888553","0.0-284.0-0.0","80314144","wem/bandit_either","A2NPLCJLXSG1LK","either","7","","","","","","","0","0","1","0.214276823","","0.4","0.8","0.6","0.2","","","","","0.4753838692","0.1524829061","0.214276823","0.3162288444","","","","","","","75","K","2","","","245","main_expt"
"124","","bandit","324","890184","0.0-285.0-0.0","80314144","wem/bandit_either","A2NPLCJLXSG1LK","either","7","","","","","","","0","0","1","0.2084567316","","0.4","0.8","0.6","0.2","","","","","0.4623654582","0.1921750243","0.2084567316","0.2894596967","","","","","","","75","K","2","","","246","main_expt"
"137","","bandit","325","891830","0.0-286.0-0.0","80314144","wem/bandit_either","A2NPLCJLXSG1LK","either","7","","","","","","","0","0","1","","0.2232303491","0.4","0.8","0.6","0.2","0.4331165165","0.1931065189","0.2232303491","0.2642296388","","","","","","","","","","","75","K","2","","","247","main_expt"
"110","","bandit","326","893441","0.0-287.0-0.0","80314144","wem/bandit_either","A2NPLCJLXSG1LK","either","7","","","","","","","0","0","1","0.4401602984","","0.4","0.8","0.6","0.2","","","","","0.4401602984","0.2189994516","0.2541796534","0.2534255255","","","","","","","72","H","0","img/none_selected.jpg","","248","main_expt"
"337","","bandit","327","895278","0.0-288.0-0.0","80314144","wem/bandit_either","A2NPLCJLXSG1LK","either","7","","","","","","","0","0","1","0.1989243371","","0.4","0.8","0.6","0.2","","","","","0.430892824","0.1989243371","0.232462199","0.2252980971","","","","","","","74","J","1","","","249","main_expt"
"376","","bandit","328","897171","0.0-289.0-0.0","80314144","wem/bandit_either","A2NPLCJLXSG1LK","either","7","","","","","","","0","0","1","0.2877664065","","0.4","0.8","0.6","0.2","","","","","0.4282509168","0.1635706079","0.2877664065","0.298830738","","","","","","","75","K","2","","","250","main_expt"
"190","","bandit","329","898871","0.0-290.0-0.0","80314144","wem/bandit_either","A2NPLCJLXSG1LK","either","7","","","","","","","0","0","1","0.1738575253","","0.4","0.8","0.6","0.2","","","","","0.4499649657","0.1738575253","0.2947451014","0.3113207693","","","","","","","74","J","1","","","251","main_expt"
"224","","bandit","330","900601","0.0-291.0-0.0","80314144","wem/bandit_either","A2NPLCJLXSG1LK","either","7","","","","","","","0","0","1","0.458069626","","0.4","0.8","0.6","0.2","","","","","0.458069626","0.1868362494","0.2581410112","0.2952600368","","","","","","","72","H","0","img/none_selected.jpg","","252","main_expt"
"347","","bandit","331","902451","0.0-292.0-0.0","80314144","wem/bandit_either","A2NPLCJLXSG1LK","either","7","","","","","","","0","0","1","","0.2837805879","0.4","0.8","0.6","0.2","0.4419078322","0.1888839862","0.2526573277","0.2837805879","","","","","","","","","","","76","L","3","","","253","main_expt"
"387","","bandit","332","904341","0.0-293.0-0.0","80314144","wem/bandit_either","A2NPLCJLXSG1LK","either","7","","","","","","","0","0","1","","0.2625272406","0.4","0.8","0.6","0.2","0.4374591364","0.1763585164","0.2625272406","0.2664224025","","","","","","","","","","","75","K","2","","","254","main_expt"
