"rt","responses","trial_type","trial_index","time_elapsed","internal_node_id","subjID","study","MID","cond","drift","key_press","expt_phase","target","like","value","connected","gems","bombs","no_reward","GemPrChosen","BombPrChosen","GainOverPainPr_0","GainOverPainPr_1","GainOverPainPr_2","GainOverPainPr_3","LosePr_0","LosePr_1","LosePr_2","LosePr_3","WinPr_0","WinPr_1","WinPr_2","WinPr_3","Q0","Q1","Q2","gender","age","ethnicity","respCharCode","respKey","respChoiceNum","respChoice","practice","trial_counter","trial_label"
"12714","{""Q0"":""A1K8QNLYYYX21W""}","survey-text","0","12738","0.0-0.0","80554673","wem/bandit_either","A1K8QNLYYYX21W","either","4","","","","","","","","","","","","","","","","","","","","","","","","","","","","","","","","","","","",""
"7836","","text","1","21583","0.0-1.0","80554673","wem/bandit_either","A1K8QNLYYYX21W","either","4","32","","","","","","","","","","","","","","","","","","","","","","","","","","","","","","","","","","",""
"2768","","text","2","24355","0.0-2.0","80554673","wem/bandit_either","A1K8QNLYYYX21W","either","4","32","","","","","","","","","","","","","","","","","","","","","","","","","","","","","","","","","","",""
"1293","","text","3","25650","0.0-3.0","80554673","wem/bandit_either","A1K8QNLYYYX21W","either","4","32","","","","","","","","","","","","","","","","","","","","","","","","","","","","","","","","","","",""
"2002","","text","4","27655","0.0-4.0","80554673","wem/bandit_either","A1K8QNLYYYX21W","either","4","32","","","","","","","","","","","","","","","","","","","","","","","","","","","","","","","","","","",""
"1342","","text","5","29000","0.0-5.0","80554673","wem/bandit_either","A1K8QNLYYYX21W","either","4","32","","","","","","","","","","","","","","","","","","","","","","","","","","","","","","","","","","",""
"421","","text","6","29425","0.0-6.0","80554673","wem/bandit_either","A1K8QNLYYYX21W","either","4","32","","","","","","","","","","","","","","","","","","","","","","","","","","","","","","","","","","",""
"444","","text","7","29872","0.0-7.0","80554673","wem/bandit_either","A1K8QNLYYYX21W","either","4","32","","","","","","","","","","","","","","","","","","","","","","","","","","","","","","","","","","",""
"60573","","identification","8","90501","0.0-8.0-0.0","80554673","wem/bandit_either","A1K8QNLYYYX21W","either","4","","identification_pre","the village of Zur","","","","","","","","","","","","","","","","","","","","","","","","","","","","","","","","",""
"3313","","identification","9","94852","0.0-8.0-1.0","80554673","wem/bandit_either","A1K8QNLYYYX21W","either","4","","identification_pre","the village of Nyx","","","","","","","","","","","","","","","","","","","","","","","","","","","","","","","","",""
"3407","","text","10","99263","0.0-9.0","80554673","wem/bandit_either","A1K8QNLYYYX21W","either","4","32","","","","","","","","","","","","","","","","","","","","","","","","","","","","","","","","","","",""
"863","","text","11","100130","0.0-10.0","80554673","wem/bandit_either","A1K8QNLYYYX21W","either","4","32","","","","","","","","","","","","","","","","","","","","","","","","","","","","","","","","","","",""
"363","","text","12","100496","0.0-11.0","80554673","wem/bandit_either","A1K8QNLYYYX21W","either","4","32","","","","","","","","","","","","","","","","","","","","","","","","","","","","","","","","","","",""
"14064","","text","13","114564","0.0-12.0","80554673","wem/bandit_either","A1K8QNLYYYX21W","either","4","32","","","","","","","","","","","","","","","","","","","","","","","","","","","","","","","","","","",""
"1901","","bandit","14","117994","0.0-13.0-0.0","80554673","wem/bandit_either","A1K8QNLYYYX21W","either","4","","","","","","","0","0","1","0","0","","","","","0","","","","0","","","","","","","","","","74","J","0","img/none_selected_demo.jpg","true","0",""
"1001","","bandit","15","120518","0.0-14.0-0.0","80554673","wem/bandit_either","A1K8QNLYYYX21W","either","4","","","","","","","0","0","1","0","0","","","","","0","","","","0","","","","","","","","","","75","K","0","img/none_selected_demo.jpg","true","0",""
"3209","","text","16","123732","0.0-15.0","80554673","wem/bandit_either","A1K8QNLYYYX21W","either","4","32","","","","","","","","","","","","","","","","","","","","","","","","","","","","","","","","","","",""
"842","","text","17","124576","0.0-16.0","80554673","wem/bandit_either","A1K8QNLYYYX21W","either","4","32","","","","","","","","","","","","","","","","","","","","","","","","","","","","","","","","","","",""
"361","","text","18","124944","0.0-17.0","80554673","wem/bandit_either","A1K8QNLYYYX21W","either","4","32","","","","","","","","","","","","","","","","","","","","","","","","","","","","","","","","","","",""
"354","","text","19","125301","0.0-18.0","80554673","wem/bandit_either","A1K8QNLYYYX21W","either","4","32","","","","","","","","","","","","","","","","","","","","","","","","","","","","","","","","","","",""
"896","","bandit","20","127711","0.0-19.0-0.0","80554673","wem/bandit_either","A1K8QNLYYYX21W","either","4","","","","","","","0","0","1","0.2","","0.5","0.5","","","","","","","0.8","0.2","","","","","","","","","75","K","1","","true","0","80_20_practice"
"361","","bandit","21","129585","0.0-19.0-1.0","80554673","wem/bandit_either","A1K8QNLYYYX21W","either","4","","","","","","","0","0","1","0.2","","0.5","0.5","","","","","","","0.8","0.2","","","","","","","","","75","K","1","","true","0","80_20_practice"
"47","","bandit","22","131149","0.0-19.0-2.0","80554673","wem/bandit_either","A1K8QNLYYYX21W","either","4","","","","","","","0","0","1","","0.8","0.5","0.5","","","0.8","0.2","","","","","","","","","","","","","74","J","0","img/none_selected_demo.jpg","true","0","80_20_practice"
"152","","bandit","23","132819","0.0-19.0-3.0","80554673","wem/bandit_either","A1K8QNLYYYX21W","either","4","","","","","","","1","0","0","0.8","","0.5","0.5","","","","","","","0.8","0.2","","","","","","","","","74","J","0","img/none_selected_demo.jpg","true","0","80_20_practice"
"3","","bandit","24","134335","0.0-19.0-4.0","80554673","wem/bandit_either","A1K8QNLYYYX21W","either","4","","","","","","","0","0","1","0.2","","0.5","0.5","","","","","","","0.8","0.2","","","","","","","","","75","K","1","","true","0","80_20_practice"
"130","","bandit","25","135983","0.0-19.0-5.0","80554673","wem/bandit_either","A1K8QNLYYYX21W","either","4","","","","","","","1","0","0","0.8","","0.5","0.5","","","","","","","0.8","0.2","","","","","","","","","74","J","0","img/none_selected_demo.jpg","true","0","80_20_practice"
"2","","bandit","26","137499","0.0-19.0-6.0","80554673","wem/bandit_either","A1K8QNLYYYX21W","either","4","","","","","","","0","0","1","0.2","","0.5","0.5","","","","","","","0.8","0.2","","","","","","","","","75","K","1","","true","0","80_20_practice"
"100","","bandit","27","139116","0.0-19.0-7.0","80554673","wem/bandit_either","A1K8QNLYYYX21W","either","4","","","","","","","0","1","0","","0.8","0.5","0.5","","","0.8","0.2","","","","","","","","","","","","","74","J","0","img/none_selected_demo.jpg","true","0","80_20_practice"
"30","","bandit","28","140658","0.0-19.0-8.0","80554673","wem/bandit_either","A1K8QNLYYYX21W","either","4","","","","","","","0","1","0","","0.8","0.5","0.5","","","0.8","0.2","","","","","","","","","","","","","74","J","0","img/none_selected_demo.jpg","true","0","80_20_practice"
"218","","bandit","29","142388","0.0-19.0-9.0","80554673","wem/bandit_either","A1K8QNLYYYX21W","either","4","","","","","","","0","0","1","0.8","","0.5","0.5","","","","","","","0.8","0.2","","","","","","","","","74","J","0","img/none_selected_demo.jpg","true","0","80_20_practice"
"40","","bandit","30","143941","0.0-19.0-10.0","80554673","wem/bandit_either","A1K8QNLYYYX21W","either","4","","","","","","","0","1","0","","0.8","0.5","0.5","","","0.8","0.2","","","","","","","","","","","","","74","J","0","img/none_selected_demo.jpg","true","0","80_20_practice"
"45","","bandit","31","145546","0.0-19.0-11.0","80554673","wem/bandit_either","A1K8QNLYYYX21W","either","4","","","","","","","1","0","0","0.8","","0.5","0.5","","","","","","","0.8","0.2","","","","","","","","","74","J","0","img/none_selected_demo.jpg","true","0","80_20_practice"
"212","","bandit","32","147269","0.0-19.0-12.0","80554673","wem/bandit_either","A1K8QNLYYYX21W","either","4","","","","","","","1","0","0","0.8","","0.5","0.5","","","","","","","0.8","0.2","","","","","","","","","74","J","0","img/none_selected_demo.jpg","true","0","80_20_practice"
"4","","bandit","33","148790","0.0-19.0-13.0","80554673","wem/bandit_either","A1K8QNLYYYX21W","either","4","","","","","","","1","0","0","0.2","","0.5","0.5","","","","","","","0.8","0.2","","","","","","","","","75","K","1","","true","0","80_20_practice"
"180","","bandit","34","150500","0.0-19.0-14.0","80554673","wem/bandit_either","A1K8QNLYYYX21W","either","4","","","","","","","0","0","1","","0.8","0.5","0.5","","","0.8","0.2","","","","","","","","","","","","","74","J","0","img/none_selected_demo.jpg","true","0","80_20_practice"
"93","","bandit","35","152108","0.0-19.0-15.0","80554673","wem/bandit_either","A1K8QNLYYYX21W","either","4","","","","","","","1","0","0","0.8","","0.5","0.5","","","","","","","0.8","0.2","","","","","","","","","74","J","0","img/none_selected_demo.jpg","true","0","80_20_practice"
"241","","bandit","36","153864","0.0-19.0-16.0","80554673","wem/bandit_either","A1K8QNLYYYX21W","either","4","","","","","","","1","0","0","0.8","","0.5","0.5","","","","","","","0.8","0.2","","","","","","","","","74","J","0","img/none_selected_demo.jpg","true","0","80_20_practice"
"139","","bandit","37","155520","0.0-19.0-17.0","80554673","wem/bandit_either","A1K8QNLYYYX21W","either","4","","","","","","","0","0","1","0.8","","0.5","0.5","","","","","","","0.8","0.2","","","","","","","","","74","J","0","img/none_selected_demo.jpg","true","0","80_20_practice"
"95","","bandit","38","157125","0.0-19.0-18.0","80554673","wem/bandit_either","A1K8QNLYYYX21W","either","4","","","","","","","1","0","0","0.8","","0.5","0.5","","","","","","","0.8","0.2","","","","","","","","","74","J","0","img/none_selected_demo.jpg","true","0","80_20_practice"
"11","","bandit","39","158650","0.0-19.0-19.0","80554673","wem/bandit_either","A1K8QNLYYYX21W","either","4","","","","","","","0","1","0","","0.8","0.5","0.5","","","0.8","0.2","","","","","","","","","","","","","74","J","0","img/none_selected_demo.jpg","true","0","80_20_practice"
"5426","","text","40","164080","0.0-20.0","80554673","wem/bandit_either","A1K8QNLYYYX21W","either","4","32","","","","","","","","","","","","","","","","","","","","","","","","","","","","","","","","","","",""
"705","","bandit","41","166303","0.0-21.0-0.0","80554673","wem/bandit_either","A1K8QNLYYYX21W","either","4","","","","","","","1","0","0","1","0","","","","","0","1","","","1","0","","","","","","","","","74","J","0","img/none_selected_demo.jpg","true","0",""
"1787","","text","42","168098","0.0-22.0","80554673","wem/bandit_either","A1K8QNLYYYX21W","either","4","74","","","","","","","","","","","","","","","","","","","","","","","","","","","","","","","","","","",""
"2540","","text","43","170643","0.0-23.0","80554673","wem/bandit_either","A1K8QNLYYYX21W","either","4","32","","","","","","","","","","","","","","","","","","","","","","","","","","","","","","","","","","",""
"259","","text","44","170907","0.0-24.0","80554673","wem/bandit_either","A1K8QNLYYYX21W","either","4","32","","","","","","","","","","","","","","","","","","","","","","","","","","","","","","","","","","",""
"211","","text","45","171124","0.0-25.0","80554673","wem/bandit_either","A1K8QNLYYYX21W","either","4","32","","","","","","","","","","","","","","","","","","","","","","","","","","","","","","","","","","",""
"177","","text","46","171308","0.0-26.0","80554673","wem/bandit_either","A1K8QNLYYYX21W","either","4","32","","","","","","","","","","","","","","","","","","","","","","","","","","","","","","","","","","",""
"195","","text","47","171508","0.0-27.0","80554673","wem/bandit_either","A1K8QNLYYYX21W","either","4","32","","","","","","","","","","","","","","","","","","","","","","","","","","","","","","","","","","",""
"200","","text","48","171715","0.0-28.0","80554673","wem/bandit_either","A1K8QNLYYYX21W","either","4","32","","","","","","","","","","","","","","","","","","","","","","","","","","","","","","","","","","",""
"199","","text","49","171918","0.0-29.0","80554673","wem/bandit_either","A1K8QNLYYYX21W","either","4","32","","","","","","","","","","","","","","","","","","","","","","","","","","","","","","","","","","",""
"201","","text","50","172124","0.0-30.0","80554673","wem/bandit_either","A1K8QNLYYYX21W","either","4","32","","","","","","","","","","","","","","","","","","","","","","","","","","","","","","","","","","",""
"189","","text","51","172318","0.0-31.0","80554673","wem/bandit_either","A1K8QNLYYYX21W","either","4","32","","","","","","","","","","","","","","","","","","","","","","","","","","","","","","","","","","",""
"176","","text","52","172500","0.0-32.0","80554673","wem/bandit_either","A1K8QNLYYYX21W","either","4","32","","","","","","","","","","","","","","","","","","","","","","","","","","","","","","","","","","",""
"1239","","bandit","53","175252","0.0-33.0-0.0","80554673","wem/bandit_either","A1K8QNLYYYX21W","either","4","","","","","","","0","1","0","","0.8","0.5","0.5","0.5","0.5","0.8","0.2","0.6","0.2","","","","","","","","","","","72","H","0","img/none_selected.jpg","true","0","full_practice"
"5","","bandit","54","176773","0.0-33.0-1.0","80554673","wem/bandit_either","A1K8QNLYYYX21W","either","4","","","","","","","0","1","0","","0.6","0.5","0.5","0.5","0.5","0.8","0.2","0.6","0.2","","","","","","","","","","","75","K","2","","true","0","full_practice"
"80","","bandit","55","178366","0.0-33.0-2.0","80554673","wem/bandit_either","A1K8QNLYYYX21W","either","4","","","","","","","0","0","1","0.8","","0.5","0.5","0.5","0.5","","","","","0.8","0.2","0.6","0.2","","","","","","","72","H","0","img/none_selected.jpg","true","0","full_practice"
"1","","bandit","56","179882","0.0-33.0-3.0","80554673","wem/bandit_either","A1K8QNLYYYX21W","either","4","","","","","","","1","0","0","0.8","","0.5","0.5","0.5","0.5","","","","","0.8","0.2","0.6","0.2","","","","","","","72","H","0","img/none_selected.jpg","true","0","full_practice"
"95","","bandit","57","181493","0.0-33.0-4.0","80554673","wem/bandit_either","A1K8QNLYYYX21W","either","4","","","","","","","1","0","0","0.8","","0.5","0.5","0.5","0.5","","","","","0.8","0.2","0.6","0.2","","","","","","","72","H","0","img/none_selected.jpg","true","0","full_practice"
"44","","bandit","58","183054","0.0-33.0-5.0","80554673","wem/bandit_either","A1K8QNLYYYX21W","either","4","","","","","","","0","0","1","0.2","","0.5","0.5","0.5","0.5","","","","","0.8","0.2","0.6","0.2","","","","","","","76","L","3","","true","0","full_practice"
"21","","bandit","59","184592","0.0-33.0-6.0","80554673","wem/bandit_either","A1K8QNLYYYX21W","either","4","","","","","","","1","0","0","0.8","","0.5","0.5","0.5","0.5","","","","","0.8","0.2","0.6","0.2","","","","","","","72","H","0","img/none_selected.jpg","true","0","full_practice"
"22","","bandit","60","186138","0.0-33.0-7.0","80554673","wem/bandit_either","A1K8QNLYYYX21W","either","4","","","","","","","1","0","0","0.6","","0.5","0.5","0.5","0.5","","","","","0.8","0.2","0.6","0.2","","","","","","","75","K","2","","true","0","full_practice"
"80","","bandit","61","187730","0.0-33.0-8.0","80554673","wem/bandit_either","A1K8QNLYYYX21W","either","4","","","","","","","0","0","1","","0.2","0.5","0.5","0.5","0.5","0.8","0.2","0.6","0.2","","","","","","","","","","","76","L","3","","true","0","full_practice"
"27","","bandit","62","189272","0.0-33.0-9.0","80554673","wem/bandit_either","A1K8QNLYYYX21W","either","4","","","","","","","0","0","1","0.2","","0.5","0.5","0.5","0.5","","","","","0.8","0.2","0.6","0.2","","","","","","","76","L","3","","true","0","full_practice"
"83","","bandit","63","190875","0.0-33.0-10.0","80554673","wem/bandit_either","A1K8QNLYYYX21W","either","4","","","","","","","0","0","1","","0.2","0.5","0.5","0.5","0.5","0.8","0.2","0.6","0.2","","","","","","","","","","","74","J","1","","true","0","full_practice"
"1","","bandit","64","192394","0.0-33.0-11.0","80554673","wem/bandit_either","A1K8QNLYYYX21W","either","4","","","","","","","1","0","0","0.2","","0.5","0.5","0.5","0.5","","","","","0.8","0.2","0.6","0.2","","","","","","","74","J","1","","true","0","full_practice"
"51","","bandit","65","193960","0.0-33.0-12.0","80554673","wem/bandit_either","A1K8QNLYYYX21W","either","4","","","","","","","1","0","0","0.8","","0.5","0.5","0.5","0.5","","","","","0.8","0.2","0.6","0.2","","","","","","","72","H","0","img/none_selected.jpg","true","0","full_practice"
"12","","bandit","66","195489","0.0-33.0-13.0","80554673","wem/bandit_either","A1K8QNLYYYX21W","either","4","","","","","","","1","0","0","0.6","","0.5","0.5","0.5","0.5","","","","","0.8","0.2","0.6","0.2","","","","","","","75","K","2","","true","0","full_practice"
"4","","bandit","67","197012","0.0-33.0-14.0","80554673","wem/bandit_either","A1K8QNLYYYX21W","either","4","","","","","","","0","0","1","0.2","","0.5","0.5","0.5","0.5","","","","","0.8","0.2","0.6","0.2","","","","","","","74","J","1","","true","0","full_practice"
"10","","bandit","68","198541","0.0-33.0-15.0","80554673","wem/bandit_either","A1K8QNLYYYX21W","either","4","","","","","","","0","1","0","","0.6","0.5","0.5","0.5","0.5","0.8","0.2","0.6","0.2","","","","","","","","","","","75","K","2","","true","0","full_practice"
"116","","bandit","69","200171","0.0-33.0-16.0","80554673","wem/bandit_either","A1K8QNLYYYX21W","either","4","","","","","","","0","0","1","","0.2","0.5","0.5","0.5","0.5","0.8","0.2","0.6","0.2","","","","","","","","","","","74","J","1","","true","0","full_practice"
"168","","bandit","70","201854","0.0-33.0-17.0","80554673","wem/bandit_either","A1K8QNLYYYX21W","either","4","","","","","","","0","0","1","0.2","","0.5","0.5","0.5","0.5","","","","","0.8","0.2","0.6","0.2","","","","","","","76","L","3","","true","0","full_practice"
"9","","bandit","71","203415","0.0-33.0-18.0","80554673","wem/bandit_either","A1K8QNLYYYX21W","either","4","","","","","","","1","0","0","0.2","","0.5","0.5","0.5","0.5","","","","","0.8","0.2","0.6","0.2","","","","","","","76","L","3","","true","0","full_practice"
"31","","bandit","72","204962","0.0-33.0-19.0","80554673","wem/bandit_either","A1K8QNLYYYX21W","either","4","","","","","","","0","1","0","","0.8","0.5","0.5","0.5","0.5","0.8","0.2","0.6","0.2","","","","","","","","","","","72","H","0","img/none_selected.jpg","true","0","full_practice"
"4295","","text","73","209294","0.0-34.0","80554673","wem/bandit_either","A1K8QNLYYYX21W","either","4","32","","","","","","","","","","","","","","","","","","","","","","","","","","","","","","","","","","",""
"52","","text","74","210354","0.0-35.0","80554673","wem/bandit_either","A1K8QNLYYYX21W","either","4","32","","","","","","","","","","","","","","","","","","","","","","","","","","","","","","","","","","",""
"252","","text","75","210614","0.0-36.0","80554673","wem/bandit_either","A1K8QNLYYYX21W","either","4","32","","","","","","","","","","","","","","","","","","","","","","","","","","","","","","","","","","",""
"118","","text","76","210738","0.0-37.0","80554673","wem/bandit_either","A1K8QNLYYYX21W","either","4","32","","","","","","","","","","","","","","","","","","","","","","","","","","","","","","","","","","",""
"672","","text","77","211417","0.0-38.0","80554673","wem/bandit_either","A1K8QNLYYYX21W","either","4","32","","","","","","","","","","","","","","","","","","","","","","","","","","","","","","","","","","",""
"173","","text","78","211598","0.0-39.0","80554673","wem/bandit_either","A1K8QNLYYYX21W","either","4","32","","","","","","","","","","","","","","","","","","","","","","","","","","","","","","","","","","",""
"885","","bandit","79","214004","0.0-40.0-0.0","80554673","wem/bandit_either","A1K8QNLYYYX21W","either","4","","","","","","","0","0","1","0.3894728165","","0.4","0.6","0.8","0.2","","","","","0.3525715257","0.3894728165","0.2771551185","0.3242650943","","","","","","","74","J","1","","","1","main_expt"
"99","","bandit","80","215624","0.0-41.0-0.0","80554673","wem/bandit_either","A1K8QNLYYYX21W","either","4","","","","","","","0","0","1","0.363660736","","0.4","0.6","0.8","0.2","","","","","0.390153736","0.363660736","0.3030893157","0.3296228245","","","","","","","74","J","1","","","2","main_expt"
"87","","bandit","81","217229","0.0-42.0-0.0","80554673","wem/bandit_either","A1K8QNLYYYX21W","either","4","","","","","","","0","1","0","","0.3102780753","0.4","0.6","0.8","0.2","0.3725447061","0.3842171554","0.3211059343","0.3102780753","","","","","","","","","","","76","L","3","","","3","main_expt"
"152","","bandit","82","218899","0.0-43.0-0.0","80554673","wem/bandit_either","A1K8QNLYYYX21W","either","4","","","","","","","0","0","1","","0.2749892112","0.4","0.6","0.8","0.2","0.3431524481","0.3831963053","0.2804386453","0.2749892112","","","","","","","","","","","76","L","3","","","4","main_expt"
"50","","bandit","83","220468","0.0-44.0-0.0","80554673","wem/bandit_either","A1K8QNLYYYX21W","either","4","","","","","","","0","0","1","0.4056596471","","0.4","0.6","0.8","0.2","","","","","0.3448007793","0.4056596471","0.2609559086","0.3037824898","","","","","","","74","J","1","","","5","main_expt"
"42","","bandit","84","222026","0.0-45.0-0.0","80554673","wem/bandit_either","A1K8QNLYYYX21W","either","4","","","","","","","1","0","0","0.3980888019","","0.4","0.6","0.8","0.2","","","","","0.3980888019","0.4409946319","0.2259287768","0.3217417103","","","","","","","72","H","0","img/none_selected.jpg","","6","main_expt"
"22","","bandit","85","223570","0.0-46.0-0.0","80554673","wem/bandit_either","A1K8QNLYYYX21W","either","4","","","","","","","0","0","1","","0.3018715163","0.4","0.6","0.8","0.2","0.3693121862","0.3821747998","0.2433618728","0.3018715163","","","","","","","","","","","76","L","3","","","7","main_expt"
"169","","bandit","86","225262","0.0-47.0-0.0","80554673","wem/bandit_either","A1K8QNLYYYX21W","either","4","","","","","","","0","0","1","","0.3643645816","0.4","0.6","0.8","0.2","0.2933697555","0.3841844813","0.2025356769","0.3643645816","","","","","","","","","","","76","L","3","","","8","main_expt"
"17","","bandit","87","226800","0.0-48.0-0.0","80554673","wem/bandit_either","A1K8QNLYYYX21W","either","4","","","","","","","0","0","1","","0.3418610374","0.4","0.6","0.8","0.2","0.3036212831","0.3412237964","0.1441028094","0.3418610374","","","","","","","","","","","76","L","3","","","9","main_expt"
"77","","bandit","88","228401","0.0-49.0-0.0","80554673","wem/bandit_either","A1K8QNLYYYX21W","either","4","","","","","","","0","0","1","","0.3190157878","0.4","0.6","0.8","0.2","0.308020301","0.3256420777","0.1736005971","0.3190157878","","","","","","","","","","","76","L","3","","","10","main_expt"
"26","","bandit","89","229947","0.0-50.0-0.0","80554673","wem/bandit_either","A1K8QNLYYYX21W","either","4","","","","","","","0","0","1","0.2998731478","","0.4","0.6","0.8","0.2","","","","","0.3065973113","0.3514007431","0.1836365694","0.2998731478","","","","","","","76","L","3","","","11","main_expt"
"60","","bandit","90","231526","0.0-51.0-0.0","80554673","wem/bandit_either","A1K8QNLYYYX21W","either","4","","","","","","","0","0","1","","0.3271859636","0.4","0.6","0.8","0.2","0.3271859636","0.3722032088","0.2143869662","0.2942822571","","","","","","","","","","","72","H","0","img/none_selected.jpg","","12","main_expt"
"99","","bandit","91","233135","0.0-52.0-0.0","80554673","wem/bandit_either","A1K8QNLYYYX21W","either","4","","","","","","","0","0","1","","0.2761076709","0.4","0.6","0.8","0.2","0.2761076709","0.3681707299","0.1637139448","0.3009212619","","","","","","","","","","","72","H","0","img/none_selected.jpg","","13","main_expt"
"13","","bandit","92","234662","0.0-53.0-0.0","80554673","wem/bandit_either","A1K8QNLYYYX21W","either","4","","","","","","","0","0","1","","0.3227424667","0.4","0.6","0.8","0.2","0.2311164494","0.3528222564","0.1488535162","0.3227424667","","","","","","","","","","","76","L","3","","","14","main_expt"
"125","","bandit","93","236308","0.0-54.0-0.0","80554673","wem/bandit_either","A1K8QNLYYYX21W","either","4","","","","","","","0","0","1","0.2905977425","","0.4","0.6","0.8","0.2","","","","","0.2905977425","0.3738838661","0.1332411271","0.3547546862","","","","","","","72","H","0","img/none_selected.jpg","","15","main_expt"
"234","","bandit","94","238065","0.0-55.0-0.0","80554673","wem/bandit_either","A1K8QNLYYYX21W","either","4","","","","","","","0","1","0","","0.3241157583","0.4","0.6","0.8","0.2","0.2924554969","0.3385239332","0.09882415698","0.3241157583","","","","","","","","","","","76","L","3","","","16","main_expt"
"340","","bandit","95","239924","0.0-56.0-0.0","80554673","wem/bandit_either","A1K8QNLYYYX21W","either","4","","","","","","","0","0","1","0.3363410386","","0.4","0.6","0.8","0.2","","","","","0.3114836302","0.3111355138","0.1069157009","0.3363410386","","","","","","","76","L","3","","","17","main_expt"
"45","","bandit","96","241488","0.0-57.0-0.0","80554673","wem/bandit_either","A1K8QNLYYYX21W","either","4","","","","","","","1","0","0","0.134958137","","0.4","0.6","0.8","0.2","","","","","0.3215333475","0.3487767647","0.134958137","0.3880947854","","","","","","","75","K","2","","","18","main_expt"
"119","","bandit","97","243122","0.0-58.0-0.0","80554673","wem/bandit_either","A1K8QNLYYYX21W","either","4","","","","","","","0","0","1","0.3010303499","","0.4","0.6","0.8","0.2","","","","","0.2733398822","0.3010303499","0.1230418706","0.4116912081","","","","","","","74","J","1","","","19","main_expt"
"49","","bandit","98","244692","0.0-59.0-0.0","80554673","wem/bandit_either","A1K8QNLYYYX21W","either","4","","","","","","","0","0","1","0.09866604889","","0.4","0.6","0.8","0.2","","","","","0.2351410235","0.2907203997","0.09866604889","0.3973894305","","","","","","","75","K","2","","","20","main_expt"
"33","","bandit","99","246249","0.0-60.0-0.0","80554673","wem/bandit_either","A1K8QNLYYYX21W","either","4","","","","","","","1","0","0","0.3088108907","","0.4","0.6","0.8","0.2","","","","","0.2257810982","0.3088108907","0.1021222834","0.369037109","","","","","","","74","J","1","","","21","main_expt"
"26","","bandit","100","247796","0.0-61.0-0.0","80554673","wem/bandit_either","A1K8QNLYYYX21W","either","4","","","","","","","0","0","1","","0.349202701","0.4","0.6","0.8","0.2","0.2221856846","0.349202701","0.1234138809","0.4179468344","","","","","","","","","","","74","J","1","","","22","main_expt"
"64","","bandit","101","249378","0.0-62.0-0.0","80554673","wem/bandit_either","A1K8QNLYYYX21W","either","4","","","","","","","0","1","0","","0.4276062926","0.4","0.6","0.8","0.2","0.2127124712","0.3785068464","0.1030640584","0.4276062926","","","","","","","","","","","76","L","3","","","23","main_expt"
"164","","bandit","102","251060","0.0-63.0-0.0","80554673","wem/bandit_either","A1K8QNLYYYX21W","either","4","","","","","","","0","0","1","0.4078122208","","0.4","0.6","0.8","0.2","","","","","0.1882566648","0.4012919653","0.1261035851","0.4078122208","","","","","","","76","L","3","","","24","main_expt"
"335","","bandit","103","252919","0.0-64.0-0.0","80554673","wem/bandit_either","A1K8QNLYYYX21W","either","4","","","","","","","1","0","0","0.400899794","","0.4","0.6","0.8","0.2","","","","","0.1273223766","0.400899794","0.1796705612","0.3950411191","","","","","","","74","J","1","","","25","main_expt"
"49","","bandit","104","254489","0.0-65.0-0.0","80554673","wem/bandit_either","A1K8QNLYYYX21W","either","4","","","","","","","1","0","0","0.4126274585","","0.4","0.6","0.8","0.2","","","","","0.15747458","0.4126274585","0.2414651519","0.4322303329","","","","","","","74","J","1","","","26","main_expt"
"191","","bandit","105","256211","0.0-66.0-0.0","80554673","wem/bandit_either","A1K8QNLYYYX21W","either","4","","","","","","","0","1","0","","0.3992263875","0.4","0.6","0.8","0.2","0.1442684908","0.3992263875","0.2005374927","0.4353643722","","","","","","","","","","","74","J","1","","","27","main_expt"
"34","","bandit","106","257770","0.0-67.0-0.0","80554673","wem/bandit_either","A1K8QNLYYYX21W","either","4","","","","","","","0","1","0","","0.4464017809","0.4","0.6","0.8","0.2","0.2255404594","0.3846584236","0.3197257227","0.4464017809","","","","","","","","","","","76","L","3","","","28","main_expt"
"104","","bandit","107","259392","0.0-68.0-0.0","80554673","wem/bandit_either","A1K8QNLYYYX21W","either","4","","","","","","","0","0","1","","0.4417109462","0.4","0.6","0.8","0.2","0.2730951691","0.3561298134","0.3141869899","0.4417109462","","","","","","","","","","","76","L","3","","","29","main_expt"
"2","","bandit","108","260914","0.0-69.0-0.0","80554673","wem/bandit_either","A1K8QNLYYYX21W","either","4","","","","","","","0","0","1","","0.3101363315","0.4","0.6","0.8","0.2","0.2890412698","0.3101363315","0.3445991012","0.4065908859","","","","","","","","","","","74","J","1","","","30","main_expt"
"5","","bandit","109","262445","0.0-70.0-0.0","80554673","wem/bandit_either","A1K8QNLYYYX21W","either","4","","","","","","","0","0","1","0.3954582793","","0.4","0.6","0.8","0.2","","","","","0.3309226042","0.3322219809","0.3456655029","0.3954582793","","","","","","","76","L","3","","","31","main_expt"
"3","","bandit","110","263968","0.0-71.0-0.0","80554673","wem/bandit_either","A1K8QNLYYYX21W","either","4","","","","","","","0","0","1","0.3519301717","","0.4","0.6","0.8","0.2","","","","","0.3519301717","0.3516269472","0.3826172224","0.3716723047","","","","","","","72","H","0","img/none_selected.jpg","","32","main_expt"
"21","","bandit","111","265510","0.0-72.0-0.0","80554673","wem/bandit_either","A1K8QNLYYYX21W","either","4","","","","","","","0","0","1","","0.3799724366","0.4","0.6","0.8","0.2","0.3414953842","0.3852085553","0.3804083149","0.3799724366","","","","","","","","","","","76","L","3","","","33","main_expt"
"16","","bandit","112","267050","0.0-73.0-0.0","80554673","wem/bandit_either","A1K8QNLYYYX21W","either","4","","","","","","","0","0","1","0.409480615","","0.4","0.6","0.8","0.2","","","","","0.2938412915","0.4196644934","0.3808178469","0.409480615","","","","","","","76","L","3","","","34","main_expt"
"3","","bandit","113","268573","0.0-74.0-0.0","80554673","wem/bandit_either","A1K8QNLYYYX21W","either","4","","","","","","","0","0","1","","0.3869649509","0.4","0.6","0.8","0.2","0.2256616696","0.420891004","0.376129724","0.3869649509","","","","","","","","","","","76","L","3","","","35","main_expt"
"22","","bandit","114","270124","0.0-75.0-0.0","80554673","wem/bandit_either","A1K8QNLYYYX21W","either","4","","","","","","","1","0","0","0.3045389962","","0.4","0.6","0.8","0.2","","","","","0.2525957923","0.3808881167","0.4027809904","0.3045389962","","","","","","","76","L","3","","","36","main_expt"
"49","","bandit","115","271695","0.0-76.0-0.0","80554673","wem/bandit_either","A1K8QNLYYYX21W","either","4","","","","","","","0","0","1","","0.2954217214","0.4","0.6","0.8","0.2","0.2333373749","0.3634360393","0.3715556026","0.2954217214","","","","","","","","","","","76","L","3","","","37","main_expt"
"106","","bandit","116","273323","0.0-77.0-0.0","80554673","wem/bandit_either","A1K8QNLYYYX21W","either","4","","","","","","","0","0","1","","0.2749906923","0.4","0.6","0.8","0.2","0.2126884676","0.3432691328","0.354842885","0.2749906923","","","","","","","","","","","76","L","3","","","38","main_expt"
"25","","bandit","117","274873","0.0-78.0-0.0","80554673","wem/bandit_either","A1K8QNLYYYX21W","either","4","","","","","","","0","1","0","","0.2911873598","0.4","0.6","0.8","0.2","0.212498526","0.3113322025","0.3066825603","0.2911873598","","","","","","","","","","","76","L","3","","","39","main_expt"
"79","","bandit","118","276472","0.0-79.0-0.0","80554673","wem/bandit_either","A1K8QNLYYYX21W","either","4","","","","","","","0","0","1","","0.3066149412","0.4","0.6","0.8","0.2","0.2031275136","0.3298138996","0.3208648015","0.3066149412","","","","","","","","","","","76","L","3","","","40","main_expt"
"73","","bandit","119","278066","0.0-80.0-0.0","80554673","wem/bandit_either","A1K8QNLYYYX21W","either","4","","","","","","","0","0","1","0.2612722093","","0.4","0.6","0.8","0.2","","","","","0.2409224204","0.3590557929","0.2774570704","0.2612722093","","","","","","","76","L","3","","","41","main_expt"
"34","","bandit","120","279637","0.0-81.0-0.0","80554673","wem/bandit_either","A1K8QNLYYYX21W","either","4","","","","","","","0","0","1","","0.2579482203","0.4","0.6","0.8","0.2","0.2166695961","0.3455434044","0.3092882543","0.2579482203","","","","","","","","","","","76","L","3","","","42","main_expt"
"215","","bandit","121","281375","0.0-82.0-0.0","80554673","wem/bandit_either","A1K8QNLYYYX21W","either","4","","","","","","","0","0","1","0.4020043176","","0.4","0.6","0.8","0.2","","","","","0.2314197793","0.4020043176","0.3161251671","0.2232302517","","","","","","","74","J","1","","","43","main_expt"
"14","","bandit","122","282918","0.0-83.0-0.0","80554673","wem/bandit_either","A1K8QNLYYYX21W","either","4","","","","","","","1","0","0","0.2435669349","","0.4","0.6","0.8","0.2","","","","","0.1889371852","0.4088695108","0.3032549762","0.2435669349","","","","","","","76","L","3","","","44","main_expt"
"97","","bandit","123","284534","0.0-84.0-0.0","80554673","wem/bandit_either","A1K8QNLYYYX21W","either","4","","","","","","","0","0","1","","0.1885724617","0.4","0.6","0.8","0.2","0.2152104473","0.3914045207","0.3012359134","0.1885724617","","","","","","","","","","","76","L","3","","","45","main_expt"
"3","","bandit","124","286065","0.0-85.0-0.0","80554673","wem/bandit_either","A1K8QNLYYYX21W","either","4","","","","","","","0","0","1","","0.2994346937","0.4","0.6","0.8","0.2","0.2260726972","0.3682142312","0.2994346937","0.104230756","","","","","","","","","","","75","K","2","","","46","main_expt"
"15","","bandit","125","287605","0.0-86.0-0.0","80554673","wem/bandit_either","A1K8QNLYYYX21W","either","4","","","","","","","0","0","1","","0.09013225529","0.4","0.6","0.8","0.2","0.2330399618","0.3462276735","0.3169549043","0.09013225529","","","","","","","","","","","76","L","3","","","47","main_expt"
"93","","bandit","126","289225","0.0-87.0-0.0","80554673","wem/bandit_either","A1K8QNLYYYX21W","either","4","","","","","","","0","0","1","0.3501405617","","0.4","0.6","0.8","0.2","","","","","0.2769685944","0.3501405617","0.3137179834","0.1066227192","","","","","","","74","J","1","","","48","main_expt"
"218","","bandit","127","290964","0.0-88.0-0.0","80554673","wem/bandit_either","A1K8QNLYYYX21W","either","4","","","","","","","0","0","1","0.1273062614","","0.4","0.6","0.8","0.2","","","","","0.2954986192","0.3607669766","0.3026837323","0.1273062614","","","","","","","76","L","3","","","49","main_expt"
"50","","bandit","128","292535","0.0-89.0-0.0","80554673","wem/bandit_either","A1K8QNLYYYX21W","either","4","","","","","","","0","0","1","","0.08158159543","0.4","0.6","0.8","0.2","0.2730110453","0.3776327681","0.2690248343","0.08158159543","","","","","","","","","","","76","L","3","","","50","main_expt"
"42","","bandit","129","294099","0.0-90.0-0.0","80554673","wem/bandit_either","A1K8QNLYYYX21W","either","4","","","","","","","0","0","1","","0.08035098666","0.4","0.6","0.8","0.2","0.2672659715","0.3922012959","0.2407215714","0.08035098666","","","","","","","","","","","76","L","3","","","51","main_expt"
"105","","bandit","130","295722","0.0-91.0-0.0","80554673","wem/bandit_either","A1K8QNLYYYX21W","either","4","","","","","","","1","0","0","0.3532085343","","0.4","0.6","0.8","0.2","","","","","0.2552972095","0.3532085343","0.2758158767","0.1007468434","","","","","","","74","J","1","","","52","main_expt"
"57","","bandit","131","297302","0.0-92.0-0.0","80554673","wem/bandit_either","A1K8QNLYYYX21W","either","4","","","","","","","0","0","1","","0.1479770317","0.4","0.6","0.8","0.2","0.1954439593","0.3597378762","0.2661511239","0.1479770317","","","","","","","","","","","76","L","3","","","53","main_expt"
"23","","bandit","132","298849","0.0-93.0-0.0","80554673","wem/bandit_either","A1K8QNLYYYX21W","either","4","","","","","","","1","0","0","0.250303373","","0.4","0.6","0.8","0.2","","","","","0.1250298759","0.3553644404","0.250303373","0.1450389045","","","","","","","75","K","2","","","54","main_expt"
"4","","bandit","133","300375","0.0-94.0-0.0","80554673","wem/bandit_either","A1K8QNLYYYX21W","either","4","","","","","","","1","0","0","0.3427354451","","0.4","0.6","0.8","0.2","","","","","0.1224949652","0.3427354451","0.1850572083","0.1678096349","","","","","","","74","J","1","","","55","main_expt"
"3","","bandit","134","301906","0.0-95.0-0.0","80554673","wem/bandit_either","A1K8QNLYYYX21W","either","4","","","","","","","0","0","1","","0.1312048923","0.4","0.6","0.8","0.2","0.1312048923","0.3158877586","0.2410157884","0.1748395718","","","","","","","","","","","72","H","0","img/none_selected.jpg","","56","main_expt"
"9","","bandit","135","303436","0.0-96.0-0.0","80554673","wem/bandit_either","A1K8QNLYYYX21W","either","4","","","","","","","0","1","0","","0.3224611445","0.4","0.6","0.8","0.2","0.14452077","0.3224611445","0.2657224069","0.146986137","","","","","","","","","","","74","J","1","","","57","main_expt"
"32","","bandit","136","304987","0.0-97.0-0.0","80554673","wem/bandit_either","A1K8QNLYYYX21W","either","4","","","","","","","0","0","1","","0.1316135006","0.4","0.6","0.8","0.2","0.1198415177","0.3378672788","0.2361308133","0.1316135006","","","","","","","","","","","76","L","3","","","58","main_expt"
"759","","bandit","137","307273","0.0-98.0-0.0","80554673","wem/bandit_either","A1K8QNLYYYX21W","either","4","","","","","","","0","0","1","","0.1674914914","0.4","0.6","0.8","0.2","0.1674914914","0.3438075972","0.2078360154","0.1776120447","","","","","","","","","","","72","H","0","img/none_selected.jpg","","59","main_expt"
"23","","bandit","138","308822","0.0-99.0-0.0","80554673","wem/bandit_either","A1K8QNLYYYX21W","either","4","","","","","","","0","0","1","","0.147959707","0.4","0.6","0.8","0.2","0.147959707","0.2950987239","0.2256957235","0.2034864675","","","","","","","","","","","72","H","0","img/none_selected.jpg","","60","main_expt"
"109","","bandit","139","310449","0.0-100.0-0.0","80554673","wem/bandit_either","A1K8QNLYYYX21W","either","4","","","","","","","0","0","1","0.2939622289","","0.4","0.6","0.8","0.2","","","","","0.1217284172","0.2939622289","0.2713547376","0.1325668513","","","","","","","74","J","1","","","61","main_expt"
"154","","bandit","140","312122","0.0-101.0-0.0","80554673","wem/bandit_either","A1K8QNLYYYX21W","either","4","","","","","","","0","1","0","","0.1392905859","0.4","0.6","0.8","0.2","0.1392905859","0.2907096119","0.2800078023","0.125492747","","","","","","","","","","","72","H","0","img/none_selected.jpg","","62","main_expt"
"16","","bandit","141","313656","0.0-102.0-0.0","80554673","wem/bandit_either","A1K8QNLYYYX21W","either","4","","","","","","","0","0","1","","0.1081989139","0.4","0.6","0.8","0.2","0.1953314019","0.2696382907","0.362183352","0.1081989139","","","","","","","","","","","76","L","3","","","63","main_expt"
"34","","bandit","142","315214","0.0-103.0-0.0","80554673","wem/bandit_either","A1K8QNLYYYX21W","either","4","","","","","","","0","0","1","","0.09104284411","0.4","0.6","0.8","0.2","0.2618523415","0.2496415039","0.3354395381","0.09104284411","","","","","","","","","","","76","L","3","","","64","main_expt"
"34","","bandit","143","316770","0.0-104.0-0.0","80554673","wem/bandit_either","A1K8QNLYYYX21W","either","4","","","","","","","0","0","1","","0.2686672798","0.4","0.6","0.8","0.2","0.2686672798","0.2364994079","0.2893845237","0.1264903162","","","","","","","","","","","72","H","0","img/none_selected.jpg","","65","main_expt"
"159","","bandit","144","318451","0.0-105.0-0.0","80554673","wem/bandit_either","A1K8QNLYYYX21W","either","4","","","","","","","0","0","1","","0.1665937301","0.4","0.6","0.8","0.2","0.2451656397","0.2541683514","0.2355717356","0.1665937301","","","","","","","","","","","76","L","3","","","66","main_expt"
"46","","bandit","145","320018","0.0-106.0-0.0","80554673","wem/bandit_either","A1K8QNLYYYX21W","either","4","","","","","","","0","0","1","","0.1740025863","0.4","0.6","0.8","0.2","0.2445320338","0.2985471382","0.2848755716","0.1740025863","","","","","","","","","","","76","L","3","","","67","main_expt"
"14","","bandit","146","321554","0.0-107.0-0.0","80554673","wem/bandit_either","A1K8QNLYYYX21W","either","4","","","","","","","0","0","1","","0.2261158315","0.4","0.6","0.8","0.2","0.2261158315","0.3391290389","0.3341158043","0.2300011382","","","","","","","","","","","72","H","0","img/none_selected.jpg","","68","main_expt"
"0","","bandit","147","323079","0.0-108.0-0.0","80554673","wem/bandit_either","A1K8QNLYYYX21W","either","4","","","","","","","0","0","1","","0.1627286519","0.4","0.6","0.8","0.2","0.1627286519","0.3114764975","0.3253412689","0.1768594062","","","","","","","","","","","72","H","0","img/none_selected.jpg","","69","main_expt"
"28","","bandit","148","324633","0.0-109.0-0.0","80554673","wem/bandit_either","A1K8QNLYYYX21W","either","4","","","","","","","0","0","1","","0.1301009224","0.4","0.6","0.8","0.2","0.1301009224","0.3056328376","0.3280915152","0.1906145184","","","","","","","","","","","72","H","0","img/none_selected.jpg","","70","main_expt"
"97","","bandit","149","326265","0.0-110.0-0.0","80554673","wem/bandit_either","A1K8QNLYYYX21W","either","4","","","","","","","0","0","1","0.1356707761","","0.4","0.6","0.8","0.2","","","","","0.1356707761","0.3445325487","0.3772643828","0.1451664327","","","","","","","72","H","0","img/none_selected.jpg","","71","main_expt"
"4","","bandit","150","327795","0.0-111.0-0.0","80554673","wem/bandit_either","A1K8QNLYYYX21W","either","4","","","","","","","0","0","1","","0.1091447996","0.4","0.6","0.8","0.2","0.1045412551","0.364612409","0.4074174212","0.1091447996","","","","","","","","","","","76","L","3","","","72","main_expt"
"55","","bandit","151","329374","0.0-112.0-0.0","80554673","wem/bandit_either","A1K8QNLYYYX21W","either","4","","","","","","","0","0","1","","0.1248737042","0.4","0.6","0.8","0.2","0.0867882282","0.4454774056","0.3736299767","0.1248737042","","","","","","","","","","","76","L","3","","","73","main_expt"
"47","","bandit","152","330944","0.0-113.0-0.0","80554673","wem/bandit_either","A1K8QNLYYYX21W","either","4","","","","","","","0","0","1","0.1018359722","","0.4","0.6","0.8","0.2","","","","","0.1018359722","0.4492830973","0.383211712","0.1073746888","","","","","","","72","H","0","img/none_selected.jpg","","74","main_expt"
"76","","bandit","153","332553","0.0-114.0-0.0","80554673","wem/bandit_either","A1K8QNLYYYX21W","either","4","","","","","","","0","0","1","","0.09443707336","0.4","0.6","0.8","0.2","0.09443707336","0.449321966","0.3681962321","0.1051395745","","","","","","","","","","","72","H","0","img/none_selected.jpg","","75","main_expt"
"53","","bandit","154","334131","0.0-115.0-0.0","80554673","wem/bandit_either","A1K8QNLYYYX21W","either","4","","","","","","","0","0","1","0.3574328021","","0.4","0.6","0.8","0.2","","","","","0.08768691443","0.4299726132","0.3574328021","0.09171451076","","","","","","","75","K","2","","","76","main_expt"
"330","","bandit","155","335986","0.0-116.0-0.0","80554673","wem/bandit_either","A1K8QNLYYYX21W","either","4","","","","","","","0","0","1","","0.07744448812","0.4","0.6","0.8","0.2","0.07744448812","0.4349340462","0.4041720962","0.1256070833","","","","","","","","","","","72","H","0","img/none_selected.jpg","","77","main_expt"
"11","","bandit","156","337522","0.0-117.0-0.0","80554673","wem/bandit_either","A1K8QNLYYYX21W","either","4","","","","","","","0","0","1","0.4112950215","","0.4","0.6","0.8","0.2","","","","","0.05712631425","0.4112950215","0.4000946746","0.1398604905","","","","","","","74","J","1","","","78","main_expt"
"50","","bandit","157","339094","0.0-118.0-0.0","80554673","wem/bandit_either","A1K8QNLYYYX21W","either","4","","","","","","","1","0","0","0.4123046053","","0.4","0.6","0.8","0.2","","","","","0.03981704588","0.4123046053","0.425248604","0.1303191282","","","","","","","74","J","1","","","79","main_expt"
"33","","bandit","158","340648","0.0-119.0-0.0","80554673","wem/bandit_either","A1K8QNLYYYX21W","either","4","","","","","","","0","1","0","","0.1491340647","0.4","0.6","0.8","0.2","0.02961196177","0.4345430878","0.4263383456","0.1491340647","","","","","","","","","","","76","L","3","","","80","main_expt"
"46","","bandit","159","342214","0.0-120.0-0.0","80554673","wem/bandit_either","A1K8QNLYYYX21W","either","4","","","","","","","0","0","1","","0.0408206899","0.4","0.6","0.8","0.2","0.0408206899","0.4255274095","0.4377411966","0.1484119081","","","","","","","","","","","72","H","0","img/none_selected.jpg","","81","main_expt"
"61","","bandit","160","343796","0.0-121.0-0.0","80554673","wem/bandit_either","A1K8QNLYYYX21W","either","4","","","","","","","0","1","0","","0.03491361241","0.4","0.6","0.8","0.2","0.03491361241","0.4266934287","0.4263216968","0.135460029","","","","","","","","","","","72","H","0","img/none_selected.jpg","","82","main_expt"
"41","","bandit","161","345362","0.0-122.0-0.0","80554673","wem/bandit_either","A1K8QNLYYYX21W","either","4","","","","","","","0","0","1","","0.09497461961","0.4","0.6","0.8","0.2","0.01881925386","0.4321646522","0.4536492548","0.09497461961","","","","","","","","","","","76","L","3","","","83","main_expt"
"5","","bandit","162","346896","0.0-123.0-0.0","80554673","wem/bandit_either","A1K8QNLYYYX21W","either","4","","","","","","","0","0","1","0.4344769981","","0.4","0.6","0.8","0.2","","","","","0.03441768066","0.43129245","0.4344769981","0.0956585677","","","","","","","75","K","2","","","84","main_expt"
"3","","bandit","163","348422","0.0-124.0-0.0","80554673","wem/bandit_either","A1K8QNLYYYX21W","either","4","","","","","","","0","0","1","0.08427930603","","0.4","0.6","0.8","0.2","","","","","0.04015732792","0.4307495417","0.4167097255","0.08427930603","","","","","","","76","L","3","","","85","main_expt"
"110","","bandit","164","350056","0.0-125.0-0.0","80554673","wem/bandit_either","A1K8QNLYYYX21W","either","4","","","","","","","0","0","1","0.4327415212","","0.4","0.6","0.8","0.2","","","","","0.0462821445","0.4327415212","0.4215971904","0.09540141202","","","","","","","74","J","1","","","86","main_expt"
"46","","bandit","165","351624","0.0-126.0-0.0","80554673","wem/bandit_either","A1K8QNLYYYX21W","either","4","","","","","","","0","0","1","0.07236867375","","0.4","0.6","0.8","0.2","","","","","0.07236867375","0.4507305815","0.3962725568","0.06504543429","","","","","","","72","H","0","img/none_selected.jpg","","87","main_expt"
"21","","bandit","166","353168","0.0-127.0-0.0","80554673","wem/bandit_either","A1K8QNLYYYX21W","either","4","","","","","","","0","0","1","0.4038430626","","0.4","0.6","0.8","0.2","","","","","0.1132918069","0.4571393315","0.4038430626","0.05894337134","","","","","","","75","K","2","","","88","main_expt"
"187","","bandit","167","354883","0.0-128.0-0.0","80554673","wem/bandit_either","A1K8QNLYYYX21W","either","4","","","","","","","0","0","1","","0.06803635399","0.4","0.6","0.8","0.2","0.1466354559","0.4639779763","0.4247877058","0.06803635399","","","","","","","","","","","76","L","3","","","89","main_expt"
"71","","bandit","168","356481","0.0-129.0-0.0","80554673","wem/bandit_either","A1K8QNLYYYX21W","either","4","","","","","","","0","0","1","","0.09657856289","0.4","0.6","0.8","0.2","0.1746819083","0.4620017245","0.4196700557","0.09657856289","","","","","","","","","","","76","L","3","","","90","main_expt"
"3","","bandit","169","358009","0.0-130.0-0.0","80554673","wem/bandit_either","A1K8QNLYYYX21W","either","4","","","","","","","0","0","1","","0.1864657318","0.4","0.6","0.8","0.2","0.1864657318","0.4492963398","0.401758082","0.08522031428","","","","","","","","","","","72","H","0","img/none_selected.jpg","","91","main_expt"
"126","","bandit","170","359659","0.0-131.0-0.0","80554673","wem/bandit_either","A1K8QNLYYYX21W","either","4","","","","","","","0","0","1","","0.462009279","0.4","0.6","0.8","0.2","0.2124622091","0.462009279","0.3422099147","0.07078380504","","","","","","","","","","","74","J","1","","","92","main_expt"
"124","","bandit","171","361310","0.0-132.0-0.0","80554673","wem/bandit_either","A1K8QNLYYYX21W","either","4","","","","","","","0","0","1","","0.0564278809","0.4","0.6","0.8","0.2","0.245786276","0.4363090379","0.3279059742","0.0564278809","","","","","","","","","","","76","L","3","","","93","main_expt"
"17","","bandit","172","362849","0.0-133.0-0.0","80554673","wem/bandit_either","A1K8QNLYYYX21W","either","4","","","","","","","0","0","1","0.2316759231","","0.4","0.6","0.8","0.2","","","","","0.2316759231","0.4457519602","0.3155724737","0.06067733924","","","","","","","72","H","0","img/none_selected.jpg","","94","main_expt"
"11","","bandit","173","364427","0.0-134.0-0.0","80554673","wem/bandit_either","A1K8QNLYYYX21W","either","4","","","","","","","0","0","1","","0.2231756969","0.4","0.6","0.8","0.2","0.2231756969","0.4231248902","0.3519625041","0.08632751489","","","","","","","","","","","72","H","0","img/none_selected.jpg","","95","main_expt"
"161","","bandit","174","366108","0.0-135.0-0.0","80554673","wem/bandit_either","A1K8QNLYYYX21W","either","4","","","","","","","0","0","1","0.08481729553","","0.4","0.6","0.8","0.2","","","","","0.1957128212","0.4210676831","0.3661455107","0.08481729553","","","","","","","76","L","3","","","96","main_expt"
"74","","bandit","175","367702","0.0-136.0-0.0","80554673","wem/bandit_either","A1K8QNLYYYX21W","either","4","","","","","","","0","1","0","","0.1638116915","0.4","0.6","0.8","0.2","0.1638116915","0.4022895305","0.3558031673","0.08386440452","","","","","","","","","","","72","H","0","img/none_selected.jpg","","97","main_expt"
"47","","bandit","176","369273","0.0-137.0-0.0","80554673","wem/bandit_either","A1K8QNLYYYX21W","either","4","","","","","","","0","0","1","","0.0940701929","0.4","0.6","0.8","0.2","0.1405816365","0.4187351015","0.3558230887","0.0940701929","","","","","","","","","","","76","L","3","","","98","main_expt"
"4","","bandit","177","370803","0.0-138.0-0.0","80554673","wem/bandit_either","A1K8QNLYYYX21W","either","4","","","","","","","0","0","1","0.1285058524","","0.4","0.6","0.8","0.2","","","","","0.1435678602","0.3981340028","0.3064708089","0.1285058524","","","","","","","76","L","3","","","99","main_expt"
"69","","bandit","178","372398","0.0-139.0-0.0","80554673","wem/bandit_either","A1K8QNLYYYX21W","either","4","","","","","","","0","0","1","","0.1478754355","0.4","0.6","0.8","0.2","0.1478754355","0.3520446815","0.352498313","0.065882019","","","","","","","","","","","72","H","0","img/none_selected.jpg","","100","main_expt"
"41","","bandit","179","373968","0.0-140.0-0.0","80554673","wem/bandit_either","A1K8QNLYYYX21W","either","4","","","","","","","0","0","1","","0.05692140794","0.4","0.6","0.8","0.2","0.1532559328","0.3715523215","0.3511810171","0.05692140794","","","","","","","","","","","76","L","3","","","101","main_expt"
"98","","bandit","180","375608","0.0-141.0-0.0","80554673","wem/bandit_either","A1K8QNLYYYX21W","either","4","","","","","","","0","0","1","","0.15857411","0.4","0.6","0.8","0.2","0.15857411","0.3966955113","0.3246867477","0.04322280369","","","","","","","","","","","72","H","0","img/none_selected.jpg","","102","main_expt"
"6","","bandit","181","377142","0.0-142.0-0.0","80554673","wem/bandit_either","A1K8QNLYYYX21W","either","4","","","","","","","0","1","0","","0.3865714765","0.4","0.6","0.8","0.2","0.1552377357","0.3865714765","0.2827689756","0.05121437093","","","","","","","","","","","74","J","1","","","103","main_expt"
"126","","bandit","182","378794","0.0-143.0-0.0","80554673","wem/bandit_either","A1K8QNLYYYX21W","either","4","","","","","","","0","0","1","","0.1584193753","0.4","0.6","0.8","0.2","0.1584193753","0.3440646931","0.3307995119","0.06548077564","","","","","","","","","","","72","H","0","img/none_selected.jpg","","104","main_expt"
"19","","bandit","183","380338","0.0-144.0-0.0","80554673","wem/bandit_either","A1K8QNLYYYX21W","either","4","","","","","","","0","0","1","","0.192058402","0.4","0.6","0.8","0.2","0.192058402","0.330981063","0.3078297571","0.07577357845","","","","","","","","","","","72","H","0","img/none_selected.jpg","","105","main_expt"
"12","","bandit","184","381876","0.0-145.0-0.0","80554673","wem/bandit_either","A1K8QNLYYYX21W","either","4","","","","","","","1","0","0","0.09041352565","","0.4","0.6","0.8","0.2","","","","","0.1562344916","0.3317280627","0.3202685942","0.09041352565","","","","","","","76","L","3","","","106","main_expt"
"4","","bandit","185","383411","0.0-146.0-0.0","80554673","wem/bandit_either","A1K8QNLYYYX21W","either","4","","","","","","","0","1","0","","0.2760665195","0.4","0.6","0.8","0.2","0.1493116313","0.2760665195","0.3163418234","0.1184921167","","","","","","","","","","","74","J","1","","","107","main_expt"
"95","","bandit","186","385028","0.0-147.0-0.0","80554673","wem/bandit_either","A1K8QNLYYYX21W","either","4","","","","","","","0","0","1","","0.1357435498","0.4","0.6","0.8","0.2","0.1357435498","0.2826301941","0.3425943818","0.1057615429","","","","","","","","","","","72","H","0","img/none_selected.jpg","","108","main_expt"
"114","","bandit","187","386662","0.0-148.0-0.0","80554673","wem/bandit_either","A1K8QNLYYYX21W","either","4","","","","","","","0","0","1","","0.1464484126","0.4","0.6","0.8","0.2","0.1164074326","0.318117281","0.2852030557","0.1464484126","","","","","","","","","","","76","L","3","","","109","main_expt"
"85","","bandit","188","388274","0.0-149.0-0.0","80554673","wem/bandit_either","A1K8QNLYYYX21W","either","4","","","","","","","0","0","1","0.1641354829","","0.4","0.6","0.8","0.2","","","","","0.1444451916","0.3358587519","0.3392406975","0.1641354829","","","","","","","76","L","3","","","110","main_expt"
"3","","bandit","189","389807","0.0-150.0-0.0","80554673","wem/bandit_either","A1K8QNLYYYX21W","either","4","","","","","","","0","0","1","","0.09905323685","0.4","0.6","0.8","0.2","0.09905323685","0.3031660534","0.3023411017","0.1386891192","","","","","","","","","","","72","H","0","img/none_selected.jpg","","111","main_expt"
"1","","bandit","190","391329","0.0-151.0-0.0","80554673","wem/bandit_either","A1K8QNLYYYX21W","either","4","","","","","","","0","0","1","0.09652445584","","0.4","0.6","0.8","0.2","","","","","0.09652445584","0.2773548355","0.296849772","0.1847512065","","","","","","","72","H","0","img/none_selected.jpg","","112","main_expt"
"207","","bandit","191","393062","0.0-152.0-0.0","80554673","wem/bandit_either","A1K8QNLYYYX21W","either","4","","","","","","","0","0","1","0.2370758425","","0.4","0.6","0.8","0.2","","","","","0.09961189632","0.2370758425","0.2673419259","0.1304555333","","","","","","","74","J","1","","","113","main_expt"
"231","","bandit","192","394817","0.0-153.0-0.0","80554673","wem/bandit_either","A1K8QNLYYYX21W","either","4","","","","","","","0","0","1","","0.1770102637","0.4","0.6","0.8","0.2","0.1036139638","0.1821928837","0.2670531803","0.1770102637","","","","","","","","","","","76","L","3","","","114","main_expt"
"204","","bandit","193","396540","0.0-154.0-0.0","80554673","wem/bandit_either","A1K8QNLYYYX21W","either","4","","","","","","","0","0","1","0.0968506792","","0.4","0.6","0.8","0.2","","","","","0.0968506792","0.1315453283","0.2825009356","0.1564651975","","","","","","","72","H","0","img/none_selected.jpg","","115","main_expt"
"301","","bandit","194","398372","0.0-155.0-0.0","80554673","wem/bandit_either","A1K8QNLYYYX21W","either","4","","","","","","","0","0","1","0.1665702367","","0.4","0.6","0.8","0.2","","","","","0.08782875681","0.1102777544","0.3237719372","0.1665702367","","","","","","","76","L","3","","","116","main_expt"
"11","","bandit","195","399915","0.0-156.0-0.0","80554673","wem/bandit_either","A1K8QNLYYYX21W","either","4","","","","","","","0","0","1","","0.06031800864","0.4","0.6","0.8","0.2","0.06031800864","0.1101610351","0.3154846423","0.1530687496","","","","","","","","","","","72","H","0","img/none_selected.jpg","","117","main_expt"
"30","","bandit","196","401473","0.0-157.0-0.0","80554673","wem/bandit_either","A1K8QNLYYYX21W","either","4","","","","","","","0","0","1","0.05633053331","","0.4","0.6","0.8","0.2","","","","","0.05633053331","0.122460482","0.2584508078","0.1674206906","","","","","","","72","H","0","img/none_selected.jpg","","118","main_expt"
"298","","bandit","197","403303","0.0-158.0-0.0","80554673","wem/bandit_either","A1K8QNLYYYX21W","either","4","","","","","","","1","0","0","0.1990215448","","0.4","0.6","0.8","0.2","","","","","0.07530514027","0.1451868924","0.2141905193","0.1990215448","","","","","","","76","L","3","","","119","main_expt"
"2","","bandit","198","404830","0.0-159.0-0.0","80554673","wem/bandit_either","A1K8QNLYYYX21W","either","4","","","","","","","0","0","1","","0.09639595661","0.4","0.6","0.8","0.2","0.09639595661","0.09092593383","0.2341954374","0.2208640619","","","","","","","","","","","72","H","0","img/none_selected.jpg","","120","main_expt"
"35","","bandit","199","406390","0.0-160.0-0.0","80554673","wem/bandit_either","A1K8QNLYYYX21W","either","4","","","","","","","0","0","1","","0.2602917539","0.4","0.6","0.8","0.2","0.1421799471","0.1080456108","0.1886372651","0.2602917539","","","","","","","","","","","76","L","3","","","121","main_expt"
"30","","bandit","200","407947","0.0-161.0-0.0","80554673","wem/bandit_either","A1K8QNLYYYX21W","either","4","","","","","","","0","0","1","","0.2512498235","0.4","0.6","0.8","0.2","0.1624760489","0.1169053248","0.1597592322","0.2512498235","","","","","","","","","","","76","L","3","","","122","main_expt"
"43","","bandit","201","409512","0.0-162.0-0.0","80554673","wem/bandit_either","A1K8QNLYYYX21W","either","4","","","","","","","0","0","1","0.1640214383","","0.4","0.6","0.8","0.2","","","","","0.1640214383","0.1571594809","0.1895266442","0.2266242761","","","","","","","72","H","0","img/none_selected.jpg","","123","main_expt"
"3","","bandit","202","411043","0.0-163.0-0.0","80554673","wem/bandit_either","A1K8QNLYYYX21W","either","4","","","","","","","1","0","0","0.2231804049","","0.4","0.6","0.8","0.2","","","","","0.2014340991","0.2231804049","0.2042850732","0.2373824638","","","","","","","74","J","1","","","124","main_expt"
"166","","bandit","203","412742","0.0-164.0-0.0","80554673","wem/bandit_either","A1K8QNLYYYX21W","either","4","","","","","","","0","0","1","0.2232794356","","0.4","0.6","0.8","0.2","","","","","0.2229229076","0.2232794356","0.1812515389","0.2538727107","","","","","","","74","J","1","","","125","main_expt"
"3","","bandit","204","414274","0.0-165.0-0.0","80554673","wem/bandit_either","A1K8QNLYYYX21W","either","4","","","","","","","0","0","1","","0.2324712723","0.4","0.6","0.8","0.2","0.2324712723","0.2316903634","0.1694736183","0.290219491","","","","","","","","","","","72","H","0","img/none_selected.jpg","","126","main_expt"
"4","","bandit","205","415810","0.0-166.0-0.0","80554673","wem/bandit_either","A1K8QNLYYYX21W","either","4","","","","","","","0","0","1","","0.2628391623","0.4","0.6","0.8","0.2","0.2628391623","0.2337524142","0.1624528765","0.2542505169","","","","","","","","","","","72","H","0","img/none_selected.jpg","","127","main_expt"
"81","","bandit","206","417417","0.0-167.0-0.0","80554673","wem/bandit_either","A1K8QNLYYYX21W","either","4","","","","","","","0","1","0","","0.2654356302","0.4","0.6","0.8","0.2","0.2654356302","0.2198210178","0.1632982916","0.2582316027","","","","","","","","","","","72","H","0","img/none_selected.jpg","","128","main_expt"
"5","","bandit","207","418955","0.0-168.0-0.0","80554673","wem/bandit_either","A1K8QNLYYYX21W","either","4","","","","","","","0","0","1","","0.3267566011","0.4","0.6","0.8","0.2","0.2070569149","0.2280168395","0.2264598068","0.3267566011","","","","","","","","","","","76","L","3","","","129","main_expt"
"65","","bandit","208","420553","0.0-169.0-0.0","80554673","wem/bandit_either","A1K8QNLYYYX21W","either","4","","","","","","","0","0","1","0.2579182239","","0.4","0.6","0.8","0.2","","","","","0.2579182239","0.243895296","0.202760285","0.3323271388","","","","","","","72","H","0","img/none_selected.jpg","","130","main_expt"
"198","","bandit","209","422283","0.0-170.0-0.0","80554673","wem/bandit_either","A1K8QNLYYYX21W","either","4","","","","","","","0","0","1","0.2164454501","","0.4","0.6","0.8","0.2","","","","","0.2329110821","0.2164454501","0.1585094705","0.2666668646","","","","","","","74","J","1","","","131","main_expt"
"3","","bandit","210","423818","0.0-171.0-0.0","80554673","wem/bandit_either","A1K8QNLYYYX21W","either","4","","","","","","","0","1","0","","0.2359119393","0.4","0.6","0.8","0.2","0.2400232435","0.200468731","0.1304261544","0.2359119393","","","","","","","","","","","76","L","3","","","132","main_expt"
"94","","bandit","211","425437","0.0-172.0-0.0","80554673","wem/bandit_either","A1K8QNLYYYX21W","either","4","","","","","","","0","0","1","","0.2084798617","0.4","0.6","0.8","0.2","0.2084798617","0.2038597077","0.09339990826","0.2540740643","","","","","","","","","","","72","H","0","img/none_selected.jpg","","133","main_expt"
"6","","bandit","212","426985","0.0-173.0-0.0","80554673","wem/bandit_either","A1K8QNLYYYX21W","either","4","","","","","","","0","0","1","","0.2034544","0.4","0.6","0.8","0.2","0.2034544","0.2263269307","0.08524612959","0.2414927735","","","","","","","","","","","72","H","0","img/none_selected.jpg","","134","main_expt"
"75","","bandit","213","428582","0.0-174.0-0.0","80554673","wem/bandit_either","A1K8QNLYYYX21W","either","4","","","","","","","1","0","0","0.2088958693","","0.4","0.6","0.8","0.2","","","","","0.2088958693","0.2686469146","0.0622033461","0.2632369982","","","","","","","72","H","0","img/none_selected.jpg","","135","main_expt"
"32","","bandit","214","430150","0.0-175.0-0.0","80554673","wem/bandit_either","A1K8QNLYYYX21W","either","4","","","","","","","0","1","0","","0.2573758916","0.4","0.6","0.8","0.2","0.2573758916","0.3170393738","0.05632890875","0.3032623762","","","","","","","","","","","72","H","0","img/none_selected.jpg","","136","main_expt"
"732","","bandit","215","432409","0.0-176.0-0.0","80554673","wem/bandit_either","A1K8QNLYYYX21W","either","4","","","","","","","0","0","1","","0.2467438462","0.4","0.6","0.8","0.2","0.2467438462","0.338962466","0.06052980877","0.2984046037","","","","","","","","","","","72","H","0","img/none_selected.jpg","","137","main_expt"
"69","","bandit","216","434003","0.0-177.0-0.0","80554673","wem/bandit_either","A1K8QNLYYYX21W","either","4","","","","","","","0","0","1","0.2221944767","","0.4","0.6","0.8","0.2","","","","","0.2221944767","0.3586643031","0.1038497792","0.3110629865","","","","","","","72","H","0","img/none_selected.jpg","","138","main_expt"
"50","","bandit","217","435579","0.0-178.0-0.0","80554673","wem/bandit_either","A1K8QNLYYYX21W","either","4","","","","","","","0","0","1","0.3048373826","","0.4","0.6","0.8","0.2","","","","","0.2750517365","0.3430902759","0.08561062373","0.3048373826","","","","","","","76","L","3","","","139","main_expt"
"190","","bandit","218","437292","0.0-179.0-0.0","80554673","wem/bandit_either","A1K8QNLYYYX21W","either","4","","","","","","","1","0","0","0.3163642845","","0.4","0.6","0.8","0.2","","","","","0.277474309","0.3777112835","0.08025295029","0.3163642845","","","","","","","76","L","3","","","140","main_expt"
"18","","bandit","219","438836","0.0-180.0-0.0","80554673","wem/bandit_either","A1K8QNLYYYX21W","either","4","","","","","","","1","0","0","0.4276051364","","0.4","0.6","0.8","0.2","","","","","0.2932007391","0.4276051364","0.09309891757","0.2213861514","","","","","","","74","J","1","","","141","main_expt"
"21","","bandit","220","440390","0.0-181.0-0.0","80554673","wem/bandit_either","A1K8QNLYYYX21W","either","4","","","","","","","0","0","1","0.2492613222","","0.4","0.6","0.8","0.2","","","","","0.3001807938","0.4312347149","0.1107976638","0.2492613222","","","","","","","76","L","3","","","142","main_expt"
"188","","bandit","221","442102","0.0-182.0-0.0","80554673","wem/bandit_either","A1K8QNLYYYX21W","either","4","","","","","","","0","0","1","","0.2645663874","0.4","0.6","0.8","0.2","0.3640878437","0.386657586","0.09575525052","0.2645663874","","","","","","","","","","","76","L","3","","","143","main_expt"
"3","","bandit","222","443641","0.0-183.0-0.0","80554673","wem/bandit_either","A1K8QNLYYYX21W","either","4","","","","","","","0","0","1","","0.2928215939","0.4","0.6","0.8","0.2","0.2706796495","0.3409851627","0.07222794989","0.2928215939","","","","","","","","","","","76","L","3","","","144","main_expt"
"3","","bandit","223","445174","0.0-184.0-0.0","80554673","wem/bandit_either","A1K8QNLYYYX21W","either","4","","","","","","","0","1","0","","0.3538709708","0.4","0.6","0.8","0.2","0.2359726437","0.3538709708","0.03203798906","0.3178979655","","","","","","","","","","","74","J","1","","","145","main_expt"
"10","","bandit","224","446712","0.0-185.0-0.0","80554673","wem/bandit_either","A1K8QNLYYYX21W","either","4","","","","","","","0","0","1","0.2745956728","","0.4","0.6","0.8","0.2","","","","","0.2200332621","0.2745956728","0.03073079809","0.2850957273","","","","","","","74","J","1","","","146","main_expt"
"45","","bandit","225","448281","0.0-186.0-0.0","80554673","wem/bandit_either","A1K8QNLYYYX21W","either","4","","","","","","","0","0","1","0.1957794229","","0.4","0.6","0.8","0.2","","","","","0.1957794229","0.2375793476","0.05105424151","0.2483519338","","","","","","","72","H","0","img/none_selected.jpg","","147","main_expt"
"5","","bandit","226","449815","0.0-187.0-0.0","80554673","wem/bandit_either","A1K8QNLYYYX21W","either","4","","","","","","","0","0","1","0.1790722045","","0.4","0.6","0.8","0.2","","","","","0.1790722045","0.2954602587","0.04045355104","0.2309770791","","","","","","","72","H","0","img/none_selected.jpg","","148","main_expt"
"18","","bandit","227","451360","0.0-188.0-0.0","80554673","wem/bandit_either","A1K8QNLYYYX21W","either","4","","","","","","","0","0","1","","0.1759049641","0.4","0.6","0.8","0.2","0.2189150546","0.3435099865","0.06416506337","0.1759049641","","","","","","","","","","","76","L","3","","","149","main_expt"
"411","","bandit","228","453297","0.0-189.0-0.0","80554673","wem/bandit_either","A1K8QNLYYYX21W","either","4","","","","","","","0","0","1","0.1910702346","","0.4","0.6","0.8","0.2","","","","","0.2119229637","0.268900415","0.07819388902","0.1910702346","","","","","","","76","L","3","","","150","main_expt"
"68","","bandit","229","454900","0.0-190.0-0.0","80554673","wem/bandit_either","A1K8QNLYYYX21W","either","4","","","","","","","0","0","1","","0.1799178466","0.4","0.6","0.8","0.2","0.2472398003","0.2326488896","0.1186979887","0.1799178466","","","","","","","","","","","76","L","3","","","151","main_expt"
"12","","bandit","230","456441","0.0-191.0-0.0","80554673","wem/bandit_either","A1K8QNLYYYX21W","either","4","","","","","","","0","0","1","","0.1826140084","0.4","0.6","0.8","0.2","0.2148428051","0.2768057641","0.1084773402","0.1826140084","","","","","","","","","","","76","L","3","","","152","main_expt"
"674","","bandit","231","458654","0.0-192.0-0.0","80554673","wem/bandit_either","A1K8QNLYYYX21W","either","4","","","","","","","0","0","1","0.1314289417","","0.4","0.6","0.8","0.2","","","","","0.1598057249","0.2997660112","0.1314289417","0.147924298","","","","","","","75","K","2","","","153","main_expt"
"265","","bandit","232","460447","0.0-193.0-0.0","80554673","wem/bandit_either","A1K8QNLYYYX21W","either","4","","","","","","","0","0","1","","0.1388357139","0.4","0.6","0.8","0.2","0.1489099923","0.3196464983","0.1354051011","0.1388357139","","","","","","","","","","","76","L","3","","","154","main_expt"
"3","","bandit","233","461986","0.0-194.0-0.0","80554673","wem/bandit_either","A1K8QNLYYYX21W","either","4","","","","","","","0","0","1","","0.1502541116","0.4","0.6","0.8","0.2","0.1502541116","0.3141654429","0.1085215933","0.1658398244","","","","","","","","","","","72","H","0","img/none_selected.jpg","","155","main_expt"
"44","","bandit","234","463558","0.0-195.0-0.0","80554673","wem/bandit_either","A1K8QNLYYYX21W","either","4","","","","","","","0","0","1","","0.1605084188","0.4","0.6","0.8","0.2","0.1605084188","0.2667217688","0.1383379057","0.1104921729","","","","","","","","","","","72","H","0","img/none_selected.jpg","","156","main_expt"
"1","","bandit","235","465097","0.0-196.0-0.0","80554673","wem/bandit_either","A1K8QNLYYYX21W","either","4","","","","","","","0","0","1","","0.1684101418","0.4","0.6","0.8","0.2","0.1684101418","0.2867075714","0.1428990181","0.09530810267","","","","","","","","","","","72","H","0","img/none_selected.jpg","","157","main_expt"
"18","","bandit","236","466645","0.0-197.0-0.0","80554673","wem/bandit_either","A1K8QNLYYYX21W","either","4","","","","","","","0","0","1","","0.1211627972","0.4","0.6","0.8","0.2","0.1807688322","0.2788639118","0.07455979893","0.1211627972","","","","","","","","","","","76","L","3","","","158","main_expt"
"69","","bandit","237","468247","0.0-198.0-0.0","80554673","wem/bandit_either","A1K8QNLYYYX21W","either","4","","","","","","","1","0","0","0.1516426412","","0.4","0.6","0.8","0.2","","","","","0.1516426412","0.3020710819","0.1009372764","0.1012897464","","","","","","","72","H","0","img/none_selected.jpg","","159","main_expt"
"21","","bandit","238","469799","0.0-199.0-0.0","80554673","wem/bandit_either","A1K8QNLYYYX21W","either","4","","","","","","","0","0","1","","0.1188035868","0.4","0.6","0.8","0.2","0.1638698877","0.3404227007","0.05118862797","0.1188035868","","","","","","","","","","","76","L","3","","","160","main_expt"
"68","","bandit","239","471395","0.0-200.0-0.0","80554673","wem/bandit_either","A1K8QNLYYYX21W","either","4","","","","","","","0","0","1","","0.1606836622","0.4","0.6","0.8","0.2","0.1645359983","0.2876249865","0.05265847637","0.1606836622","","","","","","","","","","","76","L","3","","","161","main_expt"
"14","","bandit","240","472933","0.0-201.0-0.0","80554673","wem/bandit_either","A1K8QNLYYYX21W","either","4","","","","","","","0","0","1","","0.1859884171","0.4","0.6","0.8","0.2","0.2509918509","0.2401308511","0.07938684611","0.1859884171","","","","","","","","","","","76","L","3","","","162","main_expt"
"34","","bandit","241","474502","0.0-202.0-0.0","80554673","wem/bandit_either","A1K8QNLYYYX21W","either","4","","","","","","","0","1","0","","0.2528258464","0.4","0.6","0.8","0.2","0.1883685458","0.2486605046","0.0970900163","0.2528258464","","","","","","","","","","","76","L","3","","","163","main_expt"
"5","","bandit","242","476040","0.0-203.0-0.0","80554673","wem/bandit_either","A1K8QNLYYYX21W","either","4","","","","","","","0","0","1","0.07401968201","","0.4","0.6","0.8","0.2","","","","","0.2179532334","0.22675384","0.07401968201","0.2515292425","","","","","","","75","K","2","","","164","main_expt"
"35","","bandit","243","477608","0.0-204.0-0.0","80554673","wem/bandit_either","A1K8QNLYYYX21W","either","4","","","","","","","0","0","1","","0.2068970429","0.4","0.6","0.8","0.2","0.2143704678","0.2841151948","0.06633104104","0.2068970429","","","","","","","","","","","76","L","3","","","165","main_expt"
"399","","bandit","244","479536","0.0-205.0-0.0","80554673","wem/bandit_either","A1K8QNLYYYX21W","either","4","","","","","","","1","0","0","0.2842980464","","0.4","0.6","0.8","0.2","","","","","0.2175899085","0.2842980464","0.05309652092","0.1413778631","","","","","","","74","J","1","","","166","main_expt"
"38","","bandit","245","481109","0.0-206.0-0.0","80554673","wem/bandit_either","A1K8QNLYYYX21W","either","4","","","","","","","1","0","0","0.1999497975","","0.4","0.6","0.8","0.2","","","","","0.2137120923","0.3007590714","0.07357446968","0.1999497975","","","","","","","76","L","3","","","167","main_expt"
"48","","bandit","246","482688","0.0-207.0-0.0","80554673","wem/bandit_either","A1K8QNLYYYX21W","either","4","","","","","","","0","0","1","0.2331560811","","0.4","0.6","0.8","0.2","","","","","0.2331560811","0.2884936601","0.1054325378","0.1696145944","","","","","","","72","H","0","img/none_selected.jpg","","168","main_expt"
"29","","bandit","247","484253","0.0-208.0-0.0","80554673","wem/bandit_either","A1K8QNLYYYX21W","either","4","","","","","","","1","0","0","0.2803439438","","0.4","0.6","0.8","0.2","","","","","0.2367963754","0.2803439438","0.08536867429","0.1338518967","","","","","","","74","J","1","","","169","main_expt"
"4","","bandit","248","485791","0.0-209.0-0.0","80554673","wem/bandit_either","A1K8QNLYYYX21W","either","4","","","","","","","0","0","1","","0.2378050175","0.4","0.6","0.8","0.2","0.2378050175","0.3010437192","0.1083432756","0.1307598277","","","","","","","","","","","72","H","0","img/none_selected.jpg","","170","main_expt"
"3","","bandit","249","487332","0.0-210.0-0.0","80554673","wem/bandit_either","A1K8QNLYYYX21W","either","4","","","","","","","0","0","1","0.3243802095","","0.4","0.6","0.8","0.2","","","","","0.2253696972","0.3243802095","0.09185370626","0.1200375331","","","","","","","74","J","1","","","171","main_expt"
"66","","bandit","250","488933","0.0-211.0-0.0","80554673","wem/bandit_either","A1K8QNLYYYX21W","either","4","","","","","","","0","0","1","","0.2903394368","0.4","0.6","0.8","0.2","0.2903394368","0.3140094691","0.09458096772","0.07514546963","","","","","","","","","","","72","H","0","img/none_selected.jpg","","172","main_expt"
"4","","bandit","251","490460","0.0-212.0-0.0","80554673","wem/bandit_either","A1K8QNLYYYX21W","either","4","","","","","","","0","0","1","0.1016296913","","0.4","0.6","0.8","0.2","","","","","0.2384828248","0.2433770114","0.1016296913","0.07704486673","","","","","","","75","K","2","","","173","main_expt"
"53","","bandit","252","492045","0.0-213.0-0.0","80554673","wem/bandit_either","A1K8QNLYYYX21W","either","4","","","","","","","0","0","1","","0.04061738922","0.4","0.6","0.8","0.2","0.2823111034","0.2080779891","0.117107939","0.04061738922","","","","","","","","","","","76","L","3","","","174","main_expt"
"0","","bandit","253","493575","0.0-214.0-0.0","80554673","wem/bandit_either","A1K8QNLYYYX21W","either","4","","","","","","","0","0","1","0.2211365803","","0.4","0.6","0.8","0.2","","","","","0.292147578","0.2211365803","0.1254773658","0.02968316822","","","","","","","74","J","1","","","175","main_expt"
"2","","bandit","254","495103","0.0-215.0-0.0","80554673","wem/bandit_either","A1K8QNLYYYX21W","either","4","","","","","","","0","0","1","","0.04419366322","0.4","0.6","0.8","0.2","0.2928295457","0.231280906","0.1518856622","0.04419366322","","","","","","","","","","","76","L","3","","","176","main_expt"
"98","","bandit","255","496739","0.0-216.0-0.0","80554673","wem/bandit_either","A1K8QNLYYYX21W","either","4","","","","","","","0","0","1","","0.04140429262","0.4","0.6","0.8","0.2","0.297241693","0.1689881391","0.1502483312","0.04140429262","","","","","","","","","","","76","L","3","","","177","main_expt"
"3","","bandit","256","498273","0.0-217.0-0.0","80554673","wem/bandit_either","A1K8QNLYYYX21W","either","4","","","","","","","0","0","1","","0.06103489621","0.4","0.6","0.8","0.2","0.276241128","0.1699404395","0.2073149786","0.06103489621","","","","","","","","","","","76","L","3","","","178","main_expt"
"3","","bandit","257","499808","0.0-218.0-0.0","80554673","wem/bandit_either","A1K8QNLYYYX21W","either","4","","","","","","","0","0","1","","0.2405339857","0.4","0.6","0.8","0.2","0.2405339857","0.1571972967","0.1928578162","0.053608248","","","","","","","","","","","72","H","0","img/none_selected.jpg","","179","main_expt"
"215","","bandit","258","501559","0.0-219.0-0.0","80554673","wem/bandit_either","A1K8QNLYYYX21W","either","4","","","","","","","0","0","1","","0.06289379635","0.4","0.6","0.8","0.2","0.233428307","0.1567782565","0.1412953234","0.06289379635","","","","","","","","","","","76","L","3","","","180","main_expt"
"1","","bandit","259","503094","0.0-220.0-0.0","80554673","wem/bandit_either","A1K8QNLYYYX21W","either","4","","","","","","","0","0","1","","0.1459310114","0.4","0.6","0.8","0.2","0.1459310114","0.1492691696","0.1258774719","0.07748386732","","","","","","","","","","","72","H","0","img/none_selected.jpg","","181","main_expt"
"20","","bandit","260","504642","0.0-221.0-0.0","80554673","wem/bandit_either","A1K8QNLYYYX21W","either","4","","","","","","","0","1","0","","0.096714051","0.4","0.6","0.8","0.2","0.1796360657","0.1609613705","0.1121960069","0.096714051","","","","","","","","","","","76","L","3","","","182","main_expt"
"52","","bandit","261","506233","0.0-222.0-0.0","80554673","wem/bandit_either","A1K8QNLYYYX21W","either","4","","","","","","","0","0","1","0.08335286121","","0.4","0.6","0.8","0.2","","","","","0.1907874973","0.1982891881","0.08335286121","0.05351369794","","","","","","","75","K","2","","","183","main_expt"
"3","","bandit","262","507773","0.0-223.0-0.0","80554673","wem/bandit_either","A1K8QNLYYYX21W","either","4","","","","","","","0","0","1","","0.08854511538","0.4","0.6","0.8","0.2","0.1451627339","0.1703318442","0.1085923678","0.08854511538","","","","","","","","","","","76","L","3","","","184","main_expt"
"39","","bandit","263","509349","0.0-224.0-0.0","80554673","wem/bandit_either","A1K8QNLYYYX21W","either","4","","","","","","","0","0","1","0.1692531577","","0.4","0.6","0.8","0.2","","","","","0.1692531577","0.09566746086","0.1113654269","0.136385666","","","","","","","72","H","0","img/none_selected.jpg","","185","main_expt"
"32","","bandit","264","510913","0.0-225.0-0.0","80554673","wem/bandit_either","A1K8QNLYYYX21W","either","4","","","","","","","0","0","1","","0.1885113298","0.4","0.6","0.8","0.2","0.1885113298","0.1254261761","0.1383531569","0.1848043888","","","","","","","","","","","72","H","0","img/none_selected.jpg","","186","main_expt"
"4","","bandit","265","512464","0.0-226.0-0.0","80554673","wem/bandit_either","A1K8QNLYYYX21W","either","4","","","","","","","0","0","1","","0.1640989128","0.4","0.6","0.8","0.2","0.2088125345","0.1081798115","0.1739713275","0.1640989128","","","","","","","","","","","76","L","3","","","187","main_expt"
"20","","bandit","266","514014","0.0-227.0-0.0","80554673","wem/bandit_either","A1K8QNLYYYX21W","either","4","","","","","","","0","0","1","","0.1301402021","0.4","0.6","0.8","0.2","0.2228369986","0.08529062399","0.1926366302","0.1301402021","","","","","","","","","","","76","L","3","","","188","main_expt"
"15","","bandit","267","515572","0.0-228.0-0.0","80554673","wem/bandit_either","A1K8QNLYYYX21W","either","4","","","","","","","0","0","1","","0.2567428292","0.4","0.6","0.8","0.2","0.2567428292","0.07250281893","0.2499935398","0.1980942663","","","","","","","","","","","72","H","0","img/none_selected.jpg","","189","main_expt"
"49","","bandit","268","517150","0.0-229.0-0.0","80554673","wem/bandit_either","A1K8QNLYYYX21W","either","4","","","","","","","0","0","1","","0.2367317824","0.4","0.6","0.8","0.2","0.3177850294","0.07895395147","0.2367317824","0.1842725295","","","","","","","","","","","75","K","2","","","190","main_expt"
"130","","bandit","269","518815","0.0-230.0-0.0","80554673","wem/bandit_either","A1K8QNLYYYX21W","either","4","","","","","","","0","0","1","","0.2876912335","0.4","0.6","0.8","0.2","0.2876912335","0.06204701637","0.2515026666","0.2087081259","","","","","","","","","","","72","H","0","img/none_selected.jpg","","191","main_expt"
"114","","bandit","270","520459","0.0-231.0-0.0","80554673","wem/bandit_either","A1K8QNLYYYX21W","either","4","","","","","","","1","0","0","0.2383873749","","0.4","0.6","0.8","0.2","","","","","0.2383873749","0.064067899","0.2451916405","0.1800110976","","","","","","","72","H","0","img/none_selected.jpg","","192","main_expt"
"64","","bandit","271","522063","0.0-232.0-0.0","80554673","wem/bandit_either","A1K8QNLYYYX21W","either","4","","","","","","","0","0","1","","0.24690957","0.4","0.6","0.8","0.2","0.24690957","0.1286650472","0.2353451433","0.1519186298","","","","","","","","","","","72","H","0","img/none_selected.jpg","","193","main_expt"
"213","","bandit","272","523806","0.0-233.0-0.0","80554673","wem/bandit_either","A1K8QNLYYYX21W","either","4","","","","","","","0","0","1","","0.2728455101","0.4","0.6","0.8","0.2","0.2728455101","0.1746490116","0.307075739","0.1431656489","","","","","","","","","","","72","H","0","img/none_selected.jpg","","194","main_expt"
"239","","bandit","273","525576","0.0-234.0-0.0","80554673","wem/bandit_either","A1K8QNLYYYX21W","either","4","","","","","","","0","0","1","","0.2421292151","0.4","0.6","0.8","0.2","0.2421292151","0.129035247","0.3011001907","0.1868251083","","","","","","","","","","","72","H","0","img/none_selected.jpg","","195","main_expt"
"101","","bandit","274","527205","0.0-235.0-0.0","80554673","wem/bandit_either","A1K8QNLYYYX21W","either","4","","","","","","","0","0","1","","0.09052040682","0.4","0.6","0.8","0.2","0.2598052724","0.09052040682","0.2861216794","0.176624335","","","","","","","","","","","74","J","1","","","196","main_expt"
"81","","bandit","275","528822","0.0-236.0-0.0","80554673","wem/bandit_either","A1K8QNLYYYX21W","either","4","","","","","","","0","0","1","0.2383323772","","0.4","0.6","0.8","0.2","","","","","0.2540930088","0.08675464884","0.2121549007","0.2383323772","","","","","","","76","L","3","","","197","main_expt"
"24","","bandit","276","530380","0.0-237.0-0.0","80554673","wem/bandit_either","A1K8QNLYYYX21W","either","4","","","","","","","0","0","1","0.2460150375","","0.4","0.6","0.8","0.2","","","","","0.2460150375","0.09429549835","0.260340052","0.260618614","","","","","","","72","H","0","img/none_selected.jpg","","198","main_expt"
"113","","bandit","277","532031","0.0-238.0-0.0","80554673","wem/bandit_either","A1K8QNLYYYX21W","either","4","","","","","","","0","0","1","","0.2217343644","0.4","0.6","0.8","0.2","0.2217343644","0.09303778716","0.3009562829","0.2935067364","","","","","","","","","","","72","H","0","img/none_selected.jpg","","199","main_expt"
"51","","bandit","278","533631","0.0-239.0-0.0","80554673","wem/bandit_either","A1K8QNLYYYX21W","either","4","","","","","","","0","0","1","0.2830302048","","0.4","0.6","0.8","0.2","","","","","0.2830302048","0.07354084322","0.3430896668","0.362920627","","","","","","","72","H","0","img/none_selected.jpg","","200","main_expt"
"81","","bandit","279","535241","0.0-240.0-0.0","80554673","wem/bandit_either","A1K8QNLYYYX21W","either","4","","","","","","","0","0","1","0.08115367452","","0.4","0.6","0.8","0.2","","","","","0.3175621279","0.08115367452","0.2973668079","0.3119044903","","","","","","","74","J","1","","","201","main_expt"
"70","","bandit","280","536841","0.0-241.0-0.0","80554673","wem/bandit_either","A1K8QNLYYYX21W","either","4","","","","","","","0","0","1","","0.0774842685","0.4","0.6","0.8","0.2","0.3049471546","0.0774842685","0.3219337599","0.3095695708","","","","","","","","","","","74","J","1","","","202","main_expt"
"22","","bandit","281","538395","0.0-242.0-0.0","80554673","wem/bandit_either","A1K8QNLYYYX21W","either","4","","","","","","","1","0","0","0.09704724367","","0.4","0.6","0.8","0.2","","","","","0.2975042969","0.09704724367","0.3229991028","0.3005459379","","","","","","","74","J","1","","","203","main_expt"
"9","","bandit","282","539935","0.0-243.0-0.0","80554673","wem/bandit_either","A1K8QNLYYYX21W","either","4","","","","","","","0","1","0","","0.2268457719","0.4","0.6","0.8","0.2","0.2268457719","0.1224111047","0.3077995671","0.3116824409","","","","","","","","","","","72","H","0","img/none_selected.jpg","","204","main_expt"
"34","","bandit","283","541507","0.0-244.0-0.0","80554673","wem/bandit_either","A1K8QNLYYYX21W","either","4","","","","","","","1","0","0","0.2582085449","","0.4","0.6","0.8","0.2","","","","","0.2582085449","0.1627664319","0.3070199156","0.3291635812","","","","","","","72","H","0","img/none_selected.jpg","","205","main_expt"
"6","","bandit","284","543045","0.0-245.0-0.0","80554673","wem/bandit_either","A1K8QNLYYYX21W","either","4","","","","","","","1","0","0","0.2841247045","","0.4","0.6","0.8","0.2","","","","","0.2841247045","0.1604236747","0.3109683939","0.4008790519","","","","","","","72","H","0","img/none_selected.jpg","","206","main_expt"
"56","","bandit","285","544636","0.0-246.0-0.0","80554673","wem/bandit_either","A1K8QNLYYYX21W","either","4","","","","","","","0","0","1","0.2845075958","","0.4","0.6","0.8","0.2","","","","","0.3333225396","0.126388554","0.2845075958","0.4202180382","","","","","","","75","K","2","","","207","main_expt"
"5","","bandit","286","546174","0.0-247.0-0.0","80554673","wem/bandit_either","A1K8QNLYYYX21W","either","4","","","","","","","0","0","1","0.2419557814","","0.4","0.6","0.8","0.2","","","","","0.290219871","0.1602309633","0.2419557814","0.4168586074","","","","","","","75","K","2","","","208","main_expt"
"2","","bandit","287","547707","0.0-248.0-0.0","80554673","wem/bandit_either","A1K8QNLYYYX21W","either","4","","","","","","","1","0","0","0.2449545816","","0.4","0.6","0.8","0.2","","","","","0.3426384504","0.2009997365","0.2449545816","0.3949328033","","","","","","","75","K","2","","","209","main_expt"
"168","","bandit","288","549403","0.0-249.0-0.0","80554673","wem/bandit_either","A1K8QNLYYYX21W","either","4","","","","","","","0","0","1","","0.2932754766","0.4","0.6","0.8","0.2","0.2932754766","0.1997114924","0.2176860071","0.41782505","","","","","","","","","","","72","H","0","img/none_selected.jpg","","210","main_expt"
"87","","bandit","289","551023","0.0-250.0-0.0","80554673","wem/bandit_either","A1K8QNLYYYX21W","either","4","","","","","","","0","0","1","","0.2522206247","0.4","0.6","0.8","0.2","0.2522206247","0.2631807131","0.2460847292","0.4377941382","","","","","","","","","","","72","H","0","img/none_selected.jpg","","211","main_expt"
"3","","bandit","290","552559","0.0-251.0-0.0","80554673","wem/bandit_either","A1K8QNLYYYX21W","either","4","","","","","","","0","0","1","0.2008991105","","0.4","0.6","0.8","0.2","","","","","0.2323705111","0.2008991105","0.2017704833","0.4619006446","","","","","","","74","J","1","","","212","main_expt"
"179","","bandit","291","554274","0.0-252.0-0.0","80554673","wem/bandit_either","A1K8QNLYYYX21W","either","4","","","","","","","0","1","0","","0.2815580385","0.4","0.6","0.8","0.2","0.2815580385","0.1656487101","0.1891715169","0.4508737721","","","","","","","","","","","72","H","0","img/none_selected.jpg","","213","main_expt"
"105","","bandit","292","555906","0.0-253.0-0.0","80554673","wem/bandit_either","A1K8QNLYYYX21W","either","4","","","","","","","0","1","0","","0.2955812139","0.4","0.6","0.8","0.2","0.2955812139","0.213788386","0.1819308411","0.4639731149","","","","","","","","","","","72","H","0","img/none_selected.jpg","","214","main_expt"
"44","","bandit","293","557482","0.0-254.0-0.0","80554673","wem/bandit_either","A1K8QNLYYYX21W","either","4","","","","","","","0","0","1","","0.4690757113","0.4","0.6","0.8","0.2","0.2988647484","0.2206736926","0.1406935411","0.4690757113","","","","","","","","","","","76","L","3","","","215","main_expt"
"22","","bandit","294","559032","0.0-255.0-0.0","80554673","wem/bandit_either","A1K8QNLYYYX21W","either","4","","","","","","","1","0","0","0.2270120675","","0.4","0.6","0.8","0.2","","","","","0.3361974059","0.2270120675","0.206739756","0.4685680314","","","","","","","74","J","1","","","216","main_expt"
"61","","bandit","295","560630","0.0-256.0-0.0","80554673","wem/bandit_either","A1K8QNLYYYX21W","either","4","","","","","","","1","0","0","0.4873952874","","0.4","0.6","0.8","0.2","","","","","0.2764506131","0.2561581829","0.178624692","0.4873952874","","","","","","","76","L","3","","","217","main_expt"
"156","","bandit","296","562338","0.0-257.0-0.0","80554673","wem/bandit_either","A1K8QNLYYYX21W","either","4","","","","","","","0","0","1","0.2785758431","","0.4","0.6","0.8","0.2","","","","","0.299893698","0.2785758431","0.2021641755","0.4790671899","","","","","","","74","J","1","","","218","main_expt"
"57","","bandit","297","563939","0.0-258.0-0.0","80554673","wem/bandit_either","A1K8QNLYYYX21W","either","4","","","","","","","0","0","1","","0.4769795117","0.4","0.6","0.8","0.2","0.3213687962","0.2707863597","0.2076996705","0.4769795117","","","","","","","","","","","76","L","3","","","219","main_expt"
"38","","bandit","298","565512","0.0-259.0-0.0","80554673","wem/bandit_either","A1K8QNLYYYX21W","either","4","","","","","","","0","0","1","0.3782095139","","0.4","0.6","0.8","0.2","","","","","0.3782095139","0.2262269101","0.2479045362","0.4746148145","","","","","","","72","H","0","img/none_selected.jpg","","220","main_expt"
"43","","bandit","299","567092","0.0-260.0-0.0","80554673","wem/bandit_either","A1K8QNLYYYX21W","either","4","","","","","","","1","0","0","0.3572699546","","0.4","0.6","0.8","0.2","","","","","0.3572699546","0.2522421151","0.251163546","0.4789253058","","","","","","","72","H","0","img/none_selected.jpg","","221","main_expt"
"108","","bandit","300","568732","0.0-261.0-0.0","80554673","wem/bandit_either","A1K8QNLYYYX21W","either","4","","","","","","","0","1","0","","0.332217079","0.4","0.6","0.8","0.2","0.332217079","0.2323100388","0.2653622565","0.4765400837","","","","","","","","","","","72","H","0","img/none_selected.jpg","","222","main_expt"
"3","","bandit","301","570274","0.0-262.0-0.0","80554673","wem/bandit_either","A1K8QNLYYYX21W","either","4","","","","","","","0","0","1","","0.3327789551","0.4","0.6","0.8","0.2","0.3327789551","0.2013525365","0.2034578964","0.4872993944","","","","","","","","","","","72","H","0","img/none_selected.jpg","","223","main_expt"
"442","","bandit","302","572251","0.0-263.0-0.0","80554673","wem/bandit_either","A1K8QNLYYYX21W","either","4","","","","","","","1","0","0","0.4864577786","","0.4","0.6","0.8","0.2","","","","","0.3720138676","0.2017363432","0.1176985371","0.4864577786","","","","","","","76","L","3","","","224","main_expt"
"54","","bandit","303","573840","0.0-264.0-0.0","80554673","wem/bandit_either","A1K8QNLYYYX21W","either","4","","","","","","","0","1","0","","0.4035982493","0.4","0.6","0.8","0.2","0.4035982493","0.1608447522","0.08531446518","0.4815865163","","","","","","","","","","","72","H","0","img/none_selected.jpg","","225","main_expt"
"55","","bandit","304","575432","0.0-265.0-0.0","80554673","wem/bandit_either","A1K8QNLYYYX21W","either","4","","","","","","","0","0","1","","0.4781941344","0.4","0.6","0.8","0.2","0.3538577565","0.2023183299","0.0901010045","0.4781941344","","","","","","","","","","","76","L","3","","","226","main_expt"
"60","","bandit","305","577032","0.0-266.0-0.0","80554673","wem/bandit_either","A1K8QNLYYYX21W","either","4","","","","","","","0","0","1","","0.4742279627","0.4","0.6","0.8","0.2","0.4205879778","0.1555458008","0.06499555022","0.4742279627","","","","","","","","","","","76","L","3","","","227","main_expt"
"6","","bandit","306","578578","0.0-267.0-0.0","80554673","wem/bandit_either","A1K8QNLYYYX21W","either","4","","","","","","","0","1","0","","0.4597327255","0.4","0.6","0.8","0.2","0.4082381823","0.1210896773","0.06967502077","0.4597327255","","","","","","","","","","","76","L","3","","","228","main_expt"
"32","","bandit","307","580150","0.0-268.0-0.0","80554673","wem/bandit_either","A1K8QNLYYYX21W","either","4","","","","","","","0","0","1","0.4274963613","","0.4","0.6","0.8","0.2","","","","","0.4274963613","0.1206830913","0.07642173418","0.4733003713","","","","","","","72","H","0","img/none_selected.jpg","","229","main_expt"
"35","","bandit","308","581732","0.0-269.0-0.0","80554673","wem/bandit_either","A1K8QNLYYYX21W","either","4","","","","","","","0","1","0","","0.4832022084","0.4","0.6","0.8","0.2","0.4362488765","0.1334008039","0.04973788902","0.4832022084","","","","","","","","","","","76","L","3","","","230","main_expt"
"3","","bandit","309","583272","0.0-270.0-0.0","80554673","wem/bandit_either","A1K8QNLYYYX21W","either","4","","","","","","","1","0","0","0.4802630573","","0.4","0.6","0.8","0.2","","","","","0.4420629534","0.1048467088","0.07419495466","0.4802630573","","","","","","","76","L","3","","","231","main_expt"
"167","","bandit","310","584972","0.0-271.0-0.0","80554673","wem/bandit_either","A1K8QNLYYYX21W","either","4","","","","","","","0","0","1","","0.4739318499","0.4","0.6","0.8","0.2","0.4287414635","0.1184002818","0.08125260149","0.4739318499","","","","","","","","","","","76","L","3","","","232","main_expt"
"2","","bandit","311","586518","0.0-272.0-0.0","80554673","wem/bandit_either","A1K8QNLYYYX21W","either","4","","","","","","","0","0","1","0.4395511981","","0.4","0.6","0.8","0.2","","","","","0.4395511981","0.08533064469","0.06057073796","0.4709765286","","","","","","","72","H","0","img/none_selected.jpg","","233","main_expt"
"10","","bandit","312","588065","0.0-273.0-0.0","80554673","wem/bandit_either","A1K8QNLYYYX21W","either","4","","","","","","","0","0","1","0.1037411708","","0.4","0.6","0.8","0.2","","","","","0.4479240545","0.1190123434","0.1037411708","0.4658145356","","","","","","","75","K","2","","","234","main_expt"
"95","","bandit","313","589689","0.0-274.0-0.0","80554673","wem/bandit_either","A1K8QNLYYYX21W","either","4","","","","","","","0","1","0","","0.4476644646","0.4","0.6","0.8","0.2","0.4476644646","0.1392024459","0.1267441937","0.4312508187","","","","","","","","","","","72","H","0","img/none_selected.jpg","","235","main_expt"
"84","","bandit","314","591306","0.0-275.0-0.0","80554673","wem/bandit_either","A1K8QNLYYYX21W","either","4","","","","","","","0","1","0","","0.1076242464","0.4","0.6","0.8","0.2","0.457106966","0.1076242464","0.1002206095","0.4323277229","","","","","","","","","","","74","J","1","","","236","main_expt"
"1","","bandit","315","592835","0.0-276.0-0.0","80554673","wem/bandit_either","A1K8QNLYYYX21W","either","4","","","","","","","0","1","0","","0.4097288684","0.4","0.6","0.8","0.2","0.4097288684","0.1539911713","0.08353940566","0.4517679415","","","","","","","","","","","72","H","0","img/none_selected.jpg","","237","main_expt"
"3","","bandit","316","594375","0.0-277.0-0.0","80554673","wem/bandit_either","A1K8QNLYYYX21W","either","4","","","","","","","0","0","1","","0.1833253983","0.4","0.6","0.8","0.2","0.4530646831","0.1833253983","0.07847158511","0.4476427196","","","","","","","","","","","74","J","1","","","238","main_expt"
"4","","bandit","317","595913","0.0-278.0-0.0","80554673","wem/bandit_either","A1K8QNLYYYX21W","either","4","","","","","","","0","0","1","","0.4532148127","0.4","0.6","0.8","0.2","0.4532148127","0.185515968","0.1132310855","0.4421551546","","","","","","","","","","","72","H","0","img/none_selected.jpg","","239","main_expt"
"21","","bandit","318","597472","0.0-279.0-0.0","80554673","wem/bandit_either","A1K8QNLYYYX21W","either","4","","","","","","","1","0","0","0.4456906816","","0.4","0.6","0.8","0.2","","","","","0.4456906816","0.2545144829","0.130249024","0.4205303603","","","","","","","72","H","0","img/none_selected.jpg","","240","main_expt"
"5","","bandit","319","599011","0.0-280.0-0.0","80554673","wem/bandit_either","A1K8QNLYYYX21W","either","4","","","","","","","0","0","1","0.4515134246","","0.4","0.6","0.8","0.2","","","","","0.4515134246","0.1902236802","0.1356270161","0.4304808994","","","","","","","72","H","0","img/none_selected.jpg","","241","main_expt"
"77","","bandit","320","600629","0.0-281.0-0.0","80554673","wem/bandit_either","A1K8QNLYYYX21W","either","4","","","","","","","0","0","1","0.4318168925","","0.4","0.6","0.8","0.2","","","","","0.4640222466","0.2196571485","0.1402569013","0.4318168925","","","","","","","76","L","3","","","242","main_expt"
"140","","bandit","321","602308","0.0-282.0-0.0","80554673","wem/bandit_either","A1K8QNLYYYX21W","either","4","","","","","","","0","1","0","","0.4305348251","0.4","0.6","0.8","0.2","0.4305348251","0.2691755858","0.1851652895","0.4437639365","","","","","","","","","","","72","H","0","img/none_selected.jpg","","243","main_expt"
"18","","bandit","322","603862","0.0-283.0-0.0","80554673","wem/bandit_either","A1K8QNLYYYX21W","either","4","","","","","","","0","1","0","","0.4444545885","0.4","0.6","0.8","0.2","0.4444417595","0.2689580194","0.1871667761","0.4444545885","","","","","","","","","","","76","L","3","","","244","main_expt"
"206","","bandit","323","605611","0.0-284.0-0.0","80554673","wem/bandit_either","A1K8QNLYYYX21W","either","4","","","","","","","0","1","0","","0.445216333","0.4","0.6","0.8","0.2","0.4468105605","0.1935089033","0.1881322931","0.445216333","","","","","","","","","","","76","L","3","","","245","main_expt"
"92","","bandit","324","607236","0.0-285.0-0.0","80554673","wem/bandit_either","A1K8QNLYYYX21W","either","4","","","","","","","0","0","1","","0.4767449203","0.4","0.6","0.8","0.2","0.4453418505","0.1466547275","0.187853128","0.4767449203","","","","","","","","","","","76","L","3","","","246","main_expt"
"66","","bandit","325","608839","0.0-286.0-0.0","80554673","wem/bandit_either","A1K8QNLYYYX21W","either","4","","","","","","","1","0","0","0.1275107348","","0.4","0.6","0.8","0.2","","","","","0.4426138654","0.1275107348","0.1952756904","0.4530054638","","","","","","","74","J","1","","","247","main_expt"
"3","","bandit","326","610395","0.0-287.0-0.0","80554673","wem/bandit_either","A1K8QNLYYYX21W","either","4","","","","","","","0","0","1","","0.464375056","0.4","0.6","0.8","0.2","0.464375056","0.107785627","0.1722543521","0.4326938674","","","","","","","","","","","72","H","0","img/none_selected.jpg","","248","main_expt"
"106","","bandit","327","612041","0.0-288.0-0.0","80554673","wem/bandit_either","A1K8QNLYYYX21W","either","4","","","","","","","0","0","1","","0.4416705694","0.4","0.6","0.8","0.2","0.4416705694","0.1169449123","0.1935833679","0.4276367863","","","","","","","","","","","72","H","0","img/none_selected.jpg","","249","main_expt"
"20","","bandit","328","613599","0.0-289.0-0.0","80554673","wem/bandit_either","A1K8QNLYYYX21W","either","4","","","","","","","0","1","0","","0.4352039605","0.4","0.6","0.8","0.2","0.4352039605","0.1474950258","0.1783221165","0.4602627553","","","","","","","","","","","72","H","0","img/none_selected.jpg","","250","main_expt"
"24","","bandit","329","615156","0.0-290.0-0.0","80554673","wem/bandit_either","A1K8QNLYYYX21W","either","4","","","","","","","0","0","1","0.2191654692","","0.4","0.6","0.8","0.2","","","","","0.4625669079","0.1272017844","0.2191654692","0.4429671406","","","","","","","75","K","2","","","251","main_expt"
"84","","bandit","330","616771","0.0-291.0-0.0","80554673","wem/bandit_either","A1K8QNLYYYX21W","either","4","","","","","","","0","1","0","","0.4714010403","0.4","0.6","0.8","0.2","0.4714010403","0.1383509771","0.2357097141","0.4423062834","","","","","","","","","","","72","H","0","img/none_selected.jpg","","252","main_expt"
