"rt","responses","trial_type","trial_index","time_elapsed","internal_node_id","subjID","study","MID","cond","drift","key_press","expt_phase","target","like","value","connected","gems","bombs","no_reward","GemPrChosen","BombPrChosen","GainOverPainPr_0","GainOverPainPr_1","GainOverPainPr_2","GainOverPainPr_3","LosePr_0","LosePr_1","LosePr_2","LosePr_3","WinPr_0","WinPr_1","WinPr_2","WinPr_3","Q0","Q1","Q2","gender","age","ethnicity","respCharCode","respKey","respChoiceNum","respChoice","practice","trial_counter","trial_label"
"8733","{""Q0"":""AC8IEBY696VJO""}","survey-text","0","8748","0.0-0.0","83679801","wem/bandit_either","AC8IEBY696VJO","either","1","","","","","","","","","","","","","","","","","","","","","","","","","","","","","","","","","","","",""
"15261","","text","1","25016","0.0-1.0","83679801","wem/bandit_either","AC8IEBY696VJO","either","1","32","","","","","","","","","","","","","","","","","","","","","","","","","","","","","","","","","","",""
"6837","","text","2","31855","0.0-2.0","83679801","wem/bandit_either","AC8IEBY696VJO","either","1","32","","","","","","","","","","","","","","","","","","","","","","","","","","","","","","","","","","",""
"19393","","text","3","51251","0.0-3.0","83679801","wem/bandit_either","AC8IEBY696VJO","either","1","32","","","","","","","","","","","","","","","","","","","","","","","","","","","","","","","","","","",""
"11535","","text","4","62790","0.0-4.0","83679801","wem/bandit_either","AC8IEBY696VJO","either","1","32","","","","","","","","","","","","","","","","","","","","","","","","","","","","","","","","","","",""
"18528","","text","5","81322","0.0-5.0","83679801","wem/bandit_either","AC8IEBY696VJO","either","1","32","","","","","","","","","","","","","","","","","","","","","","","","","","","","","","","","","","",""
"5654","","text","6","86981","0.0-6.0","83679801","wem/bandit_either","AC8IEBY696VJO","either","1","32","","","","","","","","","","","","","","","","","","","","","","","","","","","","","","","","","","",""
"4354","","text","7","91340","0.0-7.0","83679801","wem/bandit_either","AC8IEBY696VJO","either","1","32","","","","","","","","","","","","","","","","","","","","","","","","","","","","","","","","","","",""
"10491","","identification","8","101870","0.0-8.0-0.0","83679801","wem/bandit_either","AC8IEBY696VJO","either","1","","identification_pre","the village of Zur","","","","","","","","","","","","","","","","","","","","","","","","","","","","","","","","",""
"5764","","identification","9","108675","0.0-8.0-1.0","83679801","wem/bandit_either","AC8IEBY696VJO","either","1","","identification_pre","the village of Nyx","","","","","","","","","","","","","","","","","","","","","","","","","","","","","","","","",""
"8790","","text","10","118471","0.0-9.0","83679801","wem/bandit_either","AC8IEBY696VJO","either","1","32","","","","","","","","","","","","","","","","","","","","","","","","","","","","","","","","","","",""
"3870","","text","11","122345","0.0-10.0","83679801","wem/bandit_either","AC8IEBY696VJO","either","1","32","","","","","","","","","","","","","","","","","","","","","","","","","","","","","","","","","","",""
"1948","","text","12","124297","0.0-11.0","83679801","wem/bandit_either","AC8IEBY696VJO","either","1","32","","","","","","","","","","","","","","","","","","","","","","","","","","","","","","","","","","",""
"4628","","text","13","128930","0.0-12.0","83679801","wem/bandit_either","AC8IEBY696VJO","either","1","32","","","","","","","","","","","","","","","","","","","","","","","","","","","","","","","","","","",""
"1798","","bandit","14","132248","0.0-13.0-0.0","83679801","wem/bandit_either","AC8IEBY696VJO","either","1","","","","","","","0","0","1","0","0","","","","","0","","","","0","","","","","","","","","","74","J","0","img/none_selected_demo.jpg","true","0",""
"1315","","bandit","15","135081","0.0-14.0-0.0","83679801","wem/bandit_either","AC8IEBY696VJO","either","1","","","","","","","0","0","1","0","0","","","","","0","","","","0","","","","","","","","","","75","K","0","img/none_selected_demo.jpg","true","0",""
"7655","","text","16","142741","0.0-15.0","83679801","wem/bandit_either","AC8IEBY696VJO","either","1","32","","","","","","","","","","","","","","","","","","","","","","","","","","","","","","","","","","",""
"24326","","text","17","167070","0.0-16.0","83679801","wem/bandit_either","AC8IEBY696VJO","either","1","32","","","","","","","","","","","","","","","","","","","","","","","","","","","","","","","","","","",""
"7739","","text","18","174814","0.0-17.0","83679801","wem/bandit_either","AC8IEBY696VJO","either","1","32","","","","","","","","","","","","","","","","","","","","","","","","","","","","","","","","","","",""
"6481","","text","19","181298","0.0-18.0","83679801","wem/bandit_either","AC8IEBY696VJO","either","1","32","","","","","","","","","","","","","","","","","","","","","","","","","","","","","","","","","","",""
"665","","bandit","20","183763","0.0-19.0-0.0","83679801","wem/bandit_either","AC8IEBY696VJO","either","1","","","","","","","0","0","1","","0.8","0.5","0.5","","","0.8","0.2","","","","","","","","","","","","","74","J","0","img/none_selected_demo.jpg","true","0","80_20_practice"
"550","","bandit","21","185824","0.0-19.0-1.0","83679801","wem/bandit_either","AC8IEBY696VJO","either","1","","","","","","","0","0","1","","0.2","0.5","0.5","","","0.8","0.2","","","","","","","","","","","","","75","K","1","","true","0","80_20_practice"
"429","","bandit","22","188083","0.0-19.0-2.0","83679801","wem/bandit_either","AC8IEBY696VJO","either","1","","","","","","","1","0","0","0.2","","0.5","0.5","","","","","","","0.8","0.2","","","","","","","","","75","K","1","","true","0","80_20_practice"
"502","","bandit","23","190096","0.0-19.0-3.0","83679801","wem/bandit_either","AC8IEBY696VJO","either","1","","","","","","","0","0","1","","0.2","0.5","0.5","","","0.8","0.2","","","","","","","","","","","","","75","K","1","","true","0","80_20_practice"
"405","","bandit","24","192016","0.0-19.0-4.0","83679801","wem/bandit_either","AC8IEBY696VJO","either","1","","","","","","","0","0","1","0.2","","0.5","0.5","","","","","","","0.8","0.2","","","","","","","","","75","K","1","","true","0","80_20_practice"
"375","","bandit","25","193910","0.0-19.0-5.0","83679801","wem/bandit_either","AC8IEBY696VJO","either","1","","","","","","","0","1","0","","0.8","0.5","0.5","","","0.8","0.2","","","","","","","","","","","","","74","J","0","img/none_selected_demo.jpg","true","0","80_20_practice"
"597","","bandit","26","196023","0.0-19.0-6.0","83679801","wem/bandit_either","AC8IEBY696VJO","either","1","","","","","","","0","0","1","","0.8","0.5","0.5","","","0.8","0.2","","","","","","","","","","","","","74","J","0","img/none_selected_demo.jpg","true","0","80_20_practice"
"408","","bandit","27","197948","0.0-19.0-7.0","83679801","wem/bandit_either","AC8IEBY696VJO","either","1","","","","","","","0","0","1","","0.8","0.5","0.5","","","0.8","0.2","","","","","","","","","","","","","74","J","0","img/none_selected_demo.jpg","true","0","80_20_practice"
"373","","bandit","28","199834","0.0-19.0-8.0","83679801","wem/bandit_either","AC8IEBY696VJO","either","1","","","","","","","1","0","0","0.8","","0.5","0.5","","","","","","","0.8","0.2","","","","","","","","","74","J","0","img/none_selected_demo.jpg","true","0","80_20_practice"
"374","","bandit","29","201725","0.0-19.0-9.0","83679801","wem/bandit_either","AC8IEBY696VJO","either","1","","","","","","","1","0","0","0.8","","0.5","0.5","","","","","","","0.8","0.2","","","","","","","","","74","J","0","img/none_selected_demo.jpg","true","0","80_20_practice"
"514","","bandit","30","203755","0.0-19.0-10.0","83679801","wem/bandit_either","AC8IEBY696VJO","either","1","","","","","","","0","1","0","","0.8","0.5","0.5","","","0.8","0.2","","","","","","","","","","","","","74","J","0","img/none_selected_demo.jpg","true","0","80_20_practice"
"461","","bandit","31","205731","0.0-19.0-11.0","83679801","wem/bandit_either","AC8IEBY696VJO","either","1","","","","","","","0","1","0","","0.8","0.5","0.5","","","0.8","0.2","","","","","","","","","","","","","74","J","0","img/none_selected_demo.jpg","true","0","80_20_practice"
"598","","bandit","32","207842","0.0-19.0-12.0","83679801","wem/bandit_either","AC8IEBY696VJO","either","1","","","","","","","1","0","0","0.8","","0.5","0.5","","","","","","","0.8","0.2","","","","","","","","","74","J","0","img/none_selected_demo.jpg","true","0","80_20_practice"
"315","","bandit","33","209666","0.0-19.0-13.0","83679801","wem/bandit_either","AC8IEBY696VJO","either","1","","","","","","","1","0","0","0.8","","0.5","0.5","","","","","","","0.8","0.2","","","","","","","","","74","J","0","img/none_selected_demo.jpg","true","0","80_20_practice"
"1242","","bandit","34","212790","0.0-19.0-14.0","83679801","wem/bandit_either","AC8IEBY696VJO","either","1","","","","","","","0","1","0","","0.8","0.5","0.5","","","0.8","0.2","","","","","","","","","","","","","74","J","0","img/none_selected_demo.jpg","true","0","80_20_practice"
"442","","bandit","35","214747","0.0-19.0-15.0","83679801","wem/bandit_either","AC8IEBY696VJO","either","1","","","","","","","1","0","0","0.8","","0.5","0.5","","","","","","","0.8","0.2","","","","","","","","","74","J","0","img/none_selected_demo.jpg","true","0","80_20_practice"
"424","","bandit","36","216686","0.0-19.0-16.0","83679801","wem/bandit_either","AC8IEBY696VJO","either","1","","","","","","","1","0","0","0.8","","0.5","0.5","","","","","","","0.8","0.2","","","","","","","","","74","J","0","img/none_selected_demo.jpg","true","0","80_20_practice"
"386","","bandit","37","218892","0.0-19.0-17.0","83679801","wem/bandit_either","AC8IEBY696VJO","either","1","","","","","","","1","0","0","0.8","","0.5","0.5","","","","","","","0.8","0.2","","","","","","","","","74","J","0","img/none_selected_demo.jpg","true","0","80_20_practice"
"624","","bandit","38","221032","0.0-19.0-18.0","83679801","wem/bandit_either","AC8IEBY696VJO","either","1","","","","","","","0","0","1","0.8","","0.5","0.5","","","","","","","0.8","0.2","","","","","","","","","74","J","0","img/none_selected_demo.jpg","true","0","80_20_practice"
"1036","","bandit","39","223769","0.0-19.0-19.0","83679801","wem/bandit_either","AC8IEBY696VJO","either","1","","","","","","","0","0","1","","0.8","0.5","0.5","","","0.8","0.2","","","","","","","","","","","","","74","J","0","img/none_selected_demo.jpg","true","0","80_20_practice"
"4728","","text","40","228504","0.0-20.0","83679801","wem/bandit_either","AC8IEBY696VJO","either","1","32","","","","","","","","","","","","","","","","","","","","","","","","","","","","","","","","","","",""
"701","","bandit","41","230721","0.0-21.0-0.0","83679801","wem/bandit_either","AC8IEBY696VJO","either","1","","","","","","","1","0","0","1","0","","","","","0","1","","","1","0","","","","","","","","","74","J","0","img/none_selected_demo.jpg","true","0",""
"3917","","text","42","234644","0.0-22.0","83679801","wem/bandit_either","AC8IEBY696VJO","either","1","32","","","","","","","","","","","","","","","","","","","","","","","","","","","","","","","","","","",""
"3933","","text","43","238580","0.0-23.0","83679801","wem/bandit_either","AC8IEBY696VJO","either","1","32","","","","","","","","","","","","","","","","","","","","","","","","","","","","","","","","","","",""
"2962","","text","44","241546","0.0-24.0","83679801","wem/bandit_either","AC8IEBY696VJO","either","1","32","","","","","","","","","","","","","","","","","","","","","","","","","","","","","","","","","","",""
"2785","","text","45","244336","0.0-25.0","83679801","wem/bandit_either","AC8IEBY696VJO","either","1","32","","","","","","","","","","","","","","","","","","","","","","","","","","","","","","","","","","",""
"8618","","text","46","252957","0.0-26.0","83679801","wem/bandit_either","AC8IEBY696VJO","either","1","32","","","","","","","","","","","","","","","","","","","","","","","","","","","","","","","","","","",""
"2531","","text","47","255508","0.0-27.0","83679801","wem/bandit_either","AC8IEBY696VJO","either","1","32","","","","","","","","","","","","","","","","","","","","","","","","","","","","","","","","","","",""
"3078","","text","48","258592","0.0-28.0","83679801","wem/bandit_either","AC8IEBY696VJO","either","1","32","","","","","","","","","","","","","","","","","","","","","","","","","","","","","","","","","","",""
"1887","","text","49","260483","0.0-29.0","83679801","wem/bandit_either","AC8IEBY696VJO","either","1","32","","","","","","","","","","","","","","","","","","","","","","","","","","","","","","","","","","",""
"4240","","text","50","264728","0.0-30.0","83679801","wem/bandit_either","AC8IEBY696VJO","either","1","32","","","","","","","","","","","","","","","","","","","","","","","","","","","","","","","","","","",""
"2003","","text","51","266735","0.0-31.0","83679801","wem/bandit_either","AC8IEBY696VJO","either","1","32","","","","","","","","","","","","","","","","","","","","","","","","","","","","","","","","","","",""
"1956","","text","52","268697","0.0-32.0","83679801","wem/bandit_either","AC8IEBY696VJO","either","1","32","","","","","","","","","","","","","","","","","","","","","","","","","","","","","","","","","","",""
"1083","","bandit","53","271297","0.0-33.0-0.0","83679801","wem/bandit_either","AC8IEBY696VJO","either","1","","","","","","","0","1","0","","0.8","0.5","0.5","0.5","0.5","0.8","0.2","0.6","0.2","","","","","","","","","","","72","H","0","img/none_selected.jpg","true","0","full_practice"
"404","","bandit","54","273215","0.0-33.0-1.0","83679801","wem/bandit_either","AC8IEBY696VJO","either","1","","","","","","","1","0","0","0.8","","0.5","0.5","0.5","0.5","","","","","0.8","0.2","0.6","0.2","","","","","","","72","H","0","img/none_selected.jpg","true","0","full_practice"
"399","","bandit","55","275133","0.0-33.0-2.0","83679801","wem/bandit_either","AC8IEBY696VJO","either","1","","","","","","","0","1","0","","0.8","0.5","0.5","0.5","0.5","0.8","0.2","0.6","0.2","","","","","","","","","","","72","H","0","img/none_selected.jpg","true","0","full_practice"
"422","","bandit","56","277073","0.0-33.0-3.0","83679801","wem/bandit_either","AC8IEBY696VJO","either","1","","","","","","","0","1","0","","0.8","0.5","0.5","0.5","0.5","0.8","0.2","0.6","0.2","","","","","","","","","","","72","H","0","img/none_selected.jpg","true","0","full_practice"
"386","","bandit","57","278972","0.0-33.0-4.0","83679801","wem/bandit_either","AC8IEBY696VJO","either","1","","","","","","","0","0","1","0.8","","0.5","0.5","0.5","0.5","","","","","0.8","0.2","0.6","0.2","","","","","","","72","H","0","img/none_selected.jpg","true","0","full_practice"
"407","","bandit","58","280900","0.0-33.0-5.0","83679801","wem/bandit_either","AC8IEBY696VJO","either","1","","","","","","","0","0","1","","0.8","0.5","0.5","0.5","0.5","0.8","0.2","0.6","0.2","","","","","","","","","","","72","H","0","img/none_selected.jpg","true","0","full_practice"
"415","","bandit","59","282831","0.0-33.0-6.0","83679801","wem/bandit_either","AC8IEBY696VJO","either","1","","","","","","","0","0","1","","0.2","0.5","0.5","0.5","0.5","0.8","0.2","0.6","0.2","","","","","","","","","","","74","J","1","","true","0","full_practice"
"343","","bandit","60","284690","0.0-33.0-7.0","83679801","wem/bandit_either","AC8IEBY696VJO","either","1","","","","","","","0","0","1","","0.2","0.5","0.5","0.5","0.5","0.8","0.2","0.6","0.2","","","","","","","","","","","74","J","1","","true","0","full_practice"
"403","","bandit","61","286605","0.0-33.0-8.0","83679801","wem/bandit_either","AC8IEBY696VJO","either","1","","","","","","","0","1","0","","0.2","0.5","0.5","0.5","0.5","0.8","0.2","0.6","0.2","","","","","","","","","","","74","J","1","","true","0","full_practice"
"332","","bandit","62","288450","0.0-33.0-9.0","83679801","wem/bandit_either","AC8IEBY696VJO","either","1","","","","","","","0","1","0","","0.2","0.5","0.5","0.5","0.5","0.8","0.2","0.6","0.2","","","","","","","","","","","74","J","1","","true","0","full_practice"
"391","","bandit","63","290360","0.0-33.0-10.0","83679801","wem/bandit_either","AC8IEBY696VJO","either","1","","","","","","","0","0","1","0.2","","0.5","0.5","0.5","0.5","","","","","0.8","0.2","0.6","0.2","","","","","","","74","J","1","","true","0","full_practice"
"387","","bandit","64","292271","0.0-33.0-11.0","83679801","wem/bandit_either","AC8IEBY696VJO","either","1","","","","","","","0","0","1","","0.2","0.5","0.5","0.5","0.5","0.8","0.2","0.6","0.2","","","","","","","","","","","74","J","1","","true","0","full_practice"
"523","","bandit","65","294315","0.0-33.0-12.0","83679801","wem/bandit_either","AC8IEBY696VJO","either","1","","","","","","","0","1","0","","0.6","0.5","0.5","0.5","0.5","0.8","0.2","0.6","0.2","","","","","","","","","","","75","K","2","","true","0","full_practice"
"438","","bandit","66","296275","0.0-33.0-13.0","83679801","wem/bandit_either","AC8IEBY696VJO","either","1","","","","","","","0","1","0","","0.6","0.5","0.5","0.5","0.5","0.8","0.2","0.6","0.2","","","","","","","","","","","75","K","2","","true","0","full_practice"
"446","","bandit","67","298240","0.0-33.0-14.0","83679801","wem/bandit_either","AC8IEBY696VJO","either","1","","","","","","","1","0","0","0.6","","0.5","0.5","0.5","0.5","","","","","0.8","0.2","0.6","0.2","","","","","","","75","K","2","","true","0","full_practice"
"396","","bandit","68","300155","0.0-33.0-15.0","83679801","wem/bandit_either","AC8IEBY696VJO","either","1","","","","","","","1","0","0","0.6","","0.5","0.5","0.5","0.5","","","","","0.8","0.2","0.6","0.2","","","","","","","75","K","2","","true","0","full_practice"
"397","","bandit","69","302070","0.0-33.0-16.0","83679801","wem/bandit_either","AC8IEBY696VJO","either","1","","","","","","","0","0","1","0.6","","0.5","0.5","0.5","0.5","","","","","0.8","0.2","0.6","0.2","","","","","","","75","K","2","","true","0","full_practice"
"664","","bandit","70","304252","0.0-33.0-17.0","83679801","wem/bandit_either","AC8IEBY696VJO","either","1","","","","","","","0","0","1","","0.6","0.5","0.5","0.5","0.5","0.8","0.2","0.6","0.2","","","","","","","","","","","75","K","2","","true","0","full_practice"
"469","","bandit","71","306240","0.0-33.0-18.0","83679801","wem/bandit_either","AC8IEBY696VJO","either","1","","","","","","","0","0","1","","0.2","0.5","0.5","0.5","0.5","0.8","0.2","0.6","0.2","","","","","","","","","","","76","L","3","","true","0","full_practice"
"366","","bandit","72","308126","0.0-33.0-19.0","83679801","wem/bandit_either","AC8IEBY696VJO","either","1","","","","","","","0","0","1","","0.2","0.5","0.5","0.5","0.5","0.8","0.2","0.6","0.2","","","","","","","","","","","76","L","3","","true","0","full_practice"
"2845","","text","73","310990","0.0-34.0","83679801","wem/bandit_either","AC8IEBY696VJO","either","1","32","","","","","","","","","","","","","","","","","","","","","","","","","","","","","","","","","","",""
"10848","","text","74","322847","0.0-35.0","83679801","wem/bandit_either","AC8IEBY696VJO","either","1","32","","","","","","","","","","","","","","","","","","","","","","","","","","","","","","","","","","",""
"8740","","text","75","331591","0.0-36.0","83679801","wem/bandit_either","AC8IEBY696VJO","either","1","32","","","","","","","","","","","","","","","","","","","","","","","","","","","","","","","","","","",""
"4302","","text","76","335902","0.0-37.0","83679801","wem/bandit_either","AC8IEBY696VJO","either","1","32","","","","","","","","","","","","","","","","","","","","","","","","","","","","","","","","","","",""
"6115","","text","77","342025","0.0-38.0","83679801","wem/bandit_either","AC8IEBY696VJO","either","1","32","","","","","","","","","","","","","","","","","","","","","","","","","","","","","","","","","","",""
"3720","","text","78","345753","0.0-39.0","83679801","wem/bandit_either","AC8IEBY696VJO","either","1","32","","","","","","","","","","","","","","","","","","","","","","","","","","","","","","","","","","",""
"3209","","bandit","79","350481","0.0-40.0-0.0","83679801","wem/bandit_either","AC8IEBY696VJO","either","1","","","","","","","0","0","1","0.02943109976","","0.4","0.2","0.8","0.6","","","","","0.02943109976","0.0798457429","0.4269289603","0.3592836462","","","","","","","72","H","0","img/none_selected.jpg","","1","main_expt"
"506","","bandit","80","352774","0.0-41.0-0.0","83679801","wem/bandit_either","AC8IEBY696VJO","either","1","","","","","","","0","0","1","","0.06336112212","0.4","0.2","0.8","0.6","0.06336112212","0.07621336767","0.4660243271","0.3454903542","","","","","","","","","","","72","H","0","img/none_selected.jpg","","2","main_expt"
"584","","bandit","81","354869","0.0-42.0-0.0","83679801","wem/bandit_either","AC8IEBY696VJO","either","1","","","","","","","0","0","1","","0.07335687118","0.4","0.2","0.8","0.6","0.07335687118","0.07476295528","0.4738503749","0.2941512374","","","","","","","","","","","72","H","0","img/none_selected.jpg","","3","main_expt"
"496","","bandit","82","356890","0.0-43.0-0.0","83679801","wem/bandit_either","AC8IEBY696VJO","either","1","","","","","","","0","0","1","0.4618500418","","0.4","0.2","0.8","0.6","","","","","0.06156305515","0.06526985361","0.4618500418","0.2851241965","","","","","","","75","K","2","","","4","main_expt"
"336","","bandit","83","358740","0.0-44.0-0.0","83679801","wem/bandit_either","AC8IEBY696VJO","either","1","","","","","","","1","0","0","0.4488935273","","0.4","0.2","0.8","0.6","","","","","0.08141194251","0.05487735528","0.4488935273","0.3172925843","","","","","","","75","K","2","","","5","main_expt"
"335","","bandit","84","360593","0.0-45.0-0.0","83679801","wem/bandit_either","AC8IEBY696VJO","either","1","","","","","","","1","0","0","0.4437832297","","0.4","0.2","0.8","0.6","","","","","0.1104821702","0.04340015571","0.4437832297","0.3319153021","","","","","","","75","K","2","","","6","main_expt"
"386","","bandit","85","362774","0.0-46.0-0.0","83679801","wem/bandit_either","AC8IEBY696VJO","either","1","","","","","","","1","0","0","0.4310077805","","0.4","0.2","0.8","0.6","","","","","0.1191408541","0.04575060371","0.4310077805","0.3553039772","","","","","","","75","K","2","","","7","main_expt"
"444","","bandit","86","364732","0.0-47.0-0.0","83679801","wem/bandit_either","AC8IEBY696VJO","either","1","","","","","","","1","0","0","0.4480386191","","0.4","0.2","0.8","0.6","","","","","0.1517570037","0.06112087539","0.4480386191","0.3868093767","","","","","","","75","K","2","","","8","main_expt"
"2152","","bandit","87","368456","0.0-48.0-0.0","83679801","wem/bandit_either","AC8IEBY696VJO","either","1","","","","","","","0","1","0","","0.4460224538","0.4","0.2","0.8","0.6","0.1738087075","0.07854191076","0.4460224538","0.3754406694","","","","","","","","","","","75","K","2","","","9","main_expt"
"1135","","bandit","88","371106","0.0-49.0-0.0","83679801","wem/bandit_either","AC8IEBY696VJO","either","1","","","","","","","0","0","1","0.3954493452","","0.4","0.2","0.8","0.6","","","","","0.2033535465","0.06865483858","0.3954493452","0.3537433427","","","","","","","75","K","2","","","10","main_expt"
"522","","bandit","89","373152","0.0-50.0-0.0","83679801","wem/bandit_either","AC8IEBY696VJO","either","1","","","","","","","0","0","1","0.4064238371","","0.4","0.2","0.8","0.6","","","","","0.1751631116","0.05083805298","0.4064238371","0.3793358735","","","","","","","75","K","2","","","11","main_expt"
"1139","","bandit","90","375809","0.0-51.0-0.0","83679801","wem/bandit_either","AC8IEBY696VJO","either","1","","","","","","","1","0","0","0.3800839449","","0.4","0.2","0.8","0.6","","","","","0.1787487179","0.1038792476","0.3800839449","0.3800428212","","","","","","","75","K","2","","","12","main_expt"
"837","","bandit","91","378165","0.0-52.0-0.0","83679801","wem/bandit_either","AC8IEBY696VJO","either","1","","","","","","","0","0","1","0.3866628193","","0.4","0.2","0.8","0.6","","","","","0.1794712961","0.1197284353","0.3866628193","0.3647981021","","","","","","","75","K","2","","","13","main_expt"
"585","","bandit","92","380269","0.0-53.0-0.0","83679801","wem/bandit_either","AC8IEBY696VJO","either","1","","","","","","","1","0","0","0.326509825","","0.4","0.2","0.8","0.6","","","","","0.2482140722","0.135681701","0.326509825","0.3646471907","","","","","","","75","K","2","","","14","main_expt"
"697","","bandit","93","382765","0.0-54.0-0.0","83679801","wem/bandit_either","AC8IEBY696VJO","either","1","","","","","","","0","0","1","0.2428529647","","0.4","0.2","0.8","0.6","","","","","0.2859415589","0.125153919","0.2428529647","0.3549291363","","","","","","","75","K","2","","","15","main_expt"
"533","","bandit","94","384807","0.0-55.0-0.0","83679801","wem/bandit_either","AC8IEBY696VJO","either","1","","","","","","","0","0","1","","0.2332962783","0.4","0.2","0.8","0.6","0.26587149","0.1096891688","0.2332962783","0.3727350689","","","","","","","","","","","75","K","2","","","16","main_expt"
"378","","bandit","95","386695","0.0-56.0-0.0","83679801","wem/bandit_either","AC8IEBY696VJO","either","1","","","","","","","0","0","1","","0.1051581447","0.4","0.2","0.8","0.6","0.2776265896","0.1051581447","0.2271032234","0.3112083829","","","","","","","","","","","74","J","1","","","17","main_expt"
"469","","bandit","96","388774","0.0-57.0-0.0","83679801","wem/bandit_either","AC8IEBY696VJO","either","1","","","","","","","0","0","1","","0.1437943492","0.4","0.2","0.8","0.6","0.3223387563","0.1437943492","0.1701710303","0.2403081055","","","","","","","","","","","74","J","1","","","18","main_expt"
"375","","bandit","97","390666","0.0-58.0-0.0","83679801","wem/bandit_either","AC8IEBY696VJO","either","1","","","","","","","0","1","0","","0.2377482675","0.4","0.2","0.8","0.6","0.3192918255","0.1405615485","0.2070198111","0.2377482675","","","","","","","","","","","76","L","3","","","19","main_expt"
"444","","bandit","98","392786","0.0-59.0-0.0","83679801","wem/bandit_either","AC8IEBY696VJO","either","1","","","","","","","0","0","1","0.2607530295","","0.4","0.2","0.8","0.6","","","","","0.2739159796","0.1063334751","0.2412547966","0.2607530295","","","","","","","76","L","3","","","20","main_expt"
"361","","bandit","99","394659","0.0-60.0-0.0","83679801","wem/bandit_either","AC8IEBY696VJO","either","1","","","","","","","1","0","0","0.2919400674","","0.4","0.2","0.8","0.6","","","","","0.2454385858","0.07848250716","0.2184758186","0.2919400674","","","","","","","76","L","3","","","21","main_expt"
"694","","bandit","100","396864","0.0-61.0-0.0","83679801","wem/bandit_either","AC8IEBY696VJO","either","1","","","","","","","0","0","1","","0.2995681058","0.4","0.2","0.8","0.6","0.2340842041","0.1005082742","0.1849325376","0.2995681058","","","","","","","","","","","76","L","3","","","22","main_expt"
"472","","bandit","101","398846","0.0-62.0-0.0","83679801","wem/bandit_either","AC8IEBY696VJO","either","1","","","","","","","1","0","0","0.292554742","","0.4","0.2","0.8","0.6","","","","","0.1840173947","0.0792694407","0.1521197653","0.292554742","","","","","","","76","L","3","","","23","main_expt"
"492","","bandit","102","400857","0.0-63.0-0.0","83679801","wem/bandit_either","AC8IEBY696VJO","either","1","","","","","","","1","0","0","0.3616894364","","0.4","0.2","0.8","0.6","","","","","0.1745529383","0.07358699385","0.1759403195","0.3616894364","","","","","","","76","L","3","","","24","main_expt"
"364","","bandit","103","402880","0.0-64.0-0.0","83679801","wem/bandit_either","AC8IEBY696VJO","either","1","","","","","","","1","0","0","0.3575757263","","0.4","0.2","0.8","0.6","","","","","0.1756582033","0.142208116","0.09479311865","0.3575757263","","","","","","","76","L","3","","","25","main_expt"
"355","","bandit","104","404743","0.0-65.0-0.0","83679801","wem/bandit_either","AC8IEBY696VJO","either","1","","","","","","","0","1","0","","0.3635346368","0.4","0.2","0.8","0.6","0.2086365416","0.1245113583","0.08156123497","0.3635346368","","","","","","","","","","","76","L","3","","","26","main_expt"
"451","","bandit","105","406719","0.0-66.0-0.0","83679801","wem/bandit_either","AC8IEBY696VJO","either","1","","","","","","","0","0","1","","0.4109801844","0.4","0.2","0.8","0.6","0.2139763749","0.118364605","0.1102307873","0.4109801844","","","","","","","","","","","76","L","3","","","27","main_expt"
"424","","bandit","106","408755","0.0-67.0-0.0","83679801","wem/bandit_either","AC8IEBY696VJO","either","1","","","","","","","0","0","1","0.3772962545","","0.4","0.2","0.8","0.6","","","","","0.1613483267","0.1105930361","0.08274430796","0.3772962545","","","","","","","76","L","3","","","28","main_expt"
"436","","bandit","107","410710","0.0-68.0-0.0","83679801","wem/bandit_either","AC8IEBY696VJO","either","1","","","","","","","0","0","1","0.3875745016","","0.4","0.2","0.8","0.6","","","","","0.1712488152","0.1118713044","0.1086911099","0.3875745016","","","","","","","76","L","3","","","29","main_expt"
"438","","bandit","108","412762","0.0-69.0-0.0","83679801","wem/bandit_either","AC8IEBY696VJO","either","1","","","","","","","0","0","1","0.3780019893","","0.4","0.2","0.8","0.6","","","","","0.1675524316","0.1914750456","0.1116575632","0.3780019893","","","","","","","76","L","3","","","30","main_expt"
"191","","bandit","109","414466","0.0-70.0-0.0","83679801","wem/bandit_either","AC8IEBY696VJO","either","1","","","","","","","0","0","1","0.140325158","","0.4","0.2","0.8","0.6","","","","","0.140325158","0.2367730164","0.07828091442","0.416860241","","","","","","","72","H","0","img/none_selected.jpg","","31","main_expt"
"914","","bandit","110","416894","0.0-71.0-0.0","83679801","wem/bandit_either","AC8IEBY696VJO","either","1","","","","","","","0","0","1","","0.1553940025","0.4","0.2","0.8","0.6","0.1553940025","0.2109574779","0.07550395781","0.4242573056","","","","","","","","","","","72","H","0","img/none_selected.jpg","","32","main_expt"
"472","","bandit","111","418887","0.0-72.0-0.0","83679801","wem/bandit_either","AC8IEBY696VJO","either","1","","","","","","","0","1","0","","0.1925614924","0.4","0.2","0.8","0.6","0.1925614924","0.2005542758","0.1445529326","0.4185546122","","","","","","","","","","","72","H","0","img/none_selected.jpg","","33","main_expt"
"435","","bandit","112","420842","0.0-73.0-0.0","83679801","wem/bandit_either","AC8IEBY696VJO","either","1","","","","","","","1","0","0","0.2150530123","","0.4","0.2","0.8","0.6","","","","","0.2150530123","0.180377021","0.1091775744","0.4268308419","","","","","","","72","H","0","img/none_selected.jpg","","34","main_expt"
"575","","bandit","113","422947","0.0-74.0-0.0","83679801","wem/bandit_either","AC8IEBY696VJO","either","1","","","","","","","0","0","1","","0.2688968874","0.4","0.2","0.8","0.6","0.2688968874","0.2111187229","0.1297995116","0.4265642185","","","","","","","","","","","72","H","0","img/none_selected.jpg","","35","main_expt"
"381","","bandit","114","424841","0.0-75.0-0.0","83679801","wem/bandit_either","AC8IEBY696VJO","either","1","","","","","","","0","0","1","","0.2977459964","0.4","0.2","0.8","0.6","0.2977459964","0.2119332756","0.09468550628","0.4066287969","","","","","","","","","","","72","H","0","img/none_selected.jpg","","36","main_expt"
"426","","bandit","115","426788","0.0-76.0-0.0","83679801","wem/bandit_either","AC8IEBY696VJO","either","1","","","","","","","0","0","1","","0.2684429955","0.4","0.2","0.8","0.6","0.2684429955","0.2256131965","0.09396978408","0.4611471687","","","","","","","","","","","72","H","0","img/none_selected.jpg","","37","main_expt"
"539","","bandit","116","428848","0.0-77.0-0.0","83679801","wem/bandit_either","AC8IEBY696VJO","either","1","","","","","","","0","0","1","0.1062257399","","0.4","0.2","0.8","0.6","","","","","0.2490186117","0.1975147253","0.1062257399","0.4482708269","","","","","","","75","K","2","","","38","main_expt"
"431","","bandit","117","430800","0.0-78.0-0.0","83679801","wem/bandit_either","AC8IEBY696VJO","either","1","","","","","","","0","0","1","0.09676453159","","0.4","0.2","0.8","0.6","","","","","0.2548033483","0.1595648847","0.09676453159","0.4402774387","","","","","","","75","K","2","","","39","main_expt"
"404","","bandit","118","432727","0.0-79.0-0.0","83679801","wem/bandit_either","AC8IEBY696VJO","either","1","","","","","","","0","0","1","","0.1626610004","0.4","0.2","0.8","0.6","0.2688720753","0.1626610004","0.08197179495","0.4385128538","","","","","","","","","","","74","J","1","","","40","main_expt"
"498","","bandit","119","434737","0.0-80.0-0.0","83679801","wem/bandit_either","AC8IEBY696VJO","either","1","","","","","","","0","0","1","","0.1982402655","0.4","0.2","0.8","0.6","0.297778532","0.1982402655","0.14416382","0.4380640779","","","","","","","","","","","74","J","1","","","41","main_expt"
"376","","bandit","120","436643","0.0-81.0-0.0","83679801","wem/bandit_either","AC8IEBY696VJO","either","1","","","","","","","0","0","1","","0.1863610343","0.4","0.2","0.8","0.6","0.2449207522","0.1863610343","0.1070927036","0.4265224768","","","","","","","","","","","74","J","1","","","42","main_expt"
"390","","bandit","121","438743","0.0-82.0-0.0","83679801","wem/bandit_either","AC8IEBY696VJO","either","1","","","","","","","0","0","1","0.2418389683","","0.4","0.2","0.8","0.6","","","","","0.2457567503","0.2418389683","0.1214526226","0.435880106","","","","","","","74","J","1","","","43","main_expt"
"400","","bandit","122","440676","0.0-83.0-0.0","83679801","wem/bandit_either","AC8IEBY696VJO","either","1","","","","","","","0","0","1","0.4450576882","","0.4","0.2","0.8","0.6","","","","","0.2432732657","0.1943491227","0.1450738833","0.4450576882","","","","","","","76","L","3","","","44","main_expt"
"388","","bandit","123","442863","0.0-84.0-0.0","83679801","wem/bandit_either","AC8IEBY696VJO","either","1","","","","","","","1","0","0","0.4382030275","","0.4","0.2","0.8","0.6","","","","","0.2656772236","0.1543250971","0.09632230927","0.4382030275","","","","","","","76","L","3","","","45","main_expt"
"346","","bandit","124","444726","0.0-85.0-0.0","83679801","wem/bandit_either","AC8IEBY696VJO","either","1","","","","","","","0","1","0","","0.4412369426","0.4","0.2","0.8","0.6","0.2432112423","0.09719433791","0.103211431","0.4412369426","","","","","","","","","","","76","L","3","","","46","main_expt"
"1264","","bandit","125","447773","0.0-86.0-0.0","83679801","wem/bandit_either","AC8IEBY696VJO","either","1","","","","","","","0","1","0","","0.4588863431","0.4","0.2","0.8","0.6","0.2992745976","0.1228880329","0.09916324924","0.4588863431","","","","","","","","","","","76","L","3","","","47","main_expt"
"337","","bandit","126","449623","0.0-87.0-0.0","83679801","wem/bandit_either","AC8IEBY696VJO","either","1","","","","","","","1","0","0","0.4408788818","","0.4","0.2","0.8","0.6","","","","","0.2594611615","0.1068532567","0.1090242341","0.4408788818","","","","","","","76","L","3","","","48","main_expt"
"385","","bandit","127","451531","0.0-88.0-0.0","83679801","wem/bandit_either","AC8IEBY696VJO","either","1","","","","","","","0","0","1","","0.4232064109","0.4","0.2","0.8","0.6","0.2767916858","0.1044048509","0.1265186769","0.4232064109","","","","","","","","","","","76","L","3","","","49","main_expt"
"289","","bandit","128","453344","0.0-89.0-0.0","83679801","wem/bandit_either","AC8IEBY696VJO","either","1","","","","","","","0","0","1","0.4210883962","","0.4","0.2","0.8","0.6","","","","","0.2762534014","0.1072026782","0.1397440907","0.4210883962","","","","","","","76","L","3","","","50","main_expt"
"305","","bandit","129","455161","0.0-90.0-0.0","83679801","wem/bandit_either","AC8IEBY696VJO","either","1","","","","","","","0","1","0","","0.4225635581","0.4","0.2","0.8","0.6","0.3379376541","0.1287882573","0.153600331","0.4225635581","","","","","","","","","","","76","L","3","","","51","main_expt"
"353","","bandit","130","457037","0.0-91.0-0.0","83679801","wem/bandit_either","AC8IEBY696VJO","either","1","","","","","","","1","0","0","0.4146237098","","0.4","0.2","0.8","0.6","","","","","0.3395267946","0.1298059469","0.1718407591","0.4146237098","","","","","","","76","L","3","","","52","main_expt"
"743","","bandit","131","459301","0.0-92.0-0.0","83679801","wem/bandit_either","AC8IEBY696VJO","either","1","","","","","","","0","0","1","0.3763623321","","0.4","0.2","0.8","0.6","","","","","0.29674647","0.07423060895","0.1945727614","0.3763623321","","","","","","","76","L","3","","","53","main_expt"
"347","","bandit","132","461170","0.0-93.0-0.0","83679801","wem/bandit_either","AC8IEBY696VJO","either","1","","","","","","","0","1","0","","0.3289081181","0.4","0.2","0.8","0.6","0.3372955831","0.08562383645","0.2450542523","0.3289081181","","","","","","","","","","","76","L","3","","","54","main_expt"
"682","","bandit","133","463375","0.0-94.0-0.0","83679801","wem/bandit_either","AC8IEBY696VJO","either","1","","","","","","","0","1","0","","0.3025984711","0.4","0.2","0.8","0.6","0.3506099842","0.0757818623","0.2547241938","0.3025984711","","","","","","","","","","","76","L","3","","","55","main_expt"
"518","","bandit","134","465417","0.0-95.0-0.0","83679801","wem/bandit_either","AC8IEBY696VJO","either","1","","","","","","","0","0","1","0.2921333137","","0.4","0.2","0.8","0.6","","","","","0.3418029788","0.09897923035","0.2595112895","0.2921333137","","","","","","","76","L","3","","","56","main_expt"
"477","","bandit","135","467408","0.0-96.0-0.0","83679801","wem/bandit_either","AC8IEBY696VJO","either","1","","","","","","","0","0","1","0.3317177772","","0.4","0.2","0.8","0.6","","","","","0.3162475816","0.1160875525","0.2610276213","0.3317177772","","","","","","","76","L","3","","","57","main_expt"
"425","","bandit","136","469349","0.0-97.0-0.0","83679801","wem/bandit_either","AC8IEBY696VJO","either","1","","","","","","","0","0","1","0.2354201416","","0.4","0.2","0.8","0.6","","","","","0.3269881105","0.1134641846","0.2354201416","0.3240244649","","","","","","","75","K","2","","","58","main_expt"
"429","","bandit","137","471302","0.0-98.0-0.0","83679801","wem/bandit_either","AC8IEBY696VJO","either","1","","","","","","","0","0","1","","0.2901324944","0.4","0.2","0.8","0.6","0.2901324944","0.1177083384","0.2346370837","0.2988076671","","","","","","","","","","","72","H","0","img/none_selected.jpg","","59","main_expt"
"382","","bandit","138","473203","0.0-99.0-0.0","83679801","wem/bandit_either","AC8IEBY696VJO","either","1","","","","","","","0","0","1","0.289588464","","0.4","0.2","0.8","0.6","","","","","0.289588464","0.1125723432","0.2315637733","0.3096792726","","","","","","","72","H","0","img/none_selected.jpg","","60","main_expt"
"374","","bandit","139","475098","0.0-100.0-0.0","83679801","wem/bandit_either","AC8IEBY696VJO","either","1","","","","","","","0","0","1","","0.2782845563","0.4","0.2","0.8","0.6","0.2782845563","0.09911093426","0.2599537756","0.2821336973","","","","","","","","","","","72","H","0","img/none_selected.jpg","","61","main_expt"
"380","","bandit","140","477001","0.0-101.0-0.0","83679801","wem/bandit_either","AC8IEBY696VJO","either","1","","","","","","","0","0","1","","0.3165490401","0.4","0.2","0.8","0.6","0.3165490401","0.09440438105","0.2594941563","0.2414244345","","","","","","","","","","","72","H","0","img/none_selected.jpg","","62","main_expt"
"350","","bandit","141","478874","0.0-102.0-0.0","83679801","wem/bandit_either","AC8IEBY696VJO","either","1","","","","","","","0","0","1","","0.1015409351","0.4","0.2","0.8","0.6","0.3034564924","0.1015409351","0.2660839385","0.213639373","","","","","","","","","","","74","J","1","","","63","main_expt"
"408","","bandit","142","480804","0.0-103.0-0.0","83679801","wem/bandit_either","AC8IEBY696VJO","either","1","","","","","","","0","0","1","0.07049798599","","0.4","0.2","0.8","0.6","","","","","0.2506654962","0.07049798599","0.2426585031","0.1876308072","","","","","","","74","J","1","","","64","main_expt"
"341","","bandit","143","482764","0.0-104.0-0.0","83679801","wem/bandit_either","AC8IEBY696VJO","either","1","","","","","","","0","0","1","","0.05735603507","0.4","0.2","0.8","0.6","0.253414466","0.05735603507","0.2581047566","0.1841803182","","","","","","","","","","","74","J","1","","","65","main_expt"
"665","","bandit","144","484943","0.0-105.0-0.0","83679801","wem/bandit_either","AC8IEBY696VJO","either","1","","","","","","","0","0","1","","0.0621258055","0.4","0.2","0.8","0.6","0.2836500186","0.0621258055","0.2872127433","0.187417598","","","","","","","","","","","74","J","1","","","66","main_expt"
"435","","bandit","145","486902","0.0-106.0-0.0","83679801","wem/bandit_either","AC8IEBY696VJO","either","1","","","","","","","1","0","0","0.3232337643","","0.4","0.2","0.8","0.6","","","","","0.3217852231","0.06966106928","0.3232337643","0.1395950637","","","","","","","75","K","2","","","67","main_expt"
"422","","bandit","146","488890","0.0-107.0-0.0","83679801","wem/bandit_either","AC8IEBY696VJO","either","1","","","","","","","0","0","1","0.3376006622","","0.4","0.2","0.8","0.6","","","","","0.3574581916","0.09965709916","0.3376006622","0.1363519197","","","","","","","75","K","2","","","68","main_expt"
"358","","bandit","147","490775","0.0-108.0-0.0","83679801","wem/bandit_either","AC8IEBY696VJO","either","1","","","","","","","0","1","0","","0.2917609244","0.4","0.2","0.8","0.6","0.3884563005","0.1428217854","0.2917609244","0.1117144852","","","","","","","","","","","75","K","2","","","69","main_expt"
"440","","bandit","148","492742","0.0-109.0-0.0","83679801","wem/bandit_either","AC8IEBY696VJO","either","1","","","","","","","1","0","0","0.2218665627","","0.4","0.2","0.8","0.6","","","","","0.3920047773","0.1866845388","0.2218665627","0.09667493602","","","","","","","75","K","2","","","70","main_expt"
"445","","bandit","149","494701","0.0-110.0-0.0","83679801","wem/bandit_either","AC8IEBY696VJO","either","1","","","","","","","0","0","1","0.2409383839","","0.4","0.2","0.8","0.6","","","","","0.4066376731","0.1702545286","0.2409383839","0.09186933139","","","","","","","75","K","2","","","71","main_expt"
"129","","bandit","150","496343","0.0-111.0-0.0","83679801","wem/bandit_either","AC8IEBY696VJO","either","1","","","","","","","1","0","0","0.1920783453","","0.4","0.2","0.8","0.6","","","","","0.3443789926","0.1836279043","0.1920783453","0.09472009463","","","","","","","75","K","2","","","72","main_expt"
"381","","bandit","151","498246","0.0-112.0-0.0","83679801","wem/bandit_either","AC8IEBY696VJO","either","1","","","","","","","1","0","0","0.1905254877","","0.4","0.2","0.8","0.6","","","","","0.3227553012","0.1644348242","0.1905254877","0.1167805336","","","","","","","75","K","2","","","73","main_expt"
"542","","bandit","152","500316","0.0-113.0-0.0","83679801","wem/bandit_either","AC8IEBY696VJO","either","1","","","","","","","0","0","1","0.184198213","","0.4","0.2","0.8","0.6","","","","","0.3336652139","0.1833421201","0.184198213","0.1465151254","","","","","","","75","K","2","","","74","main_expt"
"450","","bandit","153","502365","0.0-114.0-0.0","83679801","wem/bandit_either","AC8IEBY696VJO","either","1","","","","","","","0","0","1","0.1881920243","","0.4","0.2","0.8","0.6","","","","","0.2890150868","0.1519653276","0.1881920243","0.123285719","","","","","","","75","K","2","","","75","main_expt"
"407","","bandit","154","504283","0.0-115.0-0.0","83679801","wem/bandit_either","AC8IEBY696VJO","either","1","","","","","","","0","0","1","0.1988930589","","0.4","0.2","0.8","0.6","","","","","0.2673490463","0.1506622639","0.1988930589","0.1392606081","","","","","","","75","K","2","","","76","main_expt"
"489","","bandit","155","506288","0.0-116.0-0.0","83679801","wem/bandit_either","AC8IEBY696VJO","either","1","","","","","","","0","0","1","0.2255968657","","0.4","0.2","0.8","0.6","","","","","0.2858541315","0.1860897766","0.2255968657","0.099337717","","","","","","","75","K","2","","","77","main_expt"
"348","","bandit","156","508151","0.0-117.0-0.0","83679801","wem/bandit_either","AC8IEBY696VJO","either","1","","","","","","","1","0","0","0.1917014014","","0.4","0.2","0.8","0.6","","","","","0.2639968829","0.1618556875","0.1917014014","0.09666605973","","","","","","","75","K","2","","","78","main_expt"
"379","","bandit","157","510054","0.0-118.0-0.0","83679801","wem/bandit_either","AC8IEBY696VJO","either","1","","","","","","","0","0","1","","0.2092129429","0.4","0.2","0.8","0.6","0.2304888896","0.1976853889","0.2092129429","0.09639353985","","","","","","","","","","","75","K","2","","","79","main_expt"
"345","","bandit","158","511929","0.0-119.0-0.0","83679801","wem/bandit_either","AC8IEBY696VJO","either","1","","","","","","","0","0","1","0.1974306726","","0.4","0.2","0.8","0.6","","","","","0.1991809665","0.2198838985","0.1974306726","0.09566996791","","","","","","","75","K","2","","","80","main_expt"
"393","","bandit","159","513846","0.0-120.0-0.0","83679801","wem/bandit_either","AC8IEBY696VJO","either","1","","","","","","","1","0","0","0.1414754506","","0.4","0.2","0.8","0.6","","","","","0.1627434897","0.2167005254","0.1414754506","0.07958501382","","","","","","","75","K","2","","","81","main_expt"
"409","","bandit","160","515777","0.0-121.0-0.0","83679801","wem/bandit_either","AC8IEBY696VJO","either","1","","","","","","","1","0","0","0.1422587364","","0.4","0.2","0.8","0.6","","","","","0.1624637972","0.2527486409","0.1422587364","0.08833774835","","","","","","","75","K","2","","","82","main_expt"
"365","","bandit","161","517753","0.0-122.0-0.0","83679801","wem/bandit_either","AC8IEBY696VJO","either","1","","","","","","","0","0","1","0.1079415531","","0.4","0.2","0.8","0.6","","","","","0.1900332","0.2569721607","0.1079415531","0.09109006352","","","","","","","75","K","2","","","83","main_expt"
"247","","bandit","162","519513","0.0-123.0-0.0","83679801","wem/bandit_either","AC8IEBY696VJO","either","1","","","","","","","0","0","1","0.07696487024","","0.4","0.2","0.8","0.6","","","","","0.1705646391","0.2535394321","0.07696487024","0.05321730921","","","","","","","75","K","2","","","84","main_expt"
"411","","bandit","163","521447","0.0-124.0-0.0","83679801","wem/bandit_either","AC8IEBY696VJO","either","1","","","","","","","0","0","1","","0.08313016423","0.4","0.2","0.8","0.6","0.2053302659","0.2255799186","0.08313016423","0.03321009489","","","","","","","","","","","75","K","2","","","85","main_expt"
"385","","bandit","164","523356","0.0-125.0-0.0","83679801","wem/bandit_either","AC8IEBY696VJO","either","1","","","","","","","0","0","1","0.102083396","","0.4","0.2","0.8","0.6","","","","","0.2128685413","0.2197080914","0.102083396","0.04864990798","","","","","","","75","K","2","","","86","main_expt"
"438","","bandit","165","525312","0.0-126.0-0.0","83679801","wem/bandit_either","AC8IEBY696VJO","either","1","","","","","","","0","0","1","0.2230338057","","0.4","0.2","0.8","0.6","","","","","0.213778815","0.2230338057","0.09067070718","0.07919268752","","","","","","","74","J","1","","","87","main_expt"
"401","","bandit","166","527240","0.0-127.0-0.0","83679801","wem/bandit_either","AC8IEBY696VJO","either","1","","","","","","","0","0","1","","0.2484269739","0.4","0.2","0.8","0.6","0.2102340809","0.2484269739","0.1421970704","0.05835116993","","","","","","","","","","","74","J","1","","","88","main_expt"
"453","","bandit","167","529220","0.0-128.0-0.0","83679801","wem/bandit_either","AC8IEBY696VJO","either","1","","","","","","","0","0","1","0.2733562597","","0.4","0.2","0.8","0.6","","","","","0.1809358483","0.2733562597","0.219142046","0.05115519592","","","","","","","74","J","1","","","89","main_expt"
"171","","bandit","168","530914","0.0-129.0-0.0","83679801","wem/bandit_either","AC8IEBY696VJO","either","1","","","","","","","0","0","1","","0.2973868449","0.4","0.2","0.8","0.6","0.1293356972","0.2973868449","0.2806923657","0.07819273649","","","","","","","","","","","74","J","1","","","90","main_expt"
"362","","bandit","169","532805","0.0-130.0-0.0","83679801","wem/bandit_either","AC8IEBY696VJO","either","1","","","","","","","0","0","1","0.1136224352","","0.4","0.2","0.8","0.6","","","","","0.1136224352","0.3067689268","0.2819660137","0.05564661524","","","","","","","72","H","0","img/none_selected.jpg","","91","main_expt"
"391","","bandit","170","534710","0.0-131.0-0.0","83679801","wem/bandit_either","AC8IEBY696VJO","either","1","","","","","","","0","0","1","","0.07539152519","0.4","0.2","0.8","0.6","0.07539152519","0.2719776188","0.3370305887","0.05914103421","","","","","","","","","","","72","H","0","img/none_selected.jpg","","92","main_expt"
"461","","bandit","171","536695","0.0-132.0-0.0","83679801","wem/bandit_either","AC8IEBY696VJO","either","1","","","","","","","0","0","1","","0.08243558305","0.4","0.2","0.8","0.6","0.08243558305","0.3081791896","0.3722719914","0.03944324463","","","","","","","","","","","72","H","0","img/none_selected.jpg","","93","main_expt"
"388","","bandit","172","538777","0.0-133.0-0.0","83679801","wem/bandit_either","AC8IEBY696VJO","either","1","","","","","","","0","0","1","","0.09807673793","0.4","0.2","0.8","0.6","0.09807673793","0.356667856","0.3840030774","0.05023017475","","","","","","","","","","","72","H","0","img/none_selected.jpg","","94","main_expt"
"385","","bandit","173","540689","0.0-134.0-0.0","83679801","wem/bandit_either","AC8IEBY696VJO","either","1","","","","","","","0","0","1","","0.09746204728","0.4","0.2","0.8","0.6","0.09746204728","0.3300765204","0.4050844552","0.07311956304","","","","","","","","","","","72","H","0","img/none_selected.jpg","","95","main_expt"
"324","","bandit","174","542761","0.0-135.0-0.0","83679801","wem/bandit_either","AC8IEBY696VJO","either","1","","","","","","","0","0","1","0.09573717159","","0.4","0.2","0.8","0.6","","","","","0.08559835745","0.3642735905","0.4081076376","0.09573717159","","","","","","","76","L","3","","","96","main_expt"
"385","","bandit","175","544659","0.0-136.0-0.0","83679801","wem/bandit_either","AC8IEBY696VJO","either","1","","","","","","","0","0","1","0.4142780263","","0.4","0.2","0.8","0.6","","","","","0.0732645996","0.3885664579","0.4142780263","0.1235519285","","","","","","","75","K","2","","","97","main_expt"
"61","","bandit","176","546266","0.0-137.0-0.0","83679801","wem/bandit_either","AC8IEBY696VJO","either","1","","","","","","","0","0","1","0.1274282425","","0.4","0.2","0.8","0.6","","","","","0.05343209845","0.4162912028","0.4131193208","0.1274282425","","","","","","","76","L","3","","","98","main_expt"
"455","","bandit","177","548247","0.0-138.0-0.0","83679801","wem/bandit_either","AC8IEBY696VJO","either","1","","","","","","","0","0","1","","0.1457321849","0.4","0.2","0.8","0.6","0.05144299931","0.4074153657","0.428944851","0.1457321849","","","","","","","","","","","76","L","3","","","99","main_expt"
"459","","bandit","178","550221","0.0-139.0-0.0","83679801","wem/bandit_either","AC8IEBY696VJO","either","1","","","","","","","1","0","0","0.1492128348","","0.4","0.2","0.8","0.6","","","","","0.03934302155","0.3349137267","0.4279797645","0.1492128348","","","","","","","76","L","3","","","100","main_expt"
"335","","bandit","179","552071","0.0-140.0-0.0","83679801","wem/bandit_either","AC8IEBY696VJO","either","1","","","","","","","0","0","1","","0.125019219","0.4","0.2","0.8","0.6","0.05783306622","0.2732947861","0.4189249443","0.125019219","","","","","","","","","","","76","L","3","","","101","main_expt"
"678","","bandit","180","554273","0.0-141.0-0.0","83679801","wem/bandit_either","AC8IEBY696VJO","either","1","","","","","","","0","0","1","0.1008510245","","0.4","0.2","0.8","0.6","","","","","0.06484492547","0.2584454073","0.4279241466","0.1008510245","","","","","","","76","L","3","","","102","main_expt"
"495","","bandit","181","556297","0.0-142.0-0.0","83679801","wem/bandit_either","AC8IEBY696VJO","either","1","","","","","","","0","1","0","","0.1087281004","0.4","0.2","0.8","0.6","0.0701259157","0.2143891894","0.419390052","0.1087281004","","","","","","","","","","","76","L","3","","","103","main_expt"
"365","","bandit","182","558191","0.0-143.0-0.0","83679801","wem/bandit_either","AC8IEBY696VJO","either","1","","","","","","","0","0","1","0.143855427","","0.4","0.2","0.8","0.6","","","","","0.06922647753","0.1354346047","0.3761202226","0.143855427","","","","","","","76","L","3","","","104","main_expt"
"348","","bandit","183","560068","0.0-144.0-0.0","83679801","wem/bandit_either","AC8IEBY696VJO","either","1","","","","","","","0","0","1","","0.1606853024","0.4","0.2","0.8","0.6","0.07802312096","0.1615963473","0.4229881466","0.1606853024","","","","","","","","","","","76","L","3","","","105","main_expt"
"399","","bandit","184","561996","0.0-145.0-0.0","83679801","wem/bandit_either","AC8IEBY696VJO","either","1","","","","","","","0","0","1","","0.1612939645","0.4","0.2","0.8","0.6","0.08930313369","0.1738621023","0.4110558218","0.1612939645","","","","","","","","","","","76","L","3","","","106","main_expt"
"404","","bandit","185","563931","0.0-146.0-0.0","83679801","wem/bandit_either","AC8IEBY696VJO","either","1","","","","","","","1","0","0","0.1778053335","","0.4","0.2","0.8","0.6","","","","","0.1397733654","0.1799671425","0.4176599015","0.1778053335","","","","","","","76","L","3","","","107","main_expt"
"700","","bandit","186","566156","0.0-147.0-0.0","83679801","wem/bandit_either","AC8IEBY696VJO","either","1","","","","","","","0","0","1","0.1826465361","","0.4","0.2","0.8","0.6","","","","","0.1505899732","0.1844274074","0.4210396584","0.1826465361","","","","","","","76","L","3","","","108","main_expt"
"527","","bandit","187","568198","0.0-148.0-0.0","83679801","wem/bandit_either","AC8IEBY696VJO","either","1","","","","","","","0","1","0","","0.1737022726","0.4","0.2","0.8","0.6","0.1162436109","0.1702708828","0.4328015469","0.1737022726","","","","","","","","","","","76","L","3","","","109","main_expt"
"515","","bandit","188","570239","0.0-149.0-0.0","83679801","wem/bandit_either","AC8IEBY696VJO","either","1","","","","","","","0","0","1","0.1658344406","","0.4","0.2","0.8","0.6","","","","","0.08267976014","0.1964407335","0.4495585744","0.1658344406","","","","","","","76","L","3","","","110","main_expt"
"318","","bandit","189","572074","0.0-150.0-0.0","83679801","wem/bandit_either","AC8IEBY696VJO","either","1","","","","","","","1","0","0","0.240619448","","0.4","0.2","0.8","0.6","","","","","0.09389793805","0.1777579569","0.4237631325","0.240619448","","","","","","","76","L","3","","","111","main_expt"
"653","","bandit","190","574251","0.0-151.0-0.0","83679801","wem/bandit_either","AC8IEBY696VJO","either","1","","","","","","","0","0","1","0.1927397719","","0.4","0.2","0.8","0.6","","","","","0.07903418564","0.1395994444","0.4521571561","0.1927397719","","","","","","","76","L","3","","","112","main_expt"
"365","","bandit","191","576139","0.0-152.0-0.0","83679801","wem/bandit_either","AC8IEBY696VJO","either","1","","","","","","","0","0","1","0.234725565","","0.4","0.2","0.8","0.6","","","","","0.05501139052","0.1205999431","0.4350762846","0.234725565","","","","","","","76","L","3","","","113","main_expt"
"697","","bandit","192","578349","0.0-153.0-0.0","83679801","wem/bandit_either","AC8IEBY696VJO","either","1","","","","","","","0","0","1","","0.1950215869","0.4","0.2","0.8","0.6","0.07627702456","0.09123355482","0.4315824664","0.1950215869","","","","","","","","","","","76","L","3","","","114","main_expt"
"392","","bandit","193","580254","0.0-154.0-0.0","83679801","wem/bandit_either","AC8IEBY696VJO","either","1","","","","","","","0","1","0","","0.2575833325","0.4","0.2","0.8","0.6","0.03985247356","0.09554471192","0.4127349624","0.2575833325","","","","","","","","","","","76","L","3","","","115","main_expt"
"813","","bandit","194","582773","0.0-155.0-0.0","83679801","wem/bandit_either","AC8IEBY696VJO","either","1","","","","","","","0","0","1","0.2296468005","","0.4","0.2","0.8","0.6","","","","","0.0683792979","0.1942182492","0.4468356006","0.2296468005","","","","","","","76","L","3","","","116","main_expt"
"435","","bandit","195","584719","0.0-156.0-0.0","83679801","wem/bandit_either","AC8IEBY696VJO","either","1","","","","","","","1","0","0","0.2816483341","","0.4","0.2","0.8","0.6","","","","","0.03956212276","0.2208250117","0.4458703805","0.2816483341","","","","","","","76","L","3","","","117","main_expt"
"483","","bandit","196","586717","0.0-157.0-0.0","83679801","wem/bandit_either","AC8IEBY696VJO","either","1","","","","","","","0","0","1","0.2626769985","","0.4","0.2","0.8","0.6","","","","","0.04459229253","0.1687975443","0.4500370674","0.2626769985","","","","","","","76","L","3","","","118","main_expt"
"1045","","bandit","197","589291","0.0-158.0-0.0","83679801","wem/bandit_either","AC8IEBY696VJO","either","1","","","","","","","0","0","1","0.2418090277","","0.4","0.2","0.8","0.6","","","","","0.03386957434","0.1546105485","0.4704359259","0.2418090277","","","","","","","76","L","3","","","119","main_expt"
"727","","bandit","198","591540","0.0-159.0-0.0","83679801","wem/bandit_either","AC8IEBY696VJO","either","1","","","","","","","0","1","0","","0.2603236095","0.4","0.2","0.8","0.6","0.03305427522","0.143668411","0.4578798539","0.2603236095","","","","","","","","","","","76","L","3","","","120","main_expt"
"570","","bandit","199","593749","0.0-160.0-0.0","83679801","wem/bandit_either","AC8IEBY696VJO","either","1","","","","","","","0","0","1","","0.2381785671","0.4","0.2","0.8","0.6","0.03146098963","0.1098317425","0.4591190262","0.2381785671","","","","","","","","","","","76","L","3","","","121","main_expt"
"611","","bandit","200","595885","0.0-161.0-0.0","83679801","wem/bandit_either","AC8IEBY696VJO","either","1","","","","","","","0","0","1","0.2388462554","","0.4","0.2","0.8","0.6","","","","","0.02311797033","0.1097832873","0.4643737298","0.2388462554","","","","","","","76","L","3","","","122","main_expt"
"434","","bandit","201","597844","0.0-162.0-0.0","83679801","wem/bandit_either","AC8IEBY696VJO","either","1","","","","","","","0","0","1","0.2079929623","","0.4","0.2","0.8","0.6","","","","","0.0171261738","0.1145900252","0.451586091","0.2079929623","","","","","","","76","L","3","","","123","main_expt"
"464","","bandit","202","599840","0.0-163.0-0.0","83679801","wem/bandit_either","AC8IEBY696VJO","either","1","","","","","","","0","0","1","","0.4456906556","0.4","0.2","0.8","0.6","0.03468299263","0.1137783892","0.4456906556","0.2148400852","","","","","","","","","","","75","K","2","","","124","main_expt"
"368","","bandit","203","601736","0.0-164.0-0.0","83679801","wem/bandit_either","AC8IEBY696VJO","either","1","","","","","","","1","0","0","0.4240876494","","0.4","0.2","0.8","0.6","","","","","0.02544516396","0.145605256","0.4240876494","0.2185056602","","","","","","","75","K","2","","","125","main_expt"
"343","","bandit","204","603733","0.0-165.0-0.0","83679801","wem/bandit_either","AC8IEBY696VJO","either","1","","","","","","","0","0","1","0.4008501573","","0.4","0.2","0.8","0.6","","","","","0.03059506073","0.1443839055","0.4008501573","0.2152323899","","","","","","","75","K","2","","","126","main_expt"
"379","","bandit","205","605628","0.0-166.0-0.0","83679801","wem/bandit_either","AC8IEBY696VJO","either","1","","","","","","","1","0","0","0.4066073101","","0.4","0.2","0.8","0.6","","","","","0.0339638967","0.1434222382","0.4066073101","0.1699446714","","","","","","","75","K","2","","","127","main_expt"
"390","","bandit","206","607726","0.0-167.0-0.0","83679801","wem/bandit_either","AC8IEBY696VJO","either","1","","","","","","","1","0","0","0.4270302575","","0.4","0.2","0.8","0.6","","","","","0.02632978063","0.1412168693","0.4270302575","0.1299446217","","","","","","","75","K","2","","","128","main_expt"
"177","","bandit","207","609423","0.0-168.0-0.0","83679801","wem/bandit_either","AC8IEBY696VJO","either","1","","","","","","","0","1","0","","0.4401824822","0.4","0.2","0.8","0.6","0.02640977482","0.1086871361","0.4401824822","0.1299487573","","","","","","","","","","","75","K","2","","","129","main_expt"
"387","","bandit","208","611335","0.0-169.0-0.0","83679801","wem/bandit_either","AC8IEBY696VJO","either","1","","","","","","","0","0","1","0.4160959849","","0.4","0.2","0.8","0.6","","","","","0.03646961518","0.1672766288","0.4160959849","0.1172580566","","","","","","","75","K","2","","","130","main_expt"
"557","","bandit","209","613796","0.0-170.0-0.0","83679801","wem/bandit_either","AC8IEBY696VJO","either","1","","","","","","","0","0","1","0.4374535298","","0.4","0.2","0.8","0.6","","","","","0.02171712127","0.157110596","0.4374535298","0.1289979545","","","","","","","75","K","2","","","131","main_expt"
"311","","bandit","210","615623","0.0-171.0-0.0","83679801","wem/bandit_either","AC8IEBY696VJO","either","1","","","","","","","0","0","1","0.4382483821","","0.4","0.2","0.8","0.6","","","","","0.01004766493","0.1338697581","0.4382483821","0.1243754988","","","","","","","75","K","2","","","132","main_expt"
"376","","bandit","211","617514","0.0-172.0-0.0","83679801","wem/bandit_either","AC8IEBY696VJO","either","1","","","","","","","0","0","1","0.3913946914","","0.4","0.2","0.8","0.6","","","","","0.005153708139","0.1101669797","0.3913946914","0.1189203389","","","","","","","75","K","2","","","133","main_expt"
"462","","bandit","212","619510","0.0-173.0-0.0","83679801","wem/bandit_either","AC8IEBY696VJO","either","1","","","","","","","1","0","0","0.4280120537","","0.4","0.2","0.8","0.6","","","","","0.01308543257","0.060775537","0.4280120537","0.07075860378","","","","","","","75","K","2","","","134","main_expt"
"442","","bandit","213","621481","0.0-174.0-0.0","83679801","wem/bandit_either","AC8IEBY696VJO","either","1","","","","","","","0","0","1","0.4385213509","","0.4","0.2","0.8","0.6","","","","","0.02634180281","0.0714416082","0.4385213509","0.1073185777","","","","","","","75","K","2","","","135","main_expt"
"337","","bandit","214","623350","0.0-175.0-0.0","83679801","wem/bandit_either","AC8IEBY696VJO","either","1","","","","","","","0","1","0","","0.4605212521","0.4","0.2","0.8","0.6","0.04122629063","0.1115096907","0.4605212521","0.1001442491","","","","","","","","","","","75","K","2","","","136","main_expt"
"344","","bandit","215","625232","0.0-176.0-0.0","83679801","wem/bandit_either","AC8IEBY696VJO","either","1","","","","","","","0","1","0","","0.4729500637","0.4","0.2","0.8","0.6","0.05517648788","0.1307091067","0.4729500637","0.1736681681","","","","","","","","","","","75","K","2","","","137","main_expt"
"495","","bandit","216","627259","0.0-177.0-0.0","83679801","wem/bandit_either","AC8IEBY696VJO","either","1","","","","","","","0","0","1","0.4705425907","","0.4","0.2","0.8","0.6","","","","","0.05929415862","0.1289533412","0.4705425907","0.1839908368","","","","","","","75","K","2","","","138","main_expt"
"466","","bandit","217","629262","0.0-178.0-0.0","83679801","wem/bandit_either","AC8IEBY696VJO","either","1","","","","","","","0","0","1","0.465423541","","0.4","0.2","0.8","0.6","","","","","0.05470710098","0.1215972271","0.465423541","0.1500833973","","","","","","","75","K","2","","","139","main_expt"
"420","","bandit","218","631200","0.0-179.0-0.0","83679801","wem/bandit_either","AC8IEBY696VJO","either","1","","","","","","","0","0","1","0.4486857012","","0.4","0.2","0.8","0.6","","","","","0.06062538604","0.1158179575","0.4486857012","0.1718879457","","","","","","","75","K","2","","","140","main_expt"
"388","","bandit","219","633117","0.0-180.0-0.0","83679801","wem/bandit_either","AC8IEBY696VJO","either","1","","","","","","","0","0","1","0.08691297649","","0.4","0.2","0.8","0.6","","","","","0.05819772386","0.08691297649","0.4053061298","0.2025036279","","","","","","","74","J","1","","","141","main_expt"
"530","","bandit","220","635194","0.0-181.0-0.0","83679801","wem/bandit_either","AC8IEBY696VJO","either","1","","","","","","","0","0","1","0.1425267255","","0.4","0.2","0.8","0.6","","","","","0.05329701838","0.1425267255","0.3989731656","0.1872564568","","","","","","","74","J","1","","","142","main_expt"
"334","","bandit","221","637049","0.0-182.0-0.0","83679801","wem/bandit_either","AC8IEBY696VJO","either","1","","","","","","","0","0","1","","0.1425141192","0.4","0.2","0.8","0.6","0.06209903385","0.1425141192","0.3783570596","0.1676641842","","","","","","","","","","","74","J","1","","","143","main_expt"
"297","","bandit","222","638875","0.0-183.0-0.0","83679801","wem/bandit_either","AC8IEBY696VJO","either","1","","","","","","","0","0","1","0.1362652721","","0.4","0.2","0.8","0.6","","","","","0.06954729647","0.1362652721","0.3485663762","0.1502987652","","","","","","","74","J","1","","","144","main_expt"
"2","","bandit","223","640407","0.0-184.0-0.0","83679801","wem/bandit_either","AC8IEBY696VJO","either","1","","","","","","","0","0","1","","0.1335650053","0.4","0.2","0.8","0.6","0.062760129","0.1335650053","0.3534190037","0.1050568962","","","","","","","","","","","74","J","1","","","145","main_expt"
"878","","bandit","224","642864","0.0-185.0-0.0","83679801","wem/bandit_either","AC8IEBY696VJO","either","1","","","","","","","0","0","1","","0.05014677947","0.4","0.2","0.8","0.6","0.05014677947","0.1392461982","0.342282706","0.1266784727","","","","","","","","","","","72","H","0","img/none_selected.jpg","","146","main_expt"
"338","","bandit","225","644716","0.0-186.0-0.0","83679801","wem/bandit_either","AC8IEBY696VJO","either","1","","","","","","","0","0","1","0.04801868921","","0.4","0.2","0.8","0.6","","","","","0.04801868921","0.1060810453","0.3497384939","0.1121887101","","","","","","","72","H","0","img/none_selected.jpg","","147","main_expt"
"203","","bandit","226","646470","0.0-187.0-0.0","83679801","wem/bandit_either","AC8IEBY696VJO","either","1","","","","","","","0","0","1","","0.05298179562","0.4","0.2","0.8","0.6","0.05298179562","0.1076054289","0.3507348305","0.1050077765","","","","","","","","","","","72","H","0","img/none_selected.jpg","","148","main_expt"
"327","","bandit","227","648349","0.0-188.0-0.0","83679801","wem/bandit_either","AC8IEBY696VJO","either","1","","","","","","","0","0","1","","0.05271587927","0.4","0.2","0.8","0.6","0.05271587927","0.09143227578","0.306786392","0.08725679698","","","","","","","","","","","72","H","0","img/none_selected.jpg","","149","main_expt"
"208","","bandit","228","650073","0.0-189.0-0.0","83679801","wem/bandit_either","AC8IEBY696VJO","either","1","","","","","","","0","0","1","0.06153260368","","0.4","0.2","0.8","0.6","","","","","0.06153260368","0.08361181256","0.3289077467","0.04813781364","","","","","","","72","H","0","img/none_selected.jpg","","150","main_expt"
"142","","bandit","229","651745","0.0-190.0-0.0","83679801","wem/bandit_either","AC8IEBY696VJO","either","1","","","","","","","0","0","1","","0.07716317934","0.4","0.2","0.8","0.6","0.07716317934","0.1038450747","0.2844912386","0.04690393958","","","","","","","","","","","72","H","0","img/none_selected.jpg","","151","main_expt"
"96","","bandit","230","653365","0.0-191.0-0.0","83679801","wem/bandit_either","AC8IEBY696VJO","either","1","","","","","","","1","0","0","0.3221551402","","0.4","0.2","0.8","0.6","","","","","0.08370894892","0.1311897928","0.3221551402","0.05051779207","","","","","","","75","K","2","","","152","main_expt"
"395","","bandit","231","655281","0.0-192.0-0.0","83679801","wem/bandit_either","AC8IEBY696VJO","either","1","","","","","","","0","0","1","","0.288581716","0.4","0.2","0.8","0.6","0.06235129306","0.1106636196","0.288581716","0.0417019452","","","","","","","","","","","75","K","2","","","153","main_expt"
"222","","bandit","232","657032","0.0-193.0-0.0","83679801","wem/bandit_either","AC8IEBY696VJO","either","1","","","","","","","0","0","1","0.3674714493","","0.4","0.2","0.8","0.6","","","","","0.08808261531","0.08044616817","0.3674714493","0.04565059468","","","","","","","75","K","2","","","154","main_expt"
"10","","bandit","233","658753","0.0-194.0-0.0","83679801","wem/bandit_either","AC8IEBY696VJO","either","1","","","","","","","1","0","0","0.3836765626","","0.4","0.2","0.8","0.6","","","","","0.08415746701","0.09849608375","0.3836765626","0.0249337719","","","","","","","75","K","2","","","155","main_expt"
"410","","bandit","234","660692","0.0-195.0-0.0","83679801","wem/bandit_either","AC8IEBY696VJO","either","1","","","","","","","0","0","1","0.3499766022","","0.4","0.2","0.8","0.6","","","","","0.1363215429","0.0679626842","0.3499766022","0.0207568711","","","","","","","75","K","2","","","156","main_expt"
"539","","bandit","235","662759","0.0-196.0-0.0","83679801","wem/bandit_either","AC8IEBY696VJO","either","1","","","","","","","0","0","1","0.3083455354","","0.4","0.2","0.8","0.6","","","","","0.176329139","0.06316877849","0.3083455354","0.01044871803","","","","","","","75","K","2","","","157","main_expt"
"382","","bandit","236","664657","0.0-197.0-0.0","83679801","wem/bandit_either","AC8IEBY696VJO","either","1","","","","","","","0","0","1","0.2780985587","","0.4","0.2","0.8","0.6","","","","","0.2239815039","0.06381796224","0.2780985587","0.008486032171","","","","","","","75","K","2","","","158","main_expt"
"2","","bandit","237","666173","0.0-198.0-0.0","83679801","wem/bandit_either","AC8IEBY696VJO","either","1","","","","","","","0","0","1","0.09986374221","","0.4","0.2","0.8","0.6","","","","","0.1754735631","0.09986374221","0.2721424699","0.006770001311","","","","","","","74","J","1","","","159","main_expt"
"11","","bandit","238","667751","0.0-199.0-0.0","83679801","wem/bandit_either","AC8IEBY696VJO","either","1","","","","","","","0","0","1","0.08334790929","","0.4","0.2","0.8","0.6","","","","","0.1820859676","0.08334790929","0.3005636977","0.005009972043","","","","","","","74","J","1","","","160","main_expt"
"767","","bandit","239","670032","0.0-200.0-0.0","83679801","wem/bandit_either","AC8IEBY696VJO","either","1","","","","","","","0","0","1","","0.1094566723","0.4","0.2","0.8","0.6","0.1771527669","0.1094566723","0.2481613967","0.003825417776","","","","","","","","","","","74","J","1","","","161","main_expt"
"288","","bandit","240","671849","0.0-201.0-0.0","83679801","wem/bandit_either","AC8IEBY696VJO","either","1","","","","","","","0","1","0","","0.1287108975","0.4","0.2","0.8","0.6","0.209245514","0.1287108975","0.2040880477","0.006458278423","","","","","","","","","","","74","J","1","","","162","main_expt"
"319","","bandit","241","673758","0.0-202.0-0.0","83679801","wem/bandit_either","AC8IEBY696VJO","either","1","","","","","","","0","0","1","","0.1811808859","0.4","0.2","0.8","0.6","0.1864252411","0.1811808859","0.256608811","0.01344146107","","","","","","","","","","","74","J","1","","","163","main_expt"
"591","","bandit","242","675866","0.0-203.0-0.0","83679801","wem/bandit_either","AC8IEBY696VJO","either","1","","","","","","","0","0","1","","0.1374611454","0.4","0.2","0.8","0.6","0.1662237337","0.1374611454","0.2798468236","0.004940614731","","","","","","","","","","","74","J","1","","","164","main_expt"
"519","","bandit","243","677923","0.0-204.0-0.0","83679801","wem/bandit_either","AC8IEBY696VJO","either","1","","","","","","","0","1","0","","0.1640313333","0.4","0.2","0.8","0.6","0.1375661656","0.1640313333","0.2689568899","0.007349038951","","","","","","","","","","","74","J","1","","","165","main_expt"
"393","","bandit","244","679831","0.0-205.0-0.0","83679801","wem/bandit_either","AC8IEBY696VJO","either","1","","","","","","","0","0","1","0.20052236","","0.4","0.2","0.8","0.6","","","","","0.1416727521","0.20052236","0.2786045926","0.005679103294","","","","","","","74","J","1","","","166","main_expt"
"553","","bandit","245","681913","0.0-206.0-0.0","83679801","wem/bandit_either","AC8IEBY696VJO","either","1","","","","","","","0","0","1","","0.1945206589","0.4","0.2","0.8","0.6","0.1497541138","0.1945206589","0.2507583434","0.004037182679","","","","","","","","","","","74","J","1","","","167","main_expt"
"350","","bandit","246","683778","0.0-207.0-0.0","83679801","wem/bandit_either","AC8IEBY696VJO","either","1","","","","","","","0","1","0","","0.1902154162","0.4","0.2","0.8","0.6","0.1761460581","0.1902154162","0.1827624484","0.007111326723","","","","","","","","","","","74","J","1","","","168","main_expt"
"373","","bandit","247","685664","0.0-208.0-0.0","83679801","wem/bandit_either","AC8IEBY696VJO","either","1","","","","","","","0","0","1","","0.1931964682","0.4","0.2","0.8","0.6","0.2248215173","0.1931964682","0.1558723634","0.01708305062","","","","","","","","","","","74","J","1","","","169","main_expt"
"790","","bandit","248","687976","0.0-209.0-0.0","83679801","wem/bandit_either","AC8IEBY696VJO","either","1","","","","","","","0","0","1","","0.236179436","0.4","0.2","0.8","0.6","0.2503105048","0.236179436","0.1757164868","0.02105388628","","","","","","","","","","","74","J","1","","","170","main_expt"
"420","","bandit","249","689937","0.0-210.0-0.0","83679801","wem/bandit_either","AC8IEBY696VJO","either","1","","","","","","","0","0","1","","0.2229285478","0.4","0.2","0.8","0.6","0.2515708499","0.2229285478","0.1985597056","0.01477187034","","","","","","","","","","","74","J","1","","","171","main_expt"
"459","","bandit","250","691924","0.0-211.0-0.0","83679801","wem/bandit_either","AC8IEBY696VJO","either","1","","","","","","","0","0","1","0.1805811295","","0.4","0.2","0.8","0.6","","","","","0.2601117771","0.1805811295","0.1725269859","0.00639283578","","","","","","","74","J","1","","","172","main_expt"
"402","","bandit","251","693859","0.0-212.0-0.0","83679801","wem/bandit_either","AC8IEBY696VJO","either","1","","","","","","","0","0","1","","0.2277859889","0.4","0.2","0.8","0.6","0.2277859889","0.2203049146","0.1955807132","0.008503536177","","","","","","","","","","","72","H","0","img/none_selected.jpg","","173","main_expt"
"372","","bandit","252","695765","0.0-213.0-0.0","83679801","wem/bandit_either","AC8IEBY696VJO","either","1","","","","","","","0","0","1","","0.204090619","0.4","0.2","0.8","0.6","0.204090619","0.2079245196","0.1712969398","0.01512836446","","","","","","","","","","","72","H","0","img/none_selected.jpg","","174","main_expt"
"455","","bandit","253","697760","0.0-214.0-0.0","83679801","wem/bandit_either","AC8IEBY696VJO","either","1","","","","","","","0","0","1","","0.2264282848","0.4","0.2","0.8","0.6","0.2264282848","0.1904909119","0.2145566876","0.034550241","","","","","","","","","","","72","H","0","img/none_selected.jpg","","175","main_expt"
"178","","bandit","254","699456","0.0-215.0-0.0","83679801","wem/bandit_either","AC8IEBY696VJO","either","1","","","","","","","0","0","1","","0.2263436383","0.4","0.2","0.8","0.6","0.2263436383","0.1611975006","0.1987050603","0.01969997198","","","","","","","","","","","72","H","0","img/none_selected.jpg","","176","main_expt"
"980","","bandit","255","701958","0.0-216.0-0.0","83679801","wem/bandit_either","AC8IEBY696VJO","either","1","","","","","","","0","0","1","0.02558747067","","0.4","0.2","0.8","0.6","","","","","0.2449632337","0.1747210449","0.2161967517","0.02558747067","","","","","","","76","L","3","","","177","main_expt"
"388","","bandit","256","703860","0.0-217.0-0.0","83679801","wem/bandit_either","AC8IEBY696VJO","either","1","","","","","","","0","0","1","","0.02865462312","0.4","0.2","0.8","0.6","0.1923885174","0.1667690144","0.1790488899","0.02865462312","","","","","","","","","","","76","L","3","","","178","main_expt"
"888","","bandit","257","706282","0.0-218.0-0.0","83679801","wem/bandit_either","AC8IEBY696VJO","either","1","","","","","","","0","0","1","0.05873937836","","0.4","0.2","0.8","0.6","","","","","0.1791230597","0.248539666","0.1254539317","0.05873937836","","","","","","","76","L","3","","","179","main_expt"
"625","","bandit","258","708439","0.0-219.0-0.0","83679801","wem/bandit_either","AC8IEBY696VJO","either","1","","","","","","","0","0","1","0.04996702027","","0.4","0.2","0.8","0.6","","","","","0.1641305094","0.2393284063","0.1761702366","0.04996702027","","","","","","","76","L","3","","","180","main_expt"
"408","","bandit","259","710378","0.0-220.0-0.0","83679801","wem/bandit_either","AC8IEBY696VJO","either","1","","","","","","","0","0","1","0.06192223509","","0.4","0.2","0.8","0.6","","","","","0.1567194189","0.2450765022","0.2307221343","0.06192223509","","","","","","","76","L","3","","","181","main_expt"
"719","","bandit","260","712761","0.0-221.0-0.0","83679801","wem/bandit_either","AC8IEBY696VJO","either","1","","","","","","","0","0","1","","0.1656926355","0.4","0.2","0.8","0.6","0.1805899487","0.2898963007","0.1656926355","0.07865608963","","","","","","","","","","","75","K","2","","","182","main_expt"
"1473","","bandit","261","715751","0.0-222.0-0.0","83679801","wem/bandit_either","AC8IEBY696VJO","either","1","","","","","","","0","0","1","0.1997223474","","0.4","0.2","0.8","0.6","","","","","0.1381226487","0.337419987","0.1997223474","0.0695036973","","","","","","","75","K","2","","","183","main_expt"
"427","","bandit","262","717767","0.0-223.0-0.0","83679801","wem/bandit_either","AC8IEBY696VJO","either","1","","","","","","","0","0","1","","0.1936006223","0.4","0.2","0.8","0.6","0.1157029232","0.3334404967","0.1936006223","0.09883674892","","","","","","","","","","","75","K","2","","","184","main_expt"
"532","","bandit","263","719815","0.0-224.0-0.0","83679801","wem/bandit_either","AC8IEBY696VJO","either","1","","","","","","","0","0","1","","0.1794548994","0.4","0.2","0.8","0.6","0.09007466759","0.3049781316","0.1794548994","0.1344132801","","","","","","","","","","","75","K","2","","","185","main_expt"
"251","","bandit","264","721600","0.0-225.0-0.0","83679801","wem/bandit_either","AC8IEBY696VJO","either","1","","","","","","","1","0","0","0.322039184","","0.4","0.2","0.8","0.6","","","","","0.07784091677","0.322039184","0.1679588243","0.1194183803","","","","","","","74","J","1","","","186","main_expt"
"400","","bandit","265","723751","0.0-226.0-0.0","83679801","wem/bandit_either","AC8IEBY696VJO","either","1","","","","","","","0","1","0","","0.2898485093","0.4","0.2","0.8","0.6","0.1332261693","0.2898485093","0.1692259204","0.1456002269","","","","","","","","","","","74","J","1","","","187","main_expt"
"702","","bandit","266","725969","0.0-227.0-0.0","83679801","wem/bandit_either","AC8IEBY696VJO","either","1","","","","","","","0","0","1","","0.3046836684","0.4","0.2","0.8","0.6","0.1302169342","0.3046836684","0.1796926114","0.1008589119","","","","","","","","","","","74","J","1","","","188","main_expt"
"524","","bandit","267","728028","0.0-228.0-0.0","83679801","wem/bandit_either","AC8IEBY696VJO","either","1","","","","","","","0","1","0","","0.3437642557","0.4","0.2","0.8","0.6","0.1459867673","0.3437642557","0.1463090895","0.09109327247","","","","","","","","","","","74","J","1","","","189","main_expt"
"727","","bandit","268","730272","0.0-229.0-0.0","83679801","wem/bandit_either","AC8IEBY696VJO","either","1","","","","","","","0","0","1","","0.3685715368","0.4","0.2","0.8","0.6","0.1930387326","0.3685715368","0.1670442817","0.133333279","","","","","","","","","","","74","J","1","","","190","main_expt"
"638","","bandit","269","732427","0.0-230.0-0.0","83679801","wem/bandit_either","AC8IEBY696VJO","either","1","","","","","","","0","0","1","","0.4063368095","0.4","0.2","0.8","0.6","0.1447045196","0.4063368095","0.2148667481","0.1253338948","","","","","","","","","","","74","J","1","","","191","main_expt"
"435","","bandit","270","734377","0.0-231.0-0.0","83679801","wem/bandit_either","AC8IEBY696VJO","either","1","","","","","","","0","1","0","","0.4194789623","0.4","0.2","0.8","0.6","0.1521301445","0.4194789623","0.1891029698","0.1371372983","","","","","","","","","","","74","J","1","","","192","main_expt"
"444","","bandit","271","736350","0.0-232.0-0.0","83679801","wem/bandit_either","AC8IEBY696VJO","either","1","","","","","","","0","1","0","","0.3914453041","0.4","0.2","0.8","0.6","0.1216552598","0.3914453041","0.1818436489","0.1269519223","","","","","","","","","","","74","J","1","","","193","main_expt"
"494","","bandit","272","738362","0.0-233.0-0.0","83679801","wem/bandit_either","AC8IEBY696VJO","either","1","","","","","","","0","0","1","","0.3988429791","0.4","0.2","0.8","0.6","0.07681554104","0.3988429791","0.2036833838","0.1253972088","","","","","","","","","","","74","J","1","","","194","main_expt"
"883","","bandit","273","740770","0.0-234.0-0.0","83679801","wem/bandit_either","AC8IEBY696VJO","either","1","","","","","","","0","1","0","","0.4212514022","0.4","0.2","0.8","0.6","0.07468822185","0.4212514022","0.2189502041","0.1231557279","","","","","","","","","","","74","J","1","","","195","main_expt"
"929","","bandit","274","743232","0.0-235.0-0.0","83679801","wem/bandit_either","AC8IEBY696VJO","either","1","","","","","","","0","1","0","","0.4128950903","0.4","0.2","0.8","0.6","0.07634526252","0.4128950903","0.2011136523","0.2304226507","","","","","","","","","","","74","J","1","","","196","main_expt"
"1394","","bandit","275","746158","0.0-236.0-0.0","83679801","wem/bandit_either","AC8IEBY696VJO","either","1","","","","","","","0","0","1","","0.3979973083","0.4","0.2","0.8","0.6","0.06680697181","0.3979973083","0.2295646827","0.3102822931","","","","","","","","","","","74","J","1","","","197","main_expt"
"574","","bandit","276","748250","0.0-237.0-0.0","83679801","wem/bandit_either","AC8IEBY696VJO","either","1","","","","","","","0","0","1","","0.3153467244","0.4","0.2","0.8","0.6","0.05107679344","0.3153467244","0.2570874699","0.3222054514","","","","","","","","","","","74","J","1","","","198","main_expt"
"1207","","bandit","277","750987","0.0-238.0-0.0","83679801","wem/bandit_either","AC8IEBY696VJO","either","1","","","","","","","1","0","0","0.3121882746","","0.4","0.2","0.8","0.6","","","","","0.06140804873","0.3121882746","0.2215013189","0.3416159467","","","","","","","74","J","1","","","199","main_expt"
"807","","bandit","278","753356","0.0-239.0-0.0","83679801","wem/bandit_either","AC8IEBY696VJO","either","1","","","","","","","0","0","1","","0.3789620948","0.4","0.2","0.8","0.6","0.05697288244","0.3789620948","0.1681318695","0.3826655938","","","","","","","","","","","74","J","1","","","200","main_expt"
"697","","bandit","279","755599","0.0-240.0-0.0","83679801","wem/bandit_either","AC8IEBY696VJO","either","1","","","","","","","0","0","1","","0.3575696279","0.4","0.2","0.8","0.6","0.04802221103","0.3575696279","0.1787039029","0.4117435103","","","","","","","","","","","74","J","1","","","201","main_expt"
"395","","bandit","280","757750","0.0-241.0-0.0","83679801","wem/bandit_either","AC8IEBY696VJO","either","1","","","","","","","0","0","1","","0.3937046418","0.4","0.2","0.8","0.6","0.04583536071","0.3937046418","0.2180442152","0.4023622846","","","","","","","","","","","74","J","1","","","202","main_expt"
"343","","bandit","281","759611","0.0-242.0-0.0","83679801","wem/bandit_either","AC8IEBY696VJO","either","1","","","","","","","0","1","0","","0.3901943722","0.4","0.2","0.8","0.6","0.03655969434","0.3901943722","0.262784421","0.4225273878","","","","","","","","","","","74","J","1","","","203","main_expt"
"384","","bandit","282","761573","0.0-243.0-0.0","83679801","wem/bandit_either","AC8IEBY696VJO","either","1","","","","","","","0","0","1","","0.4099131859","0.4","0.2","0.8","0.6","0.05773518339","0.4099131859","0.2843732649","0.4151046429","","","","","","","","","","","74","J","1","","","204","main_expt"
"556","","bandit","283","763728","0.0-244.0-0.0","83679801","wem/bandit_either","AC8IEBY696VJO","either","1","","","","","","","0","0","1","0.4238238901","","0.4","0.2","0.8","0.6","","","","","0.06616346658","0.4238238901","0.2549063301","0.4288165897","","","","","","","74","J","1","","","205","main_expt"
"378","","bandit","284","765636","0.0-245.0-0.0","83679801","wem/bandit_either","AC8IEBY696VJO","either","1","","","","","","","1","0","0","0.436745712","","0.4","0.2","0.8","0.6","","","","","0.09055598832","0.4139837541","0.2982701688","0.436745712","","","","","","","76","L","3","","","206","main_expt"
"539","","bandit","285","768187","0.0-246.0-0.0","83679801","wem/bandit_either","AC8IEBY696VJO","either","1","","","","","","","0","0","1","","0.4484652972","0.4","0.2","0.8","0.6","0.07583085731","0.3544894801","0.3423773839","0.4484652972","","","","","","","","","","","76","L","3","","","207","main_expt"
"59","","bandit","286","769762","0.0-247.0-0.0","83679801","wem/bandit_either","AC8IEBY696VJO","either","1","","","","","","","0","1","0","","0.4516947584","0.4","0.2","0.8","0.6","0.09768014643","0.3703609936","0.3321535101","0.4516947584","","","","","","","","","","","76","L","3","","","208","main_expt"
"378","","bandit","287","771657","0.0-248.0-0.0","83679801","wem/bandit_either","AC8IEBY696VJO","either","1","","","","","","","0","0","1","0.4590139285","","0.4","0.2","0.8","0.6","","","","","0.08389795445","0.3590511704","0.3467721984","0.4590139285","","","","","","","76","L","3","","","209","main_expt"
"370","","bandit","288","773563","0.0-249.0-0.0","83679801","wem/bandit_either","AC8IEBY696VJO","either","1","","","","","","","0","0","1","","0.4378910613","0.4","0.2","0.8","0.6","0.07846525543","0.3781523972","0.3513447539","0.4378910613","","","","","","","","","","","76","L","3","","","210","main_expt"
"386","","bandit","289","775484","0.0-250.0-0.0","83679801","wem/bandit_either","AC8IEBY696VJO","either","1","","","","","","","1","0","0","0.4139384991","","0.4","0.2","0.8","0.6","","","","","0.05906932722","0.3895188655","0.4003692624","0.4139384991","","","","","","","76","L","3","","","211","main_expt"
"654","","bandit","290","777925","0.0-251.0-0.0","83679801","wem/bandit_either","AC8IEBY696VJO","either","1","","","","","","","0","0","1","0.3659234609","","0.4","0.2","0.8","0.6","","","","","0.04754192311","0.4075098947","0.3949660502","0.3659234609","","","","","","","76","L","3","","","212","main_expt"
"338","","bandit","291","779812","0.0-252.0-0.0","83679801","wem/bandit_either","AC8IEBY696VJO","either","1","","","","","","","0","0","1","","0.3180572988","0.4","0.2","0.8","0.6","0.05481920189","0.4191075236","0.4233479157","0.3180572988","","","","","","","","","","","76","L","3","","","213","main_expt"
"642","","bandit","292","781986","0.0-253.0-0.0","83679801","wem/bandit_either","AC8IEBY696VJO","either","1","","","","","","","0","1","0","","0.2611162072","0.4","0.2","0.8","0.6","0.07954578011","0.3799529118","0.4182751871","0.2611162072","","","","","","","","","","","76","L","3","","","214","main_expt"
"505","","bandit","293","784024","0.0-254.0-0.0","83679801","wem/bandit_either","AC8IEBY696VJO","either","1","","","","","","","0","0","1","0.2331309726","","0.4","0.2","0.8","0.6","","","","","0.1078137614","0.3924699069","0.3745823719","0.2331309726","","","","","","","76","L","3","","","215","main_expt"
"429","","bandit","294","785988","0.0-255.0-0.0","83679801","wem/bandit_either","AC8IEBY696VJO","either","1","","","","","","","0","0","1","0.3809837923","","0.4","0.2","0.8","0.6","","","","","0.1269525553","0.3556657658","0.3809837923","0.2428402293","","","","","","","75","K","2","","","216","main_expt"
"413","","bandit","295","787935","0.0-256.0-0.0","83679801","wem/bandit_either","AC8IEBY696VJO","either","1","","","","","","","1","0","0","0.4144294186","","0.4","0.2","0.8","0.6","","","","","0.1849794572","0.3870416945","0.4144294186","0.2317762644","","","","","","","75","K","2","","","217","main_expt"
"398","","bandit","296","789960","0.0-257.0-0.0","83679801","wem/bandit_either","AC8IEBY696VJO","either","1","","","","","","","1","0","0","0.4090742927","","0.4","0.2","0.8","0.6","","","","","0.1903787706","0.3944581396","0.4090742927","0.204309912","","","","","","","75","K","2","","","218","main_expt"
"371","","bandit","297","791848","0.0-258.0-0.0","83679801","wem/bandit_either","AC8IEBY696VJO","either","1","","","","","","","0","0","1","","0.3869695378","0.4","0.2","0.8","0.6","0.1768508397","0.4256173987","0.3869695378","0.1685596251","","","","","","","","","","","75","K","2","","","219","main_expt"
"472","","bandit","298","793851","0.0-259.0-0.0","83679801","wem/bandit_either","AC8IEBY696VJO","either","1","","","","","","","1","0","0","0.3814250035","","0.4","0.2","0.8","0.6","","","","","0.2176561852","0.4240862242","0.3814250035","0.2488487331","","","","","","","75","K","2","","","220","main_expt"
"572","","bandit","299","795940","0.0-260.0-0.0","83679801","wem/bandit_either","AC8IEBY696VJO","either","1","","","","","","","0","0","1","","0.3560431311","0.4","0.2","0.8","0.6","0.2075488201","0.4364702466","0.3560431311","0.2789816034","","","","","","","","","","","75","K","2","","","221","main_expt"
"473","","bandit","300","797946","0.0-261.0-0.0","83679801","wem/bandit_either","AC8IEBY696VJO","either","1","","","","","","","0","0","1","0.3424215647","","0.4","0.2","0.8","0.6","","","","","0.2260831429","0.4512924842","0.3424215647","0.242729834","","","","","","","75","K","2","","","222","main_expt"
"346","","bandit","301","799823","0.0-262.0-0.0","83679801","wem/bandit_either","AC8IEBY696VJO","either","1","","","","","","","0","0","1","0.3118962833","","0.4","0.2","0.8","0.6","","","","","0.2512075751","0.4649948574","0.3118962833","0.196538567","","","","","","","75","K","2","","","223","main_expt"
"347","","bandit","302","801689","0.0-263.0-0.0","83679801","wem/bandit_either","AC8IEBY696VJO","either","1","","","","","","","0","0","1","0.261290028","","0.4","0.2","0.8","0.6","","","","","0.3072691987","0.4692106987","0.261290028","0.2189223785","","","","","","","75","K","2","","","224","main_expt"
"681","","bandit","303","803904","0.0-264.0-0.0","83679801","wem/bandit_either","AC8IEBY696VJO","either","1","","","","","","","1","0","0","0.2748104332","","0.4","0.2","0.8","0.6","","","","","0.3358063032","0.4772226815","0.2748104332","0.2131207899","","","","","","","75","K","2","","","225","main_expt"
"400","","bandit","304","805825","0.0-265.0-0.0","83679801","wem/bandit_either","AC8IEBY696VJO","either","1","","","","","","","0","0","1","","0.2112523614","0.4","0.2","0.8","0.6","0.2994610032","0.4828013869","0.2112523614","0.187439681","","","","","","","","","","","75","K","2","","","226","main_expt"
"395","","bandit","305","807752","0.0-266.0-0.0","83679801","wem/bandit_either","AC8IEBY696VJO","either","1","","","","","","","0","0","1","","0.1879164098","0.4","0.2","0.8","0.6","0.2719992041","0.4805292857","0.1879164098","0.1522087394","","","","","","","","","","","75","K","2","","","227","main_expt"
"352","","bandit","306","809858","0.0-267.0-0.0","83679801","wem/bandit_either","AC8IEBY696VJO","either","1","","","","","","","0","0","1","0.1857646906","","0.4","0.2","0.8","0.6","","","","","0.2601066631","0.4770879938","0.1857646906","0.1975586059","","","","","","","75","K","2","","","228","main_expt"
"489","","bandit","307","811865","0.0-268.0-0.0","83679801","wem/bandit_either","AC8IEBY696VJO","either","1","","","","","","","0","0","1","0.2333982712","","0.4","0.2","0.8","0.6","","","","","0.2333982712","0.4830225504","0.1608888173","0.2280604414","","","","","","","72","H","0","img/none_selected.jpg","","229","main_expt"
"436","","bandit","308","813835","0.0-269.0-0.0","83679801","wem/bandit_either","AC8IEBY696VJO","either","1","","","","","","","1","0","0","0.2179366985","","0.4","0.2","0.8","0.6","","","","","0.2179366985","0.4827210916","0.1139945837","0.2120359748","","","","","","","72","H","0","img/none_selected.jpg","","230","main_expt"
"460","","bandit","309","815829","0.0-270.0-0.0","83679801","wem/bandit_either","AC8IEBY696VJO","either","1","","","","","","","0","0","1","","0.210335649","0.4","0.2","0.8","0.6","0.210335649","0.4764813513","0.1071229599","0.2260377558","","","","","","","","","","","72","H","0","img/none_selected.jpg","","231","main_expt"
"563","","bandit","310","817913","0.0-271.0-0.0","83679801","wem/bandit_either","AC8IEBY696VJO","either","1","","","","","","","0","1","0","","0.2154905401","0.4","0.2","0.8","0.6","0.2154905401","0.4794978353","0.1250262501","0.2810037348","","","","","","","","","","","72","H","0","img/none_selected.jpg","","232","main_expt"
"380","","bandit","311","819823","0.0-272.0-0.0","83679801","wem/bandit_either","AC8IEBY696VJO","either","1","","","","","","","0","1","0","","0.2199054097","0.4","0.2","0.8","0.6","0.2199054097","0.4717583679","0.1262657767","0.3371590923","","","","","","","","","","","72","H","0","img/none_selected.jpg","","233","main_expt"
"638","","bandit","312","822013","0.0-273.0-0.0","83679801","wem/bandit_either","AC8IEBY696VJO","either","1","","","","","","","0","0","1","0.2116885818","","0.4","0.2","0.8","0.6","","","","","0.2116885818","0.4801470087","0.1436583916","0.2614597929","","","","","","","72","H","0","img/none_selected.jpg","","234","main_expt"
"179","","bandit","313","823742","0.0-274.0-0.0","83679801","wem/bandit_either","AC8IEBY696VJO","either","1","","","","","","","0","0","1","","0.2037112673","0.4","0.2","0.8","0.6","0.2037112673","0.4698449305","0.1776605917","0.2855471023","","","","","","","","","","","72","H","0","img/none_selected.jpg","","235","main_expt"
"51","","bandit","314","825309","0.0-275.0-0.0","83679801","wem/bandit_either","AC8IEBY696VJO","either","1","","","","","","","0","0","1","0.2295670059","","0.4","0.2","0.8","0.6","","","","","0.2295670059","0.4750890902","0.2039581082","0.2806831757","","","","","","","72","H","0","img/none_selected.jpg","","236","main_expt"
"387","","bandit","315","827217","0.0-276.0-0.0","83679801","wem/bandit_either","AC8IEBY696VJO","either","1","","","","","","","0","0","1","","0.2602584061","0.4","0.2","0.8","0.6","0.2602584061","0.490873849","0.1898025468","0.3314479917","","","","","","","","","","","72","H","0","img/none_selected.jpg","","237","main_expt"
"492","","bandit","316","829242","0.0-277.0-0.0","83679801","wem/bandit_either","AC8IEBY696VJO","either","1","","","","","","","0","0","1","","0.2505035884","0.4","0.2","0.8","0.6","0.2505035884","0.4658125052","0.20274426","0.3495093658","","","","","","","","","","","72","H","0","img/none_selected.jpg","","238","main_expt"
"285","","bandit","317","831049","0.0-278.0-0.0","83679801","wem/bandit_either","AC8IEBY696VJO","either","1","","","","","","","0","0","1","0.209031891","","0.4","0.2","0.8","0.6","","","","","0.209031891","0.4717810478","0.2051086292","0.3413466471","","","","","","","72","H","0","img/none_selected.jpg","","239","main_expt"
"380","","bandit","318","832967","0.0-279.0-0.0","83679801","wem/bandit_either","AC8IEBY696VJO","either","1","","","","","","","0","0","1","","0.4751676635","0.4","0.2","0.8","0.6","0.2203826704","0.4751676635","0.1823871945","0.3848911707","","","","","","","","","","","74","J","1","","","240","main_expt"
"736","","bandit","319","835241","0.0-280.0-0.0","83679801","wem/bandit_either","AC8IEBY696VJO","either","1","","","","","","","0","1","0","","0.4782176083","0.4","0.2","0.8","0.6","0.2502218434","0.4782176083","0.2206124516","0.3352713547","","","","","","","","","","","74","J","1","","","241","main_expt"
"439","","bandit","320","837212","0.0-281.0-0.0","83679801","wem/bandit_either","AC8IEBY696VJO","either","1","","","","","","","0","1","0","","0.4842593171","0.4","0.2","0.8","0.6","0.2465850657","0.4842593171","0.1822231347","0.3898112853","","","","","","","","","","","74","J","1","","","242","main_expt"
"1154","","bandit","321","839905","0.0-282.0-0.0","83679801","wem/bandit_either","AC8IEBY696VJO","either","1","","","","","","","0","1","0","","0.4877308522","0.4","0.2","0.8","0.6","0.2768687636","0.4877308522","0.1782216913","0.3746092993","","","","","","","","","","","74","J","1","","","243","main_expt"
"1686","","bandit","322","843116","0.0-283.0-0.0","83679801","wem/bandit_either","AC8IEBY696VJO","either","1","","","","","","","0","1","0","","0.4867000748","0.4","0.2","0.8","0.6","0.3318130554","0.4867000748","0.1683297066","0.3551642001","","","","","","","","","","","74","J","1","","","244","main_expt"
"862","","bandit","323","845517","0.0-284.0-0.0","83679801","wem/bandit_either","AC8IEBY696VJO","either","1","","","","","","","0","1","0","","0.4779689664","0.4","0.2","0.8","0.6","0.3549389872","0.4779689664","0.2394915997","0.3556023966","","","","","","","","","","","74","J","1","","","245","main_expt"
"425","","bandit","324","847738","0.0-285.0-0.0","83679801","wem/bandit_either","AC8IEBY696VJO","either","1","","","","","","","0","1","0","","0.4691428495","0.4","0.2","0.8","0.6","0.333301522","0.4691428495","0.2279590519","0.3265039954","","","","","","","","","","","74","J","1","","","246","main_expt"
"577","","bandit","325","849829","0.0-286.0-0.0","83679801","wem/bandit_either","AC8IEBY696VJO","either","1","","","","","","","0","0","1","","0.4726686318","0.4","0.2","0.8","0.6","0.3514606933","0.4726686318","0.2464238951","0.2868106963","","","","","","","","","","","74","J","1","","","247","main_expt"
"422","","bandit","326","851784","0.0-287.0-0.0","83679801","wem/bandit_either","AC8IEBY696VJO","either","1","","","","","","","0","0","1","","0.4803067915","0.4","0.2","0.8","0.6","0.3714826816","0.4803067915","0.2743013104","0.3185934195","","","","","","","","","","","74","J","1","","","248","main_expt"
"404","","bandit","327","853750","0.0-288.0-0.0","83679801","wem/bandit_either","AC8IEBY696VJO","either","1","","","","","","","0","0","1","0.4711679289","","0.4","0.2","0.8","0.6","","","","","0.386783615","0.4711679289","0.265015958","0.358181829","","","","","","","74","J","1","","","249","main_expt"
"356","","bandit","328","855623","0.0-289.0-0.0","83679801","wem/bandit_either","AC8IEBY696VJO","either","1","","","","","","","0","1","0","","0.4353456883","0.4","0.2","0.8","0.6","0.401921917","0.4353456883","0.2414596854","0.3548152509","","","","","","","","","","","74","J","1","","","250","main_expt"
"655","","bandit","329","857799","0.0-290.0-0.0","83679801","wem/bandit_either","AC8IEBY696VJO","either","1","","","","","","","1","0","0","0.4224206017","","0.4","0.2","0.8","0.6","","","","","0.4214807698","0.4224206017","0.2747351927","0.3481631732","","","","","","","74","J","1","","","251","main_expt"
"699","","bandit","330","860022","0.0-291.0-0.0","83679801","wem/bandit_either","AC8IEBY696VJO","either","1","","","","","","","0","0","1","","0.4171240554","0.4","0.2","0.8","0.6","0.3562017588","0.4171240554","0.2814651432","0.3357984296","","","","","","","","","","","74","J","1","","","252","main_expt"
"397","","bandit","331","861961","0.0-292.0-0.0","83679801","wem/bandit_either","AC8IEBY696VJO","either","1","","","","","","","0","0","1","","0.4255780754","0.4","0.2","0.8","0.6","0.2749590952","0.4255780754","0.2185424791","0.2585495719","","","","","","","","","","","74","J","1","","","253","main_expt"
"368","","bandit","332","863853","0.0-293.0-0.0","83679801","wem/bandit_either","AC8IEBY696VJO","either","1","","","","","","","0","0","1","","0.4183488494","0.4","0.2","0.8","0.6","0.2898909049","0.4183488494","0.1714714561","0.2503838878","","","","","","","","","","","74","J","1","","","254","main_expt"
"738","","bandit","333","866127","0.0-294.0-0.0","83679801","wem/bandit_either","AC8IEBY696VJO","either","1","","","","","","","0","0","1","0.3767889497","","0.4","0.2","0.8","0.6","","","","","0.3175460208","0.3767889497","0.1407879831","0.3011071058","","","","","","","74","J","1","","","255","main_expt"
