"rt","responses","trial_type","trial_index","time_elapsed","internal_node_id","subjID","study","MID","cond","drift","key_press","expt_phase","target","like","value","connected","gems","bombs","no_reward","GemPrChosen","BombPrChosen","GainOverPainPr_0","GainOverPainPr_1","GainOverPainPr_2","GainOverPainPr_3","LosePr_0","LosePr_1","LosePr_2","LosePr_3","WinPr_0","WinPr_1","WinPr_2","WinPr_3","Q0","Q1","Q2","gender","age","ethnicity","respCharCode","respKey","respChoiceNum","respChoice","practice","trial_counter","trial_label"
"7148","{""Q0"":""A2TBXASXZIRNNW""}","survey-text","0","7168","0.0-0.0","84480786","wem/bandit_either","A2TBXASXZIRNNW","either","1","","","","","","","","","","","","","","","","","","","","","","","","","","","","","","","","","","","",""
"16120","","text","1","24300","0.0-1.0","84480786","wem/bandit_either","A2TBXASXZIRNNW","either","1","32","","","","","","","","","","","","","","","","","","","","","","","","","","","","","","","","","","",""
"7900","","text","2","32210","0.0-2.0","84480786","wem/bandit_either","A2TBXASXZIRNNW","either","1","32","","","","","","","","","","","","","","","","","","","","","","","","","","","","","","","","","","",""
"19378","","text","3","51588","0.0-3.0","84480786","wem/bandit_either","A2TBXASXZIRNNW","either","1","32","","","","","","","","","","","","","","","","","","","","","","","","","","","","","","","","","","",""
"18191","","text","4","69779","0.0-4.0","84480786","wem/bandit_either","A2TBXASXZIRNNW","either","1","32","","","","","","","","","","","","","","","","","","","","","","","","","","","","","","","","","","",""
"17380","","text","5","87159","0.0-5.0","84480786","wem/bandit_either","A2TBXASXZIRNNW","either","1","32","","","","","","","","","","","","","","","","","","","","","","","","","","","","","","","","","","",""
"6017","","text","6","93186","0.0-6.0","84480786","wem/bandit_either","A2TBXASXZIRNNW","either","1","32","","","","","","","","","","","","","","","","","","","","","","","","","","","","","","","","","","",""
"4992","","text","7","98188","0.0-7.0","84480786","wem/bandit_either","A2TBXASXZIRNNW","either","1","32","","","","","","","","","","","","","","","","","","","","","","","","","","","","","","","","","","",""
"14197","","identification","8","112422","0.0-8.0-0.0","84480786","wem/bandit_either","A2TBXASXZIRNNW","either","1","","identification_pre","the village of Zur","","","","","","","","","","","","","","","","","","","","","","","","","","","","","","","","",""
"5416","","identification","9","118876","0.0-8.0-1.0","84480786","wem/bandit_either","A2TBXASXZIRNNW","either","1","","identification_pre","the village of Nyx","","","","","","","","","","","","","","","","","","","","","","","","","","","","","","","","",""
"4856","","text","10","124734","0.0-9.0","84480786","wem/bandit_either","A2TBXASXZIRNNW","either","1","32","","","","","","","","","","","","","","","","","","","","","","","","","","","","","","","","","","",""
"5065","","text","11","129809","0.0-10.0","84480786","wem/bandit_either","A2TBXASXZIRNNW","either","1","32","","","","","","","","","","","","","","","","","","","","","","","","","","","","","","","","","","",""
"1969","","text","12","131778","0.0-11.0","84480786","wem/bandit_either","A2TBXASXZIRNNW","either","1","32","","","","","","","","","","","","","","","","","","","","","","","","","","","","","","","","","","",""
"7606","","text","13","139394","0.0-12.0","84480786","wem/bandit_either","A2TBXASXZIRNNW","either","1","32","","","","","","","","","","","","","","","","","","","","","","","","","","","","","","","","","","",""
"3298","","bandit","14","144226","0.0-13.0-0.0","84480786","wem/bandit_either","A2TBXASXZIRNNW","either","1","","","","","","","0","0","1","0","0","","","","","0","","","","0","","","","","","","","","","74","J","0","img/none_selected_demo.jpg","true","0",""
"970","","bandit","15","146719","0.0-14.0-0.0","84480786","wem/bandit_either","A2TBXASXZIRNNW","either","1","","","","","","","0","0","1","0","0","","","","","0","","","","0","","","","","","","","","","75","K","0","img/none_selected_demo.jpg","true","0",""
"8526","","text","16","155245","0.0-15.0","84480786","wem/bandit_either","A2TBXASXZIRNNW","either","1","32","","","","","","","","","","","","","","","","","","","","","","","","","","","","","","","","","","",""
"13496","","text","17","168741","0.0-16.0","84480786","wem/bandit_either","A2TBXASXZIRNNW","either","1","32","","","","","","","","","","","","","","","","","","","","","","","","","","","","","","","","","","",""
"11802","","text","18","180543","0.0-17.0","84480786","wem/bandit_either","A2TBXASXZIRNNW","either","1","32","","","","","","","","","","","","","","","","","","","","","","","","","","","","","","","","","","",""
"5196","","text","19","185749","0.0-18.0","84480786","wem/bandit_either","A2TBXASXZIRNNW","either","1","32","","","","","","","","","","","","","","","","","","","","","","","","","","","","","","","","","","",""
"688","","bandit","20","187969","0.0-19.0-0.0","84480786","wem/bandit_either","A2TBXASXZIRNNW","either","1","","","","","","","0","0","1","0.8","","0.5","0.5","","","","","","","0.8","0.2","","","","","","","","","74","J","0","img/none_selected_demo.jpg","true","0","80_20_practice"
"405","","bandit","21","189893","0.0-19.0-1.0","84480786","wem/bandit_either","A2TBXASXZIRNNW","either","1","","","","","","","0","0","1","","0.2","0.5","0.5","","","0.8","0.2","","","","","","","","","","","","","75","K","1","","true","0","80_20_practice"
"638","","bandit","22","192052","0.0-19.0-2.0","84480786","wem/bandit_either","A2TBXASXZIRNNW","either","1","","","","","","","0","0","1","","0.2","0.5","0.5","","","0.8","0.2","","","","","","","","","","","","","75","K","1","","true","0","80_20_practice"
"391","","bandit","23","193970","0.0-19.0-3.0","84480786","wem/bandit_either","A2TBXASXZIRNNW","either","1","","","","","","","0","1","0","","0.8","0.5","0.5","","","0.8","0.2","","","","","","","","","","","","","74","J","0","img/none_selected_demo.jpg","true","0","80_20_practice"
"344","","bandit","24","195835","0.0-19.0-4.0","84480786","wem/bandit_either","A2TBXASXZIRNNW","either","1","","","","","","","0","1","0","","0.8","0.5","0.5","","","0.8","0.2","","","","","","","","","","","","","74","J","0","img/none_selected_demo.jpg","true","0","80_20_practice"
"280","","bandit","25","197640","0.0-19.0-5.0","84480786","wem/bandit_either","A2TBXASXZIRNNW","either","1","","","","","","","0","0","1","","0.8","0.5","0.5","","","0.8","0.2","","","","","","","","","","","","","74","J","0","img/none_selected_demo.jpg","true","0","80_20_practice"
"154","","bandit","26","199311","0.0-19.0-6.0","84480786","wem/bandit_either","A2TBXASXZIRNNW","either","1","","","","","","","0","1","0","","0.8","0.5","0.5","","","0.8","0.2","","","","","","","","","","","","","74","J","0","img/none_selected_demo.jpg","true","0","80_20_practice"
"314","","bandit","27","201143","0.0-19.0-7.0","84480786","wem/bandit_either","A2TBXASXZIRNNW","either","1","","","","","","","0","0","1","0.8","","0.5","0.5","","","","","","","0.8","0.2","","","","","","","","","74","J","0","img/none_selected_demo.jpg","true","0","80_20_practice"
"0","","bandit","28","202681","0.0-19.0-8.0","84480786","wem/bandit_either","A2TBXASXZIRNNW","either","1","","","","","","","1","0","0","0.8","","0.5","0.5","","","","","","","0.8","0.2","","","","","","","","","74","J","0","img/none_selected_demo.jpg","true","0","80_20_practice"
"319","","bandit","29","204532","0.0-19.0-9.0","84480786","wem/bandit_either","A2TBXASXZIRNNW","either","1","","","","","","","0","1","0","","0.8","0.5","0.5","","","0.8","0.2","","","","","","","","","","","","","74","J","0","img/none_selected_demo.jpg","true","0","80_20_practice"
"467","","bandit","30","206538","0.0-19.0-10.0","84480786","wem/bandit_either","A2TBXASXZIRNNW","either","1","","","","","","","1","0","0","0.8","","0.5","0.5","","","","","","","0.8","0.2","","","","","","","","","74","J","0","img/none_selected_demo.jpg","true","0","80_20_practice"
"217","","bandit","31","208281","0.0-19.0-11.0","84480786","wem/bandit_either","A2TBXASXZIRNNW","either","1","","","","","","","0","0","1","","0.8","0.5","0.5","","","0.8","0.2","","","","","","","","","","","","","74","J","0","img/none_selected_demo.jpg","true","0","80_20_practice"
"515","","bandit","32","210316","0.0-19.0-12.0","84480786","wem/bandit_either","A2TBXASXZIRNNW","either","1","","","","","","","0","1","0","","0.8","0.5","0.5","","","0.8","0.2","","","","","","","","","","","","","74","J","0","img/none_selected_demo.jpg","true","0","80_20_practice"
"305","","bandit","33","212158","0.0-19.0-13.0","84480786","wem/bandit_either","A2TBXASXZIRNNW","either","1","","","","","","","1","0","0","0.8","","0.5","0.5","","","","","","","0.8","0.2","","","","","","","","","74","J","0","img/none_selected_demo.jpg","true","0","80_20_practice"
"254","","bandit","34","213932","0.0-19.0-14.0","84480786","wem/bandit_either","A2TBXASXZIRNNW","either","1","","","","","","","1","0","0","0.8","","0.5","0.5","","","","","","","0.8","0.2","","","","","","","","","74","J","0","img/none_selected_demo.jpg","true","0","80_20_practice"
"205","","bandit","35","215670","0.0-19.0-15.0","84480786","wem/bandit_either","A2TBXASXZIRNNW","either","1","","","","","","","0","1","0","","0.8","0.5","0.5","","","0.8","0.2","","","","","","","","","","","","","74","J","0","img/none_selected_demo.jpg","true","0","80_20_practice"
"74","","bandit","36","217258","0.0-19.0-16.0","84480786","wem/bandit_either","A2TBXASXZIRNNW","either","1","","","","","","","0","1","0","","0.8","0.5","0.5","","","0.8","0.2","","","","","","","","","","","","","74","J","0","img/none_selected_demo.jpg","true","0","80_20_practice"
"145","","bandit","37","218929","0.0-19.0-17.0","84480786","wem/bandit_either","A2TBXASXZIRNNW","either","1","","","","","","","1","0","0","0.8","","0.5","0.5","","","","","","","0.8","0.2","","","","","","","","","74","J","0","img/none_selected_demo.jpg","true","0","80_20_practice"
"140","","bandit","38","220594","0.0-19.0-18.0","84480786","wem/bandit_either","A2TBXASXZIRNNW","either","1","","","","","","","1","0","0","0.8","","0.5","0.5","","","","","","","0.8","0.2","","","","","","","","","74","J","0","img/none_selected_demo.jpg","true","0","80_20_practice"
"135","","bandit","39","222247","0.0-19.0-19.0","84480786","wem/bandit_either","A2TBXASXZIRNNW","either","1","","","","","","","1","0","0","0.8","","0.5","0.5","","","","","","","0.8","0.2","","","","","","","","","74","J","0","img/none_selected_demo.jpg","true","0","80_20_practice"
"3701","","text","40","225958","0.0-20.0","84480786","wem/bandit_either","A2TBXASXZIRNNW","either","1","32","","","","","","","","","","","","","","","","","","","","","","","","","","","","","","","","","","",""
"1414","","bandit","41","228890","0.0-21.0-0.0","84480786","wem/bandit_either","A2TBXASXZIRNNW","either","1","","","","","","","1","0","0","1","0","","","","","0","1","","","1","0","","","","","","","","","74","J","0","img/none_selected_demo.jpg","true","0",""
"7176","","text","42","236066","0.0-22.0","84480786","wem/bandit_either","A2TBXASXZIRNNW","either","1","32","","","","","","","","","","","","","","","","","","","","","","","","","","","","","","","","","","",""
"2477","","text","43","238543","0.0-23.0","84480786","wem/bandit_either","A2TBXASXZIRNNW","either","1","32","","","","","","","","","","","","","","","","","","","","","","","","","","","","","","","","","","",""
"2930","","text","44","241473","0.0-24.0","84480786","wem/bandit_either","A2TBXASXZIRNNW","either","1","32","","","","","","","","","","","","","","","","","","","","","","","","","","","","","","","","","","",""
"3378","","text","45","244851","0.0-25.0","84480786","wem/bandit_either","A2TBXASXZIRNNW","either","1","32","","","","","","","","","","","","","","","","","","","","","","","","","","","","","","","","","","",""
"8576","","text","46","253427","0.0-26.0","84480786","wem/bandit_either","A2TBXASXZIRNNW","either","1","32","","","","","","","","","","","","","","","","","","","","","","","","","","","","","","","","","","",""
"3147","","text","47","256574","0.0-27.0","84480786","wem/bandit_either","A2TBXASXZIRNNW","either","1","32","","","","","","","","","","","","","","","","","","","","","","","","","","","","","","","","","","",""
"4294","","text","48","260879","0.0-28.0","84480786","wem/bandit_either","A2TBXASXZIRNNW","either","1","32","","","","","","","","","","","","","","","","","","","","","","","","","","","","","","","","","","",""
"3259","","text","49","264139","0.0-29.0","84480786","wem/bandit_either","A2TBXASXZIRNNW","either","1","32","","","","","","","","","","","","","","","","","","","","","","","","","","","","","","","","","","",""
"5909","","text","50","270058","0.0-30.0","84480786","wem/bandit_either","A2TBXASXZIRNNW","either","1","32","","","","","","","","","","","","","","","","","","","","","","","","","","","","","","","","","","",""
"2412","","text","51","272480","0.0-31.0","84480786","wem/bandit_either","A2TBXASXZIRNNW","either","1","32","","","","","","","","","","","","","","","","","","","","","","","","","","","","","","","","","","",""
"20281","","text","52","292761","0.0-32.0","84480786","wem/bandit_either","A2TBXASXZIRNNW","either","1","32","","","","","","","","","","","","","","","","","","","","","","","","","","","","","","","","","","",""
"1130","","bandit","53","295420","0.0-33.0-0.0","84480786","wem/bandit_either","A2TBXASXZIRNNW","either","1","","","","","","","1","0","0","0.8","","0.5","0.5","0.5","0.5","","","","","0.8","0.2","0.6","0.2","","","","","","","72","H","0","img/none_selected.jpg","true","0","full_practice"
"82","","bandit","54","297030","0.0-33.0-1.0","84480786","wem/bandit_either","A2TBXASXZIRNNW","either","1","","","","","","","0","1","0","","0.8","0.5","0.5","0.5","0.5","0.8","0.2","0.6","0.2","","","","","","","","","","","72","H","0","img/none_selected.jpg","true","0","full_practice"
"203","","bandit","55","298772","0.0-33.0-2.0","84480786","wem/bandit_either","A2TBXASXZIRNNW","either","1","","","","","","","1","0","0","0.8","","0.5","0.5","0.5","0.5","","","","","0.8","0.2","0.6","0.2","","","","","","","72","H","0","img/none_selected.jpg","true","0","full_practice"
"170","","bandit","56","300458","0.0-33.0-3.0","84480786","wem/bandit_either","A2TBXASXZIRNNW","either","1","","","","","","","0","1","0","","0.8","0.5","0.5","0.5","0.5","0.8","0.2","0.6","0.2","","","","","","","","","","","72","H","0","img/none_selected.jpg","true","0","full_practice"
"192","","bandit","57","302182","0.0-33.0-4.0","84480786","wem/bandit_either","A2TBXASXZIRNNW","either","1","","","","","","","0","0","1","0.8","","0.5","0.5","0.5","0.5","","","","","0.8","0.2","0.6","0.2","","","","","","","72","H","0","img/none_selected.jpg","true","0","full_practice"
"160","","bandit","58","303865","0.0-33.0-5.0","84480786","wem/bandit_either","A2TBXASXZIRNNW","either","1","","","","","","","1","0","0","0.8","","0.5","0.5","0.5","0.5","","","","","0.8","0.2","0.6","0.2","","","","","","","72","H","0","img/none_selected.jpg","true","0","full_practice"
"206","","bandit","59","305606","0.0-33.0-6.0","84480786","wem/bandit_either","A2TBXASXZIRNNW","either","1","","","","","","","0","1","0","","0.8","0.5","0.5","0.5","0.5","0.8","0.2","0.6","0.2","","","","","","","","","","","72","H","0","img/none_selected.jpg","true","0","full_practice"
"91","","bandit","60","307223","0.0-33.0-7.0","84480786","wem/bandit_either","A2TBXASXZIRNNW","either","1","","","","","","","1","0","0","0.8","","0.5","0.5","0.5","0.5","","","","","0.8","0.2","0.6","0.2","","","","","","","72","H","0","img/none_selected.jpg","true","0","full_practice"
"218","","bandit","61","308968","0.0-33.0-8.0","84480786","wem/bandit_either","A2TBXASXZIRNNW","either","1","","","","","","","0","1","0","","0.8","0.5","0.5","0.5","0.5","0.8","0.2","0.6","0.2","","","","","","","","","","","72","H","0","img/none_selected.jpg","true","0","full_practice"
"209","","bandit","62","310701","0.0-33.0-9.0","84480786","wem/bandit_either","A2TBXASXZIRNNW","either","1","","","","","","","1","0","0","0.8","","0.5","0.5","0.5","0.5","","","","","0.8","0.2","0.6","0.2","","","","","","","72","H","0","img/none_selected.jpg","true","0","full_practice"
"224","","bandit","63","312446","0.0-33.0-10.0","84480786","wem/bandit_either","A2TBXASXZIRNNW","either","1","","","","","","","0","0","1","0.8","","0.5","0.5","0.5","0.5","","","","","0.8","0.2","0.6","0.2","","","","","","","72","H","0","img/none_selected.jpg","true","0","full_practice"
"193","","bandit","64","314177","0.0-33.0-11.0","84480786","wem/bandit_either","A2TBXASXZIRNNW","either","1","","","","","","","0","1","0","","0.8","0.5","0.5","0.5","0.5","0.8","0.2","0.6","0.2","","","","","","","","","","","72","H","0","img/none_selected.jpg","true","0","full_practice"
"131","","bandit","65","315838","0.0-33.0-12.0","84480786","wem/bandit_either","A2TBXASXZIRNNW","either","1","","","","","","","0","1","0","","0.8","0.5","0.5","0.5","0.5","0.8","0.2","0.6","0.2","","","","","","","","","","","72","H","0","img/none_selected.jpg","true","0","full_practice"
"137","","bandit","66","317500","0.0-33.0-13.0","84480786","wem/bandit_either","A2TBXASXZIRNNW","either","1","","","","","","","0","1","0","","0.8","0.5","0.5","0.5","0.5","0.8","0.2","0.6","0.2","","","","","","","","","","","72","H","0","img/none_selected.jpg","true","0","full_practice"
"188","","bandit","67","319204","0.0-33.0-14.0","84480786","wem/bandit_either","A2TBXASXZIRNNW","either","1","","","","","","","0","1","0","","0.8","0.5","0.5","0.5","0.5","0.8","0.2","0.6","0.2","","","","","","","","","","","72","H","0","img/none_selected.jpg","true","0","full_practice"
"140","","bandit","68","320875","0.0-33.0-15.0","84480786","wem/bandit_either","A2TBXASXZIRNNW","either","1","","","","","","","0","1","0","","0.8","0.5","0.5","0.5","0.5","0.8","0.2","0.6","0.2","","","","","","","","","","","72","H","0","img/none_selected.jpg","true","0","full_practice"
"132","","bandit","69","322522","0.0-33.0-16.0","84480786","wem/bandit_either","A2TBXASXZIRNNW","either","1","","","","","","","1","0","0","0.8","","0.5","0.5","0.5","0.5","","","","","0.8","0.2","0.6","0.2","","","","","","","72","H","0","img/none_selected.jpg","true","0","full_practice"
"162","","bandit","70","324208","0.0-33.0-17.0","84480786","wem/bandit_either","A2TBXASXZIRNNW","either","1","","","","","","","0","1","0","","0.8","0.5","0.5","0.5","0.5","0.8","0.2","0.6","0.2","","","","","","","","","","","72","H","0","img/none_selected.jpg","true","0","full_practice"
"135","","bandit","71","325885","0.0-33.0-18.0","84480786","wem/bandit_either","A2TBXASXZIRNNW","either","1","","","","","","","0","1","0","","0.8","0.5","0.5","0.5","0.5","0.8","0.2","0.6","0.2","","","","","","","","","","","72","H","0","img/none_selected.jpg","true","0","full_practice"
"163","","bandit","72","327577","0.0-33.0-19.0","84480786","wem/bandit_either","A2TBXASXZIRNNW","either","1","","","","","","","1","0","0","0.8","","0.5","0.5","0.5","0.5","","","","","0.8","0.2","0.6","0.2","","","","","","","72","H","0","img/none_selected.jpg","true","0","full_practice"
"2652","","text","73","330249","0.0-34.0","84480786","wem/bandit_either","A2TBXASXZIRNNW","either","1","32","","","","","","","","","","","","","","","","","","","","","","","","","","","","","","","","","","",""
"11822","","text","74","343093","0.0-35.0","84480786","wem/bandit_either","A2TBXASXZIRNNW","either","1","32","","","","","","","","","","","","","","","","","","","","","","","","","","","","","","","","","","",""
"7515","","text","75","350608","0.0-36.0","84480786","wem/bandit_either","A2TBXASXZIRNNW","either","1","32","","","","","","","","","","","","","","","","","","","","","","","","","","","","","","","","","","",""
"5224","","text","76","355842","0.0-37.0","84480786","wem/bandit_either","A2TBXASXZIRNNW","either","1","32","","","","","","","","","","","","","","","","","","","","","","","","","","","","","","","","","","",""
"6010","","text","77","361852","0.0-38.0","84480786","wem/bandit_either","A2TBXASXZIRNNW","either","1","32","","","","","","","","","","","","","","","","","","","","","","","","","","","","","","","","","","",""
"6074","","text","78","367936","0.0-39.0","84480786","wem/bandit_either","A2TBXASXZIRNNW","either","1","32","","","","","","","","","","","","","","","","","","","","","","","","","","","","","","","","","","",""
"728","","bandit","79","370186","0.0-40.0-0.0","84480786","wem/bandit_either","A2TBXASXZIRNNW","either","1","","","","","","","0","0","1","","0.02943109976","0.4","0.2","0.6","0.8","0.02943109976","0.0798457429","0.3592836462","0.4269289603","","","","","","","","","","","72","H","0","img/none_selected.jpg","","1","main_expt"
"157","","bandit","80","371877","0.0-41.0-0.0","84480786","wem/bandit_either","A2TBXASXZIRNNW","either","1","","","","","","","0","0","1","","0.06336112212","0.4","0.2","0.6","0.8","0.06336112212","0.07621336767","0.3454903542","0.4660243271","","","","","","","","","","","72","H","0","img/none_selected.jpg","","2","main_expt"
"242","","bandit","81","373657","0.0-42.0-0.0","84480786","wem/bandit_either","A2TBXASXZIRNNW","either","1","","","","","","","0","0","1","","0.07476295528","0.4","0.2","0.6","0.8","0.07335687118","0.07476295528","0.2941512374","0.4738503749","","","","","","","","","","","74","J","1","","","3","main_expt"
"259","","bandit","82","375449","0.0-43.0-0.0","84480786","wem/bandit_either","A2TBXASXZIRNNW","either","1","","","","","","","0","0","1","0.06526985361","","0.4","0.2","0.6","0.8","","","","","0.06156305515","0.06526985361","0.2851241965","0.4618500418","","","","","","","74","J","1","","","4","main_expt"
"310","","bandit","83","377277","0.0-44.0-0.0","84480786","wem/bandit_either","A2TBXASXZIRNNW","either","1","","","","","","","0","0","1","0.3172925843","","0.4","0.2","0.6","0.8","","","","","0.08141194251","0.05487735528","0.3172925843","0.4488935273","","","","","","","75","K","2","","","5","main_expt"
"348","","bandit","84","379156","0.0-45.0-0.0","84480786","wem/bandit_either","A2TBXASXZIRNNW","either","1","","","","","","","0","0","1","","0.3319153021","0.4","0.2","0.6","0.8","0.1104821702","0.04340015571","0.3319153021","0.4437832297","","","","","","","","","","","75","K","2","","","6","main_expt"
"251","","bandit","85","380930","0.0-46.0-0.0","84480786","wem/bandit_either","A2TBXASXZIRNNW","either","1","","","","","","","0","0","1","0.4310077805","","0.4","0.2","0.6","0.8","","","","","0.1191408541","0.04575060371","0.3553039772","0.4310077805","","","","","","","76","L","3","","","7","main_expt"
"186","","bandit","86","382636","0.0-47.0-0.0","84480786","wem/bandit_either","A2TBXASXZIRNNW","either","1","","","","","","","1","0","0","0.4480386191","","0.4","0.2","0.6","0.8","","","","","0.1517570037","0.06112087539","0.3868093767","0.4480386191","","","","","","","76","L","3","","","8","main_expt"
"233","","bandit","87","384393","0.0-48.0-0.0","84480786","wem/bandit_either","A2TBXASXZIRNNW","either","1","","","","","","","0","0","1","0.4460224538","","0.4","0.2","0.6","0.8","","","","","0.1738087075","0.07854191076","0.3754406694","0.4460224538","","","","","","","76","L","3","","","9","main_expt"
"212","","bandit","88","386137","0.0-49.0-0.0","84480786","wem/bandit_either","A2TBXASXZIRNNW","either","1","","","","","","","0","0","1","0.3954493452","","0.4","0.2","0.6","0.8","","","","","0.2033535465","0.06865483858","0.3537433427","0.3954493452","","","","","","","76","L","3","","","10","main_expt"
"379","","bandit","89","388044","0.0-50.0-0.0","84480786","wem/bandit_either","A2TBXASXZIRNNW","either","1","","","","","","","0","0","1","0.3793358735","","0.4","0.2","0.6","0.8","","","","","0.1751631116","0.05083805298","0.3793358735","0.4064238371","","","","","","","75","K","2","","","11","main_expt"
"172","","bandit","90","389755","0.0-51.0-0.0","84480786","wem/bandit_either","A2TBXASXZIRNNW","either","1","","","","","","","0","0","1","","0.1038792476","0.4","0.2","0.6","0.8","0.1787487179","0.1038792476","0.3800428212","0.3800839449","","","","","","","","","","","74","J","1","","","12","main_expt"
"221","","bandit","91","391502","0.0-52.0-0.0","84480786","wem/bandit_either","A2TBXASXZIRNNW","either","1","","","","","","","0","0","1","","0.1794712961","0.4","0.2","0.6","0.8","0.1794712961","0.1197284353","0.3647981021","0.3866628193","","","","","","","","","","","72","H","0","img/none_selected.jpg","","13","main_expt"
"55","","bandit","92","393081","0.0-53.0-0.0","84480786","wem/bandit_either","A2TBXASXZIRNNW","either","1","","","","","","","1","0","0","0.326509825","","0.4","0.2","0.6","0.8","","","","","0.2482140722","0.135681701","0.3646471907","0.326509825","","","","","","","76","L","3","","","14","main_expt"
"162","","bandit","93","394769","0.0-54.0-0.0","84480786","wem/bandit_either","A2TBXASXZIRNNW","either","1","","","","","","","0","0","1","","0.2428529647","0.4","0.2","0.6","0.8","0.2859415589","0.125153919","0.3549291363","0.2428529647","","","","","","","","","","","76","L","3","","","15","main_expt"
"196","","bandit","94","396480","0.0-55.0-0.0","84480786","wem/bandit_either","A2TBXASXZIRNNW","either","1","","","","","","","0","0","1","0.2332962783","","0.4","0.2","0.6","0.8","","","","","0.26587149","0.1096891688","0.3727350689","0.2332962783","","","","","","","76","L","3","","","16","main_expt"
"222","","bandit","95","398228","0.0-56.0-0.0","84480786","wem/bandit_either","A2TBXASXZIRNNW","either","1","","","","","","","0","0","1","0.2271032234","","0.4","0.2","0.6","0.8","","","","","0.2776265896","0.1051581447","0.3112083829","0.2271032234","","","","","","","76","L","3","","","17","main_expt"
"133","","bandit","96","399889","0.0-57.0-0.0","84480786","wem/bandit_either","A2TBXASXZIRNNW","either","1","","","","","","","0","0","1","","0.2403081055","0.4","0.2","0.6","0.8","0.3223387563","0.1437943492","0.2403081055","0.1701710303","","","","","","","","","","","75","K","2","","","18","main_expt"
"148","","bandit","97","401570","0.0-58.0-0.0","84480786","wem/bandit_either","A2TBXASXZIRNNW","either","1","","","","","","","1","0","0","0.2377482675","","0.4","0.2","0.6","0.8","","","","","0.3192918255","0.1405615485","0.2377482675","0.2070198111","","","","","","","75","K","2","","","19","main_expt"
"184","","bandit","98","403285","0.0-59.0-0.0","84480786","wem/bandit_either","A2TBXASXZIRNNW","either","1","","","","","","","0","0","1","0.2607530295","","0.4","0.2","0.6","0.8","","","","","0.2739159796","0.1063334751","0.2607530295","0.2412547966","","","","","","","75","K","2","","","20","main_expt"
"127","","bandit","99","404944","0.0-60.0-0.0","84480786","wem/bandit_either","A2TBXASXZIRNNW","either","1","","","","","","","0","0","1","0.2919400674","","0.4","0.2","0.6","0.8","","","","","0.2454385858","0.07848250716","0.2919400674","0.2184758186","","","","","","","75","K","2","","","21","main_expt"
"108","","bandit","100","406576","0.0-61.0-0.0","84480786","wem/bandit_either","A2TBXASXZIRNNW","either","1","","","","","","","1","0","0","0.2995681058","","0.4","0.2","0.6","0.8","","","","","0.2340842041","0.1005082742","0.2995681058","0.1849325376","","","","","","","75","K","2","","","22","main_expt"
"129","","bandit","101","408236","0.0-62.0-0.0","84480786","wem/bandit_either","A2TBXASXZIRNNW","either","1","","","","","","","1","0","0","0.292554742","","0.4","0.2","0.6","0.8","","","","","0.1840173947","0.0792694407","0.292554742","0.1521197653","","","","","","","75","K","2","","","23","main_expt"
"132","","bandit","102","409891","0.0-63.0-0.0","84480786","wem/bandit_either","A2TBXASXZIRNNW","either","1","","","","","","","0","0","1","0.3616894364","","0.4","0.2","0.6","0.8","","","","","0.1745529383","0.07358699385","0.3616894364","0.1759403195","","","","","","","75","K","2","","","24","main_expt"
"57","","bandit","103","411473","0.0-64.0-0.0","84480786","wem/bandit_either","A2TBXASXZIRNNW","either","1","","","","","","","0","0","1","0.3575757263","","0.4","0.2","0.6","0.8","","","","","0.1756582033","0.142208116","0.3575757263","0.09479311865","","","","","","","75","K","2","","","25","main_expt"
"101","","bandit","104","413093","0.0-65.0-0.0","84480786","wem/bandit_either","A2TBXASXZIRNNW","either","1","","","","","","","0","0","1","","0.3635346368","0.4","0.2","0.6","0.8","0.2086365416","0.1245113583","0.3635346368","0.08156123497","","","","","","","","","","","75","K","2","","","26","main_expt"
"119","","bandit","105","414737","0.0-66.0-0.0","84480786","wem/bandit_either","A2TBXASXZIRNNW","either","1","","","","","","","0","0","1","0.118364605","","0.4","0.2","0.6","0.8","","","","","0.2139763749","0.118364605","0.4109801844","0.1102307873","","","","","","","74","J","1","","","27","main_expt"
"78","","bandit","106","416339","0.0-67.0-0.0","84480786","wem/bandit_either","A2TBXASXZIRNNW","either","1","","","","","","","0","0","1","","0.1105930361","0.4","0.2","0.6","0.8","0.1613483267","0.1105930361","0.3772962545","0.08274430796","","","","","","","","","","","74","J","1","","","28","main_expt"
"83","","bandit","107","417952","0.0-68.0-0.0","84480786","wem/bandit_either","A2TBXASXZIRNNW","either","1","","","","","","","0","0","1","","0.1118713044","0.4","0.2","0.6","0.8","0.1712488152","0.1118713044","0.3875745016","0.1086911099","","","","","","","","","","","74","J","1","","","29","main_expt"
"211","","bandit","108","419690","0.0-69.0-0.0","84480786","wem/bandit_either","A2TBXASXZIRNNW","either","1","","","","","","","0","1","0","","0.1675524316","0.4","0.2","0.6","0.8","0.1675524316","0.1914750456","0.3780019893","0.1116575632","","","","","","","","","","","72","H","0","img/none_selected.jpg","","30","main_expt"
"218","","bandit","109","421448","0.0-70.0-0.0","84480786","wem/bandit_either","A2TBXASXZIRNNW","either","1","","","","","","","0","0","1","","0.140325158","0.4","0.2","0.6","0.8","0.140325158","0.2367730164","0.416860241","0.07828091442","","","","","","","","","","","72","H","0","img/none_selected.jpg","","31","main_expt"
"146","","bandit","110","423109","0.0-71.0-0.0","84480786","wem/bandit_either","A2TBXASXZIRNNW","either","1","","","","","","","0","0","1","","0.1553940025","0.4","0.2","0.6","0.8","0.1553940025","0.2109574779","0.4242573056","0.07550395781","","","","","","","","","","","72","H","0","img/none_selected.jpg","","32","main_expt"
"168","","bandit","111","424817","0.0-72.0-0.0","84480786","wem/bandit_either","A2TBXASXZIRNNW","either","1","","","","","","","0","0","1","0.1925614924","","0.4","0.2","0.6","0.8","","","","","0.1925614924","0.2005542758","0.4185546122","0.1445529326","","","","","","","72","H","0","img/none_selected.jpg","","33","main_expt"
"935","","bandit","112","427300","0.0-73.0-0.0","84480786","wem/bandit_either","A2TBXASXZIRNNW","either","1","","","","","","","1","0","0","0.4268308419","","0.4","0.2","0.6","0.8","","","","","0.2150530123","0.180377021","0.4268308419","0.1091775744","","","","","","","75","K","2","","","34","main_expt"
"96","","bandit","113","428929","0.0-74.0-0.0","84480786","wem/bandit_either","A2TBXASXZIRNNW","either","1","","","","","","","1","0","0","0.4265642185","","0.4","0.2","0.6","0.8","","","","","0.2688968874","0.2111187229","0.4265642185","0.1297995116","","","","","","","75","K","2","","","35","main_expt"
"160","","bandit","114","430613","0.0-75.0-0.0","84480786","wem/bandit_either","A2TBXASXZIRNNW","either","1","","","","","","","0","0","1","0.4066287969","","0.4","0.2","0.6","0.8","","","","","0.2977459964","0.2119332756","0.4066287969","0.09468550628","","","","","","","75","K","2","","","36","main_expt"
"116","","bandit","115","432247","0.0-76.0-0.0","84480786","wem/bandit_either","A2TBXASXZIRNNW","either","1","","","","","","","1","0","0","0.4611471687","","0.4","0.2","0.6","0.8","","","","","0.2684429955","0.2256131965","0.4611471687","0.09396978408","","","","","","","75","K","2","","","37","main_expt"
"242","","bandit","116","434023","0.0-77.0-0.0","84480786","wem/bandit_either","A2TBXASXZIRNNW","either","1","","","","","","","0","0","1","","0.4482708269","0.4","0.2","0.6","0.8","0.2490186117","0.1975147253","0.4482708269","0.1062257399","","","","","","","","","","","75","K","2","","","38","main_expt"
"215","","bandit","117","435762","0.0-78.0-0.0","84480786","wem/bandit_either","A2TBXASXZIRNNW","either","1","","","","","","","1","0","0","0.4402774387","","0.4","0.2","0.6","0.8","","","","","0.2548033483","0.1595648847","0.4402774387","0.09676453159","","","","","","","75","K","2","","","39","main_expt"
"242","","bandit","118","437529","0.0-79.0-0.0","84480786","wem/bandit_either","A2TBXASXZIRNNW","either","1","","","","","","","0","0","1","0.4385128538","","0.4","0.2","0.6","0.8","","","","","0.2688720753","0.1626610004","0.4385128538","0.08197179495","","","","","","","75","K","2","","","40","main_expt"
"132","","bandit","119","439193","0.0-80.0-0.0","84480786","wem/bandit_either","A2TBXASXZIRNNW","either","1","","","","","","","0","0","1","0.4380640779","","0.4","0.2","0.6","0.8","","","","","0.297778532","0.1982402655","0.4380640779","0.14416382","","","","","","","75","K","2","","","41","main_expt"
"147","","bandit","120","440864","0.0-81.0-0.0","84480786","wem/bandit_either","A2TBXASXZIRNNW","either","1","","","","","","","0","0","1","0.1070927036","","0.4","0.2","0.6","0.8","","","","","0.2449207522","0.1863610343","0.4265224768","0.1070927036","","","","","","","76","L","3","","","42","main_expt"
"196","","bandit","121","442578","0.0-82.0-0.0","84480786","wem/bandit_either","A2TBXASXZIRNNW","either","1","","","","","","","1","0","0","0.2457567503","","0.4","0.2","0.6","0.8","","","","","0.2457567503","0.2418389683","0.435880106","0.1214526226","","","","","","","72","H","0","img/none_selected.jpg","","43","main_expt"
"98","","bandit","122","444209","0.0-83.0-0.0","84480786","wem/bandit_either","A2TBXASXZIRNNW","either","1","","","","","","","0","0","1","","0.2432732657","0.4","0.2","0.6","0.8","0.2432732657","0.1943491227","0.4450576882","0.1450738833","","","","","","","","","","","72","H","0","img/none_selected.jpg","","44","main_expt"
"134","","bandit","123","445875","0.0-84.0-0.0","84480786","wem/bandit_either","A2TBXASXZIRNNW","either","1","","","","","","","0","0","1","","0.2656772236","0.4","0.2","0.6","0.8","0.2656772236","0.1543250971","0.4382030275","0.09632230927","","","","","","","","","","","72","H","0","img/none_selected.jpg","","45","main_expt"
"104","","bandit","124","447512","0.0-85.0-0.0","84480786","wem/bandit_either","A2TBXASXZIRNNW","either","1","","","","","","","0","0","1","","0.09719433791","0.4","0.2","0.6","0.8","0.2432112423","0.09719433791","0.4412369426","0.103211431","","","","","","","","","","","74","J","1","","","46","main_expt"
"193","","bandit","125","449237","0.0-86.0-0.0","84480786","wem/bandit_either","A2TBXASXZIRNNW","either","1","","","","","","","1","0","0","0.1228880329","","0.4","0.2","0.6","0.8","","","","","0.2992745976","0.1228880329","0.4588863431","0.09916324924","","","","","","","74","J","1","","","47","main_expt"
"215","","bandit","126","450986","0.0-87.0-0.0","84480786","wem/bandit_either","A2TBXASXZIRNNW","either","1","","","","","","","0","0","1","","0.1068532567","0.4","0.2","0.6","0.8","0.2594611615","0.1068532567","0.4408788818","0.1090242341","","","","","","","","","","","74","J","1","","","48","main_expt"
"169","","bandit","127","452676","0.0-88.0-0.0","84480786","wem/bandit_either","A2TBXASXZIRNNW","either","1","","","","","","","1","0","0","0.1044048509","","0.4","0.2","0.6","0.8","","","","","0.2767916858","0.1044048509","0.4232064109","0.1265186769","","","","","","","74","J","1","","","49","main_expt"
"178","","bandit","128","454386","0.0-89.0-0.0","84480786","wem/bandit_either","A2TBXASXZIRNNW","either","1","","","","","","","0","0","1","","0.1072026782","0.4","0.2","0.6","0.8","0.2762534014","0.1072026782","0.4210883962","0.1397440907","","","","","","","","","","","74","J","1","","","50","main_expt"
"73","","bandit","129","455981","0.0-90.0-0.0","84480786","wem/bandit_either","A2TBXASXZIRNNW","either","1","","","","","","","0","0","1","","0.1287882573","0.4","0.2","0.6","0.8","0.3379376541","0.1287882573","0.4225635581","0.153600331","","","","","","","","","","","74","J","1","","","51","main_expt"
"139","","bandit","130","457645","0.0-91.0-0.0","84480786","wem/bandit_either","A2TBXASXZIRNNW","either","1","","","","","","","0","0","1","","0.1298059469","0.4","0.2","0.6","0.8","0.3395267946","0.1298059469","0.4146237098","0.1718407591","","","","","","","","","","","74","J","1","","","52","main_expt"
"38","","bandit","131","459201","0.0-92.0-0.0","84480786","wem/bandit_either","A2TBXASXZIRNNW","either","1","","","","","","","0","0","1","0.3763623321","","0.4","0.2","0.6","0.8","","","","","0.29674647","0.07423060895","0.3763623321","0.1945727614","","","","","","","75","K","2","","","53","main_expt"
"170","","bandit","132","460903","0.0-93.0-0.0","84480786","wem/bandit_either","A2TBXASXZIRNNW","either","1","","","","","","","1","0","0","0.3289081181","","0.4","0.2","0.6","0.8","","","","","0.3372955831","0.08562383645","0.3289081181","0.2450542523","","","","","","","75","K","2","","","54","main_expt"
"132","","bandit","133","462549","0.0-94.0-0.0","84480786","wem/bandit_either","A2TBXASXZIRNNW","either","1","","","","","","","0","1","0","","0.3025984711","0.4","0.2","0.6","0.8","0.3506099842","0.0757818623","0.3025984711","0.2547241938","","","","","","","","","","","75","K","2","","","55","main_expt"
"191","","bandit","134","464278","0.0-95.0-0.0","84480786","wem/bandit_either","A2TBXASXZIRNNW","either","1","","","","","","","0","1","0","","0.2921333137","0.4","0.2","0.6","0.8","0.3418029788","0.09897923035","0.2921333137","0.2595112895","","","","","","","","","","","75","K","2","","","56","main_expt"
"98","","bandit","135","465888","0.0-96.0-0.0","84480786","wem/bandit_either","A2TBXASXZIRNNW","either","1","","","","","","","1","0","0","0.3317177772","","0.4","0.2","0.6","0.8","","","","","0.3162475816","0.1160875525","0.3317177772","0.2610276213","","","","","","","75","K","2","","","57","main_expt"
"212","","bandit","136","467634","0.0-97.0-0.0","84480786","wem/bandit_either","A2TBXASXZIRNNW","either","1","","","","","","","0","0","1","0.3240244649","","0.4","0.2","0.6","0.8","","","","","0.3269881105","0.1134641846","0.3240244649","0.2354201416","","","","","","","75","K","2","","","58","main_expt"
"146","","bandit","137","469321","0.0-98.0-0.0","84480786","wem/bandit_either","A2TBXASXZIRNNW","either","1","","","","","","","0","0","1","","0.2988076671","0.4","0.2","0.6","0.8","0.2901324944","0.1177083384","0.2988076671","0.2346370837","","","","","","","","","","","75","K","2","","","59","main_expt"
"123","","bandit","138","470974","0.0-99.0-0.0","84480786","wem/bandit_either","A2TBXASXZIRNNW","either","1","","","","","","","0","0","1","","0.3096792726","0.4","0.2","0.6","0.8","0.289588464","0.1125723432","0.3096792726","0.2315637733","","","","","","","","","","","75","K","2","","","60","main_expt"
"165","","bandit","139","472665","0.0-100.0-0.0","84480786","wem/bandit_either","A2TBXASXZIRNNW","either","1","","","","","","","0","0","1","0.2821336973","","0.4","0.2","0.6","0.8","","","","","0.2782845563","0.09911093426","0.2821336973","0.2599537756","","","","","","","75","K","2","","","61","main_expt"
"0","","bandit","140","474208","0.0-101.0-0.0","84480786","wem/bandit_either","A2TBXASXZIRNNW","either","1","","","","","","","0","0","1","0.2594941563","","0.4","0.2","0.6","0.8","","","","","0.3165490401","0.09440438105","0.2414244345","0.2594941563","","","","","","","76","L","3","","","62","main_expt"
"206","","bandit","141","475950","0.0-102.0-0.0","84480786","wem/bandit_either","A2TBXASXZIRNNW","either","1","","","","","","","0","0","1","0.2660839385","","0.4","0.2","0.6","0.8","","","","","0.3034564924","0.1015409351","0.213639373","0.2660839385","","","","","","","76","L","3","","","63","main_expt"
"98","","bandit","142","477575","0.0-103.0-0.0","84480786","wem/bandit_either","A2TBXASXZIRNNW","either","1","","","","","","","0","0","1","","0.07049798599","0.4","0.2","0.6","0.8","0.2506654962","0.07049798599","0.1876308072","0.2426585031","","","","","","","","","","","74","J","1","","","64","main_expt"
"197","","bandit","143","479306","0.0-104.0-0.0","84480786","wem/bandit_either","A2TBXASXZIRNNW","either","1","","","","","","","0","1","0","","0.253414466","0.4","0.2","0.6","0.8","0.253414466","0.05735603507","0.1841803182","0.2581047566","","","","","","","","","","","72","H","0","img/none_selected.jpg","","65","main_expt"
"107","","bandit","144","480941","0.0-105.0-0.0","84480786","wem/bandit_either","A2TBXASXZIRNNW","either","1","","","","","","","0","0","1","","0.2836500186","0.4","0.2","0.6","0.8","0.2836500186","0.0621258055","0.187417598","0.2872127433","","","","","","","","","","","72","H","0","img/none_selected.jpg","","66","main_expt"
"184","","bandit","145","482650","0.0-106.0-0.0","84480786","wem/bandit_either","A2TBXASXZIRNNW","either","1","","","","","","","0","1","0","","0.3217852231","0.4","0.2","0.6","0.8","0.3217852231","0.06966106928","0.1395950637","0.3232337643","","","","","","","","","","","72","H","0","img/none_selected.jpg","","67","main_expt"
"193","","bandit","146","484361","0.0-107.0-0.0","84480786","wem/bandit_either","A2TBXASXZIRNNW","either","1","","","","","","","0","0","1","","0.3574581916","0.4","0.2","0.6","0.8","0.3574581916","0.09965709916","0.1363519197","0.3376006622","","","","","","","","","","","72","H","0","img/none_selected.jpg","","68","main_expt"
"122","","bandit","147","486017","0.0-108.0-0.0","84480786","wem/bandit_either","A2TBXASXZIRNNW","either","1","","","","","","","0","1","0","","0.3884563005","0.4","0.2","0.6","0.8","0.3884563005","0.1428217854","0.1117144852","0.2917609244","","","","","","","","","","","72","H","0","img/none_selected.jpg","","69","main_expt"
"187","","bandit","148","487724","0.0-109.0-0.0","84480786","wem/bandit_either","A2TBXASXZIRNNW","either","1","","","","","","","0","1","0","","0.3920047773","0.4","0.2","0.6","0.8","0.3920047773","0.1866845388","0.09667493602","0.2218665627","","","","","","","","","","","72","H","0","img/none_selected.jpg","","70","main_expt"
"87","","bandit","149","489350","0.0-110.0-0.0","84480786","wem/bandit_either","A2TBXASXZIRNNW","either","1","","","","","","","0","0","1","","0.4066376731","0.4","0.2","0.6","0.8","0.4066376731","0.1702545286","0.09186933139","0.2409383839","","","","","","","","","","","72","H","0","img/none_selected.jpg","","71","main_expt"
"112","","bandit","150","490992","0.0-111.0-0.0","84480786","wem/bandit_either","A2TBXASXZIRNNW","either","1","","","","","","","0","0","1","0.3443789926","","0.4","0.2","0.6","0.8","","","","","0.3443789926","0.1836279043","0.09472009463","0.1920783453","","","","","","","72","H","0","img/none_selected.jpg","","72","main_expt"
"121","","bandit","151","492636","0.0-112.0-0.0","84480786","wem/bandit_either","A2TBXASXZIRNNW","either","1","","","","","","","0","0","1","","0.3227553012","0.4","0.2","0.6","0.8","0.3227553012","0.1644348242","0.1167805336","0.1905254877","","","","","","","","","","","72","H","0","img/none_selected.jpg","","73","main_expt"
"430","","bandit","152","494596","0.0-113.0-0.0","84480786","wem/bandit_either","A2TBXASXZIRNNW","either","1","","","","","","","0","0","1","","0.1833421201","0.4","0.2","0.6","0.8","0.3336652139","0.1833421201","0.1465151254","0.184198213","","","","","","","","","","","74","J","1","","","74","main_expt"
"309","","bandit","153","496440","0.0-114.0-0.0","84480786","wem/bandit_either","A2TBXASXZIRNNW","either","1","","","","","","","0","0","1","0.1519653276","","0.4","0.2","0.6","0.8","","","","","0.2890150868","0.1519653276","0.123285719","0.1881920243","","","","","","","74","J","1","","","75","main_expt"
"171","","bandit","154","498143","0.0-115.0-0.0","84480786","wem/bandit_either","A2TBXASXZIRNNW","either","1","","","","","","","1","0","0","0.1392606081","","0.4","0.2","0.6","0.8","","","","","0.2673490463","0.1506622639","0.1392606081","0.1988930589","","","","","","","75","K","2","","","76","main_expt"
"164","","bandit","155","499833","0.0-116.0-0.0","84480786","wem/bandit_either","A2TBXASXZIRNNW","either","1","","","","","","","0","0","1","0.099337717","","0.4","0.2","0.6","0.8","","","","","0.2858541315","0.1860897766","0.099337717","0.2255968657","","","","","","","75","K","2","","","77","main_expt"
"110","","bandit","156","501476","0.0-117.0-0.0","84480786","wem/bandit_either","A2TBXASXZIRNNW","either","1","","","","","","","0","0","1","0.09666605973","","0.4","0.2","0.6","0.8","","","","","0.2639968829","0.1618556875","0.09666605973","0.1917014014","","","","","","","75","K","2","","","78","main_expt"
"123","","bandit","157","503128","0.0-118.0-0.0","84480786","wem/bandit_either","A2TBXASXZIRNNW","either","1","","","","","","","0","0","1","0.09639353985","","0.4","0.2","0.6","0.8","","","","","0.2304888896","0.1976853889","0.09639353985","0.2092129429","","","","","","","75","K","2","","","79","main_expt"
"268","","bandit","158","504928","0.0-119.0-0.0","84480786","wem/bandit_either","A2TBXASXZIRNNW","either","1","","","","","","","1","0","0","0.1974306726","","0.4","0.2","0.6","0.8","","","","","0.1991809665","0.2198838985","0.09566996791","0.1974306726","","","","","","","76","L","3","","","80","main_expt"
"204","","bandit","159","506654","0.0-120.0-0.0","84480786","wem/bandit_either","A2TBXASXZIRNNW","either","1","","","","","","","0","0","1","0.1414754506","","0.4","0.2","0.6","0.8","","","","","0.1627434897","0.2167005254","0.07958501382","0.1414754506","","","","","","","76","L","3","","","81","main_expt"
"241","","bandit","160","508422","0.0-121.0-0.0","84480786","wem/bandit_either","A2TBXASXZIRNNW","either","1","","","","","","","0","0","1","0.1422587364","","0.4","0.2","0.6","0.8","","","","","0.1624637972","0.2527486409","0.08833774835","0.1422587364","","","","","","","76","L","3","","","82","main_expt"
"239","","bandit","161","510188","0.0-122.0-0.0","84480786","wem/bandit_either","A2TBXASXZIRNNW","either","1","","","","","","","0","0","1","0.09109006352","","0.4","0.2","0.6","0.8","","","","","0.1900332","0.2569721607","0.09109006352","0.1079415531","","","","","","","75","K","2","","","83","main_expt"
"221","","bandit","162","511947","0.0-123.0-0.0","84480786","wem/bandit_either","A2TBXASXZIRNNW","either","1","","","","","","","0","0","1","","0.2535394321","0.4","0.2","0.6","0.8","0.1705646391","0.2535394321","0.05321730921","0.07696487024","","","","","","","","","","","74","J","1","","","84","main_expt"
"242","","bandit","163","513723","0.0-124.0-0.0","84480786","wem/bandit_either","A2TBXASXZIRNNW","either","1","","","","","","","0","0","1","0.2053302659","","0.4","0.2","0.6","0.8","","","","","0.2053302659","0.2255799186","0.03321009489","0.08313016423","","","","","","","72","H","0","img/none_selected.jpg","","85","main_expt"
"89","","bandit","164","515340","0.0-125.0-0.0","84480786","wem/bandit_either","A2TBXASXZIRNNW","either","1","","","","","","","0","0","1","0.102083396","","0.4","0.2","0.6","0.8","","","","","0.2128685413","0.2197080914","0.04864990798","0.102083396","","","","","","","76","L","3","","","86","main_expt"
"172","","bandit","165","517040","0.0-126.0-0.0","84480786","wem/bandit_either","A2TBXASXZIRNNW","either","1","","","","","","","0","0","1","0.09067070718","","0.4","0.2","0.6","0.8","","","","","0.213778815","0.2230338057","0.07919268752","0.09067070718","","","","","","","76","L","3","","","87","main_expt"
"115","","bandit","166","518683","0.0-127.0-0.0","84480786","wem/bandit_either","A2TBXASXZIRNNW","either","1","","","","","","","0","0","1","0.05835116993","","0.4","0.2","0.6","0.8","","","","","0.2102340809","0.2484269739","0.05835116993","0.1421970704","","","","","","","75","K","2","","","88","main_expt"
"135","","bandit","167","520378","0.0-128.0-0.0","84480786","wem/bandit_either","A2TBXASXZIRNNW","either","1","","","","","","","0","0","1","0.05115519592","","0.4","0.2","0.6","0.8","","","","","0.1809358483","0.2733562597","0.05115519592","0.219142046","","","","","","","75","K","2","","","89","main_expt"
"66","","bandit","168","521974","0.0-129.0-0.0","84480786","wem/bandit_either","A2TBXASXZIRNNW","either","1","","","","","","","0","0","1","","0.2973868449","0.4","0.2","0.6","0.8","0.1293356972","0.2973868449","0.07819273649","0.2806923657","","","","","","","","","","","74","J","1","","","90","main_expt"
"158","","bandit","169","523663","0.0-130.0-0.0","84480786","wem/bandit_either","A2TBXASXZIRNNW","either","1","","","","","","","0","0","1","","0.1136224352","0.4","0.2","0.6","0.8","0.1136224352","0.3067689268","0.05564661524","0.2819660137","","","","","","","","","","","72","H","0","img/none_selected.jpg","","91","main_expt"
"135","","bandit","170","525327","0.0-131.0-0.0","84480786","wem/bandit_either","A2TBXASXZIRNNW","either","1","","","","","","","0","0","1","0.3370305887","","0.4","0.2","0.6","0.8","","","","","0.07539152519","0.2719776188","0.05914103421","0.3370305887","","","","","","","76","L","3","","","92","main_expt"
"145","","bandit","171","527008","0.0-132.0-0.0","84480786","wem/bandit_either","A2TBXASXZIRNNW","either","1","","","","","","","0","0","1","0.3722719914","","0.4","0.2","0.6","0.8","","","","","0.08243558305","0.3081791896","0.03944324463","0.3722719914","","","","","","","76","L","3","","","93","main_expt"
"112","","bandit","172","528657","0.0-133.0-0.0","84480786","wem/bandit_either","A2TBXASXZIRNNW","either","1","","","","","","","1","0","0","0.3840030774","","0.4","0.2","0.6","0.8","","","","","0.09807673793","0.356667856","0.05023017475","0.3840030774","","","","","","","76","L","3","","","94","main_expt"
"126","","bandit","173","530315","0.0-134.0-0.0","84480786","wem/bandit_either","A2TBXASXZIRNNW","either","1","","","","","","","0","0","1","0.4050844552","","0.4","0.2","0.6","0.8","","","","","0.09746204728","0.3300765204","0.07311956304","0.4050844552","","","","","","","76","L","3","","","95","main_expt"
"200","","bandit","174","532046","0.0-135.0-0.0","84480786","wem/bandit_either","A2TBXASXZIRNNW","either","1","","","","","","","1","0","0","0.4081076376","","0.4","0.2","0.6","0.8","","","","","0.08559835745","0.3642735905","0.09573717159","0.4081076376","","","","","","","76","L","3","","","96","main_expt"
"133","","bandit","175","533711","0.0-136.0-0.0","84480786","wem/bandit_either","A2TBXASXZIRNNW","either","1","","","","","","","1","0","0","0.4142780263","","0.4","0.2","0.6","0.8","","","","","0.0732645996","0.3885664579","0.1235519285","0.4142780263","","","","","","","76","L","3","","","97","main_expt"
"215","","bandit","176","535453","0.0-137.0-0.0","84480786","wem/bandit_either","A2TBXASXZIRNNW","either","1","","","","","","","0","0","1","0.4131193208","","0.4","0.2","0.6","0.8","","","","","0.05343209845","0.4162912028","0.1274282425","0.4131193208","","","","","","","76","L","3","","","98","main_expt"
"259","","bandit","177","537232","0.0-138.0-0.0","84480786","wem/bandit_either","A2TBXASXZIRNNW","either","1","","","","","","","1","0","0","0.428944851","","0.4","0.2","0.6","0.8","","","","","0.05144299931","0.4074153657","0.1457321849","0.428944851","","","","","","","76","L","3","","","99","main_expt"
"341","","bandit","178","539122","0.0-139.0-0.0","84480786","wem/bandit_either","A2TBXASXZIRNNW","either","1","","","","","","","1","0","0","0.4279797645","","0.4","0.2","0.6","0.8","","","","","0.03934302155","0.3349137267","0.1492128348","0.4279797645","","","","","","","76","L","3","","","100","main_expt"
"218","","bandit","179","540864","0.0-140.0-0.0","84480786","wem/bandit_either","A2TBXASXZIRNNW","either","1","","","","","","","0","0","1","0.4189249443","","0.4","0.2","0.6","0.8","","","","","0.05783306622","0.2732947861","0.125019219","0.4189249443","","","","","","","76","L","3","","","101","main_expt"
"299","","bandit","180","542676","0.0-141.0-0.0","84480786","wem/bandit_either","A2TBXASXZIRNNW","either","1","","","","","","","0","0","1","","0.4279241466","0.4","0.2","0.6","0.8","0.06484492547","0.2584454073","0.1008510245","0.4279241466","","","","","","","","","","","76","L","3","","","102","main_expt"
"324","","bandit","181","544543","0.0-142.0-0.0","84480786","wem/bandit_either","A2TBXASXZIRNNW","either","1","","","","","","","0","0","1","0.419390052","","0.4","0.2","0.6","0.8","","","","","0.0701259157","0.2143891894","0.1087281004","0.419390052","","","","","","","76","L","3","","","103","main_expt"
"331","","bandit","182","546399","0.0-143.0-0.0","84480786","wem/bandit_either","A2TBXASXZIRNNW","either","1","","","","","","","0","0","1","0.3761202226","","0.4","0.2","0.6","0.8","","","","","0.06922647753","0.1354346047","0.143855427","0.3761202226","","","","","","","76","L","3","","","104","main_expt"
"300","","bandit","183","548234","0.0-144.0-0.0","84480786","wem/bandit_either","A2TBXASXZIRNNW","either","1","","","","","","","0","1","0","","0.4229881466","0.4","0.2","0.6","0.8","0.07802312096","0.1615963473","0.1606853024","0.4229881466","","","","","","","","","","","76","L","3","","","105","main_expt"
"165","","bandit","184","549926","0.0-145.0-0.0","84480786","wem/bandit_either","A2TBXASXZIRNNW","either","1","","","","","","","1","0","0","0.4110558218","","0.4","0.2","0.6","0.8","","","","","0.08930313369","0.1738621023","0.1612939645","0.4110558218","","","","","","","76","L","3","","","106","main_expt"
"419","","bandit","185","551878","0.0-146.0-0.0","84480786","wem/bandit_either","A2TBXASXZIRNNW","either","1","","","","","","","0","0","1","0.4176599015","","0.4","0.2","0.6","0.8","","","","","0.1397733654","0.1799671425","0.1778053335","0.4176599015","","","","","","","76","L","3","","","107","main_expt"
"86","","bandit","186","553485","0.0-147.0-0.0","84480786","wem/bandit_either","A2TBXASXZIRNNW","either","1","","","","","","","1","0","0","0.1826465361","","0.4","0.2","0.6","0.8","","","","","0.1505899732","0.1844274074","0.1826465361","0.4210396584","","","","","","","75","K","2","","","108","main_expt"
"153","","bandit","187","555172","0.0-148.0-0.0","84480786","wem/bandit_either","A2TBXASXZIRNNW","either","1","","","","","","","1","0","0","0.1737022726","","0.4","0.2","0.6","0.8","","","","","0.1162436109","0.1702708828","0.1737022726","0.4328015469","","","","","","","75","K","2","","","109","main_expt"
"437","","bandit","188","557143","0.0-149.0-0.0","84480786","wem/bandit_either","A2TBXASXZIRNNW","either","1","","","","","","","0","0","1","","0.1658344406","0.4","0.2","0.6","0.8","0.08267976014","0.1964407335","0.1658344406","0.4495585744","","","","","","","","","","","75","K","2","","","110","main_expt"
"59","","bandit","189","558724","0.0-150.0-0.0","84480786","wem/bandit_either","A2TBXASXZIRNNW","either","1","","","","","","","0","0","1","0.240619448","","0.4","0.2","0.6","0.8","","","","","0.09389793805","0.1777579569","0.240619448","0.4237631325","","","","","","","75","K","2","","","111","main_expt"
"1328","","bandit","190","561599","0.0-151.0-0.0","84480786","wem/bandit_either","A2TBXASXZIRNNW","either","1","","","","","","","0","0","1","0.1927397719","","0.4","0.2","0.6","0.8","","","","","0.07903418564","0.1395994444","0.1927397719","0.4521571561","","","","","","","75","K","2","","","112","main_expt"
"221","","bandit","191","563347","0.0-152.0-0.0","84480786","wem/bandit_either","A2TBXASXZIRNNW","either","1","","","","","","","1","0","0","0.4350762846","","0.4","0.2","0.6","0.8","","","","","0.05501139052","0.1205999431","0.234725565","0.4350762846","","","","","","","76","L","3","","","113","main_expt"
"329","","bandit","192","565185","0.0-153.0-0.0","84480786","wem/bandit_either","A2TBXASXZIRNNW","either","1","","","","","","","0","0","1","0.4315824664","","0.4","0.2","0.6","0.8","","","","","0.07627702456","0.09123355482","0.1950215869","0.4315824664","","","","","","","76","L","3","","","114","main_expt"
"1174","","bandit","193","567877","0.0-154.0-0.0","84480786","wem/bandit_either","A2TBXASXZIRNNW","either","1","","","","","","","0","0","1","0.4127349624","","0.4","0.2","0.6","0.8","","","","","0.03985247356","0.09554471192","0.2575833325","0.4127349624","","","","","","","76","L","3","","","115","main_expt"
"1242","","bandit","194","570649","0.0-155.0-0.0","84480786","wem/bandit_either","A2TBXASXZIRNNW","either","1","","","","","","","1","0","0","0.4468356006","","0.4","0.2","0.6","0.8","","","","","0.0683792979","0.1942182492","0.2296468005","0.4468356006","","","","","","","76","L","3","","","116","main_expt"
"192","","bandit","195","572377","0.0-156.0-0.0","84480786","wem/bandit_either","A2TBXASXZIRNNW","either","1","","","","","","","0","0","1","","0.4458703805","0.4","0.2","0.6","0.8","0.03956212276","0.2208250117","0.2816483341","0.4458703805","","","","","","","","","","","76","L","3","","","117","main_expt"
"625","","bandit","196","574531","0.0-157.0-0.0","84480786","wem/bandit_either","A2TBXASXZIRNNW","either","1","","","","","","","0","0","1","0.2626769985","","0.4","0.2","0.6","0.8","","","","","0.04459229253","0.1687975443","0.2626769985","0.4500370674","","","","","","","75","K","2","","","118","main_expt"
"169","","bandit","197","576228","0.0-158.0-0.0","84480786","wem/bandit_either","A2TBXASXZIRNNW","either","1","","","","","","","1","0","0","0.4704359259","","0.4","0.2","0.6","0.8","","","","","0.03386957434","0.1546105485","0.2418090277","0.4704359259","","","","","","","76","L","3","","","119","main_expt"
"270","","bandit","198","578038","0.0-159.0-0.0","84480786","wem/bandit_either","A2TBXASXZIRNNW","either","1","","","","","","","1","0","0","0.4578798539","","0.4","0.2","0.6","0.8","","","","","0.03305427522","0.143668411","0.2603236095","0.4578798539","","","","","","","76","L","3","","","120","main_expt"
"374","","bandit","199","579941","0.0-160.0-0.0","84480786","wem/bandit_either","A2TBXASXZIRNNW","either","1","","","","","","","0","0","1","0.4591190262","","0.4","0.2","0.6","0.8","","","","","0.03146098963","0.1098317425","0.2381785671","0.4591190262","","","","","","","76","L","3","","","121","main_expt"
"343","","bandit","200","581813","0.0-161.0-0.0","84480786","wem/bandit_either","A2TBXASXZIRNNW","either","1","","","","","","","0","0","1","","0.4643737298","0.4","0.2","0.6","0.8","0.02311797033","0.1097832873","0.2388462554","0.4643737298","","","","","","","","","","","76","L","3","","","122","main_expt"
"153","","bandit","201","583508","0.0-162.0-0.0","84480786","wem/bandit_either","A2TBXASXZIRNNW","either","1","","","","","","","0","0","1","","0.2079929623","0.4","0.2","0.6","0.8","0.0171261738","0.1145900252","0.2079929623","0.451586091","","","","","","","","","","","75","K","2","","","123","main_expt"
"177","","bandit","202","585212","0.0-163.0-0.0","84480786","wem/bandit_either","A2TBXASXZIRNNW","either","1","","","","","","","0","0","1","","0.2148400852","0.4","0.2","0.6","0.8","0.03468299263","0.1137783892","0.2148400852","0.4456906556","","","","","","","","","","","75","K","2","","","124","main_expt"
"141","","bandit","203","586889","0.0-164.0-0.0","84480786","wem/bandit_either","A2TBXASXZIRNNW","either","1","","","","","","","0","0","1","0.4240876494","","0.4","0.2","0.6","0.8","","","","","0.02544516396","0.145605256","0.2185056602","0.4240876494","","","","","","","76","L","3","","","125","main_expt"
"52","","bandit","204","588458","0.0-165.0-0.0","84480786","wem/bandit_either","A2TBXASXZIRNNW","either","1","","","","","","","1","0","0","0.4008501573","","0.4","0.2","0.6","0.8","","","","","0.03059506073","0.1443839055","0.2152323899","0.4008501573","","","","","","","76","L","3","","","126","main_expt"
"346","","bandit","205","590331","0.0-166.0-0.0","84480786","wem/bandit_either","A2TBXASXZIRNNW","either","1","","","","","","","0","0","1","0.4066073101","","0.4","0.2","0.6","0.8","","","","","0.0339638967","0.1434222382","0.1699446714","0.4066073101","","","","","","","76","L","3","","","127","main_expt"
"83","","bandit","206","591941","0.0-167.0-0.0","84480786","wem/bandit_either","A2TBXASXZIRNNW","either","1","","","","","","","0","0","1","","0.4270302575","0.4","0.2","0.6","0.8","0.02632978063","0.1412168693","0.1299446217","0.4270302575","","","","","","","","","","","76","L","3","","","128","main_expt"
"402","","bandit","207","593871","0.0-168.0-0.0","84480786","wem/bandit_either","A2TBXASXZIRNNW","either","1","","","","","","","0","0","1","","0.1086871361","0.4","0.2","0.6","0.8","0.02640977482","0.1086871361","0.1299487573","0.4401824822","","","","","","","","","","","74","J","1","","","129","main_expt"
"335","","bandit","208","595731","0.0-169.0-0.0","84480786","wem/bandit_either","A2TBXASXZIRNNW","either","1","","","","","","","0","0","1","","0.03646961518","0.4","0.2","0.6","0.8","0.03646961518","0.1672766288","0.1172580566","0.4160959849","","","","","","","","","","","72","H","0","img/none_selected.jpg","","130","main_expt"
"138","","bandit","209","597413","0.0-170.0-0.0","84480786","wem/bandit_either","A2TBXASXZIRNNW","either","1","","","","","","","1","0","0","0.4374535298","","0.4","0.2","0.6","0.8","","","","","0.02171712127","0.157110596","0.1289979545","0.4374535298","","","","","","","76","L","3","","","131","main_expt"
"359","","bandit","210","599315","0.0-171.0-0.0","84480786","wem/bandit_either","A2TBXASXZIRNNW","either","1","","","","","","","0","0","1","","0.4382483821","0.4","0.2","0.6","0.8","0.01004766493","0.1338697581","0.1243754988","0.4382483821","","","","","","","","","","","76","L","3","","","132","main_expt"
"485","","bandit","211","601340","0.0-172.0-0.0","84480786","wem/bandit_either","A2TBXASXZIRNNW","either","1","","","","","","","1","0","0","0.3913946914","","0.4","0.2","0.6","0.8","","","","","0.005153708139","0.1101669797","0.1189203389","0.3913946914","","","","","","","76","L","3","","","133","main_expt"
"385","","bandit","212","603255","0.0-173.0-0.0","84480786","wem/bandit_either","A2TBXASXZIRNNW","either","1","","","","","","","1","0","0","0.4280120537","","0.4","0.2","0.6","0.8","","","","","0.01308543257","0.060775537","0.07075860378","0.4280120537","","","","","","","76","L","3","","","134","main_expt"
"324","","bandit","213","605104","0.0-174.0-0.0","84480786","wem/bandit_either","A2TBXASXZIRNNW","either","1","","","","","","","0","0","1","","0.4385213509","0.4","0.2","0.6","0.8","0.02634180281","0.0714416082","0.1073185777","0.4385213509","","","","","","","","","","","76","L","3","","","135","main_expt"
"205","","bandit","214","606855","0.0-175.0-0.0","84480786","wem/bandit_either","A2TBXASXZIRNNW","either","1","","","","","","","0","0","1","0.4605212521","","0.4","0.2","0.6","0.8","","","","","0.04122629063","0.1115096907","0.1001442491","0.4605212521","","","","","","","76","L","3","","","136","main_expt"
"81","","bandit","215","608451","0.0-176.0-0.0","84480786","wem/bandit_either","A2TBXASXZIRNNW","either","1","","","","","","","0","0","1","0.1736681681","","0.4","0.2","0.6","0.8","","","","","0.05517648788","0.1307091067","0.1736681681","0.4729500637","","","","","","","75","K","2","","","137","main_expt"
"208","","bandit","216","610184","0.0-177.0-0.0","84480786","wem/bandit_either","A2TBXASXZIRNNW","either","1","","","","","","","1","0","0","0.4705425907","","0.4","0.2","0.6","0.8","","","","","0.05929415862","0.1289533412","0.1839908368","0.4705425907","","","","","","","76","L","3","","","138","main_expt"
"108","","bandit","217","611816","0.0-178.0-0.0","84480786","wem/bandit_either","A2TBXASXZIRNNW","either","1","","","","","","","0","0","1","0.465423541","","0.4","0.2","0.6","0.8","","","","","0.05470710098","0.1215972271","0.1500833973","0.465423541","","","","","","","76","L","3","","","139","main_expt"
"141","","bandit","218","613506","0.0-179.0-0.0","84480786","wem/bandit_either","A2TBXASXZIRNNW","either","1","","","","","","","0","0","1","0.4486857012","","0.4","0.2","0.6","0.8","","","","","0.06062538604","0.1158179575","0.1718879457","0.4486857012","","","","","","","76","L","3","","","140","main_expt"
"105","","bandit","219","615148","0.0-180.0-0.0","84480786","wem/bandit_either","A2TBXASXZIRNNW","either","1","","","","","","","0","0","1","0.4053061298","","0.4","0.2","0.6","0.8","","","","","0.05819772386","0.08691297649","0.2025036279","0.4053061298","","","","","","","76","L","3","","","141","main_expt"
"127","","bandit","220","616799","0.0-181.0-0.0","84480786","wem/bandit_either","A2TBXASXZIRNNW","either","1","","","","","","","1","0","0","0.3989731656","","0.4","0.2","0.6","0.8","","","","","0.05329701838","0.1425267255","0.1872564568","0.3989731656","","","","","","","76","L","3","","","142","main_expt"
"113","","bandit","221","618460","0.0-182.0-0.0","84480786","wem/bandit_either","A2TBXASXZIRNNW","either","1","","","","","","","0","0","1","","0.3783570596","0.4","0.2","0.6","0.8","0.06209903385","0.1425141192","0.1676641842","0.3783570596","","","","","","","","","","","76","L","3","","","143","main_expt"
"44","","bandit","222","620035","0.0-183.0-0.0","84480786","wem/bandit_either","A2TBXASXZIRNNW","either","1","","","","","","","0","1","0","","0.3485663762","0.4","0.2","0.6","0.8","0.06954729647","0.1362652721","0.1502987652","0.3485663762","","","","","","","","","","","76","L","3","","","144","main_expt"
"97","","bandit","223","621671","0.0-184.0-0.0","84480786","wem/bandit_either","A2TBXASXZIRNNW","either","1","","","","","","","0","0","1","0.3534190037","","0.4","0.2","0.6","0.8","","","","","0.062760129","0.1335650053","0.1050568962","0.3534190037","","","","","","","76","L","3","","","145","main_expt"
"108","","bandit","224","623326","0.0-185.0-0.0","84480786","wem/bandit_either","A2TBXASXZIRNNW","either","1","","","","","","","0","0","1","0.342282706","","0.4","0.2","0.6","0.8","","","","","0.05014677947","0.1392461982","0.1266784727","0.342282706","","","","","","","76","L","3","","","146","main_expt"
"69","","bandit","225","624933","0.0-186.0-0.0","84480786","wem/bandit_either","A2TBXASXZIRNNW","either","1","","","","","","","1","0","0","0.3497384939","","0.4","0.2","0.6","0.8","","","","","0.04801868921","0.1060810453","0.1121887101","0.3497384939","","","","","","","76","L","3","","","147","main_expt"
"148","","bandit","226","626605","0.0-187.0-0.0","84480786","wem/bandit_either","A2TBXASXZIRNNW","either","1","","","","","","","0","0","1","0.3507348305","","0.4","0.2","0.6","0.8","","","","","0.05298179562","0.1076054289","0.1050077765","0.3507348305","","","","","","","76","L","3","","","148","main_expt"
"76","","bandit","227","628198","0.0-188.0-0.0","84480786","wem/bandit_either","A2TBXASXZIRNNW","either","1","","","","","","","0","0","1","0.306786392","","0.4","0.2","0.6","0.8","","","","","0.05271587927","0.09143227578","0.08725679698","0.306786392","","","","","","","76","L","3","","","149","main_expt"
"56","","bandit","228","629785","0.0-189.0-0.0","84480786","wem/bandit_either","A2TBXASXZIRNNW","either","1","","","","","","","0","0","1","0.3289077467","","0.4","0.2","0.6","0.8","","","","","0.06153260368","0.08361181256","0.04813781364","0.3289077467","","","","","","","76","L","3","","","150","main_expt"
"26","","bandit","229","631350","0.0-190.0-0.0","84480786","wem/bandit_either","A2TBXASXZIRNNW","either","1","","","","","","","0","0","1","0.04690393958","","0.4","0.2","0.6","0.8","","","","","0.07716317934","0.1038450747","0.04690393958","0.2844912386","","","","","","","75","K","2","","","151","main_expt"
"96","","bandit","230","632993","0.0-191.0-0.0","84480786","wem/bandit_either","A2TBXASXZIRNNW","either","1","","","","","","","0","0","1","0.05051779207","","0.4","0.2","0.6","0.8","","","","","0.08370894892","0.1311897928","0.05051779207","0.3221551402","","","","","","","75","K","2","","","152","main_expt"
"71","","bandit","231","634609","0.0-192.0-0.0","84480786","wem/bandit_either","A2TBXASXZIRNNW","either","1","","","","","","","0","0","1","","0.1106636196","0.4","0.2","0.6","0.8","0.06235129306","0.1106636196","0.0417019452","0.288581716","","","","","","","","","","","74","J","1","","","153","main_expt"
"205","","bandit","232","636365","0.0-193.0-0.0","84480786","wem/bandit_either","A2TBXASXZIRNNW","either","1","","","","","","","0","0","1","","0.08044616817","0.4","0.2","0.6","0.8","0.08808261531","0.08044616817","0.04565059468","0.3674714493","","","","","","","","","","","74","J","1","","","154","main_expt"
"171","","bandit","233","638076","0.0-194.0-0.0","84480786","wem/bandit_either","A2TBXASXZIRNNW","either","1","","","","","","","0","0","1","","0.08415746701","0.4","0.2","0.6","0.8","0.08415746701","0.09849608375","0.0249337719","0.3836765626","","","","","","","","","","","72","H","0","img/none_selected.jpg","","155","main_expt"
"114","","bandit","234","639737","0.0-195.0-0.0","84480786","wem/bandit_either","A2TBXASXZIRNNW","either","1","","","","","","","0","0","1","0.1363215429","","0.4","0.2","0.6","0.8","","","","","0.1363215429","0.0679626842","0.0207568711","0.3499766022","","","","","","","72","H","0","img/none_selected.jpg","","156","main_expt"
"175","","bandit","235","641461","0.0-196.0-0.0","84480786","wem/bandit_either","A2TBXASXZIRNNW","either","1","","","","","","","0","0","1","0.3083455354","","0.4","0.2","0.6","0.8","","","","","0.176329139","0.06316877849","0.01044871803","0.3083455354","","","","","","","76","L","3","","","157","main_expt"
"142","","bandit","236","643126","0.0-197.0-0.0","84480786","wem/bandit_either","A2TBXASXZIRNNW","either","1","","","","","","","0","0","1","0.2780985587","","0.4","0.2","0.6","0.8","","","","","0.2239815039","0.06381796224","0.008486032171","0.2780985587","","","","","","","76","L","3","","","158","main_expt"
"192","","bandit","237","644860","0.0-198.0-0.0","84480786","wem/bandit_either","A2TBXASXZIRNNW","either","1","","","","","","","0","0","1","0.2721424699","","0.4","0.2","0.6","0.8","","","","","0.1754735631","0.09986374221","0.006770001311","0.2721424699","","","","","","","76","L","3","","","159","main_expt"
"172","","bandit","238","646550","0.0-199.0-0.0","84480786","wem/bandit_either","A2TBXASXZIRNNW","either","1","","","","","","","0","0","1","0.005009972043","","0.4","0.2","0.6","0.8","","","","","0.1820859676","0.08334790929","0.005009972043","0.3005636977","","","","","","","75","K","2","","","160","main_expt"
"188","","bandit","239","648273","0.0-200.0-0.0","84480786","wem/bandit_either","A2TBXASXZIRNNW","either","1","","","","","","","0","0","1","","0.1094566723","0.4","0.2","0.6","0.8","0.1771527669","0.1094566723","0.003825417776","0.2481613967","","","","","","","","","","","74","J","1","","","161","main_expt"
"227","","bandit","240","650037","0.0-201.0-0.0","84480786","wem/bandit_either","A2TBXASXZIRNNW","either","1","","","","","","","0","1","0","","0.209245514","0.4","0.2","0.6","0.8","0.209245514","0.1287108975","0.006458278423","0.2040880477","","","","","","","","","","","72","H","0","img/none_selected.jpg","","162","main_expt"
"216","","bandit","241","651793","0.0-202.0-0.0","84480786","wem/bandit_either","A2TBXASXZIRNNW","either","1","","","","","","","0","0","1","0.1864252411","","0.4","0.2","0.6","0.8","","","","","0.1864252411","0.1811808859","0.01344146107","0.256608811","","","","","","","72","H","0","img/none_selected.jpg","","163","main_expt"
"115","","bandit","242","653455","0.0-203.0-0.0","84480786","wem/bandit_either","A2TBXASXZIRNNW","either","1","","","","","","","0","0","1","0.1662237337","","0.4","0.2","0.6","0.8","","","","","0.1662237337","0.1374611454","0.004940614731","0.2798468236","","","","","","","72","H","0","img/none_selected.jpg","","164","main_expt"
"112","","bandit","243","655090","0.0-204.0-0.0","84480786","wem/bandit_either","A2TBXASXZIRNNW","either","1","","","","","","","0","0","1","0.1375661656","","0.4","0.2","0.6","0.8","","","","","0.1375661656","0.1640313333","0.007349038951","0.2689568899","","","","","","","72","H","0","img/none_selected.jpg","","165","main_expt"
"300","","bandit","244","656921","0.0-205.0-0.0","84480786","wem/bandit_either","A2TBXASXZIRNNW","either","1","","","","","","","0","0","1","","0.20052236","0.4","0.2","0.6","0.8","0.1416727521","0.20052236","0.005679103294","0.2786045926","","","","","","","","","","","74","J","1","","","166","main_expt"
"44","","bandit","245","658483","0.0-206.0-0.0","84480786","wem/bandit_either","A2TBXASXZIRNNW","either","1","","","","","","","0","0","1","","0.1945206589","0.4","0.2","0.6","0.8","0.1497541138","0.1945206589","0.004037182679","0.2507583434","","","","","","","","","","","74","J","1","","","167","main_expt"
"197","","bandit","246","660233","0.0-207.0-0.0","84480786","wem/bandit_either","A2TBXASXZIRNNW","either","1","","","","","","","0","0","1","","0.007111326723","0.4","0.2","0.6","0.8","0.1761460581","0.1902154162","0.007111326723","0.1827624484","","","","","","","","","","","75","K","2","","","168","main_expt"
"54","","bandit","247","661817","0.0-208.0-0.0","84480786","wem/bandit_either","A2TBXASXZIRNNW","either","1","","","","","","","0","0","1","","0.01708305062","0.4","0.2","0.6","0.8","0.2248215173","0.1931964682","0.01708305062","0.1558723634","","","","","","","","","","","75","K","2","","","169","main_expt"
"108","","bandit","248","663468","0.0-209.0-0.0","84480786","wem/bandit_either","A2TBXASXZIRNNW","either","1","","","","","","","0","0","1","0.1757164868","","0.4","0.2","0.6","0.8","","","","","0.2503105048","0.236179436","0.02105388628","0.1757164868","","","","","","","76","L","3","","","170","main_expt"
"134","","bandit","249","665126","0.0-210.0-0.0","84480786","wem/bandit_either","A2TBXASXZIRNNW","either","1","","","","","","","0","0","1","0.1985597056","","0.4","0.2","0.6","0.8","","","","","0.2515708499","0.2229285478","0.01477187034","0.1985597056","","","","","","","76","L","3","","","171","main_expt"
"115","","bandit","250","666789","0.0-211.0-0.0","84480786","wem/bandit_either","A2TBXASXZIRNNW","either","1","","","","","","","0","0","1","0.2601117771","","0.4","0.2","0.6","0.8","","","","","0.2601117771","0.1805811295","0.00639283578","0.1725269859","","","","","","","72","H","0","img/none_selected.jpg","","172","main_expt"
"162","","bandit","251","668500","0.0-212.0-0.0","84480786","wem/bandit_either","A2TBXASXZIRNNW","either","1","","","","","","","0","0","1","","0.2277859889","0.4","0.2","0.6","0.8","0.2277859889","0.2203049146","0.008503536177","0.1955807132","","","","","","","","","","","72","H","0","img/none_selected.jpg","","173","main_expt"
"586","","bandit","252","670632","0.0-213.0-0.0","84480786","wem/bandit_either","A2TBXASXZIRNNW","either","1","","","","","","","0","0","1","0.204090619","","0.4","0.2","0.6","0.8","","","","","0.204090619","0.2079245196","0.01512836446","0.1712969398","","","","","","","72","H","0","img/none_selected.jpg","","174","main_expt"
"114","","bandit","253","672301","0.0-214.0-0.0","84480786","wem/bandit_either","A2TBXASXZIRNNW","either","1","","","","","","","0","0","1","","0.1904909119","0.4","0.2","0.6","0.8","0.2264282848","0.1904909119","0.034550241","0.2145566876","","","","","","","","","","","74","J","1","","","175","main_expt"
"152","","bandit","254","673992","0.0-215.0-0.0","84480786","wem/bandit_either","A2TBXASXZIRNNW","either","1","","","","","","","0","0","1","","0.01969997198","0.4","0.2","0.6","0.8","0.2263436383","0.1611975006","0.01969997198","0.1987050603","","","","","","","","","","","75","K","2","","","176","main_expt"
"138","","bandit","255","675679","0.0-216.0-0.0","84480786","wem/bandit_either","A2TBXASXZIRNNW","either","1","","","","","","","0","0","1","0.2161967517","","0.4","0.2","0.6","0.8","","","","","0.2449632337","0.1747210449","0.02558747067","0.2161967517","","","","","","","76","L","3","","","177","main_expt"
"278","","bandit","256","677507","0.0-217.0-0.0","84480786","wem/bandit_either","A2TBXASXZIRNNW","either","1","","","","","","","0","1","0","","0.1923885174","0.4","0.2","0.6","0.8","0.1923885174","0.1667690144","0.02865462312","0.1790488899","","","","","","","","","","","72","H","0","img/none_selected.jpg","","178","main_expt"
"158","","bandit","257","679204","0.0-218.0-0.0","84480786","wem/bandit_either","A2TBXASXZIRNNW","either","1","","","","","","","0","0","1","","0.1791230597","0.4","0.2","0.6","0.8","0.1791230597","0.248539666","0.05873937836","0.1254539317","","","","","","","","","","","72","H","0","img/none_selected.jpg","","179","main_expt"
"127","","bandit","258","680881","0.0-219.0-0.0","84480786","wem/bandit_either","A2TBXASXZIRNNW","either","1","","","","","","","0","0","1","0.1641305094","","0.4","0.2","0.6","0.8","","","","","0.1641305094","0.2393284063","0.04996702027","0.1761702366","","","","","","","72","H","0","img/none_selected.jpg","","180","main_expt"
"143","","bandit","259","682545","0.0-220.0-0.0","84480786","wem/bandit_either","A2TBXASXZIRNNW","either","1","","","","","","","0","0","1","","0.1567194189","0.4","0.2","0.6","0.8","0.1567194189","0.2450765022","0.06192223509","0.2307221343","","","","","","","","","","","72","H","0","img/none_selected.jpg","","181","main_expt"
"171","","bandit","260","684262","0.0-221.0-0.0","84480786","wem/bandit_either","A2TBXASXZIRNNW","either","1","","","","","","","0","1","0","","0.2898963007","0.4","0.2","0.6","0.8","0.1805899487","0.2898963007","0.07865608963","0.1656926355","","","","","","","","","","","74","J","1","","","182","main_expt"
"195","","bandit","261","686002","0.0-222.0-0.0","84480786","wem/bandit_either","A2TBXASXZIRNNW","either","1","","","","","","","0","1","0","","0.337419987","0.4","0.2","0.6","0.8","0.1381226487","0.337419987","0.0695036973","0.1997223474","","","","","","","","","","","74","J","1","","","183","main_expt"
"146","","bandit","262","687693","0.0-223.0-0.0","84480786","wem/bandit_either","A2TBXASXZIRNNW","either","1","","","","","","","0","0","1","","0.3334404967","0.4","0.2","0.6","0.8","0.1157029232","0.3334404967","0.09883674892","0.1936006223","","","","","","","","","","","74","J","1","","","184","main_expt"
"190","","bandit","263","689425","0.0-224.0-0.0","84480786","wem/bandit_either","A2TBXASXZIRNNW","either","1","","","","","","","0","0","1","","0.3049781316","0.4","0.2","0.6","0.8","0.09007466759","0.3049781316","0.1344132801","0.1794548994","","","","","","","","","","","74","J","1","","","185","main_expt"
"231","","bandit","264","691205","0.0-225.0-0.0","84480786","wem/bandit_either","A2TBXASXZIRNNW","either","1","","","","","","","0","0","1","","0.322039184","0.4","0.2","0.6","0.8","0.07784091677","0.322039184","0.1194183803","0.1679588243","","","","","","","","","","","74","J","1","","","186","main_expt"
"143","","bandit","265","692872","0.0-226.0-0.0","84480786","wem/bandit_either","A2TBXASXZIRNNW","either","1","","","","","","","0","0","1","","0.2898485093","0.4","0.2","0.6","0.8","0.1332261693","0.2898485093","0.1456002269","0.1692259204","","","","","","","","","","","74","J","1","","","187","main_expt"
"238","","bandit","266","694644","0.0-227.0-0.0","84480786","wem/bandit_either","A2TBXASXZIRNNW","either","1","","","","","","","0","0","1","0.1008589119","","0.4","0.2","0.6","0.8","","","","","0.1302169342","0.3046836684","0.1008589119","0.1796926114","","","","","","","75","K","2","","","188","main_expt"
"113","","bandit","267","696304","0.0-228.0-0.0","84480786","wem/bandit_either","A2TBXASXZIRNNW","either","1","","","","","","","0","0","1","0.09109327247","","0.4","0.2","0.6","0.8","","","","","0.1459867673","0.3437642557","0.09109327247","0.1463090895","","","","","","","75","K","2","","","189","main_expt"
"63","","bandit","268","697921","0.0-229.0-0.0","84480786","wem/bandit_either","A2TBXASXZIRNNW","either","1","","","","","","","0","0","1","0.133333279","","0.4","0.2","0.6","0.8","","","","","0.1930387326","0.3685715368","0.133333279","0.1670442817","","","","","","","75","K","2","","","190","main_expt"
"119","","bandit","269","699580","0.0-230.0-0.0","84480786","wem/bandit_either","A2TBXASXZIRNNW","either","1","","","","","","","0","0","1","","0.2148667481","0.4","0.2","0.6","0.8","0.1447045196","0.4063368095","0.1253338948","0.2148667481","","","","","","","","","","","76","L","3","","","191","main_expt"
"35","","bandit","270","701151","0.0-231.0-0.0","84480786","wem/bandit_either","A2TBXASXZIRNNW","either","1","","","","","","","0","0","1","0.1891029698","","0.4","0.2","0.6","0.8","","","","","0.1521301445","0.4194789623","0.1371372983","0.1891029698","","","","","","","76","L","3","","","192","main_expt"
"23","","bandit","271","702712","0.0-232.0-0.0","84480786","wem/bandit_either","A2TBXASXZIRNNW","either","1","","","","","","","0","0","1","","0.1818436489","0.4","0.2","0.6","0.8","0.1216552598","0.3914453041","0.1269519223","0.1818436489","","","","","","","","","","","76","L","3","","","193","main_expt"
"190","","bandit","272","704438","0.0-233.0-0.0","84480786","wem/bandit_either","A2TBXASXZIRNNW","either","1","","","","","","","0","0","1","","0.07681554104","0.4","0.2","0.6","0.8","0.07681554104","0.3988429791","0.1253972088","0.2036833838","","","","","","","","","","","72","H","0","img/none_selected.jpg","","194","main_expt"
"35","","bandit","273","706016","0.0-234.0-0.0","84480786","wem/bandit_either","A2TBXASXZIRNNW","either","1","","","","","","","0","0","1","0.07468822185","","0.4","0.2","0.6","0.8","","","","","0.07468822185","0.4212514022","0.1231557279","0.2189502041","","","","","","","72","H","0","img/none_selected.jpg","","195","main_expt"
"213","","bandit","274","707767","0.0-235.0-0.0","84480786","wem/bandit_either","A2TBXASXZIRNNW","either","1","","","","","","","0","0","1","0.07634526252","","0.4","0.2","0.6","0.8","","","","","0.07634526252","0.4128950903","0.2304226507","0.2011136523","","","","","","","72","H","0","img/none_selected.jpg","","196","main_expt"
"118","","bandit","275","709427","0.0-236.0-0.0","84480786","wem/bandit_either","A2TBXASXZIRNNW","either","1","","","","","","","0","0","1","0.3979973083","","0.4","0.2","0.6","0.8","","","","","0.06680697181","0.3979973083","0.3102822931","0.2295646827","","","","","","","74","J","1","","","197","main_expt"
"113","","bandit","276","711072","0.0-237.0-0.0","84480786","wem/bandit_either","A2TBXASXZIRNNW","either","1","","","","","","","0","0","1","0.3153467244","","0.4","0.2","0.6","0.8","","","","","0.05107679344","0.3153467244","0.3222054514","0.2570874699","","","","","","","74","J","1","","","198","main_expt"
"74","","bandit","277","712699","0.0-238.0-0.0","84480786","wem/bandit_either","A2TBXASXZIRNNW","either","1","","","","","","","1","0","0","0.3416159467","","0.4","0.2","0.6","0.8","","","","","0.06140804873","0.3121882746","0.3416159467","0.2215013189","","","","","","","75","K","2","","","199","main_expt"
"186","","bandit","278","714426","0.0-239.0-0.0","84480786","wem/bandit_either","A2TBXASXZIRNNW","either","1","","","","","","","0","1","0","","0.3826655938","0.4","0.2","0.6","0.8","0.05697288244","0.3789620948","0.3826655938","0.1681318695","","","","","","","","","","","75","K","2","","","200","main_expt"
"296","","bandit","279","716257","0.0-240.0-0.0","84480786","wem/bandit_either","A2TBXASXZIRNNW","either","1","","","","","","","0","0","1","0.4117435103","","0.4","0.2","0.6","0.8","","","","","0.04802221103","0.3575696279","0.4117435103","0.1787039029","","","","","","","75","K","2","","","201","main_expt"
"145","","bandit","280","717944","0.0-241.0-0.0","84480786","wem/bandit_either","A2TBXASXZIRNNW","either","1","","","","","","","1","0","0","0.4023622846","","0.4","0.2","0.6","0.8","","","","","0.04583536071","0.3937046418","0.4023622846","0.2180442152","","","","","","","75","K","2","","","202","main_expt"
"367","","bandit","281","719855","0.0-242.0-0.0","84480786","wem/bandit_either","A2TBXASXZIRNNW","either","1","","","","","","","0","1","0","","0.4225273878","0.4","0.2","0.6","0.8","0.03655969434","0.3901943722","0.4225273878","0.262784421","","","","","","","","","","","75","K","2","","","203","main_expt"
"290","","bandit","282","721697","0.0-243.0-0.0","84480786","wem/bandit_either","A2TBXASXZIRNNW","either","1","","","","","","","0","0","1","0.4151046429","","0.4","0.2","0.6","0.8","","","","","0.05773518339","0.4099131859","0.4151046429","0.2843732649","","","","","","","75","K","2","","","204","main_expt"
"143","","bandit","283","723389","0.0-244.0-0.0","84480786","wem/bandit_either","A2TBXASXZIRNNW","either","1","","","","","","","0","0","1","","0.4288165897","0.4","0.2","0.6","0.8","0.06616346658","0.4238238901","0.4288165897","0.2549063301","","","","","","","","","","","75","K","2","","","205","main_expt"
"167","","bandit","284","725097","0.0-245.0-0.0","84480786","wem/bandit_either","A2TBXASXZIRNNW","either","1","","","","","","","0","1","0","","0.436745712","0.4","0.2","0.6","0.8","0.09055598832","0.4139837541","0.436745712","0.2982701688","","","","","","","","","","","75","K","2","","","206","main_expt"
"232","","bandit","285","726843","0.0-246.0-0.0","84480786","wem/bandit_either","A2TBXASXZIRNNW","either","1","","","","","","","0","0","1","0.4484652972","","0.4","0.2","0.6","0.8","","","","","0.07583085731","0.3544894801","0.4484652972","0.3423773839","","","","","","","75","K","2","","","207","main_expt"
"163","","bandit","286","728553","0.0-247.0-0.0","84480786","wem/bandit_either","A2TBXASXZIRNNW","either","1","","","","","","","0","0","1","0.4516947584","","0.4","0.2","0.6","0.8","","","","","0.09768014643","0.3703609936","0.4516947584","0.3321535101","","","","","","","75","K","2","","","208","main_expt"
"87","","bandit","287","730170","0.0-248.0-0.0","84480786","wem/bandit_either","A2TBXASXZIRNNW","either","1","","","","","","","1","0","0","0.4590139285","","0.4","0.2","0.6","0.8","","","","","0.08389795445","0.3590511704","0.4590139285","0.3467721984","","","","","","","75","K","2","","","209","main_expt"
"234","","bandit","288","731950","0.0-249.0-0.0","84480786","wem/bandit_either","A2TBXASXZIRNNW","either","1","","","","","","","0","1","0","","0.4378910613","0.4","0.2","0.6","0.8","0.07846525543","0.3781523972","0.4378910613","0.3513447539","","","","","","","","","","","75","K","2","","","210","main_expt"
"125","","bandit","289","733626","0.0-250.0-0.0","84480786","wem/bandit_either","A2TBXASXZIRNNW","either","1","","","","","","","0","1","0","","0.4139384991","0.4","0.2","0.6","0.8","0.05906932722","0.3895188655","0.4139384991","0.4003692624","","","","","","","","","","","75","K","2","","","211","main_expt"
"233","","bandit","290","735398","0.0-251.0-0.0","84480786","wem/bandit_either","A2TBXASXZIRNNW","either","1","","","","","","","1","0","0","0.3659234609","","0.4","0.2","0.6","0.8","","","","","0.04754192311","0.4075098947","0.3659234609","0.3949660502","","","","","","","75","K","2","","","212","main_expt"
"155","","bandit","291","737099","0.0-252.0-0.0","84480786","wem/bandit_either","A2TBXASXZIRNNW","either","1","","","","","","","0","0","1","","0.3180572988","0.4","0.2","0.6","0.8","0.05481920189","0.4191075236","0.3180572988","0.4233479157","","","","","","","","","","","75","K","2","","","213","main_expt"
"204","","bandit","292","738843","0.0-253.0-0.0","84480786","wem/bandit_either","A2TBXASXZIRNNW","either","1","","","","","","","0","0","1","","0.2611162072","0.4","0.2","0.6","0.8","0.07954578011","0.3799529118","0.2611162072","0.4182751871","","","","","","","","","","","75","K","2","","","214","main_expt"
"429","","bandit","293","740822","0.0-254.0-0.0","84480786","wem/bandit_either","A2TBXASXZIRNNW","either","1","","","","","","","0","0","1","","0.2331309726","0.4","0.2","0.6","0.8","0.1078137614","0.3924699069","0.2331309726","0.3745823719","","","","","","","","","","","75","K","2","","","215","main_expt"
"412","","bandit","294","742766","0.0-255.0-0.0","84480786","wem/bandit_either","A2TBXASXZIRNNW","either","1","","","","","","","0","0","1","0.2428402293","","0.4","0.2","0.6","0.8","","","","","0.1269525553","0.3556657658","0.2428402293","0.3809837923","","","","","","","75","K","2","","","216","main_expt"
"725","","bandit","295","745044","0.0-256.0-0.0","84480786","wem/bandit_either","A2TBXASXZIRNNW","either","1","","","","","","","0","0","1","0.2317762644","","0.4","0.2","0.6","0.8","","","","","0.1849794572","0.3870416945","0.2317762644","0.4144294186","","","","","","","75","K","2","","","217","main_expt"
"3","","bandit","296","746583","0.0-257.0-0.0","84480786","wem/bandit_either","A2TBXASXZIRNNW","either","1","","","","","","","0","1","0","","0.204309912","0.4","0.2","0.6","0.8","0.1903787706","0.3944581396","0.204309912","0.4090742927","","","","","","","","","","","75","K","2","","","218","main_expt"
"216","","bandit","297","748344","0.0-258.0-0.0","84480786","wem/bandit_either","A2TBXASXZIRNNW","either","1","","","","","","","0","0","1","0.1685596251","","0.4","0.2","0.6","0.8","","","","","0.1768508397","0.4256173987","0.1685596251","0.3869695378","","","","","","","75","K","2","","","219","main_expt"
"153","","bandit","298","750039","0.0-259.0-0.0","84480786","wem/bandit_either","A2TBXASXZIRNNW","either","1","","","","","","","0","0","1","","0.2488487331","0.4","0.2","0.6","0.8","0.2176561852","0.4240862242","0.2488487331","0.3814250035","","","","","","","","","","","75","K","2","","","220","main_expt"
"99","","bandit","299","751680","0.0-260.0-0.0","84480786","wem/bandit_either","A2TBXASXZIRNNW","either","1","","","","","","","0","0","1","","0.2789816034","0.4","0.2","0.6","0.8","0.2075488201","0.4364702466","0.2789816034","0.3560431311","","","","","","","","","","","75","K","2","","","221","main_expt"
"128","","bandit","300","753357","0.0-261.0-0.0","84480786","wem/bandit_either","A2TBXASXZIRNNW","either","1","","","","","","","1","0","0","0.3424215647","","0.4","0.2","0.6","0.8","","","","","0.2260831429","0.4512924842","0.242729834","0.3424215647","","","","","","","76","L","3","","","222","main_expt"
"104","","bandit","301","755006","0.0-262.0-0.0","84480786","wem/bandit_either","A2TBXASXZIRNNW","either","1","","","","","","","1","0","0","0.3118962833","","0.4","0.2","0.6","0.8","","","","","0.2512075751","0.4649948574","0.196538567","0.3118962833","","","","","","","76","L","3","","","223","main_expt"
"186","","bandit","302","756720","0.0-263.0-0.0","84480786","wem/bandit_either","A2TBXASXZIRNNW","either","1","","","","","","","0","0","1","","0.261290028","0.4","0.2","0.6","0.8","0.3072691987","0.4692106987","0.2189223785","0.261290028","","","","","","","","","","","76","L","3","","","224","main_expt"
"119","","bandit","303","758380","0.0-264.0-0.0","84480786","wem/bandit_either","A2TBXASXZIRNNW","either","1","","","","","","","0","0","1","0.2748104332","","0.4","0.2","0.6","0.8","","","","","0.3358063032","0.4772226815","0.2131207899","0.2748104332","","","","","","","76","L","3","","","225","main_expt"
"59","","bandit","304","759983","0.0-265.0-0.0","84480786","wem/bandit_either","A2TBXASXZIRNNW","either","1","","","","","","","0","0","1","0.2112523614","","0.4","0.2","0.6","0.8","","","","","0.2994610032","0.4828013869","0.187439681","0.2112523614","","","","","","","76","L","3","","","226","main_expt"
"2","","bandit","305","761528","0.0-266.0-0.0","84480786","wem/bandit_either","A2TBXASXZIRNNW","either","1","","","","","","","0","0","1","0.1879164098","","0.4","0.2","0.6","0.8","","","","","0.2719992041","0.4805292857","0.1522087394","0.1879164098","","","","","","","76","L","3","","","227","main_expt"
"97","","bandit","306","763173","0.0-267.0-0.0","84480786","wem/bandit_either","A2TBXASXZIRNNW","either","1","","","","","","","1","0","0","0.2601066631","","0.4","0.2","0.6","0.8","","","","","0.2601066631","0.4770879938","0.1975586059","0.1857646906","","","","","","","72","H","0","img/none_selected.jpg","","228","main_expt"
"126","","bandit","307","764844","0.0-268.0-0.0","84480786","wem/bandit_either","A2TBXASXZIRNNW","either","1","","","","","","","0","0","1","0.2333982712","","0.4","0.2","0.6","0.8","","","","","0.2333982712","0.4830225504","0.2280604414","0.1608888173","","","","","","","72","H","0","img/none_selected.jpg","","229","main_expt"
"97","","bandit","308","766487","0.0-269.0-0.0","84480786","wem/bandit_either","A2TBXASXZIRNNW","either","1","","","","","","","0","0","1","0.2179366985","","0.4","0.2","0.6","0.8","","","","","0.2179366985","0.4827210916","0.2120359748","0.1139945837","","","","","","","72","H","0","img/none_selected.jpg","","230","main_expt"
"141","","bandit","309","768180","0.0-270.0-0.0","84480786","wem/bandit_either","A2TBXASXZIRNNW","either","1","","","","","","","0","0","1","0.210335649","","0.4","0.2","0.6","0.8","","","","","0.210335649","0.4764813513","0.2260377558","0.1071229599","","","","","","","72","H","0","img/none_selected.jpg","","231","main_expt"
"39","","bandit","310","769762","0.0-271.0-0.0","84480786","wem/bandit_either","A2TBXASXZIRNNW","either","1","","","","","","","0","1","0","","0.4794978353","0.4","0.2","0.6","0.8","0.2154905401","0.4794978353","0.2810037348","0.1250262501","","","","","","","","","","","74","J","1","","","232","main_expt"
"114","","bandit","311","771436","0.0-272.0-0.0","84480786","wem/bandit_either","A2TBXASXZIRNNW","either","1","","","","","","","1","0","0","0.4717583679","","0.4","0.2","0.6","0.8","","","","","0.2199054097","0.4717583679","0.3371590923","0.1262657767","","","","","","","74","J","1","","","233","main_expt"
"209","","bandit","312","773187","0.0-273.0-0.0","84480786","wem/bandit_either","A2TBXASXZIRNNW","either","1","","","","","","","0","0","1","","0.4801470087","0.4","0.2","0.6","0.8","0.2116885818","0.4801470087","0.2614597929","0.1436583916","","","","","","","","","","","74","J","1","","","234","main_expt"
"150","","bandit","313","774880","0.0-274.0-0.0","84480786","wem/bandit_either","A2TBXASXZIRNNW","either","1","","","","","","","0","1","0","","0.4698449305","0.4","0.2","0.6","0.8","0.2037112673","0.4698449305","0.2855471023","0.1776605917","","","","","","","","","","","74","J","1","","","235","main_expt"
"298","","bandit","314","776720","0.0-275.0-0.0","84480786","wem/bandit_either","A2TBXASXZIRNNW","either","1","","","","","","","0","1","0","","0.4750890902","0.4","0.2","0.6","0.8","0.2295670059","0.4750890902","0.2806831757","0.2039581082","","","","","","","","","","","74","J","1","","","236","main_expt"
"246","","bandit","315","778520","0.0-276.0-0.0","84480786","wem/bandit_either","A2TBXASXZIRNNW","either","1","","","","","","","0","0","1","","0.490873849","0.4","0.2","0.6","0.8","0.2602584061","0.490873849","0.3314479917","0.1898025468","","","","","","","","","","","74","J","1","","","237","main_expt"
"144","","bandit","316","780213","0.0-277.0-0.0","84480786","wem/bandit_either","A2TBXASXZIRNNW","either","1","","","","","","","1","0","0","0.4658125052","","0.4","0.2","0.6","0.8","","","","","0.2505035884","0.4658125052","0.3495093658","0.20274426","","","","","","","74","J","1","","","238","main_expt"
"251","","bandit","317","782007","0.0-278.0-0.0","84480786","wem/bandit_either","A2TBXASXZIRNNW","either","1","","","","","","","0","0","1","","0.4717810478","0.4","0.2","0.6","0.8","0.209031891","0.4717810478","0.3413466471","0.2051086292","","","","","","","","","","","74","J","1","","","239","main_expt"
"46","","bandit","318","783600","0.0-279.0-0.0","84480786","wem/bandit_either","A2TBXASXZIRNNW","either","1","","","","","","","0","0","1","","0.4751676635","0.4","0.2","0.6","0.8","0.2203826704","0.4751676635","0.3848911707","0.1823871945","","","","","","","","","","","74","J","1","","","240","main_expt"
"118","","bandit","319","785265","0.0-280.0-0.0","84480786","wem/bandit_either","A2TBXASXZIRNNW","either","1","","","","","","","0","0","1","","0.4782176083","0.4","0.2","0.6","0.8","0.2502218434","0.4782176083","0.3352713547","0.2206124516","","","","","","","","","","","74","J","1","","","241","main_expt"
"135","","bandit","320","786954","0.0-281.0-0.0","84480786","wem/bandit_either","A2TBXASXZIRNNW","either","1","","","","","","","0","0","1","","0.4842593171","0.4","0.2","0.6","0.8","0.2465850657","0.4842593171","0.3898112853","0.1822231347","","","","","","","","","","","74","J","1","","","242","main_expt"
"140","","bandit","321","788622","0.0-282.0-0.0","84480786","wem/bandit_either","A2TBXASXZIRNNW","either","1","","","","","","","1","0","0","0.3746092993","","0.4","0.2","0.6","0.8","","","","","0.2768687636","0.4877308522","0.3746092993","0.1782216913","","","","","","","75","K","2","","","243","main_expt"
"99","","bandit","322","790264","0.0-283.0-0.0","84480786","wem/bandit_either","A2TBXASXZIRNNW","either","1","","","","","","","0","1","0","","0.3551642001","0.4","0.2","0.6","0.8","0.3318130554","0.4867000748","0.3551642001","0.1683297066","","","","","","","","","","","75","K","2","","","244","main_expt"
"179","","bandit","323","791996","0.0-284.0-0.0","84480786","wem/bandit_either","A2TBXASXZIRNNW","either","1","","","","","","","0","0","1","0.3556023966","","0.4","0.2","0.6","0.8","","","","","0.3549389872","0.4779689664","0.3556023966","0.2394915997","","","","","","","75","K","2","","","245","main_expt"
"53","","bandit","324","793596","0.0-285.0-0.0","84480786","wem/bandit_either","A2TBXASXZIRNNW","either","1","","","","","","","0","0","1","","0.3265039954","0.4","0.2","0.6","0.8","0.333301522","0.4691428495","0.3265039954","0.2279590519","","","","","","","","","","","75","K","2","","","246","main_expt"
"144","","bandit","325","795284","0.0-286.0-0.0","84480786","wem/bandit_either","A2TBXASXZIRNNW","either","1","","","","","","","0","0","1","","0.2868106963","0.4","0.2","0.6","0.8","0.3514606933","0.4726686318","0.2868106963","0.2464238951","","","","","","","","","","","75","K","2","","","247","main_expt"
"120","","bandit","326","796952","0.0-287.0-0.0","84480786","wem/bandit_either","A2TBXASXZIRNNW","either","1","","","","","","","1","0","0","0.3185934195","","0.4","0.2","0.6","0.8","","","","","0.3714826816","0.4803067915","0.3185934195","0.2743013104","","","","","","","75","K","2","","","248","main_expt"
"220","","bandit","327","798705","0.0-288.0-0.0","84480786","wem/bandit_either","A2TBXASXZIRNNW","either","1","","","","","","","0","0","1","","0.358181829","0.4","0.2","0.6","0.8","0.386783615","0.4711679289","0.358181829","0.265015958","","","","","","","","","","","75","K","2","","","249","main_expt"
"103","","bandit","328","800361","0.0-289.0-0.0","84480786","wem/bandit_either","A2TBXASXZIRNNW","either","1","","","","","","","0","0","1","","0.3548152509","0.4","0.2","0.6","0.8","0.401921917","0.4353456883","0.3548152509","0.2414596854","","","","","","","","","","","75","K","2","","","250","main_expt"
"183","","bandit","329","802089","0.0-290.0-0.0","84480786","wem/bandit_either","A2TBXASXZIRNNW","either","1","","","","","","","0","1","0","","0.2747351927","0.4","0.2","0.6","0.8","0.4214807698","0.4224206017","0.3481631732","0.2747351927","","","","","","","","","","","76","L","3","","","251","main_expt"
"107","","bandit","330","803739","0.0-291.0-0.0","84480786","wem/bandit_either","A2TBXASXZIRNNW","either","1","","","","","","","0","0","1","0.2814651432","","0.4","0.2","0.6","0.8","","","","","0.3562017588","0.4171240554","0.3357984296","0.2814651432","","","","","","","76","L","3","","","252","main_expt"
"141","","bandit","331","805431","0.0-292.0-0.0","84480786","wem/bandit_either","A2TBXASXZIRNNW","either","1","","","","","","","0","0","1","","0.2185424791","0.4","0.2","0.6","0.8","0.2749590952","0.4255780754","0.2585495719","0.2185424791","","","","","","","","","","","76","L","3","","","253","main_expt"
