"rt","responses","trial_type","trial_index","time_elapsed","internal_node_id","subjID","study","MID","cond","drift","key_press","expt_phase","target","like","value","connected","gems","bombs","no_reward","GemPrChosen","BombPrChosen","GainOverPainPr_0","GainOverPainPr_1","GainOverPainPr_2","GainOverPainPr_3","LosePr_0","LosePr_1","LosePr_2","LosePr_3","WinPr_0","WinPr_1","WinPr_2","WinPr_3","Q0","Q1","Q2","gender","age","ethnicity","respCharCode","respKey","respChoiceNum","respChoice","practice","trial_counter","trial_label"
"1167","{""Q0"":""AEWGY34WUIA32""}","survey-text","0","1167","0.0-0.0","85658262","wem/bandit_either","AEWGY34WUIA32","either","6","","","","","","","","","","","","","","","","","","","","","","","","","","","","","","","","","","","",""
"6818","","text","1","9001","0.0-1.0","85658262","wem/bandit_either","AEWGY34WUIA32","either","6","32","","","","","","","","","","","","","","","","","","","","","","","","","","","","","","","","","","",""
"4516","","text","2","13517","0.0-2.0","85658262","wem/bandit_either","AEWGY34WUIA32","either","6","32","","","","","","","","","","","","","","","","","","","","","","","","","","","","","","","","","","",""
"22930","","text","3","36447","0.0-3.0","85658262","wem/bandit_either","AEWGY34WUIA32","either","6","32","","","","","","","","","","","","","","","","","","","","","","","","","","","","","","","","","","",""
"10583","","text","4","47030","0.0-4.0","85658262","wem/bandit_either","AEWGY34WUIA32","either","6","32","","","","","","","","","","","","","","","","","","","","","","","","","","","","","","","","","","",""
"14716","","text","5","61746","0.0-5.0","85658262","wem/bandit_either","AEWGY34WUIA32","either","6","32","","","","","","","","","","","","","","","","","","","","","","","","","","","","","","","","","","",""
"9267","","text","6","71013","0.0-6.0","85658262","wem/bandit_either","AEWGY34WUIA32","either","6","32","","","","","","","","","","","","","","","","","","","","","","","","","","","","","","","","","","",""
"2601","","text","7","73614","0.0-7.0","85658262","wem/bandit_either","AEWGY34WUIA32","either","6","32","","","","","","","","","","","","","","","","","","","","","","","","","","","","","","","","","","",""
"12980","","identification","8","86604","0.0-8.0-0.0","85658262","wem/bandit_either","AEWGY34WUIA32","either","6","","identification_pre","the village of Zur","","","","","","","","","","","","","","","","","","","","","","","","","","","","","","","","",""
"4304","","identification","9","91925","0.0-8.0-1.0","85658262","wem/bandit_either","AEWGY34WUIA32","either","6","","identification_pre","the village of Nyx","","","","","","","","","","","","","","","","","","","","","","","","","","","","","","","","",""
"6257","","text","10","99199","0.0-9.0","85658262","wem/bandit_either","AEWGY34WUIA32","either","6","32","","","","","","","","","","","","","","","","","","","","","","","","","","","","","","","","","","",""
"3840","","text","11","103039","0.0-10.0","85658262","wem/bandit_either","AEWGY34WUIA32","either","6","32","","","","","","","","","","","","","","","","","","","","","","","","","","","","","","","","","","",""
"1775","","text","12","104814","0.0-11.0","85658262","wem/bandit_either","AEWGY34WUIA32","either","6","32","","","","","","","","","","","","","","","","","","","","","","","","","","","","","","","","","","",""
"4145","","text","13","108969","0.0-12.0","85658262","wem/bandit_either","AEWGY34WUIA32","either","6","32","","","","","","","","","","","","","","","","","","","","","","","","","","","","","","","","","","",""
"4233","","bandit","14","114716","0.0-13.0-0.0","85658262","wem/bandit_either","AEWGY34WUIA32","either","6","","","","","","","0","0","1","0","0","","","","","0","","","","0","","","","","","","","","","74","J","0","img/none_selected_demo.jpg","true","0",""
"516","","bandit","15","116744","0.0-14.0-0.0","85658262","wem/bandit_either","AEWGY34WUIA32","either","6","","","","","","","0","0","1","0","0","","","","","0","","","","0","","","","","","","","","","75","K","0","img/none_selected_demo.jpg","true","0",""
"5635","","text","16","122379","0.0-15.0","85658262","wem/bandit_either","AEWGY34WUIA32","either","6","32","","","","","","","","","","","","","","","","","","","","","","","","","","","","","","","","","","",""
"7784","","text","17","130163","0.0-16.0","85658262","wem/bandit_either","AEWGY34WUIA32","either","6","32","","","","","","","","","","","","","","","","","","","","","","","","","","","","","","","","","","",""
"6403","","text","18","136566","0.0-17.0","85658262","wem/bandit_either","AEWGY34WUIA32","either","6","32","","","","","","","","","","","","","","","","","","","","","","","","","","","","","","","","","","",""
"2223","","text","19","138789","0.0-18.0","85658262","wem/bandit_either","AEWGY34WUIA32","either","6","32","","","","","","","","","","","","","","","","","","","","","","","","","","","","","","","","","","",""
"754","","bandit","20","141064","0.0-19.0-0.0","85658262","wem/bandit_either","AEWGY34WUIA32","either","6","","","","","","","0","1","0","","0.8","0.5","0.5","","","0.8","0.2","","","","","","","","","","","","","74","J","0","img/none_selected_demo.jpg","true","0","80_20_practice"
"849","","bandit","21","143433","0.0-19.0-1.0","85658262","wem/bandit_either","AEWGY34WUIA32","either","6","","","","","","","0","0","1","","0.2","0.5","0.5","","","0.8","0.2","","","","","","","","","","","","","75","K","1","","true","0","80_20_practice"
"297","","bandit","22","145250","0.0-19.0-2.0","85658262","wem/bandit_either","AEWGY34WUIA32","either","6","","","","","","","1","0","0","0.8","","0.5","0.5","","","","","","","0.8","0.2","","","","","","","","","74","J","0","img/none_selected_demo.jpg","true","0","80_20_practice"
"256","","bandit","23","147024","0.0-19.0-3.0","85658262","wem/bandit_either","AEWGY34WUIA32","either","6","","","","","","","0","0","1","","0.8","0.5","0.5","","","0.8","0.2","","","","","","","","","","","","","74","J","0","img/none_selected_demo.jpg","true","0","80_20_practice"
"239","","bandit","24","148774","0.0-19.0-4.0","85658262","wem/bandit_either","AEWGY34WUIA32","either","6","","","","","","","1","0","0","0.8","","0.5","0.5","","","","","","","0.8","0.2","","","","","","","","","74","J","0","img/none_selected_demo.jpg","true","0","80_20_practice"
"236","","bandit","25","150533","0.0-19.0-5.0","85658262","wem/bandit_either","AEWGY34WUIA32","either","6","","","","","","","0","1","0","","0.8","0.5","0.5","","","0.8","0.2","","","","","","","","","","","","","74","J","0","img/none_selected_demo.jpg","true","0","80_20_practice"
"227","","bandit","26","152283","0.0-19.0-6.0","85658262","wem/bandit_either","AEWGY34WUIA32","either","6","","","","","","","1","0","0","0.8","","0.5","0.5","","","","","","","0.8","0.2","","","","","","","","","74","J","0","img/none_selected_demo.jpg","true","0","80_20_practice"
"387","","bandit","27","154183","0.0-19.0-7.0","85658262","wem/bandit_either","AEWGY34WUIA32","either","6","","","","","","","0","1","0","","0.8","0.5","0.5","","","0.8","0.2","","","","","","","","","","","","","74","J","0","img/none_selected_demo.jpg","true","0","80_20_practice"
"67","","bandit","28","155766","0.0-19.0-8.0","85658262","wem/bandit_either","AEWGY34WUIA32","either","6","","","","","","","0","1","0","","0.8","0.5","0.5","","","0.8","0.2","","","","","","","","","","","","","74","J","0","img/none_selected_demo.jpg","true","0","80_20_practice"
"167","","bandit","29","157450","0.0-19.0-9.0","85658262","wem/bandit_either","AEWGY34WUIA32","either","6","","","","","","","0","0","1","","0.8","0.5","0.5","","","0.8","0.2","","","","","","","","","","","","","74","J","0","img/none_selected_demo.jpg","true","0","80_20_practice"
"157","","bandit","30","159123","0.0-19.0-10.0","85658262","wem/bandit_either","AEWGY34WUIA32","either","6","","","","","","","1","0","0","0.8","","0.5","0.5","","","","","","","0.8","0.2","","","","","","","","","74","J","0","img/none_selected_demo.jpg","true","0","80_20_practice"
"63","","bandit","31","160700","0.0-19.0-11.0","85658262","wem/bandit_either","AEWGY34WUIA32","either","6","","","","","","","0","1","0","","0.8","0.5","0.5","","","0.8","0.2","","","","","","","","","","","","","74","J","0","img/none_selected_demo.jpg","true","0","80_20_practice"
"147","","bandit","32","162367","0.0-19.0-12.0","85658262","wem/bandit_either","AEWGY34WUIA32","either","6","","","","","","","0","1","0","","0.8","0.5","0.5","","","0.8","0.2","","","","","","","","","","","","","74","J","0","img/none_selected_demo.jpg","true","0","80_20_practice"
"226","","bandit","33","164107","0.0-19.0-13.0","85658262","wem/bandit_either","AEWGY34WUIA32","either","6","","","","","","","1","0","0","0.8","","0.5","0.5","","","","","","","0.8","0.2","","","","","","","","","74","J","0","img/none_selected_demo.jpg","true","0","80_20_practice"
"240","","bandit","34","165867","0.0-19.0-14.0","85658262","wem/bandit_either","AEWGY34WUIA32","either","6","","","","","","","0","1","0","","0.8","0.5","0.5","","","0.8","0.2","","","","","","","","","","","","","74","J","0","img/none_selected_demo.jpg","true","0","80_20_practice"
"10","","bandit","35","167401","0.0-19.0-15.0","85658262","wem/bandit_either","AEWGY34WUIA32","either","6","","","","","","","0","1","0","","0.8","0.5","0.5","","","0.8","0.2","","","","","","","","","","","","","74","J","0","img/none_selected_demo.jpg","true","0","80_20_practice"
"196","","bandit","36","169117","0.0-19.0-16.0","85658262","wem/bandit_either","AEWGY34WUIA32","either","6","","","","","","","0","0","1","0.8","","0.5","0.5","","","","","","","0.8","0.2","","","","","","","","","74","J","0","img/none_selected_demo.jpg","true","0","80_20_practice"
"0","","bandit","37","170642","0.0-19.0-17.0","85658262","wem/bandit_either","AEWGY34WUIA32","either","6","","","","","","","0","1","0","","0.8","0.5","0.5","","","0.8","0.2","","","","","","","","","","","","","74","J","0","img/none_selected_demo.jpg","true","0","80_20_practice"
"159","","bandit","38","172318","0.0-19.0-18.0","85658262","wem/bandit_either","AEWGY34WUIA32","either","6","","","","","","","1","0","0","0.8","","0.5","0.5","","","","","","","0.8","0.2","","","","","","","","","74","J","0","img/none_selected_demo.jpg","true","0","80_20_practice"
"116","","bandit","39","173951","0.0-19.0-19.0","85658262","wem/bandit_either","AEWGY34WUIA32","either","6","","","","","","","0","1","0","","0.8","0.5","0.5","","","0.8","0.2","","","","","","","","","","","","","74","J","0","img/none_selected_demo.jpg","true","0","80_20_practice"
"4167","","text","40","178118","0.0-20.0","85658262","wem/bandit_either","AEWGY34WUIA32","either","6","32","","","","","","","","","","","","","","","","","","","","","","","","","","","","","","","","","","",""
"778","","bandit","41","180414","0.0-21.0-0.0","85658262","wem/bandit_either","AEWGY34WUIA32","either","6","","","","","","","1","0","0","1","0","","","","","0","1","","","1","0","","","","","","","","","74","J","0","img/none_selected_demo.jpg","true","0",""
"4244","","text","42","184658","0.0-22.0","85658262","wem/bandit_either","AEWGY34WUIA32","either","6","32","","","","","","","","","","","","","","","","","","","","","","","","","","","","","","","","","","",""
"3662","","text","43","188320","0.0-23.0","85658262","wem/bandit_either","AEWGY34WUIA32","either","6","32","","","","","","","","","","","","","","","","","","","","","","","","","","","","","","","","","","",""
"1935","","text","44","190255","0.0-24.0","85658262","wem/bandit_either","AEWGY34WUIA32","either","6","32","","","","","","","","","","","","","","","","","","","","","","","","","","","","","","","","","","",""
"2183","","text","45","192438","0.0-25.0","85658262","wem/bandit_either","AEWGY34WUIA32","either","6","32","","","","","","","","","","","","","","","","","","","","","","","","","","","","","","","","","","",""
"4007","","text","46","196445","0.0-26.0","85658262","wem/bandit_either","AEWGY34WUIA32","either","6","32","","","","","","","","","","","","","","","","","","","","","","","","","","","","","","","","","","",""
"2116","","text","47","198561","0.0-27.0","85658262","wem/bandit_either","AEWGY34WUIA32","either","6","32","","","","","","","","","","","","","","","","","","","","","","","","","","","","","","","","","","",""
"3037","","text","48","201598","0.0-28.0","85658262","wem/bandit_either","AEWGY34WUIA32","either","6","32","","","","","","","","","","","","","","","","","","","","","","","","","","","","","","","","","","",""
"2423","","text","49","204021","0.0-29.0","85658262","wem/bandit_either","AEWGY34WUIA32","either","6","32","","","","","","","","","","","","","","","","","","","","","","","","","","","","","","","","","","",""
"4777","","text","50","208808","0.0-30.0","85658262","wem/bandit_either","AEWGY34WUIA32","either","6","32","","","","","","","","","","","","","","","","","","","","","","","","","","","","","","","","","","",""
"1315","","text","51","210123","0.0-31.0","85658262","wem/bandit_either","AEWGY34WUIA32","either","6","32","","","","","","","","","","","","","","","","","","","","","","","","","","","","","","","","","","",""
"9235","","text","52","219358","0.0-32.0","85658262","wem/bandit_either","AEWGY34WUIA32","either","6","32","","","","","","","","","","","","","","","","","","","","","","","","","","","","","","","","","","",""
"600","","bandit","53","221493","0.0-33.0-0.0","85658262","wem/bandit_either","AEWGY34WUIA32","either","6","","","","","","","0","1","0","","0.8","0.5","0.5","0.5","0.5","0.8","0.2","0.6","0.2","","","","","","","","","","","72","H","0","img/none_selected.jpg","true","0","full_practice"
"299","","bandit","54","223308","0.0-33.0-1.0","85658262","wem/bandit_either","AEWGY34WUIA32","either","6","","","","","","","1","0","0","0.2","","0.5","0.5","0.5","0.5","","","","","0.8","0.2","0.6","0.2","","","","","","","74","J","1","","true","0","full_practice"
"250","","bandit","55","225076","0.0-33.0-2.0","85658262","wem/bandit_either","AEWGY34WUIA32","either","6","","","","","","","0","1","0","","0.6","0.5","0.5","0.5","0.5","0.8","0.2","0.6","0.2","","","","","","","","","","","75","K","2","","true","0","full_practice"
"249","","bandit","56","226845","0.0-33.0-3.0","85658262","wem/bandit_either","AEWGY34WUIA32","either","6","","","","","","","0","0","1","0.2","","0.5","0.5","0.5","0.5","","","","","0.8","0.2","0.6","0.2","","","","","","","76","L","3","","true","0","full_practice"
"167","","bandit","57","228525","0.0-33.0-4.0","85658262","wem/bandit_either","AEWGY34WUIA32","either","6","","","","","","","0","1","0","","0.8","0.5","0.5","0.5","0.5","0.8","0.2","0.6","0.2","","","","","","","","","","","72","H","0","img/none_selected.jpg","true","0","full_practice"
"200","","bandit","58","230239","0.0-33.0-5.0","85658262","wem/bandit_either","AEWGY34WUIA32","either","6","","","","","","","0","0","1","","0.2","0.5","0.5","0.5","0.5","0.8","0.2","0.6","0.2","","","","","","","","","","","74","J","1","","true","0","full_practice"
"244","","bandit","59","232003","0.0-33.0-6.0","85658262","wem/bandit_either","AEWGY34WUIA32","either","6","","","","","","","0","1","0","","0.6","0.5","0.5","0.5","0.5","0.8","0.2","0.6","0.2","","","","","","","","","","","75","K","2","","true","0","full_practice"
"107","","bandit","60","233626","0.0-33.0-7.0","85658262","wem/bandit_either","AEWGY34WUIA32","either","6","","","","","","","0","0","1","0.2","","0.5","0.5","0.5","0.5","","","","","0.8","0.2","0.6","0.2","","","","","","","76","L","3","","true","0","full_practice"
"340","","bandit","61","235487","0.0-33.0-8.0","85658262","wem/bandit_either","AEWGY34WUIA32","either","6","","","","","","","0","0","1","","0.8","0.5","0.5","0.5","0.5","0.8","0.2","0.6","0.2","","","","","","","","","","","72","H","0","img/none_selected.jpg","true","0","full_practice"
"204","","bandit","62","237210","0.0-33.0-9.0","85658262","wem/bandit_either","AEWGY34WUIA32","either","6","","","","","","","0","0","1","","0.2","0.5","0.5","0.5","0.5","0.8","0.2","0.6","0.2","","","","","","","","","","","74","J","1","","true","0","full_practice"
"220","","bandit","63","238953","0.0-33.0-10.0","85658262","wem/bandit_either","AEWGY34WUIA32","either","6","","","","","","","1","0","0","0.6","","0.5","0.5","0.5","0.5","","","","","0.8","0.2","0.6","0.2","","","","","","","75","K","2","","true","0","full_practice"
"689","","bandit","64","241155","0.0-33.0-11.0","85658262","wem/bandit_either","AEWGY34WUIA32","either","6","","","","","","","0","0","1","0.2","","0.5","0.5","0.5","0.5","","","","","0.8","0.2","0.6","0.2","","","","","","","76","L","3","","true","0","full_practice"
"75","","bandit","65","242743","0.0-33.0-12.0","85658262","wem/bandit_either","AEWGY34WUIA32","either","6","","","","","","","0","1","0","","0.8","0.5","0.5","0.5","0.5","0.8","0.2","0.6","0.2","","","","","","","","","","","72","H","0","img/none_selected.jpg","true","0","full_practice"
"160","","bandit","66","244420","0.0-33.0-13.0","85658262","wem/bandit_either","AEWGY34WUIA32","either","6","","","","","","","0","0","1","0.2","","0.5","0.5","0.5","0.5","","","","","0.8","0.2","0.6","0.2","","","","","","","74","J","1","","true","0","full_practice"
"115","","bandit","67","246050","0.0-33.0-14.0","85658262","wem/bandit_either","AEWGY34WUIA32","either","6","","","","","","","0","1","0","","0.6","0.5","0.5","0.5","0.5","0.8","0.2","0.6","0.2","","","","","","","","","","","75","K","2","","true","0","full_practice"
"93","","bandit","68","247661","0.0-33.0-15.0","85658262","wem/bandit_either","AEWGY34WUIA32","either","6","","","","","","","0","0","1","","0.2","0.5","0.5","0.5","0.5","0.8","0.2","0.6","0.2","","","","","","","","","","","76","L","3","","true","0","full_practice"
"199","","bandit","69","249377","0.0-33.0-16.0","85658262","wem/bandit_either","AEWGY34WUIA32","either","6","","","","","","","1","0","0","0.6","","0.5","0.5","0.5","0.5","","","","","0.8","0.2","0.6","0.2","","","","","","","75","K","2","","true","0","full_practice"
"509","","bandit","70","251404","0.0-33.0-17.0","85658262","wem/bandit_either","AEWGY34WUIA32","either","6","","","","","","","0","0","1","","0.6","0.5","0.5","0.5","0.5","0.8","0.2","0.6","0.2","","","","","","","","","","","75","K","2","","true","0","full_practice"
"44","","bandit","71","252955","0.0-33.0-18.0","85658262","wem/bandit_either","AEWGY34WUIA32","either","6","","","","","","","1","0","0","0.8","","0.5","0.5","0.5","0.5","","","","","0.8","0.2","0.6","0.2","","","","","","","72","H","0","img/none_selected.jpg","true","0","full_practice"
"155","","bandit","72","254617","0.0-33.0-19.0","85658262","wem/bandit_either","AEWGY34WUIA32","either","6","","","","","","","1","0","0","0.8","","0.5","0.5","0.5","0.5","","","","","0.8","0.2","0.6","0.2","","","","","","","72","H","0","img/none_selected.jpg","true","0","full_practice"
"2832","","text","73","257449","0.0-34.0","85658262","wem/bandit_either","AEWGY34WUIA32","either","6","32","","","","","","","","","","","","","","","","","","","","","","","","","","","","","","","","","","",""
"6273","","text","74","264732","0.0-35.0","85658262","wem/bandit_either","AEWGY34WUIA32","either","6","32","","","","","","","","","","","","","","","","","","","","","","","","","","","","","","","","","","",""
"4287","","text","75","269019","0.0-36.0","85658262","wem/bandit_either","AEWGY34WUIA32","either","6","32","","","","","","","","","","","","","","","","","","","","","","","","","","","","","","","","","","",""
"3877","","text","76","272896","0.0-37.0","85658262","wem/bandit_either","AEWGY34WUIA32","either","6","32","","","","","","","","","","","","","","","","","","","","","","","","","","","","","","","","","","",""
"4567","","text","77","277463","0.0-38.0","85658262","wem/bandit_either","AEWGY34WUIA32","either","6","32","","","","","","","","","","","","","","","","","","","","","","","","","","","","","","","","","","",""
"2817","","text","78","280290","0.0-39.0","85658262","wem/bandit_either","AEWGY34WUIA32","either","6","32","","","","","","","","","","","","","","","","","","","","","","","","","","","","","","","","","","",""
"637","","bandit","79","282444","0.0-40.0-0.0","85658262","wem/bandit_either","AEWGY34WUIA32","either","6","","","","","","","0","0","1","","0.1720655487","0.2","0.4","0.6","0.8","0.1720655487","0.1734470434","0.4656478179","0.06094066238","","","","","","","","","","","72","H","0","img/none_selected.jpg","","1","main_expt"
"220","","bandit","80","284187","0.0-41.0-0.0","85658262","wem/bandit_either","AEWGY34WUIA32","either","6","","","","","","","0","1","0","","0.4661883906","0.2","0.4","0.6","0.8","0.1607886358","0.1582158198","0.4661883906","0.04941180107","","","","","","","","","","","75","K","2","","","2","main_expt"
"157","","bandit","81","285858","0.0-42.0-0.0","85658262","wem/bandit_either","AEWGY34WUIA32","either","6","","","","","","","0","0","1","","0.4608397999","0.2","0.4","0.6","0.8","0.1825924006","0.1264016625","0.4608397999","0.09066711981","","","","","","","","","","","75","K","2","","","3","main_expt"
"132","","bandit","82","287510","0.0-43.0-0.0","85658262","wem/bandit_either","AEWGY34WUIA32","either","6","","","","","","","0","0","1","","0.1212924903","0.2","0.4","0.6","0.8","0.1572982515","0.1212924903","0.4568511376","0.07815644495","","","","","","","","","","","74","J","1","","","4","main_expt"
"41","","bandit","83","289062","0.0-44.0-0.0","85658262","wem/bandit_either","AEWGY34WUIA32","either","6","","","","","","","0","0","1","0.06547040057","","0.2","0.4","0.6","0.8","","","","","0.1873501432","0.1603104869","0.4576747282","0.06547040057","","","","","","","76","L","3","","","5","main_expt"
"33","","bandit","84","290600","0.0-45.0-0.0","85658262","wem/bandit_either","AEWGY34WUIA32","either","6","","","","","","","0","0","1","0.4673201091","","0.2","0.4","0.6","0.8","","","","","0.1484719509","0.1916070739","0.4673201091","0.09500806419","","","","","","","75","K","2","","","6","main_expt"
"105","","bandit","85","292221","0.0-46.0-0.0","85658262","wem/bandit_either","AEWGY34WUIA32","either","6","","","","","","","0","0","1","0.1368680622","","0.2","0.4","0.6","0.8","","","","","0.1368680622","0.1624213819","0.4671816856","0.1156714339","","","","","","","72","H","0","img/none_selected.jpg","","7","main_expt"
"787","","bandit","86","294528","0.0-47.0-0.0","85658262","wem/bandit_either","AEWGY34WUIA32","either","6","","","","","","","0","0","1","","0.1412197478","0.2","0.4","0.6","0.8","0.1412197478","0.1529627983","0.4577650209","0.08939878806","","","","","","","","","","","72","H","0","img/none_selected.jpg","","8","main_expt"
"320","","bandit","87","296371","0.0-48.0-0.0","85658262","wem/bandit_either","AEWGY34WUIA32","either","6","","","","","","","0","0","1","","0.1638779","0.2","0.4","0.6","0.8","0.1285241668","0.1638779","0.4538037209","0.1379609943","","","","","","","","","","","74","J","1","","","9","main_expt"
"337","","bandit","88","298221","0.0-49.0-0.0","85658262","wem/bandit_either","AEWGY34WUIA32","either","6","","","","","","","0","0","1","0.08892925829","","0.2","0.4","0.6","0.8","","","","","0.1137500729","0.1682184418","0.4567906288","0.08892925829","","","","","","","76","L","3","","","10","main_expt"
"35","","bandit","89","299771","0.0-50.0-0.0","85658262","wem/bandit_either","AEWGY34WUIA32","either","6","","","","","","","1","0","0","0.4707556997","","0.2","0.4","0.6","0.8","","","","","0.1134058804","0.1511948373","0.4707556997","0.1053961985","","","","","","","75","K","2","","","11","main_expt"
"1557","","bandit","90","302838","0.0-51.0-0.0","85658262","wem/bandit_either","AEWGY34WUIA32","either","6","","","","","","","1","0","0","0.4534589675","","0.2","0.4","0.6","0.8","","","","","0.1358134986","0.2144966391","0.4534589675","0.1267534428","","","","","","","75","K","2","","","12","main_expt"
"147","","bandit","91","304505","0.0-52.0-0.0","85658262","wem/bandit_either","AEWGY34WUIA32","either","6","","","","","","","0","0","1","0.4474824422","","0.2","0.4","0.6","0.8","","","","","0.1105925571","0.1443049275","0.4474824422","0.1179877152","","","","","","","75","K","2","","","13","main_expt"
"487","","bandit","92","306507","0.0-53.0-0.0","85658262","wem/bandit_either","AEWGY34WUIA32","either","6","","","","","","","0","1","0","","0.4125602811","0.2","0.4","0.6","0.8","0.09057326494","0.149160688","0.4125602811","0.1300626215","","","","","","","","","","","75","K","2","","","14","main_expt"
"525","","bandit","93","308555","0.0-54.0-0.0","85658262","wem/bandit_either","AEWGY34WUIA32","either","6","","","","","","","0","1","0","","0.3715785473","0.2","0.4","0.6","0.8","0.05963436345","0.1525333278","0.3715785473","0.1129073675","","","","","","","","","","","75","K","2","","","15","main_expt"
"167","","bandit","94","310238","0.0-55.0-0.0","85658262","wem/bandit_either","AEWGY34WUIA32","either","6","","","","","","","0","0","1","0.3670357029","","0.2","0.4","0.6","0.8","","","","","0.03970917029","0.1437253933","0.3670357029","0.1132840383","","","","","","","75","K","2","","","16","main_expt"
"507","","bandit","95","312262","0.0-56.0-0.0","85658262","wem/bandit_either","AEWGY34WUIA32","either","6","","","","","","","0","0","1","0.333794799","","0.2","0.4","0.6","0.8","","","","","0.03301664506","0.1191274054","0.333794799","0.1530786807","","","","","","","75","K","2","","","17","main_expt"
"1770","","bandit","96","315549","0.0-57.0-0.0","85658262","wem/bandit_either","AEWGY34WUIA32","either","6","","","","","","","0","0","1","","0.3720862831","0.2","0.4","0.6","0.8","0.0325619","0.1231388663","0.3720862831","0.1367655081","","","","","","","","","","","75","K","2","","","18","main_expt"
"400","","bandit","97","317473","0.0-58.0-0.0","85658262","wem/bandit_either","AEWGY34WUIA32","either","6","","","","","","","0","0","1","0.1014962652","","0.2","0.4","0.6","0.8","","","","","0.05136562407","0.1014962652","0.3940248177","0.1519969922","","","","","","","74","J","1","","","19","main_expt"
"180","","bandit","98","319174","0.0-59.0-0.0","85658262","wem/bandit_either","AEWGY34WUIA32","either","6","","","","","","","0","0","1","","0.05620034239","0.2","0.4","0.6","0.8","0.05620034239","0.1184271466","0.3980303587","0.2344823222","","","","","","","","","","","72","H","0","img/none_selected.jpg","","20","main_expt"
"314","","bandit","99","321013","0.0-60.0-0.0","85658262","wem/bandit_either","AEWGY34WUIA32","either","6","","","","","","","0","0","1","","0.2227593861","0.2","0.4","0.6","0.8","0.04865895453","0.1434190777","0.405953395","0.2227593861","","","","","","","","","","","76","L","3","","","21","main_expt"
"42","","bandit","100","322563","0.0-61.0-0.0","85658262","wem/bandit_either","AEWGY34WUIA32","either","6","","","","","","","0","1","0","","0.37898799","0.2","0.4","0.6","0.8","0.05276066643","0.1323354157","0.37898799","0.1831098024","","","","","","","","","","","75","K","2","","","22","main_expt"
"78","","bandit","101","324162","0.0-62.0-0.0","85658262","wem/bandit_either","AEWGY34WUIA32","either","6","","","","","","","0","0","1","0.3661255489","","0.2","0.4","0.6","0.8","","","","","0.05284133488","0.1384191998","0.3661255489","0.1660310818","","","","","","","75","K","2","","","23","main_expt"
"80","","bandit","102","325765","0.0-63.0-0.0","85658262","wem/bandit_either","AEWGY34WUIA32","either","6","","","","","","","0","0","1","","0.1395593146","0.2","0.4","0.6","0.8","0.0333904923","0.1395593146","0.3576379461","0.1400827643","","","","","","","","","","","74","J","1","","","24","main_expt"
"297","","bandit","103","327574","0.0-64.0-0.0","85658262","wem/bandit_either","AEWGY34WUIA32","either","6","","","","","","","1","0","0","0.3346121782","","0.2","0.4","0.6","0.8","","","","","0.04666446392","0.1696236693","0.3346121782","0.2022937807","","","","","","","75","K","2","","","25","main_expt"
"173","","bandit","104","329261","0.0-65.0-0.0","85658262","wem/bandit_either","AEWGY34WUIA32","either","6","","","","","","","1","0","0","0.3790434843","","0.2","0.4","0.6","0.8","","","","","0.04067930801","0.1754084838","0.3790434843","0.1725383963","","","","","","","75","K","2","","","26","main_expt"
"191","","bandit","105","330963","0.0-66.0-0.0","85658262","wem/bandit_either","AEWGY34WUIA32","either","6","","","","","","","0","0","1","0.3744762435","","0.2","0.4","0.6","0.8","","","","","0.03070036018","0.118483546","0.3744762435","0.1735642386","","","","","","","75","K","2","","","27","main_expt"
"0","","bandit","106","332474","0.0-67.0-0.0","85658262","wem/bandit_either","AEWGY34WUIA32","either","6","","","","","","","1","0","0","0.3650769418","","0.2","0.4","0.6","0.8","","","","","0.02292460278","0.1259847853","0.3650769418","0.149532802","","","","","","","75","K","2","","","28","main_expt"
"121","","bandit","107","334116","0.0-68.0-0.0","85658262","wem/bandit_either","AEWGY34WUIA32","either","6","","","","","","","0","1","0","","0.3299345172","0.2","0.4","0.6","0.8","0.03476379039","0.1072727049","0.3299345172","0.1597785082","","","","","","","","","","","75","K","2","","","29","main_expt"
"356","","bandit","108","335989","0.0-69.0-0.0","85658262","wem/bandit_either","AEWGY34WUIA32","either","6","","","","","","","0","0","1","0.3010095271","","0.2","0.4","0.6","0.8","","","","","0.04211589453","0.07952930744","0.3010095271","0.1978771271","","","","","","","75","K","2","","","30","main_expt"
"11298","","bandit","109","348795","0.0-70.0-0.0","85658262","wem/bandit_either","AEWGY34WUIA32","either","6","","","","","","","1","0","0","0.331530841","","0.2","0.4","0.6","0.8","","","","","0.04495483672","0.09691030242","0.331530841","0.1928768267","","","","","","","75","K","2","","","31","main_expt"
"300","","bandit","110","350606","0.0-71.0-0.0","85658262","wem/bandit_either","AEWGY34WUIA32","either","6","","","","","","","0","1","0","","0.3469043085","0.2","0.4","0.6","0.8","0.04126869591","0.1338720944","0.3469043085","0.1511047494","","","","","","","","","","","75","K","2","","","32","main_expt"
"137","","bandit","111","352256","0.0-72.0-0.0","85658262","wem/bandit_either","AEWGY34WUIA32","either","6","","","","","","","0","0","1","","0.2778139242","0.2","0.4","0.6","0.8","0.02396570111","0.1428203538","0.2778139242","0.09247049486","","","","","","","","","","","75","K","2","","","33","main_expt"
"77","","bandit","112","353838","0.0-73.0-0.0","85658262","wem/bandit_either","AEWGY34WUIA32","either","6","","","","","","","0","0","1","0.1127946788","","0.2","0.4","0.6","0.8","","","","","0.03561151332","0.1258169527","0.236883459","0.1127946788","","","","","","","76","L","3","","","34","main_expt"
"298","","bandit","113","355658","0.0-74.0-0.0","85658262","wem/bandit_either","AEWGY34WUIA32","either","6","","","","","","","0","0","1","","0.04565222073","0.2","0.4","0.6","0.8","0.04565222073","0.1652362889","0.2656196476","0.1279928094","","","","","","","","","","","72","H","0","img/none_selected.jpg","","35","main_expt"
"54","","bandit","114","357223","0.0-75.0-0.0","85658262","wem/bandit_either","AEWGY34WUIA32","either","6","","","","","","","0","0","1","","0.1472348388","0.2","0.4","0.6","0.8","0.05036449293","0.1472348388","0.2309028503","0.09285608896","","","","","","","","","","","74","J","1","","","36","main_expt"
"168","","bandit","115","358914","0.0-76.0-0.0","85658262","wem/bandit_either","AEWGY34WUIA32","either","6","","","","","","","0","0","1","","0.1961267878","0.2","0.4","0.6","0.8","0.04764774511","0.20581188","0.1961267878","0.1251507517","","","","","","","","","","","75","K","2","","","37","main_expt"
"120","","bandit","116","360558","0.0-77.0-0.0","85658262","wem/bandit_either","AEWGY34WUIA32","either","6","","","","","","","0","0","1","","0.2197692452","0.2","0.4","0.6","0.8","0.04692466818","0.2096070571","0.2197692452","0.1248439258","","","","","","","","","","","75","K","2","","","38","main_expt"
"166","","bandit","117","362241","0.0-78.0-0.0","85658262","wem/bandit_either","AEWGY34WUIA32","either","6","","","","","","","0","0","1","0.1192858938","","0.2","0.4","0.6","0.8","","","","","0.06150360576","0.1888903691","0.1783178102","0.1192858938","","","","","","","76","L","3","","","39","main_expt"
"307","","bandit","118","364062","0.0-79.0-0.0","85658262","wem/bandit_either","AEWGY34WUIA32","either","6","","","","","","","0","0","1","","0.1769314034","0.2","0.4","0.6","0.8","0.1025324214","0.1769314034","0.1354267005","0.1457630933","","","","","","","","","","","74","J","1","","","40","main_expt"
"312","","bandit","119","365892","0.0-80.0-0.0","85658262","wem/bandit_either","AEWGY34WUIA32","either","6","","","","","","","0","1","0","","0.1278282258","0.2","0.4","0.6","0.8","0.1278282258","0.1764673912","0.1307301687","0.1788887836","","","","","","","","","","","72","H","0","img/none_selected.jpg","","41","main_expt"
"136","","bandit","120","367541","0.0-81.0-0.0","85658262","wem/bandit_either","AEWGY34WUIA32","either","6","","","","","","","0","1","0","","0.1144783829","0.2","0.4","0.6","0.8","0.1144783829","0.1164002711","0.1002459791","0.1550439797","","","","","","","","","","","72","H","0","img/none_selected.jpg","","42","main_expt"
"197","","bandit","121","369258","0.0-82.0-0.0","85658262","wem/bandit_either","AEWGY34WUIA32","either","6","","","","","","","0","0","1","","0.148274456","0.2","0.4","0.6","0.8","0.148274456","0.1248357276","0.06131682752","0.1624336935","","","","","","","","","","","72","H","0","img/none_selected.jpg","","43","main_expt"
"206","","bandit","122","370981","0.0-83.0-0.0","85658262","wem/bandit_either","AEWGY34WUIA32","either","6","","","","","","","0","0","1","","0.1733993608","0.2","0.4","0.6","0.8","0.1733993608","0.1801883524","0.05757194937","0.2610419313","","","","","","","","","","","72","H","0","img/none_selected.jpg","","44","main_expt"
"170","","bandit","123","372664","0.0-84.0-0.0","85658262","wem/bandit_either","AEWGY34WUIA32","either","6","","","","","","","0","0","1","","0.1731137141","0.2","0.4","0.6","0.8","0.1731137141","0.1536252234","0.06317169253","0.2547096211","","","","","","","","","","","72","H","0","img/none_selected.jpg","","45","main_expt"
"190","","bandit","124","374364","0.0-85.0-0.0","85658262","wem/bandit_either","AEWGY34WUIA32","either","6","","","","","","","0","0","1","","0.1453657368","0.2","0.4","0.6","0.8","0.2577534017","0.1453657368","0.08604650327","0.2690630982","","","","","","","","","","","74","J","1","","","46","main_expt"
"140","","bandit","125","376028","0.0-86.0-0.0","85658262","wem/bandit_either","AEWGY34WUIA32","either","6","","","","","","","1","0","0","0.07503215105","","0.2","0.4","0.6","0.8","","","","","0.2436059896","0.1163474927","0.07503215105","0.2613787364","","","","","","","75","K","2","","","47","main_expt"
"173","","bandit","126","377724","0.0-87.0-0.0","85658262","wem/bandit_either","AEWGY34WUIA32","either","6","","","","","","","0","0","1","","0.09661626413","0.2","0.4","0.6","0.8","0.261356988","0.1187671899","0.09661626413","0.2764851171","","","","","","","","","","","75","K","2","","","48","main_expt"
"197","","bandit","127","379431","0.0-88.0-0.0","85658262","wem/bandit_either","AEWGY34WUIA32","either","6","","","","","","","0","0","1","","0.141419135","0.2","0.4","0.6","0.8","0.2707362224","0.1321787199","0.141419135","0.2628846066","","","","","","","","","","","75","K","2","","","49","main_expt"
"193","","bandit","128","381141","0.0-89.0-0.0","85658262","wem/bandit_either","AEWGY34WUIA32","either","6","","","","","","","0","0","1","0.1310663867","","0.2","0.4","0.6","0.8","","","","","0.2733601765","0.1310663867","0.1341637883","0.3634831931","","","","","","","74","J","1","","","50","main_expt"
"167","","bandit","129","382824","0.0-90.0-0.0","85658262","wem/bandit_either","AEWGY34WUIA32","either","6","","","","","","","0","0","1","0.3771608335","","0.2","0.4","0.6","0.8","","","","","0.2590969561","0.1450472339","0.1225974466","0.3771608335","","","","","","","76","L","3","","","51","main_expt"
"457","","bandit","130","384791","0.0-91.0-0.0","85658262","wem/bandit_either","AEWGY34WUIA32","either","6","","","","","","","0","0","1","0.3093307572","","0.2","0.4","0.6","0.8","","","","","0.2515646212","0.1731775471","0.1145468474","0.3093307572","","","","","","","76","L","3","","","52","main_expt"
"42","","bandit","131","386343","0.0-92.0-0.0","85658262","wem/bandit_either","AEWGY34WUIA32","either","6","","","","","","","0","0","1","0.1059564611","","0.2","0.4","0.6","0.8","","","","","0.2257746054","0.2258016315","0.1059564611","0.2990929044","","","","","","","75","K","2","","","53","main_expt"
"155","","bandit","132","388009","0.0-93.0-0.0","85658262","wem/bandit_either","AEWGY34WUIA32","either","6","","","","","","","0","0","1","0.1090017536","","0.2","0.4","0.6","0.8","","","","","0.2750925763","0.2172527187","0.1090017536","0.2221679908","","","","","","","75","K","2","","","54","main_expt"
"136","","bandit","133","389650","0.0-94.0-0.0","85658262","wem/bandit_either","AEWGY34WUIA32","either","6","","","","","","","0","0","1","","0.3608357377","0.2","0.4","0.6","0.8","0.3608357377","0.1652356872","0.1249444004","0.1886471815","","","","","","","","","","","72","H","0","img/none_selected.jpg","","55","main_expt"
"218","","bandit","134","391383","0.0-95.0-0.0","85658262","wem/bandit_either","AEWGY34WUIA32","either","6","","","","","","","0","0","1","","0.4022545085","0.2","0.4","0.6","0.8","0.4022545085","0.1576418272","0.09043885587","0.1973213641","","","","","","","","","","","72","H","0","img/none_selected.jpg","","56","main_expt"
"88","","bandit","135","392992","0.0-96.0-0.0","85658262","wem/bandit_either","AEWGY34WUIA32","either","6","","","","","","","0","0","1","0.180776926","","0.2","0.4","0.6","0.8","","","","","0.3867568464","0.180776926","0.07448640425","0.2207101474","","","","","","","74","J","1","","","57","main_expt"
"66","","bandit","136","394573","0.0-97.0-0.0","85658262","wem/bandit_either","AEWGY34WUIA32","either","6","","","","","","","0","0","1","","0.1489081552","0.2","0.4","0.6","0.8","0.3840355114","0.1489081552","0.09808879237","0.2480089655","","","","","","","","","","","74","J","1","","","58","main_expt"
"245","","bandit","137","396342","0.0-98.0-0.0","85658262","wem/bandit_either","AEWGY34WUIA32","either","6","","","","","","","0","0","1","","0.0721355853","0.2","0.4","0.6","0.8","0.3617876187","0.125555473","0.0721355853","0.2667579505","","","","","","","","","","","75","K","2","","","59","main_expt"
"498","","bandit","138","398361","0.0-99.0-0.0","85658262","wem/bandit_either","AEWGY34WUIA32","either","6","","","","","","","0","0","1","0.2637313595","","0.2","0.4","0.6","0.8","","","","","0.3018070945","0.1228814318","0.08871326978","0.2637313595","","","","","","","76","L","3","","","60","main_expt"
"134","","bandit","139","400004","0.0-100.0-0.0","85658262","wem/bandit_either","AEWGY34WUIA32","either","6","","","","","","","0","0","1","","0.2687465691","0.2","0.4","0.6","0.8","0.2687465691","0.195834737","0.1472383223","0.2400462537","","","","","","","","","","","72","H","0","img/none_selected.jpg","","61","main_expt"
"124","","bandit","140","401638","0.0-101.0-0.0","85658262","wem/bandit_either","AEWGY34WUIA32","either","6","","","","","","","0","0","1","","0.287622952","0.2","0.4","0.6","0.8","0.287622952","0.1952904108","0.1625866577","0.2396546157","","","","","","","","","","","72","H","0","img/none_selected.jpg","","62","main_expt"
"83","","bandit","141","403239","0.0-102.0-0.0","85658262","wem/bandit_either","AEWGY34WUIA32","either","6","","","","","","","0","0","1","","0.1196153378","0.2","0.4","0.6","0.8","0.2060093557","0.187392073","0.1196153378","0.2558687718","","","","","","","","","","","75","K","2","","","63","main_expt"
"299","","bandit","142","405061","0.0-103.0-0.0","85658262","wem/bandit_either","AEWGY34WUIA32","either","6","","","","","","","0","1","0","","0.1774517964","0.2","0.4","0.6","0.8","0.1865830226","0.1774517964","0.1025290435","0.1789331692","","","","","","","","","","","74","J","1","","","64","main_expt"
"264","","bandit","143","406833","0.0-104.0-0.0","85658262","wem/bandit_either","AEWGY34WUIA32","either","6","","","","","","","0","0","1","","0.1956590225","0.2","0.4","0.6","0.8","0.2242960511","0.1956590225","0.06637487434","0.2041721298","","","","","","","","","","","74","J","1","","","65","main_expt"
"89","","bandit","144","408444","0.0-105.0-0.0","85658262","wem/bandit_either","AEWGY34WUIA32","either","6","","","","","","","0","0","1","","0.1559932489","0.2","0.4","0.6","0.8","0.213739571","0.1559932489","0.09888809835","0.1083731131","","","","","","","","","","","74","J","1","","","66","main_expt"
"214","","bandit","145","410183","0.0-106.0-0.0","85658262","wem/bandit_either","AEWGY34WUIA32","either","6","","","","","","","0","0","1","0.1327283285","","0.2","0.4","0.6","0.8","","","","","0.2463093088","0.1327283285","0.08542348091","0.08148965902","","","","","","","74","J","1","","","67","main_expt"
"219","","bandit","146","411915","0.0-107.0-0.0","85658262","wem/bandit_either","AEWGY34WUIA32","either","6","","","","","","","0","0","1","0.1646421129","","0.2","0.4","0.6","0.8","","","","","0.1863602012","0.1646421129","0.05648132023","0.115871946","","","","","","","74","J","1","","","68","main_expt"
"160","","bandit","147","413583","0.0-108.0-0.0","85658262","wem/bandit_either","AEWGY34WUIA32","either","6","","","","","","","1","0","0","0.1049465522","","0.2","0.4","0.6","0.8","","","","","0.1481768435","0.1879918005","0.07427448495","0.1049465522","","","","","","","76","L","3","","","69","main_expt"
"196","","bandit","148","415292","0.0-109.0-0.0","85658262","wem/bandit_either","AEWGY34WUIA32","either","6","","","","","","","0","0","1","","0.1224614501","0.2","0.4","0.6","0.8","0.2062415021","0.1708527721","0.1052870039","0.1224614501","","","","","","","","","","","76","L","3","","","70","main_expt"
"52","","bandit","149","416858","0.0-110.0-0.0","85658262","wem/bandit_either","AEWGY34WUIA32","either","6","","","","","","","1","0","0","0.1687358413","","0.2","0.4","0.6","0.8","","","","","0.2175562698","0.1930923514","0.1114501371","0.1687358413","","","","","","","76","L","3","","","71","main_expt"
"277","","bandit","150","418658","0.0-111.0-0.0","85658262","wem/bandit_either","AEWGY34WUIA32","either","6","","","","","","","0","0","1","0.1902964731","","0.2","0.4","0.6","0.8","","","","","0.2182173038","0.2289396243","0.1282799478","0.1902964731","","","","","","","76","L","3","","","72","main_expt"
"284","","bandit","151","420465","0.0-112.0-0.0","85658262","wem/bandit_either","AEWGY34WUIA32","either","6","","","","","","","0","0","1","0.1764690901","","0.2","0.4","0.6","0.8","","","","","0.1629952044","0.2223781067","0.1113050996","0.1764690901","","","","","","","76","L","3","","","73","main_expt"
"340","","bandit","152","422316","0.0-113.0-0.0","85658262","wem/bandit_either","AEWGY34WUIA32","either","6","","","","","","","0","0","1","0.1573287606","","0.2","0.4","0.6","0.8","","","","","0.2291178652","0.1664819569","0.1573287606","0.1720288853","","","","","","","75","K","2","","","74","main_expt"
"89","","bandit","153","423926","0.0-114.0-0.0","85658262","wem/bandit_either","AEWGY34WUIA32","either","6","","","","","","","0","0","1","","0.2087405931","0.2","0.4","0.6","0.8","0.2087405931","0.1157276324","0.168318459","0.098780463","","","","","","","","","","","72","H","0","img/none_selected.jpg","","75","main_expt"
"146","","bandit","154","425582","0.0-115.0-0.0","85658262","wem/bandit_either","AEWGY34WUIA32","either","6","","","","","","","0","0","1","0.06912044911","","0.2","0.4","0.6","0.8","","","","","0.1981976751","0.06912044911","0.131742089","0.08192786134","","","","","","","74","J","1","","","76","main_expt"
"177","","bandit","155","427282","0.0-116.0-0.0","85658262","wem/bandit_either","AEWGY34WUIA32","either","6","","","","","","","0","0","1","0.03620126105","","0.2","0.4","0.6","0.8","","","","","0.2302368041","0.06151132513","0.1382621175","0.03620126105","","","","","","","76","L","3","","","77","main_expt"
"440","","bandit","156","429244","0.0-117.0-0.0","85658262","wem/bandit_either","AEWGY34WUIA32","either","6","","","","","","","0","1","0","","0.1351161864","0.2","0.4","0.6","0.8","0.2538269909","0.08824794056","0.1351161864","0.03362754592","","","","","","","","","","","75","K","2","","","78","main_expt"
"394","","bandit","157","431148","0.0-118.0-0.0","85658262","wem/bandit_either","AEWGY34WUIA32","either","6","","","","","","","1","0","0","0.1125986002","","0.2","0.4","0.6","0.8","","","","","0.221492582","0.08425003046","0.1125986002","0.03917851348","","","","","","","75","K","2","","","79","main_expt"
"220","","bandit","158","432892","0.0-119.0-0.0","85658262","wem/bandit_either","AEWGY34WUIA32","either","6","","","","","","","0","0","1","0.1071358869","","0.2","0.4","0.6","0.8","","","","","0.2126184008","0.1059393704","0.1071358869","0.06916691586","","","","","","","75","K","2","","","80","main_expt"
"127","","bandit","159","434542","0.0-120.0-0.0","85658262","wem/bandit_either","AEWGY34WUIA32","either","6","","","","","","","0","0","1","0.1110223174","","0.2","0.4","0.6","0.8","","","","","0.1803612399","0.114990546","0.1410751298","0.1110223174","","","","","","","76","L","3","","","81","main_expt"
"97","","bandit","160","436158","0.0-121.0-0.0","85658262","wem/bandit_either","AEWGY34WUIA32","either","6","","","","","","","0","0","1","","0.1883980103","0.2","0.4","0.6","0.8","0.1883980103","0.1246300745","0.1518454263","0.08899533144","","","","","","","","","","","72","H","0","img/none_selected.jpg","","82","main_expt"
"517","","bandit","161","438192","0.0-122.0-0.0","85658262","wem/bandit_either","AEWGY34WUIA32","either","6","","","","","","","0","0","1","","0.1523433176","0.2","0.4","0.6","0.8","0.2099895667","0.1523433176","0.1285150734","0.1383499545","","","","","","","","","","","74","J","1","","","83","main_expt"
"1827","","bandit","162","441542","0.0-123.0-0.0","85658262","wem/bandit_either","AEWGY34WUIA32","either","6","","","","","","","0","0","1","0.1230513595","","0.2","0.4","0.6","0.8","","","","","0.1760666055","0.1230513595","0.1083679187","0.1815119679","","","","","","","74","J","1","","","84","main_expt"
"297","","bandit","163","443359","0.0-124.0-0.0","85658262","wem/bandit_either","AEWGY34WUIA32","either","6","","","","","","","0","0","1","0.08985983991","","0.2","0.4","0.6","0.8","","","","","0.2077415988","0.1460595132","0.08985983991","0.2121304898","","","","","","","75","K","2","","","85","main_expt"
"86","","bandit","164","444959","0.0-125.0-0.0","85658262","wem/bandit_either","AEWGY34WUIA32","either","6","","","","","","","0","0","1","0.1931166697","","0.2","0.4","0.6","0.8","","","","","0.1940704576","0.1578730034","0.08377758623","0.1931166697","","","","","","","76","L","3","","","86","main_expt"
"65","","bandit","165","446532","0.0-126.0-0.0","85658262","wem/bandit_either","AEWGY34WUIA32","either","6","","","","","","","0","0","1","","0.1920524506","0.2","0.4","0.6","0.8","0.1920524506","0.1329566931","0.08340742779","0.1908876969","","","","","","","","","","","72","H","0","img/none_selected.jpg","","87","main_expt"
"1020","","bandit","166","449066","0.0-127.0-0.0","85658262","wem/bandit_either","AEWGY34WUIA32","either","6","","","","","","","0","1","0","","0.2525081946","0.2","0.4","0.6","0.8","0.2525081946","0.1156353122","0.06937011617","0.1727332377","","","","","","","","","","","72","H","0","img/none_selected.jpg","","88","main_expt"
"229","","bandit","167","450815","0.0-128.0-0.0","85658262","wem/bandit_either","AEWGY34WUIA32","either","6","","","","","","","0","0","1","","0.2476280913","0.2","0.4","0.6","0.8","0.2476280913","0.1169245856","0.08556693901","0.1747664758","","","","","","","","","","","72","H","0","img/none_selected.jpg","","89","main_expt"
"160","","bandit","168","452499","0.0-129.0-0.0","85658262","wem/bandit_either","AEWGY34WUIA32","either","6","","","","","","","0","1","0","","0.2476417222","0.2","0.4","0.6","0.8","0.2476417222","0.1276927611","0.1013294801","0.1302891894","","","","","","","","","","","72","H","0","img/none_selected.jpg","","90","main_expt"
"150","","bandit","169","454165","0.0-130.0-0.0","85658262","wem/bandit_either","AEWGY34WUIA32","either","6","","","","","","","0","1","0","","0.1875867431","0.2","0.4","0.6","0.8","0.1875867431","0.1633868825","0.1567130635","0.1143331172","","","","","","","","","","","72","H","0","img/none_selected.jpg","","91","main_expt"
"240","","bandit","170","455910","0.0-131.0-0.0","85658262","wem/bandit_either","AEWGY34WUIA32","either","6","","","","","","","0","0","1","","0.1804963823","0.2","0.4","0.6","0.8","0.1804963823","0.2172033847","0.1214255195","0.1674068059","","","","","","","","","","","72","H","0","img/none_selected.jpg","","92","main_expt"
"185","","bandit","171","457615","0.0-132.0-0.0","85658262","wem/bandit_either","AEWGY34WUIA32","either","6","","","","","","","0","0","1","","0.2178255547","0.2","0.4","0.6","0.8","0.1468121695","0.2178255547","0.1317465968","0.1405005834","","","","","","","","","","","74","J","1","","","93","main_expt"
"57","","bandit","172","459185","0.0-133.0-0.0","85658262","wem/bandit_either","AEWGY34WUIA32","either","6","","","","","","","1","0","0","0.1810196293","","0.2","0.4","0.6","0.8","","","","","0.1270151289","0.2058786334","0.1810196293","0.1338278818","","","","","","","75","K","2","","","94","main_expt"
"87","","bandit","173","460782","0.0-134.0-0.0","85658262","wem/bandit_either","AEWGY34WUIA32","either","6","","","","","","","0","0","1","0.1537803575","","0.2","0.4","0.6","0.8","","","","","0.1049494322","0.2009860572","0.1537803575","0.16416917","","","","","","","75","K","2","","","95","main_expt"
"213","","bandit","174","462509","0.0-135.0-0.0","85658262","wem/bandit_either","AEWGY34WUIA32","either","6","","","","","","","0","0","1","","0.2255368078","0.2","0.4","0.6","0.8","0.1242023773","0.2792576191","0.2255368078","0.1075549125","","","","","","","","","","","75","K","2","","","96","main_expt"
"247","","bandit","175","464276","0.0-136.0-0.0","85658262","wem/bandit_either","AEWGY34WUIA32","either","6","","","","","","","0","0","1","0.07285617598","","0.2","0.4","0.6","0.8","","","","","0.101802889","0.291042229","0.1881791955","0.07285617598","","","","","","","76","L","3","","","97","main_expt"
"146","","bandit","176","465936","0.0-137.0-0.0","85658262","wem/bandit_either","AEWGY34WUIA32","either","6","","","","","","","0","0","1","","0.08559904752","0.2","0.4","0.6","0.8","0.08559904752","0.2919937097","0.1722186849","0.1128802937","","","","","","","","","","","72","H","0","img/none_selected.jpg","","98","main_expt"
"156","","bandit","177","467609","0.0-138.0-0.0","85658262","wem/bandit_either","AEWGY34WUIA32","either","6","","","","","","","0","0","1","","0.338066437","0.2","0.4","0.6","0.8","0.04480153982","0.338066437","0.2581810796","0.07338875894","","","","","","","","","","","74","J","1","","","99","main_expt"
"97","","bandit","178","469226","0.0-139.0-0.0","85658262","wem/bandit_either","AEWGY34WUIA32","either","6","","","","","","","0","0","1","0.03694367041","","0.2","0.4","0.6","0.8","","","","","0.03694367041","0.3466775547","0.3094702251","0.06256672301","","","","","","","72","H","0","img/none_selected.jpg","","100","main_expt"
"396","","bandit","179","471132","0.0-140.0-0.0","85658262","wem/bandit_either","AEWGY34WUIA32","either","6","","","","","","","0","0","1","0.06765033746","","0.2","0.4","0.6","0.8","","","","","0.02534596886","0.3776837944","0.3217449289","0.06765033746","","","","","","","76","L","3","","","101","main_expt"
"36","","bandit","180","472672","0.0-141.0-0.0","85658262","wem/bandit_either","AEWGY34WUIA32","either","6","","","","","","","1","0","0","0.3656493725","","0.2","0.4","0.6","0.8","","","","","0.03456503798","0.3988278911","0.3656493725","0.08460413752","","","","","","","75","K","2","","","102","main_expt"
"204","","bandit","181","474392","0.0-142.0-0.0","85658262","wem/bandit_either","AEWGY34WUIA32","either","6","","","","","","","0","1","0","","0.4097417878","0.2","0.4","0.6","0.8","0.03116272615","0.3642388176","0.4097417878","0.1149622558","","","","","","","","","","","75","K","2","","","103","main_expt"
"237","","bandit","182","476142","0.0-143.0-0.0","85658262","wem/bandit_either","AEWGY34WUIA32","either","6","","","","","","","0","0","1","","0.4005896235","0.2","0.4","0.6","0.8","0.04034009898","0.3059376685","0.4005896235","0.1223821921","","","","","","","","","","","75","K","2","","","104","main_expt"
"217","","bandit","183","477878","0.0-144.0-0.0","85658262","wem/bandit_either","AEWGY34WUIA32","either","6","","","","","","","1","0","0","0.3967946647","","0.2","0.4","0.6","0.8","","","","","0.06132200156","0.2658022239","0.3967946647","0.1302837569","","","","","","","75","K","2","","","105","main_expt"
"194","","bandit","184","479582","0.0-145.0-0.0","85658262","wem/bandit_either","AEWGY34WUIA32","either","6","","","","","","","0","0","1","0.3920329447","","0.2","0.4","0.6","0.8","","","","","0.03171667797","0.2583534607","0.3920329447","0.1405927316","","","","","","","75","K","2","","","106","main_expt"
"56","","bandit","185","481159","0.0-146.0-0.0","85658262","wem/bandit_either","AEWGY34WUIA32","either","6","","","","","","","0","0","1","0.3973329777","","0.2","0.4","0.6","0.8","","","","","0.06603394544","0.2402432731","0.3973329777","0.1835021143","","","","","","","75","K","2","","","107","main_expt"
"6767","","bandit","186","489443","0.0-147.0-0.0","85658262","wem/bandit_either","AEWGY34WUIA32","either","6","","","","","","","0","0","1","0.3839010997","","0.2","0.4","0.6","0.8","","","","","0.08137973005","0.2364509509","0.3839010997","0.2124513917","","","","","","","75","K","2","","","108","main_expt"
"386","","bandit","187","491343","0.0-148.0-0.0","85658262","wem/bandit_either","AEWGY34WUIA32","either","6","","","","","","","0","0","1","","0.3879107289","0.2","0.4","0.6","0.8","0.04765661509","0.2164051194","0.3879107289","0.218007314","","","","","","","","","","","75","K","2","","","109","main_expt"
"356","","bandit","188","493216","0.0-149.0-0.0","85658262","wem/bandit_either","AEWGY34WUIA32","either","6","","","","","","","0","0","1","0.3989855113","","0.2","0.4","0.6","0.8","","","","","0.06789381979","0.1611838666","0.3989855113","0.229469423","","","","","","","75","K","2","","","110","main_expt"
"260","","bandit","189","494984","0.0-150.0-0.0","85658262","wem/bandit_either","AEWGY34WUIA32","either","6","","","","","","","0","0","1","","0.2923436213","0.2","0.4","0.6","0.8","0.08972795074","0.2042622235","0.3959495959","0.2923436213","","","","","","","","","","","76","L","3","","","111","main_expt"
"255","","bandit","190","496759","0.0-151.0-0.0","85658262","wem/bandit_either","AEWGY34WUIA32","either","6","","","","","","","0","0","1","0.2778802509","","0.2","0.4","0.6","0.8","","","","","0.1176683061","0.2113733305","0.335596647","0.2778802509","","","","","","","76","L","3","","","112","main_expt"
"417","","bandit","191","498700","0.0-152.0-0.0","85658262","wem/bandit_either","AEWGY34WUIA32","either","6","","","","","","","0","1","0","","0.220236308","0.2","0.4","0.6","0.8","0.1973953549","0.220236308","0.2876347753","0.2852166322","","","","","","","","","","","74","J","1","","","113","main_expt"
"479","","bandit","192","500693","0.0-153.0-0.0","85658262","wem/bandit_either","AEWGY34WUIA32","either","6","","","","","","","0","0","1","0.2453392608","","0.2","0.4","0.6","0.8","","","","","0.200840576","0.2453392608","0.2811359795","0.3222351196","","","","","","","74","J","1","","","114","main_expt"
"356","","bandit","193","502567","0.0-154.0-0.0","85658262","wem/bandit_either","AEWGY34WUIA32","either","6","","","","","","","0","0","1","","0.2544006126","0.2","0.4","0.6","0.8","0.2544006126","0.2311931225","0.2056035349","0.2865303103","","","","","","","","","","","72","H","0","img/none_selected.jpg","","115","main_expt"
"26720","","bandit","194","530812","0.0-155.0-0.0","85658262","wem/bandit_either","AEWGY34WUIA32","either","6","","","","","","","0","0","1","0.2435386161","","0.2","0.4","0.6","0.8","","","","","0.2264812366","0.2290532582","0.2435386161","0.1901772154","","","","","","","75","K","2","","","116","main_expt"
"557","","bandit","195","532884","0.0-156.0-0.0","85658262","wem/bandit_either","AEWGY34WUIA32","either","6","","","","","","","0","0","1","","0.2535822563","0.2","0.4","0.6","0.8","0.2535822563","0.2610634121","0.2523066444","0.1854727963","","","","","","","","","","","72","H","0","img/none_selected.jpg","","117","main_expt"
"130","","bandit","196","534528","0.0-157.0-0.0","85658262","wem/bandit_either","AEWGY34WUIA32","either","6","","","","","","","0","0","1","","0.2915584027","0.2","0.4","0.6","0.8","0.288462609","0.2915584027","0.258758296","0.223078523","","","","","","","","","","","74","J","1","","","118","main_expt"
"40","","bandit","197","536079","0.0-158.0-0.0","85658262","wem/bandit_either","AEWGY34WUIA32","either","6","","","","","","","0","1","0","","0.2157898803","0.2","0.4","0.6","0.8","0.3077733757","0.3240034744","0.2513882557","0.2157898803","","","","","","","","","","","76","L","3","","","119","main_expt"
"125","","bandit","198","537720","0.0-159.0-0.0","85658262","wem/bandit_either","AEWGY34WUIA32","either","6","","","","","","","0","0","1","0.2055853597","","0.2","0.4","0.6","0.8","","","","","0.3470363664","0.3584552205","0.2178230887","0.2055853597","","","","","","","76","L","3","","","120","main_expt"
"128","","bandit","199","539361","0.0-160.0-0.0","85658262","wem/bandit_either","AEWGY34WUIA32","either","6","","","","","","","0","0","1","0.2308362602","","0.2","0.4","0.6","0.8","","","","","0.36369082","0.3392259721","0.2249913612","0.2308362602","","","","","","","76","L","3","","","121","main_expt"
"1097","","bandit","200","541978","0.0-161.0-0.0","85658262","wem/bandit_either","AEWGY34WUIA32","either","6","","","","","","","1","0","0","0.3211990091","","0.2","0.4","0.6","0.8","","","","","0.3740977319","0.3211990091","0.2135386538","0.1858821776","","","","","","","74","J","1","","","122","main_expt"
"1317","","bandit","201","544811","0.0-162.0-0.0","85658262","wem/bandit_either","AEWGY34WUIA32","either","6","","","","","","","0","1","0","","0.3617230251","0.2","0.4","0.6","0.8","0.3617230251","0.3082515077","0.2742148462","0.1948645322","","","","","","","","","","","72","H","0","img/none_selected.jpg","","123","main_expt"
"317","","bandit","202","546644","0.0-163.0-0.0","85658262","wem/bandit_either","AEWGY34WUIA32","either","6","","","","","","","1","0","0","0.3189133642","","0.2","0.4","0.6","0.8","","","","","0.3189133642","0.3337980485","0.3092488957","0.1875433284","","","","","","","72","H","0","img/none_selected.jpg","","124","main_expt"
"307","","bandit","203","548454","0.0-164.0-0.0","85658262","wem/bandit_either","AEWGY34WUIA32","either","6","","","","","","","0","0","1","","0.3134342975","0.2","0.4","0.6","0.8","0.3134342975","0.2815584253","0.2832498899","0.1805360773","","","","","","","","","","","72","H","0","img/none_selected.jpg","","125","main_expt"
"113","","bandit","204","550086","0.0-165.0-0.0","85658262","wem/bandit_either","AEWGY34WUIA32","either","6","","","","","","","0","0","1","","0.2889117865","0.2","0.4","0.6","0.8","0.2889117865","0.2544389989","0.321902755","0.2199741614","","","","","","","","","","","72","H","0","img/none_selected.jpg","","126","main_expt"
"348","","bandit","205","551951","0.0-166.0-0.0","85658262","wem/bandit_either","AEWGY34WUIA32","either","6","","","","","","","0","0","1","","0.3101500906","0.2","0.4","0.6","0.8","0.3101500906","0.217883989","0.3163630435","0.212963778","","","","","","","","","","","72","H","0","img/none_selected.jpg","","127","main_expt"
"370","","bandit","206","553834","0.0-167.0-0.0","85658262","wem/bandit_either","AEWGY34WUIA32","either","6","","","","","","","0","0","1","","0.1941215274","0.2","0.4","0.6","0.8","0.3257933697","0.1941215274","0.3242789072","0.1853882534","","","","","","","","","","","74","J","1","","","128","main_expt"
"10","","bandit","207","555353","0.0-168.0-0.0","85658262","wem/bandit_either","AEWGY34WUIA32","either","6","","","","","","","0","1","0","","0.1486900389","0.2","0.4","0.6","0.8","0.2767822115","0.2093197904","0.3430844202","0.1486900389","","","","","","","","","","","76","L","3","","","129","main_expt"
"198","","bandit","208","557061","0.0-169.0-0.0","85658262","wem/bandit_either","AEWGY34WUIA32","either","6","","","","","","","1","0","0","0.1581202816","","0.2","0.4","0.6","0.8","","","","","0.3389859305","0.2325895014","0.3487272729","0.1581202816","","","","","","","76","L","3","","","130","main_expt"
"217","","bandit","209","558795","0.0-170.0-0.0","85658262","wem/bandit_either","AEWGY34WUIA32","either","6","","","","","","","1","0","0","0.1189605486","","0.2","0.4","0.6","0.8","","","","","0.2807576759","0.2680880231","0.3850752379","0.1189605486","","","","","","","76","L","3","","","131","main_expt"
"246","","bandit","210","560551","0.0-171.0-0.0","85658262","wem/bandit_either","AEWGY34WUIA32","either","6","","","","","","","0","0","1","0.08638656351","","0.2","0.4","0.6","0.8","","","","","0.2044414959","0.2053564998","0.3547422913","0.08638656351","","","","","","","76","L","3","","","132","main_expt"
"28","","bandit","211","562089","0.0-172.0-0.0","85658262","wem/bandit_either","AEWGY34WUIA32","either","6","","","","","","","0","0","1","","0.104542274","0.2","0.4","0.6","0.8","0.2352631215","0.2102644512","0.3256782816","0.104542274","","","","","","","","","","","76","L","3","","","133","main_expt"
"206","","bandit","212","563802","0.0-173.0-0.0","85658262","wem/bandit_either","AEWGY34WUIA32","either","6","","","","","","","0","0","1","0.1401790922","","0.2","0.4","0.6","0.8","","","","","0.2808822736","0.2028105977","0.2479378245","0.1401790922","","","","","","","76","L","3","","","134","main_expt"
"409","","bandit","213","565729","0.0-174.0-0.0","85658262","wem/bandit_either","AEWGY34WUIA32","either","6","","","","","","","0","0","1","","0.1818128853","0.2","0.4","0.6","0.8","0.3053704558","0.1556880781","0.24301602","0.1818128853","","","","","","","","","","","76","L","3","","","135","main_expt"
"54","","bandit","214","567287","0.0-175.0-0.0","85658262","wem/bandit_either","AEWGY34WUIA32","either","6","","","","","","","0","0","1","","0.2630427063","0.2","0.4","0.6","0.8","0.3140058771","0.1428421262","0.2630427063","0.1583738081","","","","","","","","","","","75","K","2","","","136","main_expt"
"340","","bandit","215","569148","0.0-176.0-0.0","85658262","wem/bandit_either","AEWGY34WUIA32","either","6","","","","","","","0","1","0","","0.3053425806","0.2","0.4","0.6","0.8","0.323699752","0.1039390038","0.3053425806","0.1497920091","","","","","","","","","","","75","K","2","","","137","main_expt"
"35","","bandit","216","570690","0.0-177.0-0.0","85658262","wem/bandit_either","AEWGY34WUIA32","either","6","","","","","","","0","0","1","0.3588623722","","0.2","0.4","0.6","0.8","","","","","0.3435108126","0.07132433681","0.3588623722","0.1128601551","","","","","","","75","K","2","","","138","main_expt"
"785","","bandit","217","572983","0.0-178.0-0.0","85658262","wem/bandit_either","AEWGY34WUIA32","either","6","","","","","","","0","0","1","0.2762704672","","0.2","0.4","0.6","0.8","","","","","0.3505637202","0.1047165976","0.2762704672","0.1073604677","","","","","","","75","K","2","","","139","main_expt"
"4233","","bandit","218","578725","0.0-179.0-0.0","85658262","wem/bandit_either","AEWGY34WUIA32","either","6","","","","","","","0","0","1","","0.4185251601","0.2","0.4","0.6","0.8","0.4185251601","0.09043849554","0.2475753012","0.1376710563","","","","","","","","","","","72","H","0","img/none_selected.jpg","","140","main_expt"
"402","","bandit","219","580642","0.0-180.0-0.0","85658262","wem/bandit_either","AEWGY34WUIA32","either","6","","","","","","","0","0","1","","0.05096505815","0.2","0.4","0.6","0.8","0.4225289085","0.05096505815","0.2436306075","0.1412662962","","","","","","","","","","","74","J","1","","","141","main_expt"
"134","","bandit","220","582286","0.0-181.0-0.0","85658262","wem/bandit_either","AEWGY34WUIA32","either","6","","","","","","","0","0","1","0.02973759478","","0.2","0.4","0.6","0.8","","","","","0.455259632","0.02973759478","0.1998899021","0.1543424817","","","","","","","74","J","1","","","142","main_expt"
"120","","bandit","221","583919","0.0-182.0-0.0","85658262","wem/bandit_either","AEWGY34WUIA32","either","6","","","","","","","0","0","1","0.2568100034","","0.2","0.4","0.6","0.8","","","","","0.4287003803","0.04457260366","0.2568100034","0.1552636118","","","","","","","75","K","2","","","143","main_expt"
"153","","bandit","222","585589","0.0-183.0-0.0","85658262","wem/bandit_either","AEWGY34WUIA32","either","6","","","","","","","1","0","0","0.2241753426","","0.2","0.4","0.6","0.8","","","","","0.4260506414","0.04060115041","0.2859833531","0.2241753426","","","","","","","76","L","3","","","144","main_expt"
"103","","bandit","223","587213","0.0-184.0-0.0","85658262","wem/bandit_either","AEWGY34WUIA32","either","6","","","","","","","0","1","0","","0.2484131349","0.2","0.4","0.6","0.8","0.4202170594","0.06712401514","0.2080640158","0.2484131349","","","","","","","","","","","76","L","3","","","145","main_expt"
"156","","bandit","224","588886","0.0-185.0-0.0","85658262","wem/bandit_either","AEWGY34WUIA32","either","6","","","","","","","0","0","1","0.2905032103","","0.2","0.4","0.6","0.8","","","","","0.4333226383","0.08780921534","0.2469639643","0.2905032103","","","","","","","76","L","3","","","146","main_expt"
"410","","bandit","225","590810","0.0-186.0-0.0","85658262","wem/bandit_either","AEWGY34WUIA32","either","6","","","","","","","0","0","1","","0.2846703457","0.2","0.4","0.6","0.8","0.4340954059","0.1333368233","0.2169279296","0.2846703457","","","","","","","","","","","76","L","3","","","147","main_expt"
"1","","bandit","226","592322","0.0-187.0-0.0","85658262","wem/bandit_either","AEWGY34WUIA32","either","6","","","","","","","0","1","0","","0.3903754431","0.2","0.4","0.6","0.8","0.3903754431","0.09264147873","0.1248284812","0.3010433131","","","","","","","","","","","72","H","0","img/none_selected.jpg","","148","main_expt"
"235","","bandit","227","594071","0.0-188.0-0.0","85658262","wem/bandit_either","AEWGY34WUIA32","either","6","","","","","","","0","0","1","","0.4161192262","0.2","0.4","0.6","0.8","0.4161192262","0.123708687","0.1498862571","0.3421268102","","","","","","","","","","","72","H","0","img/none_selected.jpg","","149","main_expt"
"0","","bandit","228","595581","0.0-189.0-0.0","85658262","wem/bandit_either","AEWGY34WUIA32","either","6","","","","","","","0","0","1","0.1087811601","","0.2","0.4","0.6","0.8","","","","","0.4545257836","0.1087811601","0.2044632824","0.3382865341","","","","","","","74","J","1","","","150","main_expt"
"22","","bandit","229","597122","0.0-190.0-0.0","85658262","wem/bandit_either","AEWGY34WUIA32","either","6","","","","","","","0","0","1","","0.1630699797","0.2","0.4","0.6","0.8","0.4553704948","0.1640336927","0.1630699797","0.3031951358","","","","","","","","","","","75","K","2","","","151","main_expt"
"75","","bandit","230","598710","0.0-191.0-0.0","85658262","wem/bandit_either","AEWGY34WUIA32","either","6","","","","","","","0","0","1","0.3163498213","","0.2","0.4","0.6","0.8","","","","","0.4692720684","0.1474195158","0.1534962237","0.3163498213","","","","","","","76","L","3","","","152","main_expt"
"310","","bandit","231","600537","0.0-192.0-0.0","85658262","wem/bandit_either","AEWGY34WUIA32","either","6","","","","","","","0","0","1","","0.4794448159","0.2","0.4","0.6","0.8","0.4794448159","0.1200421148","0.1506701345","0.3205280093","","","","","","","","","","","72","H","0","img/none_selected.jpg","","153","main_expt"
"127","","bandit","232","602187","0.0-193.0-0.0","85658262","wem/bandit_either","AEWGY34WUIA32","either","6","","","","","","","0","0","1","","0.1295208369","0.2","0.4","0.6","0.8","0.4762011242","0.1295208369","0.1810992197","0.2780981807","","","","","","","","","","","74","J","1","","","154","main_expt"
"107","","bandit","233","603810","0.0-194.0-0.0","85658262","wem/bandit_either","AEWGY34WUIA32","either","6","","","","","","","0","1","0","","0.4797315341","0.2","0.4","0.6","0.8","0.4797315341","0.1189574303","0.2574031695","0.2543788853","","","","","","","","","","","72","H","0","img/none_selected.jpg","","155","main_expt"
"1253","","bandit","234","606577","0.0-195.0-0.0","85658262","wem/bandit_either","AEWGY34WUIA32","either","6","","","","","","","0","1","0","","0.4815153028","0.2","0.4","0.6","0.8","0.4815153028","0.1511338071","0.1838662476","0.2601772157","","","","","","","","","","","72","H","0","img/none_selected.jpg","","156","main_expt"
"266","","bandit","235","608360","0.0-196.0-0.0","85658262","wem/bandit_either","AEWGY34WUIA32","either","6","","","","","","","0","0","1","","0.4769669351","0.2","0.4","0.6","0.8","0.4769669351","0.1494559257","0.1951262555","0.27050514","","","","","","","","","","","72","H","0","img/none_selected.jpg","","157","main_expt"
"23","","bandit","236","609891","0.0-197.0-0.0","85658262","wem/bandit_either","AEWGY34WUIA32","either","6","","","","","","","0","0","1","","0.4819637572","0.2","0.4","0.6","0.8","0.4819637572","0.1398300683","0.1711173681","0.2912044809","","","","","","","","","","","72","H","0","img/none_selected.jpg","","158","main_expt"
"188","","bandit","237","611582","0.0-198.0-0.0","85658262","wem/bandit_either","AEWGY34WUIA32","either","6","","","","","","","0","0","1","","0.1482700517","0.2","0.4","0.6","0.8","0.4802617926","0.1482700517","0.1262927185","0.2863852675","","","","","","","","","","","74","J","1","","","159","main_expt"
"261","","bandit","238","613370","0.0-199.0-0.0","85658262","wem/bandit_either","AEWGY34WUIA32","either","6","","","","","","","0","0","1","0.1327856751","","0.2","0.4","0.6","0.8","","","","","0.4834703177","0.1327856751","0.1289005464","0.3188379944","","","","","","","74","J","1","","","160","main_expt"
"137","","bandit","239","615024","0.0-200.0-0.0","85658262","wem/bandit_either","AEWGY34WUIA32","either","6","","","","","","","0","0","1","","0.1936248495","0.2","0.4","0.6","0.8","0.4783639554","0.1936248495","0.07062595825","0.3918259889","","","","","","","","","","","74","J","1","","","161","main_expt"
"5775","","bandit","240","622322","0.0-201.0-0.0","85658262","wem/bandit_either","AEWGY34WUIA32","either","6","","","","","","","1","0","0","0.08554885259","","0.2","0.4","0.6","0.8","","","","","0.4702379588","0.1917288119","0.08554885259","0.3825352776","","","","","","","75","K","2","","","162","main_expt"
"285","","bandit","241","624121","0.0-202.0-0.0","85658262","wem/bandit_either","AEWGY34WUIA32","either","6","","","","","","","0","0","1","","0.05790820845","0.2","0.4","0.6","0.8","0.4761999765","0.2410074379","0.05790820845","0.3500114378","","","","","","","","","","","75","K","2","","","163","main_expt"
"296","","bandit","242","625940","0.0-203.0-0.0","85658262","wem/bandit_either","AEWGY34WUIA32","either","6","","","","","","","0","0","1","","0.04744410613","0.2","0.4","0.6","0.8","0.4683988395","0.2717164652","0.04744410613","0.3138306729","","","","","","","","","","","75","K","2","","","164","main_expt"
"10","","bandit","243","627462","0.0-204.0-0.0","85658262","wem/bandit_either","AEWGY34WUIA32","either","6","","","","","","","1","0","0","0.3066591237","","0.2","0.4","0.6","0.8","","","","","0.4594806004","0.3360488911","0.07721988326","0.3066591237","","","","","","","76","L","3","","","165","main_expt"
"1089","","bandit","244","630072","0.0-205.0-0.0","85658262","wem/bandit_either","AEWGY34WUIA32","either","6","","","","","","","1","0","0","0.359337808","","0.2","0.4","0.6","0.8","","","","","0.4769271284","0.3288768439","0.09276645858","0.359337808","","","","","","","76","L","3","","","166","main_expt"
"405","","bandit","245","631987","0.0-206.0-0.0","85658262","wem/bandit_either","AEWGY34WUIA32","either","6","","","","","","","0","0","1","0.3888119778","","0.2","0.4","0.6","0.8","","","","","0.4824675089","0.341079324","0.1092251717","0.3888119778","","","","","","","76","L","3","","","167","main_expt"
"787","","bandit","246","634288","0.0-207.0-0.0","85658262","wem/bandit_either","AEWGY34WUIA32","either","6","","","","","","","1","0","0","0.3188253523","","0.2","0.4","0.6","0.8","","","","","0.4731218304","0.2972081376","0.09704797424","0.3188253523","","","","","","","76","L","3","","","168","main_expt"
"316","","bandit","247","636121","0.0-208.0-0.0","85658262","wem/bandit_either","AEWGY34WUIA32","either","6","","","","","","","1","0","0","0.3035082617","","0.2","0.4","0.6","0.8","","","","","0.4558692975","0.2716537329","0.1131958007","0.3035082617","","","","","","","76","L","3","","","169","main_expt"
"66","","bandit","248","637704","0.0-209.0-0.0","85658262","wem/bandit_either","AEWGY34WUIA32","either","6","","","","","","","1","0","0","0.3540810543","","0.2","0.4","0.6","0.8","","","","","0.424927817","0.3705489528","0.1636150477","0.3540810543","","","","","","","76","L","3","","","170","main_expt"
"117","","bandit","249","639338","0.0-210.0-0.0","85658262","wem/bandit_either","AEWGY34WUIA32","either","6","","","","","","","0","0","1","0.2912941695","","0.2","0.4","0.6","0.8","","","","","0.4254050478","0.3259531709","0.1889182236","0.2912941695","","","","","","","76","L","3","","","171","main_expt"
"296","","bandit","250","641150","0.0-211.0-0.0","85658262","wem/bandit_either","AEWGY34WUIA32","either","6","","","","","","","0","0","1","0.2964718019","","0.2","0.4","0.6","0.8","","","","","0.4319935488","0.3253578443","0.1494540944","0.2964718019","","","","","","","76","L","3","","","172","main_expt"
"404","","bandit","251","643072","0.0-212.0-0.0","85658262","wem/bandit_either","AEWGY34WUIA32","either","6","","","","","","","0","0","1","0.2411205861","","0.2","0.4","0.6","0.8","","","","","0.4157756128","0.3133285256","0.1700291406","0.2411205861","","","","","","","76","L","3","","","173","main_expt"
"286","","bandit","252","644879","0.0-213.0-0.0","85658262","wem/bandit_either","AEWGY34WUIA32","either","6","","","","","","","0","0","1","","0.3650518631","0.2","0.4","0.6","0.8","0.3650518631","0.3470844982","0.2007600912","0.2132737127","","","","","","","","","","","72","H","0","img/none_selected.jpg","","174","main_expt"
"48","","bandit","253","646440","0.0-214.0-0.0","85658262","wem/bandit_either","AEWGY34WUIA32","either","6","","","","","","","0","0","1","0.3615725976","","0.2","0.4","0.6","0.8","","","","","0.3583375904","0.3615725976","0.1613291475","0.2722172758","","","","","","","74","J","1","","","175","main_expt"
"404","","bandit","254","648362","0.0-215.0-0.0","85658262","wem/bandit_either","AEWGY34WUIA32","either","6","","","","","","","0","0","1","0.1618540135","","0.2","0.4","0.6","0.8","","","","","0.3849487833","0.3592449917","0.1618540135","0.3158297255","","","","","","","75","K","2","","","176","main_expt"
"299","","bandit","255","650171","0.0-216.0-0.0","85658262","wem/bandit_either","AEWGY34WUIA32","either","6","","","","","","","0","0","1","0.3033070912","","0.2","0.4","0.6","0.8","","","","","0.3741193846","0.3614776984","0.1337509382","0.3033070912","","","","","","","76","L","3","","","177","main_expt"
"0","","bandit","256","651690","0.0-217.0-0.0","85658262","wem/bandit_either","AEWGY34WUIA32","either","6","","","","","","","0","0","1","0.3704436283","","0.2","0.4","0.6","0.8","","","","","0.3704436283","0.4042649322","0.172909152","0.3070990366","","","","","","","72","H","0","img/none_selected.jpg","","178","main_expt"
"258","","bandit","257","653465","0.0-218.0-0.0","85658262","wem/bandit_either","AEWGY34WUIA32","either","6","","","","","","","0","1","0","","0.3626499081","0.2","0.4","0.6","0.8","0.3718647044","0.3626499081","0.2306318455","0.349206168","","","","","","","","","","","74","J","1","","","179","main_expt"
"40","","bandit","258","655014","0.0-219.0-0.0","85658262","wem/bandit_either","AEWGY34WUIA32","either","6","","","","","","","1","0","0","0.365831292","","0.2","0.4","0.6","0.8","","","","","0.3144845341","0.365831292","0.2531752843","0.3533593609","","","","","","","74","J","1","","","180","main_expt"
"197","","bandit","259","656731","0.0-220.0-0.0","85658262","wem/bandit_either","AEWGY34WUIA32","either","6","","","","","","","0","1","0","","0.3720079561","0.2","0.4","0.6","0.8","0.3328992573","0.3720079561","0.2995137733","0.3792633926","","","","","","","","","","","74","J","1","","","181","main_expt"
"187","","bandit","260","658431","0.0-221.0-0.0","85658262","wem/bandit_either","AEWGY34WUIA32","either","6","","","","","","","0","0","1","","0.3747751333","0.2","0.4","0.6","0.8","0.3443004049","0.3747751333","0.2818604164","0.4170401524","","","","","","","","","","","74","J","1","","","182","main_expt"
"287","","bandit","261","660231","0.0-222.0-0.0","85658262","wem/bandit_either","AEWGY34WUIA32","either","6","","","","","","","0","0","1","","0.3772869326","0.2","0.4","0.6","0.8","0.3572445505","0.3772869326","0.2706787236","0.4349898381","","","","","","","","","","","74","J","1","","","183","main_expt"
"247","","bandit","262","661998","0.0-223.0-0.0","85658262","wem/bandit_either","AEWGY34WUIA32","either","6","","","","","","","1","0","0","0.2788381055","","0.2","0.4","0.6","0.8","","","","","0.358140682","0.3719200221","0.2788381055","0.4355724899","","","","","","","75","K","2","","","184","main_expt"
"107","","bandit","263","663621","0.0-224.0-0.0","85658262","wem/bandit_either","AEWGY34WUIA32","either","6","","","","","","","1","0","0","0.2591604306","","0.2","0.4","0.6","0.8","","","","","0.2938856532","0.3759280431","0.2591604306","0.443517249","","","","","","","75","K","2","","","185","main_expt"
"360","","bandit","264","665493","0.0-225.0-0.0","85658262","wem/bandit_either","AEWGY34WUIA32","either","6","","","","","","","0","0","1","","0.1717283936","0.2","0.4","0.6","0.8","0.2570442146","0.3686405037","0.1717283936","0.4185550765","","","","","","","","","","","75","K","2","","","186","main_expt"
"115","","bandit","265","667131","0.0-226.0-0.0","85658262","wem/bandit_either","AEWGY34WUIA32","either","6","","","","","","","1","0","0","0.4582246802","","0.2","0.4","0.6","0.8","","","","","0.2781151114","0.3693778387","0.1399016055","0.4582246802","","","","","","","76","L","3","","","187","main_expt"
"87","","bandit","266","668738","0.0-227.0-0.0","85658262","wem/bandit_either","AEWGY34WUIA32","either","6","","","","","","","0","1","0","","0.4499637214","0.2","0.4","0.6","0.8","0.2510368257","0.3858781765","0.116743447","0.4499637214","","","","","","","","","","","76","L","3","","","188","main_expt"
"200","","bandit","267","670455","0.0-228.0-0.0","85658262","wem/bandit_either","AEWGY34WUIA32","either","6","","","","","","","1","0","0","0.4681283031","","0.2","0.4","0.6","0.8","","","","","0.2299291889","0.353665234","0.09810356538","0.4681283031","","","","","","","76","L","3","","","189","main_expt"
"190","","bandit","268","672161","0.0-229.0-0.0","85658262","wem/bandit_either","AEWGY34WUIA32","either","6","","","","","","","0","0","1","0.4672384316","","0.2","0.4","0.6","0.8","","","","","0.2957770397","0.3702546744","0.1333212727","0.4672384316","","","","","","","76","L","3","","","190","main_expt"
"64","","bandit","269","673745","0.0-230.0-0.0","85658262","wem/bandit_either","AEWGY34WUIA32","either","6","","","","","","","0","0","1","0.4633056668","","0.2","0.4","0.6","0.8","","","","","0.2806998676","0.3373283559","0.07289491444","0.4633056668","","","","","","","76","L","3","","","191","main_expt"
"110","","bandit","270","675381","0.0-231.0-0.0","85658262","wem/bandit_either","AEWGY34WUIA32","either","6","","","","","","","0","1","0","","0.2578649702","0.2","0.4","0.6","0.8","0.2578649702","0.3717228864","0.09060717316","0.4701423021","","","","","","","","","","","72","H","0","img/none_selected.jpg","","192","main_expt"
"197","","bandit","271","677095","0.0-232.0-0.0","85658262","wem/bandit_either","AEWGY34WUIA32","either","6","","","","","","","0","0","1","","0.3019093773","0.2","0.4","0.6","0.8","0.3019093773","0.3861484819","0.1038106097","0.4625827917","","","","","","","","","","","72","H","0","img/none_selected.jpg","","193","main_expt"
"413","","bandit","272","679021","0.0-233.0-0.0","85658262","wem/bandit_either","AEWGY34WUIA32","either","6","","","","","","","0","0","1","","0.3884838939","0.2","0.4","0.6","0.8","0.3028603149","0.3884838939","0.1222204007","0.4480064119","","","","","","","","","","","74","J","1","","","194","main_expt"
"280","","bandit","273","680815","0.0-234.0-0.0","85658262","wem/bandit_either","AEWGY34WUIA32","either","6","","","","","","","0","0","1","0.1230179676","","0.2","0.4","0.6","0.8","","","","","0.2933095063","0.4058549971","0.1230179676","0.4263193963","","","","","","","75","K","2","","","195","main_expt"
"286","","bandit","274","682615","0.0-235.0-0.0","85658262","wem/bandit_either","AEWGY34WUIA32","either","6","","","","","","","1","0","0","0.3894648227","","0.2","0.4","0.6","0.8","","","","","0.3333663608","0.3894648227","0.1972068901","0.4399191733","","","","","","","74","J","1","","","196","main_expt"
"86","","bandit","275","684215","0.0-236.0-0.0","85658262","wem/bandit_either","AEWGY34WUIA32","either","6","","","","","","","1","0","0","0.3452919481","","0.2","0.4","0.6","0.8","","","","","0.3472763543","0.3452919481","0.2091218652","0.4303685687","","","","","","","74","J","1","","","197","main_expt"
"216","","bandit","276","685948","0.0-237.0-0.0","85658262","wem/bandit_either","AEWGY34WUIA32","either","6","","","","","","","0","1","0","","0.3571156804","0.2","0.4","0.6","0.8","0.3420385624","0.3571156804","0.2316117542","0.4166638701","","","","","","","","","","","74","J","1","","","198","main_expt"
"147","","bandit","277","687599","0.0-238.0-0.0","85658262","wem/bandit_either","AEWGY34WUIA32","either","6","","","","","","","0","0","1","0.3761278261","","0.2","0.4","0.6","0.8","","","","","0.3009927129","0.3761278261","0.1983173389","0.4166192342","","","","","","","74","J","1","","","199","main_expt"
"52","","bandit","278","689165","0.0-239.0-0.0","85658262","wem/bandit_either","AEWGY34WUIA32","either","6","","","","","","","1","0","0","0.3623939384","","0.2","0.4","0.6","0.8","","","","","0.2834367318","0.3623939384","0.2275108597","0.4065109498","","","","","","","74","J","1","","","200","main_expt"
"146","","bandit","279","690822","0.0-240.0-0.0","85658262","wem/bandit_either","AEWGY34WUIA32","either","6","","","","","","","0","1","0","","0.3470966653","0.2","0.4","0.6","0.8","0.2305195973","0.3470966653","0.2753755663","0.4210367682","","","","","","","","","","","74","J","1","","","201","main_expt"
"170","","bandit","280","692505","0.0-241.0-0.0","85658262","wem/bandit_either","AEWGY34WUIA32","either","6","","","","","","","0","1","0","","0.3738670455","0.2","0.4","0.6","0.8","0.236439039","0.3738670455","0.2867984519","0.4059774394","","","","","","","","","","","74","J","1","","","202","main_expt"
"110","","bandit","281","694132","0.0-242.0-0.0","85658262","wem/bandit_either","AEWGY34WUIA32","either","6","","","","","","","0","0","1","0.4434414113","","0.2","0.4","0.6","0.8","","","","","0.207292508","0.4434414113","0.227681123","0.4217634448","","","","","","","74","J","1","","","203","main_expt"
"176","","bandit","282","695822","0.0-243.0-0.0","85658262","wem/bandit_either","AEWGY34WUIA32","either","6","","","","","","","0","1","0","","0.4363530878","0.2","0.4","0.6","0.8","0.2706274655","0.4363530878","0.2421814767","0.417590799","","","","","","","","","","","74","J","1","","","204","main_expt"
"50","","bandit","283","697382","0.0-244.0-0.0","85658262","wem/bandit_either","AEWGY34WUIA32","either","6","","","","","","","0","1","0","","0.4390009565","0.2","0.4","0.6","0.8","0.2688171721","0.4390009565","0.2250127273","0.3892328218","","","","","","","","","","","74","J","1","","","205","main_expt"
"386","","bandit","284","699278","0.0-245.0-0.0","85658262","wem/bandit_either","AEWGY34WUIA32","either","6","","","","","","","0","1","0","","0.4606838579","0.2","0.4","0.6","0.8","0.2774640617","0.4606838579","0.2148063869","0.3877758809","","","","","","","","","","","74","J","1","","","206","main_expt"
"270","","bandit","285","701066","0.0-246.0-0.0","85658262","wem/bandit_either","AEWGY34WUIA32","either","6","","","","","","","0","1","0","","0.4679198071","0.2","0.4","0.6","0.8","0.31303597","0.4679198071","0.2370073307","0.3344078408","","","","","","","","","","","74","J","1","","","207","main_expt"
"54","","bandit","286","702632","0.0-247.0-0.0","85658262","wem/bandit_either","AEWGY34WUIA32","either","6","","","","","","","0","0","1","","0.4731710197","0.2","0.4","0.6","0.8","0.3187850143","0.4731710197","0.1736764344","0.3285414067","","","","","","","","","","","74","J","1","","","208","main_expt"
"226","","bandit","287","704376","0.0-248.0-0.0","85658262","wem/bandit_either","AEWGY34WUIA32","either","6","","","","","","","0","1","0","","0.472507437","0.2","0.4","0.6","0.8","0.3031297305","0.472507437","0.2033963155","0.337659841","","","","","","","","","","","74","J","1","","","209","main_expt"
"56","","bandit","288","705950","0.0-249.0-0.0","85658262","wem/bandit_either","AEWGY34WUIA32","either","6","","","","","","","0","0","1","","0.4759946166","0.2","0.4","0.6","0.8","0.3593083662","0.4759946166","0.1849029676","0.322880172","","","","","","","","","","","74","J","1","","","210","main_expt"
"105","","bandit","289","707572","0.0-250.0-0.0","85658262","wem/bandit_either","AEWGY34WUIA32","either","6","","","","","","","0","1","0","","0.4838002785","0.2","0.4","0.6","0.8","0.3758292662","0.4838002785","0.08033524441","0.3440981268","","","","","","","","","","","74","J","1","","","211","main_expt"
"270","","bandit","290","709365","0.0-251.0-0.0","85658262","wem/bandit_either","AEWGY34WUIA32","either","6","","","","","","","0","1","0","","0.4871609062","0.2","0.4","0.6","0.8","0.3771764803","0.4871609062","0.1024936548","0.3135232579","","","","","","","","","","","74","J","1","","","212","main_expt"
"107","","bandit","291","710982","0.0-252.0-0.0","85658262","wem/bandit_either","AEWGY34WUIA32","either","6","","","","","","","0","1","0","","0.4829725273","0.2","0.4","0.6","0.8","0.3935517348","0.4829725273","0.1380366818","0.328558382","","","","","","","","","","","74","J","1","","","213","main_expt"
"176","","bandit","292","712673","0.0-253.0-0.0","85658262","wem/bandit_either","AEWGY34WUIA32","either","6","","","","","","","0","0","1","0.4742933803","","0.2","0.4","0.6","0.8","","","","","0.3792377037","0.4742933803","0.1206441992","0.3024402918","","","","","","","74","J","1","","","214","main_expt"
"110","","bandit","293","714299","0.0-254.0-0.0","85658262","wem/bandit_either","AEWGY34WUIA32","either","6","","","","","","","0","1","0","","0.4754417465","0.2","0.4","0.6","0.8","0.3364308411","0.4754417465","0.1320715796","0.3024001881","","","","","","","","","","","74","J","1","","","215","main_expt"
"87","","bandit","294","715906","0.0-255.0-0.0","85658262","wem/bandit_either","AEWGY34WUIA32","either","6","","","","","","","0","0","1","0.4764866221","","0.2","0.4","0.6","0.8","","","","","0.3348871659","0.4764866221","0.1152906885","0.2975117226","","","","","","","74","J","1","","","216","main_expt"
"130","","bandit","295","717550","0.0-256.0-0.0","85658262","wem/bandit_either","AEWGY34WUIA32","either","6","","","","","","","0","1","0","","0.4727866334","0.2","0.4","0.6","0.8","0.321293363","0.4727866334","0.1191406027","0.3331298207","","","","","","","","","","","74","J","1","","","217","main_expt"
"156","","bandit","296","719223","0.0-257.0-0.0","85658262","wem/bandit_either","AEWGY34WUIA32","either","6","","","","","","","0","0","1","0.4664653133","","0.2","0.4","0.6","0.8","","","","","0.3530973922","0.4664653133","0.1177717736","0.2905667849","","","","","","","74","J","1","","","218","main_expt"
"34","","bandit","297","720761","0.0-258.0-0.0","85658262","wem/bandit_either","AEWGY34WUIA32","either","6","","","","","","","0","0","1","","0.4636837267","0.2","0.4","0.6","0.8","0.3837093308","0.4636837267","0.1178729669","0.2701708387","","","","","","","","","","","74","J","1","","","219","main_expt"
"205","","bandit","298","722483","0.0-259.0-0.0","85658262","wem/bandit_either","AEWGY34WUIA32","either","6","","","","","","","0","0","1","0.4599900571","","0.2","0.4","0.6","0.8","","","","","0.3651541458","0.4599900571","0.1284790336","0.2395453957","","","","","","","74","J","1","","","220","main_expt"
"187","","bandit","299","724191","0.0-260.0-0.0","85658262","wem/bandit_either","AEWGY34WUIA32","either","6","","","","","","","0","0","1","","0.254085412","0.2","0.4","0.6","0.8","0.254085412","0.4490722186","0.147465279","0.2770622605","","","","","","","","","","","72","H","0","img/none_selected.jpg","","221","main_expt"
"209","","bandit","300","725907","0.0-261.0-0.0","85658262","wem/bandit_either","AEWGY34WUIA32","either","6","","","","","","","0","0","1","0.2590796483","","0.2","0.4","0.6","0.8","","","","","0.2590796483","0.4253353094","0.1441925756","0.3390746663","","","","","","","72","H","0","img/none_selected.jpg","","222","main_expt"
"299","","bandit","301","727724","0.0-262.0-0.0","85658262","wem/bandit_either","AEWGY34WUIA32","either","6","","","","","","","0","0","1","0.384843876","","0.2","0.4","0.6","0.8","","","","","0.2640852941","0.4559825987","0.1731110736","0.384843876","","","","","","","76","L","3","","","223","main_expt"
"79","","bandit","302","729316","0.0-263.0-0.0","85658262","wem/bandit_either","AEWGY34WUIA32","either","6","","","","","","","0","0","1","0.4367619307","","0.2","0.4","0.6","0.8","","","","","0.2636590797","0.464560515","0.1124600034","0.4367619307","","","","","","","76","L","3","","","224","main_expt"
"117","","bandit","303","730952","0.0-264.0-0.0","85658262","wem/bandit_either","AEWGY34WUIA32","either","6","","","","","","","0","0","1","","0.4528378766","0.2","0.4","0.6","0.8","0.3110444069","0.4528378766","0.1174510337","0.42055701","","","","","","","","","","","74","J","1","","","225","main_expt"
"214","","bandit","304","732673","0.0-265.0-0.0","85658262","wem/bandit_either","AEWGY34WUIA32","either","6","","","","","","","0","0","1","","0.1494320736","0.2","0.4","0.6","0.8","0.3268768972","0.4585160156","0.1494320736","0.4282593698","","","","","","","","","","","75","K","2","","","226","main_expt"
"180","","bandit","305","734364","0.0-266.0-0.0","85658262","wem/bandit_either","AEWGY34WUIA32","either","6","","","","","","","0","0","1","0.1655037845","","0.2","0.4","0.6","0.8","","","","","0.3112991039","0.4525914875","0.1655037845","0.4213985596","","","","","","","75","K","2","","","227","main_expt"
"119","","bandit","306","736000","0.0-267.0-0.0","85658262","wem/bandit_either","AEWGY34WUIA32","either","6","","","","","","","0","0","1","","0.3481066565","0.2","0.4","0.6","0.8","0.3481066565","0.4618810074","0.1595877114","0.4115599459","","","","","","","","","","","72","H","0","img/none_selected.jpg","","228","main_expt"
"336","","bandit","307","737856","0.0-268.0-0.0","85658262","wem/bandit_either","AEWGY34WUIA32","either","6","","","","","","","0","1","0","","0.375967734","0.2","0.4","0.6","0.8","0.3267856819","0.4661541784","0.1811982871","0.375967734","","","","","","","","","","","76","L","3","","","229","main_expt"
"49","","bandit","308","739416","0.0-269.0-0.0","85658262","wem/bandit_either","AEWGY34WUIA32","either","6","","","","","","","0","0","1","0.4172813036","","0.2","0.4","0.6","0.8","","","","","0.3043034776","0.4681373403","0.2088208598","0.4172813036","","","","","","","76","L","3","","","230","main_expt"
"377","","bandit","309","741316","0.0-270.0-0.0","85658262","wem/bandit_either","AEWGY34WUIA32","either","6","","","","","","","1","0","0","0.3871641603","","0.2","0.4","0.6","0.8","","","","","0.3127123154","0.4733838814","0.2062946352","0.3871641603","","","","","","","76","L","3","","","231","main_expt"
"347","","bandit","310","743183","0.0-271.0-0.0","85658262","wem/bandit_either","AEWGY34WUIA32","either","6","","","","","","","0","0","1","0.3381606844","","0.2","0.4","0.6","0.8","","","","","0.3039198066","0.455942125","0.1448621505","0.3381606844","","","","","","","76","L","3","","","232","main_expt"
"65","","bandit","311","744756","0.0-272.0-0.0","85658262","wem/bandit_either","AEWGY34WUIA32","either","6","","","","","","","1","0","0","0.2918198365","","0.2","0.4","0.6","0.8","","","","","0.2846072758","0.4523014459","0.1096360744","0.2918198365","","","","","","","76","L","3","","","233","main_expt"
"80","","bandit","312","746350","0.0-273.0-0.0","85658262","wem/bandit_either","AEWGY34WUIA32","either","6","","","","","","","1","0","0","0.3016980071","","0.2","0.4","0.6","0.8","","","","","0.2430061478","0.4715877437","0.1102272527","0.3016980071","","","","","","","76","L","3","","","234","main_expt"
"77","","bandit","313","747947","0.0-274.0-0.0","85658262","wem/bandit_either","AEWGY34WUIA32","either","6","","","","","","","1","0","0","0.2940059945","","0.2","0.4","0.6","0.8","","","","","0.263037213","0.4667146267","0.1428859574","0.2940059945","","","","","","","76","L","3","","","235","main_expt"
"240","","bandit","314","749707","0.0-275.0-0.0","85658262","wem/bandit_either","AEWGY34WUIA32","either","6","","","","","","","1","0","0","0.2926833733","","0.2","0.4","0.6","0.8","","","","","0.2976510001","0.4638430617","0.1659437887","0.2926833733","","","","","","","76","L","3","","","236","main_expt"
"910","","bandit","315","752132","0.0-276.0-0.0","85658262","wem/bandit_either","AEWGY34WUIA32","either","6","","","","","","","1","0","0","0.278351659","","0.2","0.4","0.6","0.8","","","","","0.2789990486","0.4584702359","0.1948695303","0.278351659","","","","","","","76","L","3","","","237","main_expt"
"368","","bandit","316","754022","0.0-277.0-0.0","85658262","wem/bandit_either","AEWGY34WUIA32","either","6","","","","","","","0","0","1","0.2475781625","","0.2","0.4","0.6","0.8","","","","","0.2760904485","0.4297714473","0.2231382717","0.2475781625","","","","","","","76","L","3","","","238","main_expt"
"12797","","bandit","317","768334","0.0-278.0-0.0","85658262","wem/bandit_either","AEWGY34WUIA32","either","6","","","","","","","0","0","1","","0.2476463542","0.2","0.4","0.6","0.8","0.2679201555","0.4225482751","0.2118273477","0.2476463542","","","","","","","","","","","76","L","3","","","239","main_expt"
"366","","bandit","318","770217","0.0-279.0-0.0","85658262","wem/bandit_either","AEWGY34WUIA32","either","6","","","","","","","0","0","1","0.175879666","","0.2","0.4","0.6","0.8","","","","","0.1815101208","0.3911766626","0.175879666","0.2691810592","","","","","","","75","K","2","","","240","main_expt"
"187","","bandit","319","771917","0.0-280.0-0.0","85658262","wem/bandit_either","AEWGY34WUIA32","either","6","","","","","","","0","0","1","","0.2107278188","0.2","0.4","0.6","0.8","0.2107278188","0.3576719612","0.2619723004","0.2600118225","","","","","","","","","","","72","H","0","img/none_selected.jpg","","241","main_expt"
"147","","bandit","320","773566","0.0-281.0-0.0","85658262","wem/bandit_either","AEWGY34WUIA32","either","6","","","","","","","1","0","0","0.3649942216","","0.2","0.4","0.6","0.8","","","","","0.1890457695","0.3649942216","0.253357122","0.2585740571","","","","","","","74","J","1","","","242","main_expt"
"200","","bandit","321","775276","0.0-282.0-0.0","85658262","wem/bandit_either","AEWGY34WUIA32","either","6","","","","","","","0","0","1","","0.3462843793","0.2","0.4","0.6","0.8","0.1983598585","0.3462843793","0.2937411872","0.1943885749","","","","","","","","","","","74","J","1","","","243","main_expt"
"246","","bandit","322","777036","0.0-283.0-0.0","85658262","wem/bandit_either","AEWGY34WUIA32","either","6","","","","","","","0","0","1","","0.3520149162","0.2","0.4","0.6","0.8","0.2165838592","0.3520149162","0.2743784529","0.1861062248","","","","","","","","","","","74","J","1","","","244","main_expt"
"346","","bandit","323","778893","0.0-284.0-0.0","85658262","wem/bandit_either","AEWGY34WUIA32","either","6","","","","","","","0","0","1","0.1398782291","","0.2","0.4","0.6","0.8","","","","","0.1823109088","0.3483485742","0.2734657034","0.1398782291","","","","","","","76","L","3","","","245","main_expt"
"267","","bandit","324","780668","0.0-285.0-0.0","85658262","wem/bandit_either","AEWGY34WUIA32","either","6","","","","","","","0","0","1","","0.2285423815","0.2","0.4","0.6","0.8","0.172760958","0.3814570076","0.2285423815","0.1392076576","","","","","","","","","","","75","K","2","","","246","main_expt"
"21","","bandit","325","782198","0.0-286.0-0.0","85658262","wem/bandit_either","AEWGY34WUIA32","either","6","","","","","","","0","1","0","","0.1955602127","0.2","0.4","0.6","0.8","0.1955602127","0.3871035364","0.269943793","0.2028121248","","","","","","","","","","","72","H","0","img/none_selected.jpg","","247","main_expt"
"10","","bandit","326","783729","0.0-287.0-0.0","85658262","wem/bandit_either","AEWGY34WUIA32","either","6","","","","","","","0","0","1","","0.1770790361","0.2","0.4","0.6","0.8","0.1770790361","0.3746835134","0.2974302923","0.2522392451","","","","","","","","","","","72","H","0","img/none_selected.jpg","","248","main_expt"
"84","","bandit","327","785327","0.0-288.0-0.0","85658262","wem/bandit_either","AEWGY34WUIA32","either","6","","","","","","","0","1","0","","0.1884848562","0.2","0.4","0.6","0.8","0.1884848562","0.3787028279","0.2667415426","0.234975876","","","","","","","","","","","72","H","0","img/none_selected.jpg","","249","main_expt"
"26","","bandit","328","786862","0.0-289.0-0.0","85658262","wem/bandit_either","AEWGY34WUIA32","either","6","","","","","","","0","0","1","0.2314514176","","0.2","0.4","0.6","0.8","","","","","0.2314514176","0.3475116331","0.3302420342","0.2388523745","","","","","","","72","H","0","img/none_selected.jpg","","250","main_expt"
"35","","bandit","329","788404","0.0-290.0-0.0","85658262","wem/bandit_either","AEWGY34WUIA32","either","6","","","","","","","0","0","1","","0.2028544779","0.2","0.4","0.6","0.8","0.2028544779","0.3297368302","0.3080318139","0.2412642198","","","","","","","","","","","72","H","0","img/none_selected.jpg","","251","main_expt"
"146","","bandit","330","790060","0.0-291.0-0.0","85658262","wem/bandit_either","AEWGY34WUIA32","either","6","","","","","","","1","0","0","0.2830962297","","0.2","0.4","0.6","0.8","","","","","0.2296758881","0.2830962297","0.2931646133","0.2662386667","","","","","","","74","J","1","","","252","main_expt"
"21","","bandit","331","791585","0.0-292.0-0.0","85658262","wem/bandit_either","AEWGY34WUIA32","either","6","","","","","","","0","1","0","","0.2360872172","0.2","0.4","0.6","0.8","0.1527325802","0.2360872172","0.3315577467","0.288812178","","","","","","","","","","","74","J","1","","","253","main_expt"
"152","","bandit","332","793260","0.0-293.0-0.0","85658262","wem/bandit_either","AEWGY34WUIA32","either","6","","","","","","","0","0","1","","0.2413611774","0.2","0.4","0.6","0.8","0.1248180068","0.2413611774","0.3042928979","0.2411004805","","","","","","","","","","","74","J","1","","","254","main_expt"
"117","","bandit","333","794894","0.0-294.0-0.0","85658262","wem/bandit_either","AEWGY34WUIA32","either","6","","","","","","","1","0","0","0.2383328341","","0.2","0.4","0.6","0.8","","","","","0.1340266912","0.2383328341","0.3455523015","0.2310811835","","","","","","","74","J","1","","","255","main_expt"
