"rt","responses","trial_type","trial_index","time_elapsed","internal_node_id","subjID","study","MID","cond","drift","key_press","expt_phase","target","like","value","connected","respCharCode","respKey","respChoiceNum","respChoice","gems","bombs","no_reward","GemPrChosen","BombPrChosen","practice","trial_counter","WinPr_0","LosePr_0","trial_label","GainOverPainPr_0","LosePr_1","GainOverPainPr_1","WinPr_1","WinPr_2","GainOverPainPr_2","WinPr_3","GainOverPainPr_3","LosePr_2","LosePr_3","Q0","Q1","Q2","gender","age","ethnicity"
"4011","{""Q0"":""A3G00Q5JV2BE5G""}","survey-text","0","4015","0.0-0.0","87474678","wem/bandit_either","A3G00Q5JV2BE5G","either","5","","","","","","","","","","","","","","","","","","","","","","","","","","","","","","","","","","","",""
"5416","","text","1","10434","0.0-1.0","87474678","wem/bandit_either","A3G00Q5JV2BE5G","either","5","32","","","","","","","","","","","","","","","","","","","","","","","","","","","","","","","","","","",""
"2446","","text","2","12882","0.0-2.0","87474678","wem/bandit_either","A3G00Q5JV2BE5G","either","5","32","","","","","","","","","","","","","","","","","","","","","","","","","","","","","","","","","","",""
"1361","","text","3","14243","0.0-3.0","87474678","wem/bandit_either","A3G00Q5JV2BE5G","either","5","32","","","","","","","","","","","","","","","","","","","","","","","","","","","","","","","","","","",""
"862","","text","4","15106","0.0-4.0","87474678","wem/bandit_either","A3G00Q5JV2BE5G","either","5","32","","","","","","","","","","","","","","","","","","","","","","","","","","","","","","","","","","",""
"2907","","text","5","18014","0.0-5.0","87474678","wem/bandit_either","A3G00Q5JV2BE5G","either","5","32","","","","","","","","","","","","","","","","","","","","","","","","","","","","","","","","","","",""
"550","","text","6","18565","0.0-6.0","87474678","wem/bandit_either","A3G00Q5JV2BE5G","either","5","32","","","","","","","","","","","","","","","","","","","","","","","","","","","","","","","","","","",""
"596","","text","7","19161","0.0-7.0","87474678","wem/bandit_either","A3G00Q5JV2BE5G","either","5","32","","","","","","","","","","","","","","","","","","","","","","","","","","","","","","","","","","",""
"4548","","identification","8","23727","0.0-8.0-0.0","87474678","wem/bandit_either","A3G00Q5JV2BE5G","either","5","","identification_pre","the village of Zur","3","3","3","","","","","","","","","","","","","","","","","","","","","","","","","","","","","",""
"17393","","identification","9","42135","0.0-8.0-1.0","87474678","wem/bandit_either","A3G00Q5JV2BE5G","either","5","","identification_pre","the village of Nyx","3","3","3","","","","","","","","","","","","","","","","","","","","","","","","","","","","","",""
"2495","","text","10","45632","0.0-9.0","87474678","wem/bandit_either","A3G00Q5JV2BE5G","either","5","32","","","","","","","","","","","","","","","","","","","","","","","","","","","","","","","","","","",""
"734","","text","11","46367","0.0-10.0","87474678","wem/bandit_either","A3G00Q5JV2BE5G","either","5","32","","","","","","","","","","","","","","","","","","","","","","","","","","","","","","","","","","",""
"174","","text","12","46543","0.0-11.0","87474678","wem/bandit_either","A3G00Q5JV2BE5G","either","5","32","","","","","","","","","","","","","","","","","","","","","","","","","","","","","","","","","","",""
"184","","text","13","46728","0.0-12.0","87474678","wem/bandit_either","A3G00Q5JV2BE5G","either","5","32","","","","","","","","","","","","","","","","","","","","","","","","","","","","","","","","","","",""
"1721","","bandit","14","49955","0.0-13.0-0.0","87474678","wem/bandit_either","A3G00Q5JV2BE5G","either","5","","","","","","","74","J","0","img/none_selected_demo.jpg","0","0","1","0","0","true","0","0","0","","","","","","","","","","","","","","","","",""
"811","","bandit","15","52269","0.0-14.0-0.0","87474678","wem/bandit_either","A3G00Q5JV2BE5G","either","5","","","","","","","75","K","0","img/none_selected_demo.jpg","0","0","1","0","0","true","0","0","0","","","","","","","","","","","","","","","","",""
"826","","text","16","53097","0.0-15.0","87474678","wem/bandit_either","A3G00Q5JV2BE5G","either","5","32","","","","","","","","","","","","","","","","","","","","","","","","","","","","","","","","","","",""
"494","","text","17","53592","0.0-16.0","87474678","wem/bandit_either","A3G00Q5JV2BE5G","either","5","32","","","","","","","","","","","","","","","","","","","","","","","","","","","","","","","","","","",""
"219","","text","18","53811","0.0-17.0","87474678","wem/bandit_either","A3G00Q5JV2BE5G","either","5","32","","","","","","","","","","","","","","","","","","","","","","","","","","","","","","","","","","",""
"222","","text","19","54034","0.0-18.0","87474678","wem/bandit_either","A3G00Q5JV2BE5G","either","5","32","","","","","","","","","","","","","","","","","","","","","","","","","","","","","","","","","","",""
"607","","bandit","20","56144","0.0-19.0-0.0","87474678","wem/bandit_either","A3G00Q5JV2BE5G","either","5","","","","","","","74","J","0","img/none_selected_demo.jpg","0","0","1","","0.8","true","0","","0.8","80_20_practice","0.5","0.2","0.5","","","","","","","","","","","","",""
"475","","bandit","21","58124","0.0-19.0-1.0","87474678","wem/bandit_either","A3G00Q5JV2BE5G","either","5","","","","","","","75","K","1","","0","0","1","0.2","","true","0","0.8","","80_20_practice","0.5","","0.5","0.2","","","","","","","","","","","",""
"238","","bandit","22","59867","0.0-19.0-2.0","87474678","wem/bandit_either","A3G00Q5JV2BE5G","either","5","","","","","","","75","K","1","","0","0","1","","0.2","true","0","","0.8","80_20_practice","0.5","0.2","0.5","","","","","","","","","","","","",""
"225","","bandit","23","61596","0.0-19.0-3.0","87474678","wem/bandit_either","A3G00Q5JV2BE5G","either","5","","","","","","","74","J","0","img/none_selected_demo.jpg","1","0","0","0.8","","true","0","0.8","","80_20_practice","0.5","","0.5","0.2","","","","","","","","","","","",""
"372","","bandit","24","63472","0.0-19.0-4.0","87474678","wem/bandit_either","A3G00Q5JV2BE5G","either","5","","","","","","","74","J","0","img/none_selected_demo.jpg","0","1","0","","0.8","true","0","","0.8","80_20_practice","0.5","0.2","0.5","","","","","","","","","","","","",""
"436","","bandit","25","65413","0.0-19.0-5.0","87474678","wem/bandit_either","A3G00Q5JV2BE5G","either","5","","","","","","","74","J","0","img/none_selected_demo.jpg","0","1","0","","0.8","true","0","","0.8","80_20_practice","0.5","0.2","0.5","","","","","","","","","","","","",""
"337","","bandit","26","67255","0.0-19.0-6.0","87474678","wem/bandit_either","A3G00Q5JV2BE5G","either","5","","","","","","","74","J","0","img/none_selected_demo.jpg","1","0","0","0.8","","true","0","0.8","","80_20_practice","0.5","","0.5","0.2","","","","","","","","","","","",""
"405","","bandit","27","69168","0.0-19.0-7.0","87474678","wem/bandit_either","A3G00Q5JV2BE5G","either","5","","","","","","","75","K","1","","0","0","1","0.2","","true","0","0.8","","80_20_practice","0.5","","0.5","0.2","","","","","","","","","","","",""
"1064","","bandit","28","71736","0.0-19.0-8.0","87474678","wem/bandit_either","A3G00Q5JV2BE5G","either","5","","","","","","","75","K","1","","0","0","1","0.2","","true","0","0.8","","80_20_practice","0.5","","0.5","0.2","","","","","","","","","","","",""
"291","","bandit","29","73531","0.0-19.0-9.0","87474678","wem/bandit_either","A3G00Q5JV2BE5G","either","5","","","","","","","75","K","1","","1","0","0","0.2","","true","0","0.8","","80_20_practice","0.5","","0.5","0.2","","","","","","","","","","","",""
"549","","bandit","30","75584","0.0-19.0-10.0","87474678","wem/bandit_either","A3G00Q5JV2BE5G","either","5","","","","","","","75","K","1","","0","0","1","0.2","","true","0","0.8","","80_20_practice","0.5","","0.5","0.2","","","","","","","","","","","",""
"570","","bandit","31","77659","0.0-19.0-11.0","87474678","wem/bandit_either","A3G00Q5JV2BE5G","either","5","","","","","","","74","J","0","img/none_selected_demo.jpg","0","0","1","","0.8","true","0","","0.8","80_20_practice","0.5","0.2","0.5","","","","","","","","","","","","",""
"791","","bandit","32","79955","0.0-19.0-12.0","87474678","wem/bandit_either","A3G00Q5JV2BE5G","either","5","","","","","","","74","J","0","img/none_selected_demo.jpg","0","1","0","","0.8","true","0","","0.8","80_20_practice","0.5","0.2","0.5","","","","","","","","","","","","",""
"726","","bandit","33","82186","0.0-19.0-13.0","87474678","wem/bandit_either","A3G00Q5JV2BE5G","either","5","","","","","","","74","J","0","img/none_selected_demo.jpg","0","1","0","","0.8","true","0","","0.8","80_20_practice","0.5","0.2","0.5","","","","","","","","","","","","",""
"115","","bandit","34","83808","0.0-19.0-14.0","87474678","wem/bandit_either","A3G00Q5JV2BE5G","either","5","","","","","","","74","J","0","img/none_selected_demo.jpg","0","1","0","","0.8","true","0","","0.8","80_20_practice","0.5","0.2","0.5","","","","","","","","","","","","",""
"247","","bandit","35","85559","0.0-19.0-15.0","87474678","wem/bandit_either","A3G00Q5JV2BE5G","either","5","","","","","","","74","J","0","img/none_selected_demo.jpg","1","0","0","0.8","","true","0","0.8","","80_20_practice","0.5","","0.5","0.2","","","","","","","","","","","",""
"597","","bandit","36","87660","0.0-19.0-16.0","87474678","wem/bandit_either","A3G00Q5JV2BE5G","either","5","","","","","","","74","J","0","img/none_selected_demo.jpg","0","1","0","","0.8","true","0","","0.8","80_20_practice","0.5","0.2","0.5","","","","","","","","","","","","",""
"522","","bandit","37","89686","0.0-19.0-17.0","87474678","wem/bandit_either","A3G00Q5JV2BE5G","either","5","","","","","","","75","K","1","","0","0","1","","0.2","true","0","","0.8","80_20_practice","0.5","0.2","0.5","","","","","","","","","","","","",""
"874","","bandit","38","92066","0.0-19.0-18.0","87474678","wem/bandit_either","A3G00Q5JV2BE5G","either","5","","","","","","","74","J","0","img/none_selected_demo.jpg","1","0","0","0.8","","true","0","0.8","","80_20_practice","0.5","","0.5","0.2","","","","","","","","","","","",""
"1200","","bandit","39","94769","0.0-19.0-19.0","87474678","wem/bandit_either","A3G00Q5JV2BE5G","either","5","","","","","","","74","J","0","img/none_selected_demo.jpg","0","1","0","","0.8","true","0","","0.8","80_20_practice","0.5","0.2","0.5","","","","","","","","","","","","",""
"4734","","text","40","99505","0.0-20.0","87474678","wem/bandit_either","A3G00Q5JV2BE5G","either","5","32","","","","","","","","","","","","","","","","","","","","","","","","","","","","","","","","","","",""
"632","","bandit","41","101642","0.0-21.0-0.0","87474678","wem/bandit_either","A3G00Q5JV2BE5G","either","5","","","","","","","74","J","0","img/none_selected_demo.jpg","1","0","0","1","0","true","0","1","0","","","1","","0","","","","","","","","","","","",""
"1029","","text","42","102671","0.0-22.0","87474678","wem/bandit_either","A3G00Q5JV2BE5G","either","5","32","","","","","","","","","","","","","","","","","","","","","","","","","","","","","","","","","","",""
"2239","","text","43","104912","0.0-23.0","87474678","wem/bandit_either","A3G00Q5JV2BE5G","either","5","32","","","","","","","","","","","","","","","","","","","","","","","","","","","","","","","","","","",""
"742","","text","44","105656","0.0-24.0","87474678","wem/bandit_either","A3G00Q5JV2BE5G","either","5","32","","","","","","","","","","","","","","","","","","","","","","","","","","","","","","","","","","",""
"928","","text","45","106586","0.0-25.0","87474678","wem/bandit_either","A3G00Q5JV2BE5G","either","5","32","","","","","","","","","","","","","","","","","","","","","","","","","","","","","","","","","","",""
"1716","","text","46","108302","0.0-26.0","87474678","wem/bandit_either","A3G00Q5JV2BE5G","either","5","32","","","","","","","","","","","","","","","","","","","","","","","","","","","","","","","","","","",""
"307","","text","47","108610","0.0-27.0","87474678","wem/bandit_either","A3G00Q5JV2BE5G","either","5","32","","","","","","","","","","","","","","","","","","","","","","","","","","","","","","","","","","",""
"209","","text","48","108822","0.0-28.0","87474678","wem/bandit_either","A3G00Q5JV2BE5G","either","5","32","","","","","","","","","","","","","","","","","","","","","","","","","","","","","","","","","","",""
"155","","text","49","108978","0.0-29.0","87474678","wem/bandit_either","A3G00Q5JV2BE5G","either","5","32","","","","","","","","","","","","","","","","","","","","","","","","","","","","","","","","","","",""
"190","","text","50","109170","0.0-30.0","87474678","wem/bandit_either","A3G00Q5JV2BE5G","either","5","32","","","","","","","","","","","","","","","","","","","","","","","","","","","","","","","","","","",""
"130","","text","51","109302","0.0-31.0","87474678","wem/bandit_either","A3G00Q5JV2BE5G","either","5","32","","","","","","","","","","","","","","","","","","","","","","","","","","","","","","","","","","",""
"175","","text","52","109478","0.0-32.0","87474678","wem/bandit_either","A3G00Q5JV2BE5G","either","5","32","","","","","","","","","","","","","","","","","","","","","","","","","","","","","","","","","","",""
"1946","","bandit","53","112929","0.0-33.0-0.0","87474678","wem/bandit_either","A3G00Q5JV2BE5G","either","5","","","","","","","72","H","0","img/none_selected.jpg","0","0","1","0.8","","true","0","0.8","","full_practice","0.5","","0.5","0.2","0.6","0.5","0.2","0.5","","","","","","","",""
"306","","bandit","54","114741","0.0-33.0-1.0","87474678","wem/bandit_either","A3G00Q5JV2BE5G","either","5","","","","","","","74","J","1","","0","0","1","0.2","","true","0","0.8","","full_practice","0.5","","0.5","0.2","0.6","0.5","0.2","0.5","","","","","","","",""
"175","","bandit","55","116421","0.0-33.0-2.0","87474678","wem/bandit_either","A3G00Q5JV2BE5G","either","5","","","","","","","75","K","2","","0","1","0","","0.6","true","0","","0.8","full_practice","0.5","0.2","0.5","","","0.5","","0.5","0.6","0.2","","","","","",""
"41","","bandit","56","117968","0.0-33.0-3.0","87474678","wem/bandit_either","A3G00Q5JV2BE5G","either","5","","","","","","","76","L","3","","0","0","1","","0.2","true","0","","0.8","full_practice","0.5","0.2","0.5","","","0.5","","0.5","0.6","0.2","","","","","",""
"96","","bandit","57","119569","0.0-33.0-4.0","87474678","wem/bandit_either","A3G00Q5JV2BE5G","either","5","","","","","","","72","H","0","img/none_selected.jpg","1","0","0","0.8","","true","0","0.8","","full_practice","0.5","","0.5","0.2","0.6","0.5","0.2","0.5","","","","","","","",""
"309","","bandit","58","121381","0.0-33.0-5.0","87474678","wem/bandit_either","A3G00Q5JV2BE5G","either","5","","","","","","","74","J","1","","0","0","1","0.2","","true","0","0.8","","full_practice","0.5","","0.5","0.2","0.6","0.5","0.2","0.5","","","","","","","",""
"412","","bandit","59","123297","0.0-33.0-6.0","87474678","wem/bandit_either","A3G00Q5JV2BE5G","either","5","","","","","","","76","L","3","","0","0","1","","0.2","true","0","","0.8","full_practice","0.5","0.2","0.5","","","0.5","","0.5","0.6","0.2","","","","","",""
"347","","bandit","60","125147","0.0-33.0-7.0","87474678","wem/bandit_either","A3G00Q5JV2BE5G","either","5","","","","","","","72","H","0","img/none_selected.jpg","1","0","0","0.8","","true","0","0.8","","full_practice","0.5","","0.5","0.2","0.6","0.5","0.2","0.5","","","","","","","",""
"384","","bandit","61","127034","0.0-33.0-8.0","87474678","wem/bandit_either","A3G00Q5JV2BE5G","either","5","","","","","","","74","J","1","","0","0","1","0.2","","true","0","0.8","","full_practice","0.5","","0.5","0.2","0.6","0.5","0.2","0.5","","","","","","","",""
"159","","bandit","62","128699","0.0-33.0-9.0","87474678","wem/bandit_either","A3G00Q5JV2BE5G","either","5","","","","","","","76","L","3","","0","0","1","0.2","","true","0","0.8","","full_practice","0.5","","0.5","0.2","0.6","0.5","0.2","0.5","","","","","","","",""
"336","","bandit","63","130539","0.0-33.0-10.0","87474678","wem/bandit_either","A3G00Q5JV2BE5G","either","5","","","","","","","72","H","0","img/none_selected.jpg","1","0","0","0.8","","true","0","0.8","","full_practice","0.5","","0.5","0.2","0.6","0.5","0.2","0.5","","","","","","","",""
"220","","bandit","64","132265","0.0-33.0-11.0","87474678","wem/bandit_either","A3G00Q5JV2BE5G","either","5","","","","","","","72","H","0","img/none_selected.jpg","1","0","0","0.8","","true","0","0.8","","full_practice","0.5","","0.5","0.2","0.6","0.5","0.2","0.5","","","","","","","",""
"321","","bandit","65","134091","0.0-33.0-12.0","87474678","wem/bandit_either","A3G00Q5JV2BE5G","either","5","","","","","","","72","H","0","img/none_selected.jpg","1","0","0","0.8","","true","0","0.8","","full_practice","0.5","","0.5","0.2","0.6","0.5","0.2","0.5","","","","","","","",""
"27","","bandit","66","135623","0.0-33.0-13.0","87474678","wem/bandit_either","A3G00Q5JV2BE5G","either","5","","","","","","","74","J","1","","0","0","1","0.2","","true","0","0.8","","full_practice","0.5","","0.5","0.2","0.6","0.5","0.2","0.5","","","","","","","",""
"103","","bandit","67","137231","0.0-33.0-14.0","87474678","wem/bandit_either","A3G00Q5JV2BE5G","either","5","","","","","","","76","L","3","","0","0","1","","0.2","true","0","","0.8","full_practice","0.5","0.2","0.5","","","0.5","","0.5","0.6","0.2","","","","","",""
"526","","bandit","68","139263","0.0-33.0-15.0","87474678","wem/bandit_either","A3G00Q5JV2BE5G","either","5","","","","","","","72","H","0","img/none_selected.jpg","0","0","1","","0.8","true","0","","0.8","full_practice","0.5","0.2","0.5","","","0.5","","0.5","0.6","0.2","","","","","",""
"57","","bandit","69","140826","0.0-33.0-16.0","87474678","wem/bandit_either","A3G00Q5JV2BE5G","either","5","","","","","","","72","H","0","img/none_selected.jpg","1","0","0","0.8","","true","0","0.8","","full_practice","0.5","","0.5","0.2","0.6","0.5","0.2","0.5","","","","","","","",""
"497","","bandit","70","142828","0.0-33.0-17.0","87474678","wem/bandit_either","A3G00Q5JV2BE5G","either","5","","","","","","","72","H","0","img/none_selected.jpg","0","1","0","","0.8","true","0","","0.8","full_practice","0.5","0.2","0.5","","","0.5","","0.5","0.6","0.2","","","","","",""
"466","","bandit","71","144799","0.0-33.0-18.0","87474678","wem/bandit_either","A3G00Q5JV2BE5G","either","5","","","","","","","72","H","0","img/none_selected.jpg","0","1","0","","0.8","true","0","","0.8","full_practice","0.5","0.2","0.5","","","0.5","","0.5","0.6","0.2","","","","","",""
"508","","bandit","72","146811","0.0-33.0-19.0","87474678","wem/bandit_either","A3G00Q5JV2BE5G","either","5","","","","","","","72","H","0","img/none_selected.jpg","0","1","0","","0.8","true","0","","0.8","full_practice","0.5","0.2","0.5","","","0.5","","0.5","0.6","0.2","","","","","",""
"23153","","text","73","169966","0.0-34.0","87474678","wem/bandit_either","A3G00Q5JV2BE5G","either","5","32","","","","","","","","","","","","","","","","","","","","","","","","","","","","","","","","","","",""
"2793","","text","74","173762","0.0-35.0","87474678","wem/bandit_either","A3G00Q5JV2BE5G","either","5","32","","","","","","","","","","","","","","","","","","","","","","","","","","","","","","","","","","",""
"1370","","text","75","175134","0.0-36.0","87474678","wem/bandit_either","A3G00Q5JV2BE5G","either","5","32","","","","","","","","","","","","","","","","","","","","","","","","","","","","","","","","","","",""
"943","","text","76","176078","0.0-37.0","87474678","wem/bandit_either","A3G00Q5JV2BE5G","either","5","32","","","","","","","","","","","","","","","","","","","","","","","","","","","","","","","","","","",""
"1943","","text","77","178022","0.0-38.0","87474678","wem/bandit_either","A3G00Q5JV2BE5G","either","5","32","","","","","","","","","","","","","","","","","","","","","","","","","","","","","","","","","","",""
"578","","text","78","178602","0.0-39.0","87474678","wem/bandit_either","A3G00Q5JV2BE5G","either","5","32","","","","","","","","","","","","","","","","","","","","","","","","","","","","","","","","","","",""
"1717","","bandit","79","181823","0.0-40.0-0.0","87474678","wem/bandit_either","A3G00Q5JV2BE5G","either","5","","","","","","","72","H","0","img/none_selected.jpg","0","0","1","0.3897275569","","","1","0.3897275569","","main_expt","0.4","","0.8","0.3340388524","0.1165465043","0.6","0.4265570961","0.2","","","","","","","",""
"452","","bandit","80","183780","0.0-41.0-0.0","87474678","wem/bandit_either","A3G00Q5JV2BE5G","either","5","","","","","","","74","J","1","","0","0","1","","0.3223834482","","2","","0.3911966266","main_expt","0.4","0.3223834482","0.8","","","0.6","","0.2","0.08371899021","0.4177099958","","","","","",""
"51","","bandit","81","185336","0.0-42.0-0.0","87474678","wem/bandit_either","A3G00Q5JV2BE5G","either","5","","","","","","","72","H","0","img/none_selected.jpg","0","0","1","","0.4074861021","","3","","0.4074861021","main_expt","0.4","0.3585509001","0.8","","","0.6","","0.2","0.04339790364","0.4192185534","","","","","",""
"202","","bandit","82","187043","0.0-43.0-0.0","87474678","wem/bandit_either","A3G00Q5JV2BE5G","either","5","","","","","","","74","J","1","","0","0","1","0.3416436242","","","4","0.3965638453","","main_expt","0.4","","0.8","0.3416436242","0.04073472785","0.6","0.4241610434","0.2","","","","","","","",""
"131","","bandit","83","188679","0.0-44.0-0.0","87474678","wem/bandit_either","A3G00Q5JV2BE5G","either","5","","","","","","","75","K","2","","0","0","1","0.04731773769","","","5","0.3688269119","","main_expt","0.4","","0.8","0.3444758892","0.04731773769","0.6","0.4284837315","0.2","","","","","","","",""
"399","","bandit","84","190582","0.0-45.0-0.0","87474678","wem/bandit_either","A3G00Q5JV2BE5G","either","5","","","","","","","76","L","3","","0","1","0","","0.4328708062","","6","","0.3865867917","main_expt","0.4","0.3574177426","0.8","","","0.6","","0.2","0.05617088868","0.4328708062","","","","","",""
"351","","bandit","85","192437","0.0-46.0-0.0","87474678","wem/bandit_either","A3G00Q5JV2BE5G","either","5","","","","","","","72","H","0","img/none_selected.jpg","0","0","1","","0.4294719924","","7","","0.4294719924","main_expt","0.4","0.3634052143","0.8","","","0.6","","0.2","0.05606577856","0.4176545671","","","","","",""
"441","","bandit","86","194383","0.0-47.0-0.0","87474678","wem/bandit_either","A3G00Q5JV2BE5G","either","5","","","","","","","74","J","1","","0","1","0","","0.3675420607","","8","","0.4210378118","main_expt","0.4","0.3675420607","0.8","","","0.6","","0.2","0.09244853328","0.4022395488","","","","","",""
"198","","bandit","87","196088","0.0-48.0-0.0","87474678","wem/bandit_either","A3G00Q5JV2BE5G","either","5","","","","","","","72","H","0","img/none_selected.jpg","1","0","0","0.4502112583","","","9","0.4502112583","","main_expt","0.4","","0.8","0.3921196104","0.1271341085","0.6","0.3929004949","0.2","","","","","","","",""
"66","","bandit","88","197659","0.0-49.0-0.0","87474678","wem/bandit_either","A3G00Q5JV2BE5G","either","5","","","","","","","72","H","0","img/none_selected.jpg","1","0","0","0.4452653155","","","10","0.4452653155","","main_expt","0.4","","0.8","0.4026182126","0.1370717255","0.6","0.3863711448","0.2","","","","","","","",""
"269","","bandit","89","199435","0.0-50.0-0.0","87474678","wem/bandit_either","A3G00Q5JV2BE5G","either","5","","","","","","","72","H","0","img/none_selected.jpg","0","1","0","","0.4352349267","","11","","0.4352349267","main_expt","0.4","0.3543069494","0.8","","","0.6","","0.2","0.1275050207","0.4205849279","","","","","",""
"280","","bandit","90","201219","0.0-51.0-0.0","87474678","wem/bandit_either","A3G00Q5JV2BE5G","either","5","","","","","","","74","J","1","","0","0","1","0.3504097904","","","12","0.4029030639","","main_expt","0.4","","0.8","0.3504097904","0.122317004","0.6","0.4525069231","0.2","","","","","","","",""
"113","","bandit","91","202836","0.0-52.0-0.0","87474678","wem/bandit_either","A3G00Q5JV2BE5G","either","5","","","","","","","75","K","2","","0","0","1","0.1251711411","","","13","0.4198147105","","main_expt","0.4","","0.8","0.2787441393","0.1251711411","0.6","0.4485799753","0.2","","","","","","","",""
"357","","bandit","92","204699","0.0-53.0-0.0","87474678","wem/bandit_either","A3G00Q5JV2BE5G","either","5","","","","","","","76","L","3","","0","0","1","","0.4504049656","","14","","0.3761312174","main_expt","0.4","0.2723245106","0.8","","","0.6","","0.2","0.1380641988","0.4504049656","","","","","",""
"166","","bandit","93","206372","0.0-54.0-0.0","87474678","wem/bandit_either","A3G00Q5JV2BE5G","either","5","","","","","","","72","H","0","img/none_selected.jpg","0","1","0","","0.4017507227","","15","","0.4017507227","main_expt","0.4","0.3687644442","0.8","","","0.6","","0.2","0.2010812313","0.4281165459","","","","","",""
"321","","bandit","94","208198","0.0-55.0-0.0","87474678","wem/bandit_either","A3G00Q5JV2BE5G","either","5","","","","","","","74","J","1","","0","0","1","0.3992289848","","","16","0.3859888637","","main_expt","0.4","","0.8","0.3992289848","0.1747275657","0.6","0.4035101098","0.2","","","","","","","",""
"395","","bandit","95","210097","0.0-56.0-0.0","87474678","wem/bandit_either","A3G00Q5JV2BE5G","either","5","","","","","","","75","K","2","","1","0","0","0.1816524112","","","17","0.3706978481","","main_expt","0.4","","0.8","0.4067061876","0.1816524112","0.6","0.4063691663","0.2","","","","","","","",""
"268","","bandit","96","211870","0.0-57.0-0.0","87474678","wem/bandit_either","A3G00Q5JV2BE5G","either","5","","","","","","","75","K","2","","0","0","1","","0.1700798448","","18","","0.3323991027","main_expt","0.4","0.3969002131","0.8","","","0.6","","0.2","0.1700798448","0.4201618032","","","","","",""
"290","","bandit","97","213667","0.0-58.0-0.0","87474678","wem/bandit_either","A3G00Q5JV2BE5G","either","5","","","","","","","75","K","2","","1","0","0","0.1998500639","","","19","0.3301718366","","main_expt","0.4","","0.8","0.3930099592","0.1998500639","0.6","0.3868389751","0.2","","","","","","","",""
"361","","bandit","98","215534","0.0-59.0-0.0","87474678","wem/bandit_either","A3G00Q5JV2BE5G","either","5","","","","","","","75","K","2","","0","0","1","0.2418808817","","","20","0.3714618997","","main_expt","0.4","","0.8","0.3791602553","0.2418808817","0.6","0.3868875991","0.2","","","","","","","",""
"275","","bandit","99","217314","0.0-60.0-0.0","87474678","wem/bandit_either","A3G00Q5JV2BE5G","either","5","","","","","","","75","K","2","","1","0","0","0.2293341009","","","21","0.3621694591","","main_expt","0.4","","0.8","0.4127515201","0.2293341009","0.6","0.4253770554","0.2","","","","","","","",""
"432","","bandit","100","219250","0.0-61.0-0.0","87474678","wem/bandit_either","A3G00Q5JV2BE5G","either","5","","","","","","","75","K","2","","0","0","1","0.2074184163","","","22","0.3648829928","","main_expt","0.4","","0.8","0.4164833055","0.2074184163","0.6","0.4285762007","0.2","","","","","","","",""
"97","","bandit","101","220853","0.0-62.0-0.0","87474678","wem/bandit_either","A3G00Q5JV2BE5G","either","5","","","","","","","75","K","2","","0","0","1","0.1832507358","","","23","0.2856994719","","main_expt","0.4","","0.8","0.4143027846","0.1832507358","0.6","0.4082522222","0.2","","","","","","","",""
"171","","bandit","102","222529","0.0-63.0-0.0","87474678","wem/bandit_either","A3G00Q5JV2BE5G","either","5","","","","","","","72","H","0","img/none_selected.jpg","0","0","1","","0.3152516524","","24","","0.3152516524","main_expt","0.4","0.3649270698","0.8","","","0.6","","0.2","0.1469425149","0.4027270218","","","","","",""
"409","","bandit","103","224445","0.0-64.0-0.0","87474678","wem/bandit_either","A3G00Q5JV2BE5G","either","5","","","","","","","74","J","1","","0","0","1","0.392676409","","","25","0.2778145345","","main_expt","0.4","","0.8","0.392676409","0.102794739","0.6","0.4100212433","0.2","","","","","","","",""
"167","","bandit","104","226118","0.0-65.0-0.0","87474678","wem/bandit_either","A3G00Q5JV2BE5G","either","5","","","","","","","76","L","3","","0","0","1","","0.4190791169","","26","","0.3170506137","main_expt","0.4","0.4031565401","0.8","","","0.6","","0.2","0.1173732637","0.4190791169","","","","","",""
"389","","bandit","105","228013","0.0-66.0-0.0","87474678","wem/bandit_either","A3G00Q5JV2BE5G","either","5","","","","","","","74","J","1","","0","0","1","0.4245959001","","","27","0.3223143746","","main_expt","0.4","","0.8","0.4245959001","0.08835016803","0.6","0.4527212376","0.2","","","","","","","",""
"182","","bandit","106","229700","0.0-67.0-0.0","87474678","wem/bandit_either","A3G00Q5JV2BE5G","either","5","","","","","","","75","K","2","","0","0","1","","0.1134440288","","28","","0.3234472479","main_expt","0.4","0.4232885055","0.8","","","0.6","","0.2","0.1134440288","0.4480998813","","","","","",""
"171","","bandit","107","231377","0.0-68.0-0.0","87474678","wem/bandit_either","A3G00Q5JV2BE5G","either","5","","","","","","","72","H","0","img/none_selected.jpg","0","0","1","","0.2881425904","","29","","0.2881425904","main_expt","0.4","0.4495512981","0.8","","","0.6","","0.2","0.1982905849","0.4628669208","","","","","",""
"355","","bandit","108","233237","0.0-69.0-0.0","87474678","wem/bandit_either","A3G00Q5JV2BE5G","either","5","","","","","","","72","H","0","img/none_selected.jpg","0","0","1","","0.2326555855","","30","","0.2326555855","main_expt","0.4","0.4485299892","0.8","","","0.6","","0.2","0.2366655967","0.4565655028","","","","","",""
"194","","bandit","109","234938","0.0-70.0-0.0","87474678","wem/bandit_either","A3G00Q5JV2BE5G","either","5","","","","","","","76","L","3","","0","1","0","","0.4686031056","","31","","0.2364604256","main_expt","0.4","0.4599237238","0.8","","","0.6","","0.2","0.1622470467","0.4686031056","","","","","",""
"331","","bandit","110","236776","0.0-71.0-0.0","87474678","wem/bandit_either","A3G00Q5JV2BE5G","either","5","","","","","","","75","K","2","","0","0","1","0.1771911602","","","32","0.2451982598","","main_expt","0.4","","0.8","0.4508116693","0.1771911602","0.6","0.4659582456","0.2","","","","","","","",""
"111","","bandit","111","238392","0.0-72.0-0.0","87474678","wem/bandit_either","A3G00Q5JV2BE5G","either","5","","","","","","","75","K","2","","0","0","1","","0.1622836308","","33","","0.2360369815","main_expt","0.4","0.45101727","0.8","","","0.6","","0.2","0.1622836308","0.4810757035","","","","","",""
"219","","bandit","112","240117","0.0-73.0-0.0","87474678","wem/bandit_either","A3G00Q5JV2BE5G","either","5","","","","","","","75","K","2","","0","0","1","","0.1655985557","","34","","0.2317763892","main_expt","0.4","0.4340174653","0.8","","","0.6","","0.2","0.1655985557","0.4842727378","","","","","",""
"227","","bandit","113","241849","0.0-74.0-0.0","87474678","wem/bandit_either","A3G00Q5JV2BE5G","either","5","","","","","","","72","H","0","img/none_selected.jpg","0","0","1","0.2527891731","","","35","0.2527891731","","main_expt","0.4","","0.8","0.4040147441","0.1492797185","0.6","0.4745470136","0.2","","","","","","","",""
"241","","bandit","114","243597","0.0-75.0-0.0","87474678","wem/bandit_either","A3G00Q5JV2BE5G","either","5","","","","","","","74","J","1","","0","0","1","","0.4268829696","","36","","0.2641283143","main_expt","0.4","0.4268829696","0.8","","","0.6","","0.2","0.1504543003","0.4440965139","","","","","",""
"371","","bandit","115","245474","0.0-76.0-0.0","87474678","wem/bandit_either","A3G00Q5JV2BE5G","either","5","","","","","","","74","J","1","","0","0","1","0.4562327564","","","37","0.2309310423","","main_expt","0.4","","0.8","0.4562327564","0.1064249526","0.6","0.4544425755","0.2","","","","","","","",""
"106","","bandit","116","247084","0.0-77.0-0.0","87474678","wem/bandit_either","A3G00Q5JV2BE5G","either","5","","","","","","","72","H","0","img/none_selected.jpg","0","1","0","","0.2093170459","","38","","0.2093170459","main_expt","0.4","0.4481627861","0.8","","","0.6","","0.2","0.1346530267","0.4700138218","","","","","",""
"351","","bandit","117","248941","0.0-78.0-0.0","87474678","wem/bandit_either","A3G00Q5JV2BE5G","either","5","","","","","","","74","J","1","","0","0","1","0.4475890948","","","39","0.1398625959","","main_expt","0.4","","0.8","0.4475890948","0.1303494481","0.6","0.466948448","0.2","","","","","","","",""
"384","","bandit","118","250834","0.0-79.0-0.0","87474678","wem/bandit_either","A3G00Q5JV2BE5G","either","5","","","","","","","75","K","2","","0","0","1","0.1492074344","","","40","0.09690087606","","main_expt","0.4","","0.8","0.4501575696","0.1492074344","0.6","0.4679256248","0.2","","","","","","","",""
"615","","bandit","119","252961","0.0-80.0-0.0","87474678","wem/bandit_either","A3G00Q5JV2BE5G","either","5","","","","","","","75","K","2","","1","0","0","0.1370672299","","","41","0.1129569356","","main_expt","0.4","","0.8","0.4121884666","0.1370672299","0.6","0.445537573","0.2","","","","","","","",""
"290","","bandit","120","254757","0.0-81.0-0.0","87474678","wem/bandit_either","A3G00Q5JV2BE5G","either","5","","","","","","","74","J","1","","0","1","0","","0.4379939247","","42","","0.1227033228","main_expt","0.4","0.4379939247","0.8","","","0.6","","0.2","0.08144147181","0.4521531226","","","","","",""
"97","","bandit","121","256361","0.0-82.0-0.0","87474678","wem/bandit_either","A3G00Q5JV2BE5G","either","5","","","","","","","75","K","2","","0","0","1","0.06793865388","","","43","0.08393287497","","main_expt","0.4","","0.8","0.4271747655","0.06793865388","0.6","0.4695072217","0.2","","","","","","","",""
"198","","bandit","122","258063","0.0-83.0-0.0","87474678","wem/bandit_either","A3G00Q5JV2BE5G","either","5","","","","","","","75","K","2","","0","0","1","","0.05295344446","","44","","0.06260074275","main_expt","0.4","0.4480494518","0.8","","","0.6","","0.2","0.05295344446","0.4807409838","","","","","",""
"156","","bandit","123","259725","0.0-84.0-0.0","87474678","wem/bandit_either","A3G00Q5JV2BE5G","either","5","","","","","","","76","L","3","","0","1","0","","0.4507048108","","45","","0.08062123592","main_expt","0.4","0.4269729589","0.8","","","0.6","","0.2","0.02744239742","0.4507048108","","","","","",""
"304","","bandit","124","261536","0.0-85.0-0.0","87474678","wem/bandit_either","A3G00Q5JV2BE5G","either","5","","","","","","","72","H","0","img/none_selected.jpg","0","0","1","","0.1110847749","","46","","0.1110847749","main_expt","0.4","0.4475746277","0.8","","","0.6","","0.2","0.02347437243","0.4382321206","","","","","",""
"17","","bandit","125","263059","0.0-86.0-0.0","87474678","wem/bandit_either","A3G00Q5JV2BE5G","either","5","","","","","","","75","K","2","","0","0","1","","0.02418160198","","47","","0.05346849493","main_expt","0.4","0.4295618238","0.8","","","0.6","","0.2","0.02418160198","0.4393937913","","","","","",""
"136","","bandit","126","264701","0.0-87.0-0.0","87474678","wem/bandit_either","A3G00Q5JV2BE5G","either","5","","","","","","","75","K","2","","0","0","1","0.01182676654","","","48","0.04499733497","","main_expt","0.4","","0.8","0.4431907244","0.01182676654","0.6","0.440318131","0.2","","","","","","","",""
"415","","bandit","127","266621","0.0-88.0-0.0","87474678","wem/bandit_either","A3G00Q5JV2BE5G","either","5","","","","","","","75","K","2","","0","0","1","0.0186287842","","","49","0.07378534534","","main_expt","0.4","","0.8","0.4187732916","0.0186287842","0.6","0.4362102412","0.2","","","","","","","",""
"394","","bandit","128","268523","0.0-89.0-0.0","87474678","wem/bandit_either","A3G00Q5JV2BE5G","either","5","","","","","","","72","H","0","img/none_selected.jpg","0","0","1","","0.06168845619","","50","","0.06168845619","main_expt","0.4","0.356579213","0.8","","","0.6","","0.2","0.02550629551","0.44488671","","","","","",""
"539","","bandit","129","270566","0.0-90.0-0.0","87474678","wem/bandit_either","A3G00Q5JV2BE5G","either","5","","","","","","","76","L","3","","0","0","1","","0.4633405548","","51","","0.1062028567","main_expt","0.4","0.2629404955","0.8","","","0.6","","0.2","0.04366809707","0.4633405548","","","","","",""
"391","","bandit","130","272462","0.0-91.0-0.0","87474678","wem/bandit_either","A3G00Q5JV2BE5G","either","5","","","","","","","75","K","2","","0","0","1","","0.04357168116","","52","","0.1379608546","main_expt","0.4","0.2919747068","0.8","","","0.6","","0.2","0.04357168116","0.4528043762","","","","","",""
"339","","bandit","131","274306","0.0-92.0-0.0","87474678","wem/bandit_either","A3G00Q5JV2BE5G","either","5","","","","","","","72","H","0","img/none_selected.jpg","0","0","1","","0.1356826849","","53","","0.1356826849","main_expt","0.4","0.3809901122","0.8","","","0.6","","0.2","0.03899227154","0.4390431751","","","","","",""
"346","","bandit","132","276159","0.0-93.0-0.0","87474678","wem/bandit_either","A3G00Q5JV2BE5G","either","5","","","","","","","74","J","1","","0","0","1","0.3452518694","","","54","0.1038772241","","main_expt","0.4","","0.8","0.3452518694","0.04009146386","0.6","0.4549270822","0.2","","","","","","","",""
"216","","bandit","133","277880","0.0-94.0-0.0","87474678","wem/bandit_either","A3G00Q5JV2BE5G","either","5","","","","","","","76","L","3","","0","0","1","","0.4710341864","","55","","0.1689791829","main_expt","0.4","0.3263112327","0.8","","","0.6","","0.2","0.0155768565","0.4710341864","","","","","",""
"576","","bandit","134","279963","0.0-95.0-0.0","87474678","wem/bandit_either","A3G00Q5JV2BE5G","either","5","","","","","","","74","J","1","","0","0","1","0.3308963945","","","56","0.1108888145","","main_expt","0.4","","0.8","0.3308963945","0.02112461672","0.6","0.4745834276","0.2","","","","","","","",""
"31","","bandit","135","281498","0.0-96.0-0.0","87474678","wem/bandit_either","A3G00Q5JV2BE5G","either","5","","","","","","","75","K","2","","0","0","1","","0.0126553198","","57","","0.1206542402","main_expt","0.4","0.3150326571","0.8","","","0.6","","0.2","0.0126553198","0.489318572","","","","","",""
"363","","bandit","136","283366","0.0-97.0-0.0","87474678","wem/bandit_either","A3G00Q5JV2BE5G","either","5","","","","","","","72","H","0","img/none_selected.jpg","0","0","1","","0.09707343937","","58","","0.09707343937","main_expt","0.4","0.3049116772","0.8","","","0.6","","0.2","0.01131359515","0.480037986","","","","","",""
"58","","bandit","137","284929","0.0-98.0-0.0","87474678","wem/bandit_either","A3G00Q5JV2BE5G","either","5","","","","","","","76","L","3","","0","0","1","","0.4593461039","","59","","0.1044384952","main_expt","0.4","0.3050987947","0.8","","","0.6","","0.2","0.01030075821","0.4593461039","","","","","",""
"222","","bandit","138","286657","0.0-99.0-0.0","87474678","wem/bandit_either","A3G00Q5JV2BE5G","either","5","","","","","","","75","K","2","","0","0","1","0.005868957973","","","60","0.08890369623","","main_expt","0.4","","0.8","0.3274009355","0.005868957973","0.6","0.446051488","0.2","","","","","","","",""
"493","","bandit","139","288656","0.0-100.0-0.0","87474678","wem/bandit_either","A3G00Q5JV2BE5G","either","5","","","","","","","74","J","1","","0","0","1","0.3428943983","","","61","0.08921221942","","main_expt","0.4","","0.8","0.3428943983","0.004361943215","0.6","0.4391285327","0.2","","","","","","","",""
"489","","bandit","140","290651","0.0-101.0-0.0","87474678","wem/bandit_either","A3G00Q5JV2BE5G","either","5","","","","","","","74","J","1","","0","0","1","0.3549763931","","","62","0.09812025034","","main_expt","0.4","","0.8","0.3549763931","0.005208412743","0.6","0.4063883723","0.2","","","","","","","",""
"420","","bandit","141","292577","0.0-102.0-0.0","87474678","wem/bandit_either","A3G00Q5JV2BE5G","either","5","","","","","","","75","K","2","","0","0","1","","0.006461011255","","63","","0.09006279409","main_expt","0.4","0.3496678451","0.8","","","0.6","","0.2","0.006461011255","0.4330387396","","","","","",""
"327","","bandit","142","294410","0.0-103.0-0.0","87474678","wem/bandit_either","A3G00Q5JV2BE5G","either","5","","","","","","","76","L","3","","0","1","0","","0.4207902426","","64","","0.1118976224","main_expt","0.4","0.3188537263","0.8","","","0.6","","0.2","0.01267926231","0.4207902426","","","","","",""
"217","","bandit","143","296134","0.0-104.0-0.0","87474678","wem/bandit_either","A3G00Q5JV2BE5G","either","5","","","","","","","75","K","2","","0","0","1","","0.009732787917","","65","","0.1053817613","main_expt","0.4","0.3191795336","0.8","","","0.6","","0.2","0.009732787917","0.3719582347","","","","","",""
"322","","bandit","144","297961","0.0-105.0-0.0","87474678","wem/bandit_either","A3G00Q5JV2BE5G","either","5","","","","","","","75","K","2","","0","0","1","0.01092542651","","","66","0.1307356695","","main_expt","0.4","","0.8","0.268616347","0.01092542651","0.6","0.3748569955","0.2","","","","","","","",""
"596","","bandit","145","300061","0.0-106.0-0.0","87474678","wem/bandit_either","A3G00Q5JV2BE5G","either","5","","","","","","","74","J","1","","0","0","1","","0.259194563","","67","","0.1418436428","main_expt","0.4","0.259194563","0.8","","","0.6","","0.2","0.02125534741","0.335252031","","","","","",""
"213","","bandit","146","301779","0.0-107.0-0.0","87474678","wem/bandit_either","A3G00Q5JV2BE5G","either","5","","","","","","","74","J","1","","0","0","1","","0.2281204868","","68","","0.1459089566","main_expt","0.4","0.2281204868","0.8","","","0.6","","0.2","0.02360283027","0.3199157278","","","","","",""
"90","","bandit","147","303375","0.0-108.0-0.0","87474678","wem/bandit_either","A3G00Q5JV2BE5G","either","5","","","","","","","74","J","1","","1","0","0","0.2195844169","","","69","0.1809721424","","main_expt","0.4","","0.8","0.2195844169","0.02539305756","0.6","0.3068525281","0.2","","","","","","","",""
"377","","bandit","148","305260","0.0-109.0-0.0","87474678","wem/bandit_either","A3G00Q5JV2BE5G","either","5","","","","","","","74","J","1","","0","0","1","","0.1883338509","","70","","0.1784068974","main_expt","0.4","0.1883338509","0.8","","","0.6","","0.2","0.05014388586","0.3181076016","","","","","",""
"202","","bandit","149","306973","0.0-110.0-0.0","87474678","wem/bandit_either","A3G00Q5JV2BE5G","either","5","","","","","","","74","J","1","","0","0","1","","0.1639708178","","71","","0.1973023396","main_expt","0.4","0.1639708178","0.8","","","0.6","","0.2","0.04209054697","0.2926426422","","","","","",""
"238","","bandit","150","308716","0.0-111.0-0.0","87474678","wem/bandit_either","A3G00Q5JV2BE5G","either","5","","","","","","","74","J","1","","0","0","1","","0.1312842785","","72","","0.2436342847","main_expt","0.4","0.1312842785","0.8","","","0.6","","0.2","0.05611199342","0.2380263643","","","","","",""
"120","","bandit","151","310341","0.0-112.0-0.0","87474678","wem/bandit_either","A3G00Q5JV2BE5G","either","5","","","","","","","72","H","0","img/none_selected.jpg","0","0","1","","0.1992173182","","73","","0.1992173182","main_expt","0.4","0.1805041857","0.8","","","0.6","","0.2","0.05293238473","0.2407197948","","","","","",""
"453","","bandit","152","312299","0.0-113.0-0.0","87474678","wem/bandit_either","A3G00Q5JV2BE5G","either","5","","","","","","","74","J","1","","0","0","1","","0.1739557812","","74","","0.2347098304","main_expt","0.4","0.1739557812","0.8","","","0.6","","0.2","0.0318456884","0.2317468449","","","","","",""
"183","","bandit","153","313987","0.0-114.0-0.0","87474678","wem/bandit_either","A3G00Q5JV2BE5G","either","5","","","","","","","75","K","2","","0","0","1","","0.03873230677","","75","","0.2641442137","main_expt","0.4","0.2434916027","0.8","","","0.6","","0.2","0.03873230677","0.2545997551","","","","","",""
"157","","bandit","154","315651","0.0-115.0-0.0","87474678","wem/bandit_either","A3G00Q5JV2BE5G","either","5","","","","","","","74","J","1","","0","0","1","0.2438468568","","","76","0.3192644053","","main_expt","0.4","","0.8","0.2438468568","0.03304947682","0.6","0.2890845388","0.2","","","","","","","",""
"70","","bandit","155","317230","0.0-116.0-0.0","87474678","wem/bandit_either","A3G00Q5JV2BE5G","either","5","","","","","","","74","J","1","","0","0","1","0.2425324642","","","77","0.3351132613","","main_expt","0.4","","0.8","0.2425324642","0.02607887458","0.6","0.2386362654","0.2","","","","","","","",""
"327","","bandit","156","319062","0.0-117.0-0.0","87474678","wem/bandit_either","A3G00Q5JV2BE5G","either","5","","","","","","","72","H","0","img/none_selected.jpg","0","0","1","","0.3086784207","","78","","0.3086784207","main_expt","0.4","0.205588479","0.8","","","0.6","","0.2","0.02492981692","0.2673679704","","","","","",""
"159","","bandit","157","320726","0.0-118.0-0.0","87474678","wem/bandit_either","A3G00Q5JV2BE5G","either","5","","","","","","","76","L","3","","0","0","1","","0.2813811921","","79","","0.3076482073","main_expt","0.4","0.213062191","0.8","","","0.6","","0.2","0.01824110002","0.2813811921","","","","","",""
"317","","bandit","158","322550","0.0-119.0-0.0","87474678","wem/bandit_either","A3G00Q5JV2BE5G","either","5","","","","","","","75","K","2","","0","0","1","0.0202176162","","","80","0.3605025214","","main_expt","0.4","","0.8","0.1852926048","0.0202176162","0.6","0.2419447949","0.2","","","","","","","",""
"191","","bandit","159","324246","0.0-120.0-0.0","87474678","wem/bandit_either","A3G00Q5JV2BE5G","either","5","","","","","","","74","J","1","","0","0","1","0.2332942271","","","81","0.3286166321","","main_expt","0.4","","0.8","0.2332942271","0.0252752587","0.6","0.323481111","0.2","","","","","","","",""
"625","","bandit","160","326379","0.0-121.0-0.0","87474678","wem/bandit_either","A3G00Q5JV2BE5G","either","5","","","","","","","74","J","1","","0","0","1","0.2087797338","","","82","0.3459677762","","main_expt","0.4","","0.8","0.2087797338","0.05668457717","0.6","0.3097244961","0.2","","","","","","","",""
"261","","bandit","161","328148","0.0-122.0-0.0","87474678","wem/bandit_either","A3G00Q5JV2BE5G","either","5","","","","","","","74","J","1","","0","0","1","0.2049979043","","","83","0.3092751195","","main_expt","0.4","","0.8","0.2049979043","0.07760530004","0.6","0.2787498647","0.2","","","","","","","",""
"383","","bandit","162","330038","0.0-123.0-0.0","87474678","wem/bandit_either","A3G00Q5JV2BE5G","either","5","","","","","","","74","J","1","","0","0","1","0.2151780091","","","84","0.3044630387","","main_expt","0.4","","0.8","0.2151780091","0.03696005566","0.6","0.2589524449","0.2","","","","","","","",""
"362","","bandit","163","331905","0.0-124.0-0.0","87474678","wem/bandit_either","A3G00Q5JV2BE5G","either","5","","","","","","","74","J","1","","0","0","1","0.1497615914","","","85","0.2812480587","","main_expt","0.4","","0.8","0.1497615914","0.04177257934","0.6","0.2769318636","0.2","","","","","","","",""
"288","","bandit","164","333702","0.0-125.0-0.0","87474678","wem/bandit_either","A3G00Q5JV2BE5G","either","5","","","","","","","75","K","2","","0","0","1","0.0385770192","","","86","0.2506532223","","main_expt","0.4","","0.8","0.1223687677","0.0385770192","0.6","0.2849222391","0.2","","","","","","","",""
"206","","bandit","165","335414","0.0-126.0-0.0","87474678","wem/bandit_either","A3G00Q5JV2BE5G","either","5","","","","","","","72","H","0","img/none_selected.jpg","0","0","1","0.2269900387","","","87","0.2269900387","","main_expt","0.4","","0.8","0.1472857413","0.03720252147","0.6","0.3131087309","0.2","","","","","","","",""
"335","","bandit","166","337254","0.0-127.0-0.0","87474678","wem/bandit_either","A3G00Q5JV2BE5G","either","5","","","","","","","72","H","0","img/none_selected.jpg","0","0","1","0.1504729919","","","88","0.1504729919","","main_expt","0.4","","0.8","0.1252586248","0.06746059371","0.6","0.3038587512","0.2","","","","","","","",""
"199","","bandit","167","338963","0.0-128.0-0.0","87474678","wem/bandit_either","A3G00Q5JV2BE5G","either","5","","","","","","","72","H","0","img/none_selected.jpg","0","0","1","0.1382070302","","","89","0.1382070302","","main_expt","0.4","","0.8","0.1194927994","0.04069757945","0.6","0.3308022157","0.2","","","","","","","",""
"240","","bandit","168","340710","0.0-129.0-0.0","87474678","wem/bandit_either","A3G00Q5JV2BE5G","either","5","","","","","","","72","H","0","img/none_selected.jpg","0","1","0","","0.1364765349","","90","","0.1364765349","main_expt","0.4","0.1589750007","0.8","","","0.6","","0.2","0.07325379503","0.3574922351","","","","","",""
"183","","bandit","169","342399","0.0-130.0-0.0","87474678","wem/bandit_either","A3G00Q5JV2BE5G","either","5","","","","","","","74","J","1","","0","0","1","","0.1859960426","","91","","0.09318196272","main_expt","0.4","0.1859960426","0.8","","","0.6","","0.2","0.06877471811","0.3729517688","","","","","",""
"184","","bandit","170","344091","0.0-131.0-0.0","87474678","wem/bandit_either","A3G00Q5JV2BE5G","either","5","","","","","","","74","J","1","","0","0","1","0.192419488","","","92","0.06946097624","","main_expt","0.4","","0.8","0.192419488","0.04115987362","0.6","0.398352994","0.2","","","","","","","",""
"306","","bandit","171","345910","0.0-132.0-0.0","87474678","wem/bandit_either","A3G00Q5JV2BE5G","either","5","","","","","","","74","J","1","","0","0","1","","0.1716033463","","93","","0.08102832817","main_expt","0.4","0.1716033463","0.8","","","0.6","","0.2","0.07078892783","0.4135860398","","","","","",""
"192","","bandit","172","347608","0.0-133.0-0.0","87474678","wem/bandit_either","A3G00Q5JV2BE5G","either","5","","","","","","","74","J","1","","0","0","1","0.1935897604","","","94","0.1271360848","","main_expt","0.4","","0.8","0.1935897604","0.05572868433","0.6","0.3786880174","0.2","","","","","","","",""
"426","","bandit","173","349544","0.0-134.0-0.0","87474678","wem/bandit_either","A3G00Q5JV2BE5G","either","5","","","","","","","75","K","2","","0","0","1","0.05056929995","","","95","0.1097592989","","main_expt","0.4","","0.8","0.2193228015","0.05056929995","0.6","0.3823424718","0.2","","","","","","","",""
"157","","bandit","174","351210","0.0-135.0-0.0","87474678","wem/bandit_either","A3G00Q5JV2BE5G","either","5","","","","","","","75","K","2","","0","0","1","0.04159874267","","","96","0.1085490834","","main_expt","0.4","","0.8","0.3262643469","0.04159874267","0.6","0.3642725552","0.2","","","","","","","",""
"426","","bandit","175","353142","0.0-136.0-0.0","87474678","wem/bandit_either","A3G00Q5JV2BE5G","either","5","","","","","","","75","K","2","","0","0","1","","0.03654451862","","97","","0.1049812554","main_expt","0.4","0.3207405496","0.8","","","0.6","","0.2","0.03654451862","0.3197717944","","","","","",""
"121","","bandit","176","354769","0.0-137.0-0.0","87474678","wem/bandit_either","A3G00Q5JV2BE5G","either","5","","","","","","","75","K","2","","0","0","1","0.04190300095","","","98","0.08177978443","","main_expt","0.4","","0.8","0.3712856991","0.04190300095","0.6","0.2514424369","0.2","","","","","","","",""
"162","","bandit","177","356436","0.0-138.0-0.0","87474678","wem/bandit_either","A3G00Q5JV2BE5G","either","5","","","","","","","75","K","2","","0","0","1","","0.08742990617","","99","","0.07574087804","main_expt","0.4","0.3740145378","0.8","","","0.6","","0.2","0.08742990617","0.2926772137","","","","","",""
"274","","bandit","178","358216","0.0-139.0-0.0","87474678","wem/bandit_either","A3G00Q5JV2BE5G","either","5","","","","","","","75","K","2","","0","0","1","0.08966523481","","","100","0.07829319678","","main_expt","0.4","","0.8","0.3776295542","0.08966523481","0.6","0.234485335","0.2","","","","","","","",""
"308","","bandit","179","360032","0.0-140.0-0.0","87474678","wem/bandit_either","A3G00Q5JV2BE5G","either","5","","","","","","","75","K","2","","0","0","1","","0.07849065771","","101","","0.07919243683","main_expt","0.4","0.3592666398","0.8","","","0.6","","0.2","0.07849065771","0.250352175","","","","","",""
"110","","bandit","180","361648","0.0-141.0-0.0","87474678","wem/bandit_either","A3G00Q5JV2BE5G","either","5","","","","","","","75","K","2","","0","0","1","","0.1054267613","","102","","0.1052753188","main_expt","0.4","0.3412191773","0.8","","","0.6","","0.2","0.1054267613","0.2139972863","","","","","",""
"239","","bandit","181","363394","0.0-142.0-0.0","87474678","wem/bandit_either","A3G00Q5JV2BE5G","either","5","","","","","","","75","K","2","","0","0","1","","0.1120981937","","103","","0.1248526142","main_expt","0.4","0.3133100433","0.8","","","0.6","","0.2","0.1120981937","0.20092706","","","","","",""
"38","","bandit","182","364940","0.0-143.0-0.0","87474678","wem/bandit_either","A3G00Q5JV2BE5G","either","5","","","","","","","75","K","2","","0","0","1","0.1034740879","","","104","0.142969925","","main_expt","0.4","","0.8","0.3219148419","0.1034740879","0.6","0.2305366804","0.2","","","","","","","",""
"600","","bandit","183","367046","0.0-144.0-0.0","87474678","wem/bandit_either","A3G00Q5JV2BE5G","either","5","","","","","","","74","J","1","","1","0","0","0.3300892518","","","105","0.13947254","","main_expt","0.4","","0.8","0.3300892518","0.07597240327","0.6","0.2102135581","0.2","","","","","","","",""
"226","","bandit","184","368779","0.0-145.0-0.0","87474678","wem/bandit_either","A3G00Q5JV2BE5G","either","5","","","","","","","74","J","1","","0","0","1","0.3401839058","","","106","0.1329526997","","main_expt","0.4","","0.8","0.3401839058","0.1124257427","0.6","0.2219457329","0.2","","","","","","","",""
"186","","bandit","185","370470","0.0-146.0-0.0","87474678","wem/bandit_either","A3G00Q5JV2BE5G","either","5","","","","","","","74","J","1","","0","0","1","0.3784706915","","","107","0.1727290233","","main_expt","0.4","","0.8","0.3784706915","0.1133168519","0.6","0.3048423019","0.2","","","","","","","",""
"172","","bandit","186","372152","0.0-147.0-0.0","87474678","wem/bandit_either","A3G00Q5JV2BE5G","either","5","","","","","","","75","K","2","","0","0","1","0.1752395656","","","108","0.1864487031","","main_expt","0.4","","0.8","0.3945753887","0.1752395656","0.6","0.258150515","0.2","","","","","","","",""
"455","","bandit","187","374112","0.0-148.0-0.0","87474678","wem/bandit_either","A3G00Q5JV2BE5G","either","5","","","","","","","75","K","2","","0","1","0","","0.1862973424","","109","","0.2463216238","main_expt","0.4","0.356827327","0.8","","","0.6","","0.2","0.1862973424","0.1859129148","","","","","",""
"296","","bandit","188","375916","0.0-149.0-0.0","87474678","wem/bandit_either","A3G00Q5JV2BE5G","either","5","","","","","","","75","K","2","","0","0","1","0.2015845776","","","110","0.2431522628","","main_expt","0.4","","0.8","0.2344179837","0.2015845776","0.6","0.1371624404","0.2","","","","","","","",""
"146","","bandit","189","377570","0.0-150.0-0.0","87474678","wem/bandit_either","A3G00Q5JV2BE5G","either","5","","","","","","","74","J","1","","1","0","0","0.2644823096","","","111","0.1757476643","","main_expt","0.4","","0.8","0.2644823096","0.2003651753","0.6","0.1258232978","0.2","","","","","","","",""
"123","","bandit","190","379200","0.0-151.0-0.0","87474678","wem/bandit_either","A3G00Q5JV2BE5G","either","5","","","","","","","74","J","1","","0","1","0","","0.28311182","","112","","0.2451518953","main_expt","0.4","0.28311182","0.8","","","0.6","","0.2","0.21392293","0.1529967373","","","","","",""
"103","","bandit","191","380815","0.0-152.0-0.0","87474678","wem/bandit_either","A3G00Q5JV2BE5G","either","5","","","","","","","74","J","1","","0","0","1","","0.2413269532","","113","","0.2407836715","main_expt","0.4","0.2413269532","0.8","","","0.6","","0.2","0.1606798039","0.148248117","","","","","",""
"70","","bandit","192","382390","0.0-153.0-0.0","87474678","wem/bandit_either","A3G00Q5JV2BE5G","either","5","","","","","","","72","H","0","img/none_selected.jpg","0","0","1","0.3099317417","","","114","0.3099317417","","main_expt","0.4","","0.8","0.3100969134","0.2095980235","0.6","0.1562208239","0.2","","","","","","","",""
"303","","bandit","193","384199","0.0-154.0-0.0","87474678","wem/bandit_either","A3G00Q5JV2BE5G","either","5","","","","","","","76","L","3","","0","0","1","","0.2138032898","","115","","0.3180754701","main_expt","0.4","0.329842252","0.8","","","0.6","","0.2","0.2550279667","0.2138032898","","","","","",""
"244","","bandit","194","385951","0.0-155.0-0.0","87474678","wem/bandit_either","A3G00Q5JV2BE5G","either","5","","","","","","","75","K","2","","0","0","1","","0.2471764387","","116","","0.2919742107","main_expt","0.4","0.3223706096","0.8","","","0.6","","0.2","0.2471764387","0.2331260325","","","","","",""
"85","","bandit","195","387544","0.0-156.0-0.0","87474678","wem/bandit_either","A3G00Q5JV2BE5G","either","5","","","","","","","75","K","2","","0","0","1","","0.2730878341","","117","","0.2799774295","main_expt","0.4","0.3098408215","0.8","","","0.6","","0.2","0.2730878341","0.1826309729","","","","","",""
"12","","bandit","196","389063","0.0-157.0-0.0","87474678","wem/bandit_either","A3G00Q5JV2BE5G","either","5","","","","","","","74","J","1","","0","0","1","0.2974554567","","","118","0.2646714695","","main_expt","0.4","","0.8","0.2974554567","0.2071462199","0.6","0.1511269107","0.2","","","","","","","",""
"330","","bandit","197","390898","0.0-158.0-0.0","87474678","wem/bandit_either","A3G00Q5JV2BE5G","either","5","","","","","","","74","J","1","","0","1","0","","0.3598468986","","119","","0.3179839519","main_expt","0.4","0.3598468986","0.8","","","0.6","","0.2","0.2275232499","0.1559979654","","","","","",""
"106","","bandit","198","392509","0.0-159.0-0.0","87474678","wem/bandit_either","A3G00Q5JV2BE5G","either","5","","","","","","","72","H","0","img/none_selected.jpg","0","1","0","","0.3302262658","","120","","0.3302262658","main_expt","0.4","0.2984373086","0.8","","","0.6","","0.2","0.2767559596","0.1463004055","","","","","",""
"116","","bandit","199","394135","0.0-160.0-0.0","87474678","wem/bandit_either","A3G00Q5JV2BE5G","either","5","","","","","","","75","K","2","","0","0","1","","0.3448590315","","121","","0.3500549905","main_expt","0.4","0.2973090059","0.8","","","0.6","","0.2","0.3448590315","0.1418195479","","","","","",""
"268","","bandit","200","395913","0.0-161.0-0.0","87474678","wem/bandit_either","A3G00Q5JV2BE5G","either","5","","","","","","","74","J","1","","0","0","1","","0.3382791822","","122","","0.2686616284","main_expt","0.4","0.3382791822","0.8","","","0.6","","0.2","0.3593301016","0.1270782113","","","","","",""
"1","","bandit","201","397422","0.0-162.0-0.0","87474678","wem/bandit_either","A3G00Q5JV2BE5G","either","5","","","","","","","74","J","1","","0","0","1","0.3154347028","","","123","0.2277230314","","main_expt","0.4","","0.8","0.3154347028","0.3680529171","0.6","0.1207154071","0.2","","","","","","","",""
"372","","bandit","202","399302","0.0-163.0-0.0","87474678","wem/bandit_either","A3G00Q5JV2BE5G","either","5","","","","","","","72","H","0","img/none_selected.jpg","1","0","0","0.3287090939","","","124","0.3287090939","","main_expt","0.4","","0.8","0.2966737815","0.3476523483","0.6","0.1229329119","0.2","","","","","","","",""
"493","","bandit","203","401302","0.0-164.0-0.0","87474678","wem/bandit_either","A3G00Q5JV2BE5G","either","5","","","","","","","72","H","0","img/none_selected.jpg","0","0","1","","0.3687339586","","125","","0.3687339586","main_expt","0.4","0.3094831126","0.8","","","0.6","","0.2","0.3564603465","0.09241122996","","","","","",""
"339","","bandit","204","403150","0.0-165.0-0.0","87474678","wem/bandit_either","A3G00Q5JV2BE5G","either","5","","","","","","","75","K","2","","1","0","0","0.3550684458","","","126","0.3836195774","","main_expt","0.4","","0.8","0.2488993205","0.3550684458","0.6","0.08418962236","0.2","","","","","","","",""
"186","","bandit","205","404844","0.0-166.0-0.0","87474678","wem/bandit_either","A3G00Q5JV2BE5G","either","5","","","","","","","74","J","1","","0","0","1","0.1953487027","","","127","0.3617365958","","main_expt","0.4","","0.8","0.1953487027","0.3235559827","0.6","0.154715772","0.2","","","","","","","",""
"57","","bandit","206","406410","0.0-167.0-0.0","87474678","wem/bandit_either","A3G00Q5JV2BE5G","either","5","","","","","","","74","J","1","","0","0","1","0.2171889907","","","128","0.3235283493","","main_expt","0.4","","0.8","0.2171889907","0.312087491","0.6","0.1556709078","0.2","","","","","","","",""
"402","","bandit","207","408321","0.0-168.0-0.0","87474678","wem/bandit_either","A3G00Q5JV2BE5G","either","5","","","","","","","75","K","2","","1","0","0","0.2843272188","","","129","0.3453830546","","main_expt","0.4","","0.8","0.2467699801","0.2843272188","0.6","0.1214200615","0.2","","","","","","","",""
"222","","bandit","208","410049","0.0-169.0-0.0","87474678","wem/bandit_either","A3G00Q5JV2BE5G","either","5","","","","","","","75","K","2","","0","0","1","","0.2128416856","","130","","0.3242747857","main_expt","0.4","0.2814443482","0.8","","","0.6","","0.2","0.2128416856","0.1377283829","","","","","",""
"126","","bandit","209","411684","0.0-170.0-0.0","87474678","wem/bandit_either","A3G00Q5JV2BE5G","either","5","","","","","","","75","K","2","","0","1","0","","0.2403879813","","131","","0.3417201858","main_expt","0.4","0.2834176508","0.8","","","0.6","","0.2","0.2403879813","0.1397421628","","","","","",""
"795","","bandit","210","413984","0.0-171.0-0.0","87474678","wem/bandit_either","A3G00Q5JV2BE5G","either","5","","","","","","","72","H","0","img/none_selected.jpg","0","0","1","0.3498614837","","","132","0.3498614837","","main_expt","0.4","","0.8","0.2429908031","0.2811421594","0.6","0.1061875113","0.2","","","","","","","",""
"603","","bandit","211","416093","0.0-172.0-0.0","87474678","wem/bandit_either","A3G00Q5JV2BE5G","either","5","","","","","","","75","K","2","","0","1","0","","0.3002858371","","133","","0.3134828643","main_expt","0.4","0.3053559495","0.8","","","0.6","","0.2","0.3002858371","0.07774811701","","","","","",""
"409","","bandit","212","418014","0.0-173.0-0.0","87474678","wem/bandit_either","A3G00Q5JV2BE5G","either","5","","","","","","","75","K","2","","0","0","1","0.277406375","","","134","0.3554593188","","main_expt","0.4","","0.8","0.2693478067","0.277406375","0.6","0.08211281178","0.2","","","","","","","",""
"447","","bandit","213","419969","0.0-174.0-0.0","87474678","wem/bandit_either","A3G00Q5JV2BE5G","either","5","","","","","","","74","J","1","","0","0","1","0.3369166079","","","135","0.3150900126","","main_expt","0.4","","0.8","0.3369166079","0.2897147582","0.6","0.1123817552","0.2","","","","","","","",""
"357","","bandit","214","421834","0.0-175.0-0.0","87474678","wem/bandit_either","A3G00Q5JV2BE5G","either","5","","","","","","","72","H","0","img/none_selected.jpg","0","0","1","0.3199395785","","","136","0.3199395785","","main_expt","0.4","","0.8","0.268603144","0.3590576628","0.6","0.1478339482","0.2","","","","","","","",""
"353","","bandit","215","423694","0.0-176.0-0.0","87474678","wem/bandit_either","A3G00Q5JV2BE5G","either","5","","","","","","","72","H","0","img/none_selected.jpg","0","1","0","","0.33362357","","137","","0.33362357","main_expt","0.4","0.2373427956","0.8","","","0.6","","0.2","0.3822427384","0.1374936615","","","","","",""
"268","","bandit","216","425469","0.0-177.0-0.0","87474678","wem/bandit_either","A3G00Q5JV2BE5G","either","5","","","","","","","74","J","1","","1","0","0","0.2206869265","","","138","0.3611324022","","main_expt","0.4","","0.8","0.2206869265","0.3410071165","0.6","0.159761955","0.2","","","","","","","",""
"327","","bandit","217","427305","0.0-178.0-0.0","87474678","wem/bandit_either","A3G00Q5JV2BE5G","either","5","","","","","","","74","J","1","","1","0","0","0.2177966349","","","139","0.3504145086","","main_expt","0.4","","0.8","0.2177966349","0.3738014659","0.6","0.1363721132","0.2","","","","","","","",""
"241","","bandit","218","429056","0.0-179.0-0.0","87474678","wem/bandit_either","A3G00Q5JV2BE5G","either","5","","","","","","","74","J","1","","0","0","1","0.2387685432","","","140","0.309774603","","main_expt","0.4","","0.8","0.2387685432","0.422575493","0.6","0.1031445192","0.2","","","","","","","",""
"385","","bandit","219","430949","0.0-180.0-0.0","87474678","wem/bandit_either","A3G00Q5JV2BE5G","either","5","","","","","","","74","J","1","","0","1","0","","0.2575087366","","141","","0.3506531288","main_expt","0.4","0.2575087366","0.8","","","0.6","","0.2","0.4439129864","0.09805286369","","","","","",""
"392","","bandit","220","432849","0.0-181.0-0.0","87474678","wem/bandit_either","A3G00Q5JV2BE5G","either","5","","","","","","","74","J","1","","0","0","1","0.2392038972","","","142","0.2965027242","","main_expt","0.4","","0.8","0.2392038972","0.4323802182","0.6","0.1149002948","0.2","","","","","","","",""
"286","","bandit","221","434644","0.0-182.0-0.0","87474678","wem/bandit_either","A3G00Q5JV2BE5G","either","5","","","","","","","75","K","2","","0","0","1","0.4358412593","","","143","0.2087517366","","main_expt","0.4","","0.8","0.2216470548","0.4358412593","0.6","0.1209542099","0.2","","","","","","","",""
"1289","","bandit","222","437442","0.0-183.0-0.0","87474678","wem/bandit_either","A3G00Q5JV2BE5G","either","5","","","","","","","75","K","2","","0","1","0","","0.4407373256","","144","","0.2313605626","main_expt","0.4","0.2224896139","0.8","","","0.6","","0.2","0.4407373256","0.1202521083","","","","","",""
"103","","bandit","223","439053","0.0-184.0-0.0","87474678","wem/bandit_either","A3G00Q5JV2BE5G","either","5","","","","","","","74","J","1","","0","0","1","","0.1925605464","","145","","0.1785565547","main_expt","0.4","0.1925605464","0.8","","","0.6","","0.2","0.4661091035","0.1619743669","","","","","",""
"960","","bandit","224","441521","0.0-185.0-0.0","87474678","wem/bandit_either","A3G00Q5JV2BE5G","either","5","","","","","","","74","J","1","","0","0","1","0.2069800611","","","146","0.1770660648","","main_expt","0.4","","0.8","0.2069800611","0.4637097668","0.6","0.1664631043","0.2","","","","","","","",""
"590","","bandit","225","443620","0.0-186.0-0.0","87474678","wem/bandit_either","A3G00Q5JV2BE5G","either","5","","","","","","","76","L","3","","0","0","1","","0.1669241763","","147","","0.1063371611","main_expt","0.4","0.2489662189","0.8","","","0.6","","0.2","0.4700491642","0.1669241763","","","","","",""
"631","","bandit","226","445760","0.0-187.0-0.0","87474678","wem/bandit_either","A3G00Q5JV2BE5G","either","5","","","","","","","75","K","2","","1","0","0","0.4648109734","","","148","0.1216370817","","main_expt","0.4","","0.8","0.1946464158","0.4648109734","0.6","0.1581456949","0.2","","","","","","","",""
"558","","bandit","227","447826","0.0-188.0-0.0","87474678","wem/bandit_either","A3G00Q5JV2BE5G","either","5","","","","","","","75","K","2","","0","1","0","","0.4635511513","","149","","0.1024256959","main_expt","0.4","0.1826562491","0.8","","","0.6","","0.2","0.4635511513","0.1698392466","","","","","",""
"475","","bandit","228","449812","0.0-189.0-0.0","87474678","wem/bandit_either","A3G00Q5JV2BE5G","either","5","","","","","","","74","J","1","","0","1","0","","0.1750473563","","150","","0.1371094633","main_expt","0.4","0.1750473563","0.8","","","0.6","","0.2","0.4445017148","0.2140114634","","","","","",""
"837","","bandit","229","452155","0.0-190.0-0.0","87474678","wem/bandit_either","A3G00Q5JV2BE5G","either","5","","","","","","","74","J","1","","0","0","1","","0.1109536645","","151","","0.1702433702","main_expt","0.4","0.1109536645","0.8","","","0.6","","0.2","0.4434799742","0.2392960001","","","","","",""
"969","","bandit","230","454632","0.0-191.0-0.0","87474678","wem/bandit_either","A3G00Q5JV2BE5G","either","5","","","","","","","72","H","0","img/none_selected.jpg","0","0","1","","0.1860489046","","152","","0.1860489046","main_expt","0.4","0.1143086707","0.8","","","0.6","","0.2","0.4451665291","0.2095863317","","","","","",""
"596","","bandit","231","456735","0.0-192.0-0.0","87474678","wem/bandit_either","A3G00Q5JV2BE5G","either","5","","","","","","","72","H","0","img/none_selected.jpg","0","0","1","","0.2117094388","","153","","0.2117094388","main_expt","0.4","0.1236290712","0.8","","","0.6","","0.2","0.4401532833","0.2543258611","","","","","",""
"873","","bandit","232","459116","0.0-193.0-0.0","87474678","wem/bandit_either","A3G00Q5JV2BE5G","either","5","","","","","","","72","H","0","img/none_selected.jpg","0","0","1","","0.2072389033","","154","","0.2072389033","main_expt","0.4","0.1600695342","0.8","","","0.6","","0.2","0.4516855879","0.2602259906","","","","","",""
"770","","bandit","233","461394","0.0-194.0-0.0","87474678","wem/bandit_either","A3G00Q5JV2BE5G","either","5","","","","","","","72","H","0","img/none_selected.jpg","1","0","0","0.1986333914","","","155","0.1986333914","","main_expt","0.4","","0.8","0.1770288166","0.4480264808","0.6","0.2750581274","0.2","","","","","","","",""
"394","","bandit","234","463295","0.0-195.0-0.0","87474678","wem/bandit_either","A3G00Q5JV2BE5G","either","5","","","","","","","72","H","0","img/none_selected.jpg","0","0","1","","0.2054640346","","156","","0.2054640346","main_expt","0.4","0.1761817894","0.8","","","0.6","","0.2","0.4260414265","0.2438045727","","","","","",""
"322","","bandit","235","465127","0.0-196.0-0.0","87474678","wem/bandit_either","A3G00Q5JV2BE5G","either","5","","","","","","","75","K","2","","0","0","1","0.4365201507","","","157","0.1810715383","","main_expt","0.4","","0.8","0.1998830888","0.4365201507","0.6","0.2857025143","0.2","","","","","","","",""
"353","","bandit","236","466991","0.0-197.0-0.0","87474678","wem/bandit_either","A3G00Q5JV2BE5G","either","5","","","","","","","75","K","2","","1","0","0","0.4076244479","","","158","0.2118906364","","main_expt","0.4","","0.8","0.2150354531","0.4076244479","0.6","0.2887719476","0.2","","","","","","","",""
"462","","bandit","237","468962","0.0-198.0-0.0","87474678","wem/bandit_either","A3G00Q5JV2BE5G","either","5","","","","","","","75","K","2","","0","0","1","","0.403953851","","159","","0.2293976715","main_expt","0.4","0.2221069796","0.8","","","0.6","","0.2","0.403953851","0.2859462397","","","","","",""
"53","","bandit","238","470523","0.0-199.0-0.0","87474678","wem/bandit_either","A3G00Q5JV2BE5G","either","5","","","","","","","75","K","2","","0","0","1","0.4282135537","","","160","0.2186051381","","main_expt","0.4","","0.8","0.2627335039","0.4282135537","0.6","0.207432816","0.2","","","","","","","",""
"19","","bandit","239","472050","0.0-200.0-0.0","87474678","wem/bandit_either","A3G00Q5JV2BE5G","either","5","","","","","","","75","K","2","","1","0","0","0.4479073124","","","161","0.2175927206","","main_expt","0.4","","0.8","0.2922457848","0.4479073124","0.6","0.1611694724","0.2","","","","","","","",""
"251","","bandit","240","473810","0.0-201.0-0.0","87474678","wem/bandit_either","A3G00Q5JV2BE5G","either","5","","","","","","","75","K","2","","0","0","1","","0.4456201243","","162","","0.2370404117","main_expt","0.4","0.3040212123","0.8","","","0.6","","0.2","0.4456201243","0.14378348","","","","","",""
"128","","bandit","241","475447","0.0-202.0-0.0","87474678","wem/bandit_either","A3G00Q5JV2BE5G","either","5","","","","","","","72","H","0","img/none_selected.jpg","0","1","0","","0.2778780432","","163","","0.2778780432","main_expt","0.4","0.2933359027","0.8","","","0.6","","0.2","0.4384930657","0.1707099899","","","","","",""
"78","","bandit","242","477033","0.0-203.0-0.0","87474678","wem/bandit_either","A3G00Q5JV2BE5G","either","5","","","","","","","74","J","1","","0","0","1","0.2388203062","","","164","0.2643388611","","main_expt","0.4","","0.8","0.2388203062","0.4231568034","0.6","0.1933693166","0.2","","","","","","","",""
"238","","bandit","243","478776","0.0-204.0-0.0","87474678","wem/bandit_either","A3G00Q5JV2BE5G","either","5","","","","","","","75","K","2","","0","0","1","0.4412535734","","","165","0.1967204453","","main_expt","0.4","","0.8","0.2646204916","0.4412535734","0.6","0.2406324952","0.2","","","","","","","",""
"932","","bandit","244","481222","0.0-205.0-0.0","87474678","wem/bandit_either","A3G00Q5JV2BE5G","either","5","","","","","","","75","K","2","","0","0","1","","0.438364003","","166","","0.1567937345","main_expt","0.4","0.2591758032","0.8","","","0.6","","0.2","0.438364003","0.2650462377","","","","","",""
"1148","","bandit","245","483876","0.0-206.0-0.0","87474678","wem/bandit_either","A3G00Q5JV2BE5G","either","5","","","","","","","75","K","2","","0","1","0","","0.4290991351","","167","","0.1201482918","main_expt","0.4","0.1955934818","0.8","","","0.6","","0.2","0.4290991351","0.245875583","","","","","",""
"892","","bandit","246","486276","0.0-207.0-0.0","87474678","wem/bandit_either","A3G00Q5JV2BE5G","either","5","","","","","","","76","L","3","","0","0","1","","0.257303599","","168","","0.0936051119","main_expt","0.4","0.2090603634","0.8","","","0.6","","0.2","0.4510860662","0.257303599","","","","","",""
"474","","bandit","247","488259","0.0-208.0-0.0","87474678","wem/bandit_either","A3G00Q5JV2BE5G","either","5","","","","","","","72","H","0","img/none_selected.jpg","0","0","1","0.08775096918","","","169","0.08775096918","","main_expt","0.4","","0.8","0.2678479696","0.4491424364","0.6","0.2993732043","0.2","","","","","","","",""
"304","","bandit","248","490070","0.0-209.0-0.0","87474678","wem/bandit_either","A3G00Q5JV2BE5G","either","5","","","","","","","74","J","1","","0","0","1","0.2532125956","","","170","0.06743429675","","main_expt","0.4","","0.8","0.2532125956","0.4332244901","0.6","0.3388977639","0.2","","","","","","","",""
"307","","bandit","249","491886","0.0-210.0-0.0","87474678","wem/bandit_either","A3G00Q5JV2BE5G","either","5","","","","","","","74","J","1","","0","1","0","","0.2568627054","","171","","0.05979118822","main_expt","0.4","0.2568627054","0.8","","","0.6","","0.2","0.4405036994","0.2947926635","","","","","",""
"911","","bandit","250","494304","0.0-211.0-0.0","87474678","wem/bandit_either","A3G00Q5JV2BE5G","either","5","","","","","","","75","K","2","","0","1","0","","0.4358521759","","172","","0.03200499914","main_expt","0.4","0.2451563353","0.8","","","0.6","","0.2","0.4358521759","0.2892529657","","","","","",""
"296","","bandit","251","496106","0.0-212.0-0.0","87474678","wem/bandit_either","A3G00Q5JV2BE5G","either","5","","","","","","","72","H","0","img/none_selected.jpg","0","0","1","","0.04613358223","","173","","0.04613358223","main_expt","0.4","0.3003395367","0.8","","","0.6","","0.2","0.4471617722","0.2571917514","","","","","",""
"1070","","bandit","252","498684","0.0-213.0-0.0","87474678","wem/bandit_either","A3G00Q5JV2BE5G","either","5","","","","","","","72","H","0","img/none_selected.jpg","0","0","1","","0.05969677181","","174","","0.05969677181","main_expt","0.4","0.2545998681","0.8","","","0.6","","0.2","0.4560251174","0.244173221","","","","","",""
"1754","","bandit","253","501945","0.0-214.0-0.0","87474678","wem/bandit_either","A3G00Q5JV2BE5G","either","5","","","","","","","72","H","0","img/none_selected.jpg","0","0","1","","0.05930066603","","175","","0.05930066603","main_expt","0.4","0.3383135611","0.8","","","0.6","","0.2","0.4379349024","0.2038098688","","","","","",""
"985","","bandit","254","504439","0.0-215.0-0.0","87474678","wem/bandit_either","A3G00Q5JV2BE5G","either","5","","","","","","","72","H","0","img/none_selected.jpg","0","0","1","","0.08110879181","","176","","0.08110879181","main_expt","0.4","0.3880627729","0.8","","","0.6","","0.2","0.4328841116","0.2053823003","","","","","",""
"565","","bandit","255","506510","0.0-216.0-0.0","87474678","wem/bandit_either","A3G00Q5JV2BE5G","either","5","","","","","","","76","L","3","","0","0","1","","0.2193083282","","177","","0.07611568943","main_expt","0.4","0.3920994557","0.8","","","0.6","","0.2","0.3965365967","0.2193083282","","","","","",""
"261","","bandit","256","508282","0.0-217.0-0.0","87474678","wem/bandit_either","A3G00Q5JV2BE5G","either","5","","","","","","","72","H","0","img/none_selected.jpg","0","0","1","0.1220467165","","","178","0.1220467165","","main_expt","0.4","","0.8","0.3882277994","0.3899234309","0.6","0.1904263594","0.2","","","","","","","",""
"174","","bandit","257","509966","0.0-218.0-0.0","87474678","wem/bandit_either","A3G00Q5JV2BE5G","either","5","","","","","","","74","J","1","","0","0","1","0.3939691408","","","179","0.1698853315","","main_expt","0.4","","0.8","0.3939691408","0.4238443777","0.6","0.2212788648","0.2","","","","","","","",""
"627","","bandit","258","512100","0.0-219.0-0.0","87474678","wem/bandit_either","A3G00Q5JV2BE5G","either","5","","","","","","","74","J","1","","0","0","1","0.4074656662","","","180","0.1374762061","","main_expt","0.4","","0.8","0.4074656662","0.4487400994","0.6","0.2640717145","0.2","","","","","","","",""
"282","","bandit","259","513888","0.0-220.0-0.0","87474678","wem/bandit_either","A3G00Q5JV2BE5G","either","5","","","","","","","75","K","2","","0","0","1","0.4314573438","","","181","0.09961924189","","main_expt","0.4","","0.8","0.3724421945","0.4314573438","0.6","0.2426483564","0.2","","","","","","","",""
"278","","bandit","260","515679","0.0-221.0-0.0","87474678","wem/bandit_either","A3G00Q5JV2BE5G","either","5","","","","","","","75","K","2","","0","0","1","0.4458059303","","","182","0.1391043194","","main_expt","0.4","","0.8","0.2998177931","0.4458059303","0.6","0.2001563476","0.2","","","","","","","",""
"277","","bandit","261","517466","0.0-222.0-0.0","87474678","wem/bandit_either","A3G00Q5JV2BE5G","either","5","","","","","","","75","K","2","","1","0","0","0.4485460149","","","183","0.1336424596","","main_expt","0.4","","0.8","0.3629728763","0.4485460149","0.6","0.2167094124","0.2","","","","","","","",""
"209","","bandit","262","519185","0.0-223.0-0.0","87474678","wem/bandit_either","A3G00Q5JV2BE5G","either","5","","","","","","","72","H","0","img/none_selected.jpg","0","0","1","","0.115911235","","184","","0.115911235","main_expt","0.4","0.3763603645","0.8","","","0.6","","0.2","0.4078350507","0.2402813617","","","","","",""
"326","","bandit","263","521018","0.0-224.0-0.0","87474678","wem/bandit_either","A3G00Q5JV2BE5G","either","5","","","","","","","75","K","2","","1","0","0","0.3805788675","","","185","0.1394203739","","main_expt","0.4","","0.8","0.3472982705","0.3805788675","0.6","0.2745112141","0.2","","","","","","","",""
"206","","bandit","264","522731","0.0-225.0-0.0","87474678","wem/bandit_either","A3G00Q5JV2BE5G","either","5","","","","","","","74","J","1","","1","0","0","0.3095995051","","","186","0.1557479742","","main_expt","0.4","","0.8","0.3095995051","0.4236809331","0.6","0.2774566956","0.2","","","","","","","",""
"366","","bandit","265","524605","0.0-226.0-0.0","87474678","wem/bandit_either","A3G00Q5JV2BE5G","either","5","","","","","","","75","K","2","","0","0","1","","0.4058627081","","187","","0.1823611596","main_expt","0.4","0.2567332284","0.8","","","0.6","","0.2","0.4058627081","0.2876011691","","","","","",""
"246","","bandit","266","526358","0.0-227.0-0.0","87474678","wem/bandit_either","A3G00Q5JV2BE5G","either","5","","","","","","","74","J","1","","1","0","0","0.2555256861","","","188","0.1854179297","","main_expt","0.4","","0.8","0.2555256861","0.3913346521","0.6","0.2947112378","0.2","","","","","","","",""
"9","","bandit","267","527879","0.0-228.0-0.0","87474678","wem/bandit_either","A3G00Q5JV2BE5G","either","5","","","","","","","74","J","1","","0","0","1","0.2009875262","","","189","0.1875645599","","main_expt","0.4","","0.8","0.2009875262","0.3760164219","0.6","0.2581494","0.2","","","","","","","",""
"313","","bandit","268","529700","0.0-229.0-0.0","87474678","wem/bandit_either","A3G00Q5JV2BE5G","either","5","","","","","","","75","K","2","","0","0","1","0.3327352817","","","190","0.2018323604","","main_expt","0.4","","0.8","0.2055488595","0.3327352817","0.6","0.1756323468","0.2","","","","","","","",""
"41","","bandit","269","531249","0.0-230.0-0.0","87474678","wem/bandit_either","A3G00Q5JV2BE5G","either","5","","","","","","","72","H","0","img/none_selected.jpg","0","0","1","","0.221094727","","191","","0.221094727","main_expt","0.4","0.1506387864","0.8","","","0.6","","0.2","0.3015177445","0.2521570866","","","","","",""
"345","","bandit","270","533102","0.0-231.0-0.0","87474678","wem/bandit_either","A3G00Q5JV2BE5G","either","5","","","","","","","74","J","1","","0","0","1","0.2027442266","","","192","0.2320570195","","main_expt","0.4","","0.8","0.2027442266","0.2773298268","0.6","0.2964739449","0.2","","","","","","","",""
"322","","bandit","271","534933","0.0-232.0-0.0","87474678","wem/bandit_either","A3G00Q5JV2BE5G","either","5","","","","","","","74","J","1","","0","0","1","0.1969137872","","","193","0.2948950962","","main_expt","0.4","","0.8","0.1969137872","0.2836613797","0.6","0.2612966838","0.2","","","","","","","",""
"292","","bandit","272","536732","0.0-233.0-0.0","87474678","wem/bandit_either","A3G00Q5JV2BE5G","either","5","","","","","","","75","K","2","","0","0","1","0.2799350415","","","194","0.2602906927","","main_expt","0.4","","0.8","0.2114994946","0.2799350415","0.6","0.3292914436","0.2","","","","","","","",""
"155","","bandit","273","538397","0.0-234.0-0.0","87474678","wem/bandit_either","A3G00Q5JV2BE5G","either","5","","","","","","","76","L","3","","0","1","0","","0.4070308407","","195","","0.1771499101","main_expt","0.4","0.2467939011","0.8","","","0.6","","0.2","0.2068597772","0.4070308407","","","","","",""
"200","","bandit","274","540106","0.0-235.0-0.0","87474678","wem/bandit_either","A3G00Q5JV2BE5G","either","5","","","","","","","74","J","1","","1","0","0","0.2731811988","","","196","0.1746274925","","main_expt","0.4","","0.8","0.2731811988","0.2679469531","0.6","0.3494820729","0.2","","","","","","","",""
"80","","bandit","275","541692","0.0-236.0-0.0","87474678","wem/bandit_either","A3G00Q5JV2BE5G","either","5","","","","","","","75","K","2","","0","0","1","0.2448078588","","","197","0.193224684","","main_expt","0.4","","0.8","0.2512114903","0.2448078588","0.6","0.3571939809","0.2","","","","","","","",""
"575","","bandit","276","543775","0.0-237.0-0.0","87474678","wem/bandit_either","A3G00Q5JV2BE5G","either","5","","","","","","","74","J","1","","0","0","1","0.190651112","","","198","0.1771509929","","main_expt","0.4","","0.8","0.190651112","0.2433987968","0.6","0.382430028","0.2","","","","","","","",""
"359","","bandit","277","545645","0.0-238.0-0.0","87474678","wem/bandit_either","A3G00Q5JV2BE5G","either","5","","","","","","","74","J","1","","0","0","1","0.1701189695","","","199","0.2466668772","","main_expt","0.4","","0.8","0.1701189695","0.2653624242","0.6","0.3353474301","0.2","","","","","","","",""
"340","","bandit","278","547494","0.0-239.0-0.0","87474678","wem/bandit_either","A3G00Q5JV2BE5G","either","5","","","","","","","72","H","0","img/none_selected.jpg","0","0","1","","0.2477816141","","200","","0.2477816141","main_expt","0.4","0.1656975488","0.8","","","0.6","","0.2","0.2551376492","0.3321976498","","","","","",""
"1595","","bandit","279","550598","0.0-240.0-0.0","87474678","wem/bandit_either","A3G00Q5JV2BE5G","either","5","","","","","","","75","K","2","","0","0","1","","0.2660639347","","201","","0.2744817861","main_expt","0.4","0.1647298582","0.8","","","0.6","","0.2","0.2660639347","0.3218117355","","","","","",""
"42","","bandit","280","552148","0.0-241.0-0.0","87474678","wem/bandit_either","A3G00Q5JV2BE5G","either","5","","","","","","","74","J","1","","0","0","1","0.1242041815","","","202","0.3043062986","","main_expt","0.4","","0.8","0.1242041815","0.2220900594","0.6","0.2949214693","0.2","","","","","","","",""
"252","","bandit","281","553911","0.0-242.0-0.0","87474678","wem/bandit_either","A3G00Q5JV2BE5G","either","5","","","","","","","74","J","1","","0","0","1","0.1684487429","","","203","0.272185569","","main_expt","0.4","","0.8","0.1684487429","0.1543353204","0.6","0.300077299","0.2","","","","","","","",""
"462","","bandit","282","555880","0.0-243.0-0.0","87474678","wem/bandit_either","A3G00Q5JV2BE5G","either","5","","","","","","","72","H","0","img/none_selected.jpg","0","0","1","","0.2610767704","","204","","0.2610767704","main_expt","0.4","0.1666409686","0.8","","","0.6","","0.2","0.1605482003","0.2866085977","","","","","",""
"484","","bandit","283","557872","0.0-244.0-0.0","87474678","wem/bandit_either","A3G00Q5JV2BE5G","either","5","","","","","","","72","H","0","img/none_selected.jpg","0","0","1","0.2832615928","","","205","0.2832615928","","main_expt","0.4","","0.8","0.2197286508","0.1406914754","0.6","0.2695546272","0.2","","","","","","","",""
"352","","bandit","284","559732","0.0-245.0-0.0","87474678","wem/bandit_either","A3G00Q5JV2BE5G","either","5","","","","","","","75","K","2","","0","0","1","0.1138947463","","","206","0.300913322","","main_expt","0.4","","0.8","0.2754509052","0.1138947463","0.6","0.2622178416","0.2","","","","","","","",""
"361","","bandit","285","561606","0.0-246.0-0.0","87474678","wem/bandit_either","A3G00Q5JV2BE5G","either","5","","","","","","","75","K","2","","0","0","1","0.1096702189","","","207","0.3260258847","","main_expt","0.4","","0.8","0.2664869377","0.1096702189","0.6","0.2498186578","0.2","","","","","","","",""
"366","","bandit","286","563485","0.0-247.0-0.0","87474678","wem/bandit_either","A3G00Q5JV2BE5G","either","5","","","","","","","74","J","1","","0","0","1","0.2686565688","","","208","0.3173829003","","main_expt","0.4","","0.8","0.2686565688","0.09922356593","0.6","0.2335358635","0.2","","","","","","","",""
"192","","bandit","287","565186","0.0-248.0-0.0","87474678","wem/bandit_either","A3G00Q5JV2BE5G","either","5","","","","","","","76","L","3","","0","0","1","","0.2638942681","","209","","0.3153846937","main_expt","0.4","0.2380255957","0.8","","","0.6","","0.2","0.101567507","0.2638942681","","","","","",""
"287","","bandit","288","566980","0.0-249.0-0.0","87474678","wem/bandit_either","A3G00Q5JV2BE5G","either","5","","","","","","","74","J","1","","0","1","0","","0.2507768727","","210","","0.3010876552","main_expt","0.4","0.2507768727","0.8","","","0.6","","0.2","0.08675379402","0.2526926237","","","","","",""
"1086","","bandit","289","569574","0.0-250.0-0.0","87474678","wem/bandit_either","A3G00Q5JV2BE5G","either","5","","","","","","","72","H","0","img/none_selected.jpg","0","0","1","0.2864900033","","","211","0.2864900033","","main_expt","0.4","","0.8","0.2685142319","0.07512021269","0.6","0.2740367769","0.2","","","","","","","",""
"345","","bandit","290","571428","0.0-251.0-0.0","87474678","wem/bandit_either","A3G00Q5JV2BE5G","either","5","","","","","","","74","J","1","","0","0","1","","0.260511483","","212","","0.3163372434","main_expt","0.4","0.260511483","0.8","","","0.6","","0.2","0.08144254236","0.2440836191","","","","","",""
"547","","bandit","291","573482","0.0-252.0-0.0","87474678","wem/bandit_either","A3G00Q5JV2BE5G","either","5","","","","","","","74","J","1","","0","0","1","0.2579605047","","","213","0.2701305136","","main_expt","0.4","","0.8","0.2579605047","0.06585574052","0.6","0.2341903104","0.2","","","","","","","",""
"3543","","bandit","292","578533","0.0-253.0-0.0","87474678","wem/bandit_either","A3G00Q5JV2BE5G","either","5","","","","","","","72","H","0","img/none_selected.jpg","0","0","1","","0.302599165","","214","","0.302599165","main_expt","0.4","0.2470456849","0.8","","","0.6","","0.2","0.08686614453","0.2097526345","","","","","",""
"4183","","bandit","293","584223","0.0-254.0-0.0","87474678","wem/bandit_either","A3G00Q5JV2BE5G","either","5","","","","","","","75","K","2","","0","0","1","0.1068548489","","","215","0.2968005471","","main_expt","0.4","","0.8","0.3285383036","0.1068548489","0.6","0.1796882487","0.2","","","","","","","",""
"859","","bandit","294","586590","0.0-255.0-0.0","87474678","wem/bandit_either","A3G00Q5JV2BE5G","either","5","","","","","","","72","H","0","img/none_selected.jpg","0","0","1","","0.2835536598","","216","","0.2835536598","main_expt","0.4","0.3780044773","0.8","","","0.6","","0.2","0.1211736082","0.2237900511","","","","","",""
"2638","","bandit","295","590735","0.0-256.0-0.0","87474678","wem/bandit_either","A3G00Q5JV2BE5G","either","5","","","","","","","74","J","1","","0","0","1","0.3939228946","","","217","0.2520762718","","main_expt","0.4","","0.8","0.3939228946","0.09343701815","0.6","0.2265358539","0.2","","","","","","","",""
"1617","","bandit","296","593861","0.0-257.0-0.0","87474678","wem/bandit_either","A3G00Q5JV2BE5G","either","5","","","","","","","72","H","0","img/none_selected.jpg","0","0","1","0.2562699476","","","218","0.2562699476","","main_expt","0.4","","0.8","0.3198270803","0.1001055386","0.6","0.2364013437","0.2","","","","","","","",""
"1081","","bandit","297","596450","0.0-258.0-0.0","87474678","wem/bandit_either","A3G00Q5JV2BE5G","either","5","","","","","","","72","H","0","img/none_selected.jpg","0","0","1","0.3002431464","","","219","0.3002431464","","main_expt","0.4","","0.8","0.3502502288","0.09524874014","0.6","0.2810560361","0.2","","","","","","","",""
"6024","","bandit","298","603987","0.0-259.0-0.0","87474678","wem/bandit_either","A3G00Q5JV2BE5G","either","5","","","","","","","72","H","0","img/none_selected.jpg","0","0","1","0.3365413303","","","220","0.3365413303","","main_expt","0.4","","0.8","0.3402456168","0.1304899995","0.6","0.3027429446","0.2","","","","","","","",""
"5752","","bandit","299","611248","0.0-260.0-0.0","87474678","wem/bandit_either","A3G00Q5JV2BE5G","either","5","","","","","","","72","H","0","img/none_selected.jpg","0","0","1","0.2946103072","","","221","0.2946103072","","main_expt","0.4","","0.8","0.3770059732","0.1272814923","0.6","0.3132134988","0.2","","","","","","","",""
"3996","","bandit","300","616753","0.0-261.0-0.0","87474678","wem/bandit_either","A3G00Q5JV2BE5G","either","5","","","","","","","75","K","2","","1","0","0","0.1654407056","","","222","0.3267284332","","main_expt","0.4","","0.8","0.3864421123","0.1654407056","0.6","0.2424821827","0.2","","","","","","","",""
"3028","","bandit","301","621290","0.0-262.0-0.0","87474678","wem/bandit_either","A3G00Q5JV2BE5G","either","5","","","","","","","74","J","1","","0","0","1","0.4205211408","","","223","0.3175152631","","main_expt","0.4","","0.8","0.4205211408","0.1788325852","0.6","0.2595367495","0.2","","","","","","","",""
"3478","","bandit","302","626278","0.0-263.0-0.0","87474678","wem/bandit_either","A3G00Q5JV2BE5G","either","5","","","","","","","74","J","1","","0","0","1","0.4131889957","","","224","0.3192400935","","main_expt","0.4","","0.8","0.4131889957","0.1736623033","0.6","0.328819141","0.2","","","","","","","",""
"9139","","bandit","303","636928","0.0-264.0-0.0","87474678","wem/bandit_either","A3G00Q5JV2BE5G","either","5","","","","","","","74","J","1","","1","0","0","0.4001513574","","","225","0.3096750449","","main_expt","0.4","","0.8","0.4001513574","0.1721911447","0.6","0.356121412","0.2","","","","","","","",""
"361","","bandit","304","638798","0.0-265.0-0.0","87474678","wem/bandit_either","A3G00Q5JV2BE5G","either","5","","","","","","","74","J","1","","1","0","0","0.3963688582","","","226","0.3142833063","","main_expt","0.4","","0.8","0.3963688582","0.2133818582","0.6","0.3394019192","0.2","","","","","","","",""
"286","","bandit","305","640594","0.0-266.0-0.0","87474678","wem/bandit_either","A3G00Q5JV2BE5G","either","5","","","","","","","74","J","1","","0","1","0","","0.3979714495","","227","","0.3096885674","main_expt","0.4","0.3979714495","0.8","","","0.6","","0.2","0.2620007467","0.2860553004","","","","","",""
"288","","bandit","306","642394","0.0-267.0-0.0","87474678","wem/bandit_either","A3G00Q5JV2BE5G","either","5","","","","","","","74","J","1","","0","0","1","0.3811043637","","","228","0.3048295172","","main_expt","0.4","","0.8","0.3811043637","0.2961930455","0.6","0.2967856672","0.2","","","","","","","",""
"399","","bandit","307","644302","0.0-268.0-0.0","87474678","wem/bandit_either","A3G00Q5JV2BE5G","either","5","","","","","","","75","K","2","","0","1","0","","0.3081123415","","229","","0.2553920021","main_expt","0.4","0.3488149186","0.8","","","0.6","","0.2","0.3081123415","0.2857745529","","","","","",""
"208","","bandit","308","646018","0.0-269.0-0.0","87474678","wem/bandit_either","A3G00Q5JV2BE5G","either","5","","","","","","","74","J","1","","0","0","1","0.2883621188","","","230","0.2783794412","","main_expt","0.4","","0.8","0.2883621188","0.3027177586","0.6","0.2589404948","0.2","","","","","","","",""
"293","","bandit","309","647820","0.0-270.0-0.0","87474678","wem/bandit_either","A3G00Q5JV2BE5G","either","5","","","","","","","74","J","1","","0","0","1","","0.2444465504","","231","","0.2735536708","main_expt","0.4","0.2444465504","0.8","","","0.6","","0.2","0.2495346478","0.2628441024","","","","","",""
"780","","bandit","310","650108","0.0-271.0-0.0","87474678","wem/bandit_either","A3G00Q5JV2BE5G","either","5","","","","","","","72","H","0","img/none_selected.jpg","0","0","1","0.2262440502","","","232","0.2262440502","","main_expt","0.4","","0.8","0.2996930955","0.2185872191","0.6","0.276537748","0.2","","","","","","","",""
"409","","bandit","311","652025","0.0-272.0-0.0","87474678","wem/bandit_either","A3G00Q5JV2BE5G","either","5","","","","","","","76","L","3","","0","0","1","","0.2485723575","","233","","0.2171974885","main_expt","0.4","0.3103031796","0.8","","","0.6","","0.2","0.1874863907","0.2485723575","","","","","",""
"295","","bandit","312","653828","0.0-273.0-0.0","87474678","wem/bandit_either","A3G00Q5JV2BE5G","either","5","","","","","","","75","K","2","","0","0","1","","0.2165838284","","234","","0.2951485073","main_expt","0.4","0.2971988612","0.8","","","0.6","","0.2","0.2165838284","0.2172766866","","","","","",""
"545","","bandit","313","655882","0.0-274.0-0.0","87474678","wem/bandit_either","A3G00Q5JV2BE5G","either","5","","","","","","","74","J","1","","1","0","0","0.3266576642","","","235","0.3135740045","","main_expt","0.4","","0.8","0.3266576642","0.1791302586","0.6","0.221542824","0.2","","","","","","","",""
"433","","bandit","314","657829","0.0-275.0-0.0","87474678","wem/bandit_either","A3G00Q5JV2BE5G","either","5","","","","","","","74","J","1","","0","0","1","0.3596878827","","","236","0.2945285262","","main_expt","0.4","","0.8","0.3596878827","0.2463713802","0.6","0.2200573756","0.2","","","","","","","",""
"374","","bandit","315","659713","0.0-276.0-0.0","87474678","wem/bandit_either","A3G00Q5JV2BE5G","either","5","","","","","","","75","K","2","","0","0","1","","0.2204623923","","237","","0.2797454337","main_expt","0.4","0.3951370387","0.8","","","0.6","","0.2","0.2204623923","0.2146478317","","","","","",""
"322","","bandit","316","661552","0.0-277.0-0.0","87474678","wem/bandit_either","A3G00Q5JV2BE5G","either","5","","","","","","","74","J","1","","0","0","1","0.3863552979","","","238","0.266453507","","main_expt","0.4","","0.8","0.3863552979","0.2316256556","0.6","0.2237656472","0.2","","","","","","","",""
"283","","bandit","317","663345","0.0-278.0-0.0","87474678","wem/bandit_either","A3G00Q5JV2BE5G","either","5","","","","","","","74","J","1","","0","0","1","0.3962704677","","","239","0.310831157","","main_expt","0.4","","0.8","0.3962704677","0.2406304147","0.6","0.2302611888","0.2","","","","","","","",""
"167","","bandit","318","665023","0.0-279.0-0.0","87474678","wem/bandit_either","A3G00Q5JV2BE5G","either","5","","","","","","","75","K","2","","0","0","1","0.2624476398","","","240","0.331950591","","main_expt","0.4","","0.8","0.3926977495","0.2624476398","0.6","0.2253069634","0.2","","","","","","","",""
"115","","bandit","319","666648","0.0-280.0-0.0","87474678","wem/bandit_either","A3G00Q5JV2BE5G","either","5","","","","","","","74","J","1","","1","0","0","0.3381110468","","","241","0.3223776605","","main_expt","0.4","","0.8","0.3381110468","0.2627099727","0.6","0.2523404353","0.2","","","","","","","",""
"210","","bandit","320","668373","0.0-281.0-0.0","87474678","wem/bandit_either","A3G00Q5JV2BE5G","either","5","","","","","","","72","H","0","img/none_selected.jpg","0","1","0","","0.3389272588","","242","","0.3389272588","main_expt","0.4","0.3213381148","0.8","","","0.6","","0.2","0.2262339403","0.238450381","","","","","",""
"381","","bandit","321","670268","0.0-282.0-0.0","87474678","wem/bandit_either","A3G00Q5JV2BE5G","either","5","","","","","","","75","K","2","","0","0","1","0.2511573395","","","243","0.4023830898","","main_expt","0.4","","0.8","0.3395415742","0.2511573395","0.6","0.2476478509","0.2","","","","","","","",""
"303","","bandit","322","672080","0.0-283.0-0.0","87474678","wem/bandit_either","A3G00Q5JV2BE5G","either","5","","","","","","","75","K","2","","0","0","1","0.3112309098","","","244","0.4072225753","","main_expt","0.4","","0.8","0.3077285799","0.3112309098","0.6","0.2603762171","0.2","","","","","","","",""
"170","","bandit","323","673760","0.0-284.0-0.0","87474678","wem/bandit_either","A3G00Q5JV2BE5G","either","5","","","","","","","74","J","1","","0","0","1","","0.269997398","","245","","0.4047901721","main_expt","0.4","0.269997398","0.8","","","0.6","","0.2","0.3169667097","0.2778117757","","","","","",""
"176","","bandit","324","675444","0.0-285.0-0.0","87474678","wem/bandit_either","A3G00Q5JV2BE5G","either","5","","","","","","","72","H","0","img/none_selected.jpg","1","0","0","0.4245844383","","","246","0.4245844383","","main_expt","0.4","","0.8","0.2896792764","0.3774934029","0.6","0.2571702875","0.2","","","","","","","",""
"127","","bandit","325","677078","0.0-286.0-0.0","87474678","wem/bandit_either","A3G00Q5JV2BE5G","either","5","","","","","","","74","J","1","","1","0","0","0.3079745892","","","247","0.4425022826","","main_expt","0.4","","0.8","0.3079745892","0.3592590195","0.6","0.2790325972","0.2","","","","","","","",""
"222","","bandit","326","678809","0.0-287.0-0.0","87474678","wem/bandit_either","A3G00Q5JV2BE5G","either","5","","","","","","","72","H","0","img/none_selected.jpg","0","0","1","0.4454461089","","","248","0.4454461089","","main_expt","0.4","","0.8","0.2306801962","0.3659800935","0.6","0.2665328125","0.2","","","","","","","",""
"290","","bandit","327","680607","0.0-288.0-0.0","87474678","wem/bandit_either","A3G00Q5JV2BE5G","either","5","","","","","","","72","H","0","img/none_selected.jpg","0","0","1","0.4565985803","","","249","0.4565985803","","main_expt","0.4","","0.8","0.2363838343","0.3940863056","0.6","0.2666328085","0.2","","","","","","","",""
"63","","bandit","328","682178","0.0-289.0-0.0","87474678","wem/bandit_either","A3G00Q5JV2BE5G","either","5","","","","","","","74","J","1","","0","0","1","0.2865845142","","","250","0.4666950096","","main_expt","0.4","","0.8","0.2865845142","0.3652193683","0.6","0.2637425143","0.2","","","","","","","",""
"396","","bandit","329","684082","0.0-290.0-0.0","87474678","wem/bandit_either","A3G00Q5JV2BE5G","either","5","","","","","","","74","J","1","","0","0","1","0.3527425442","","","251","0.4491167865","","main_expt","0.4","","0.8","0.3527425442","0.3118516898","0.6","0.3041279159","0.2","","","","","","","",""
"118","","bandit","330","685712","0.0-291.0-0.0","87474678","wem/bandit_either","A3G00Q5JV2BE5G","either","5","","","","","","","74","J","1","","0","0","1","0.3236638898","","","252","0.4512042396","","main_expt","0.4","","0.8","0.3236638898","0.3291033061","0.6","0.3054217384","0.2","","","","","","","",""
"497","","bandit","331","687718","0.0-292.0-0.0","87474678","wem/bandit_either","A3G00Q5JV2BE5G","either","5","","","","","","","75","K","2","","0","1","0","","0.35413613","","253","","0.4572977034","main_expt","0.4","0.2905162115","0.8","","","0.6","","0.2","0.35413613","0.3241125582","","","","","",""
"674","","bandit","332","689900","0.0-293.0-0.0","87474678","wem/bandit_either","A3G00Q5JV2BE5G","either","5","","","","","","","74","J","1","","0","0","1","0.2486268238","","","254","0.4550853681","","main_expt","0.4","","0.8","0.2486268238","0.2644422317","0.6","0.3512447021","0.2","","","","","","","",""
