"rt","responses","trial_type","trial_index","time_elapsed","internal_node_id","subjID","study","MID","cond","drift","key_press","expt_phase","target","like","value","connected","gems","bombs","no_reward","GemPrChosen","BombPrChosen","GainOverPainPr_0","GainOverPainPr_1","GainOverPainPr_2","GainOverPainPr_3","LosePr_0","LosePr_1","LosePr_2","LosePr_3","WinPr_0","WinPr_1","WinPr_2","WinPr_3","Q0","Q1","Q2","gender","age","ethnicity","respCharCode","respKey","respChoiceNum","respChoice","practice","trial_counter","trial_label"
"8290","{""Q0"":""A259UZJQOOVE4V""}","survey-text","0","8298","0.0-0.0","87589326","wem/bandit_either","A259UZJQOOVE4V","either","4","","","","","","","","","","","","","","","","","","","","","","","","","","","","","","","","","","","",""
"17199","","text","1","26506","0.0-1.0","87589326","wem/bandit_either","A259UZJQOOVE4V","either","4","32","","","","","","","","","","","","","","","","","","","","","","","","","","","","","","","","","","",""
"12229","","text","2","38740","0.0-2.0","87589326","wem/bandit_either","A259UZJQOOVE4V","either","4","32","","","","","","","","","","","","","","","","","","","","","","","","","","","","","","","","","","",""
"37255","","text","3","75997","0.0-3.0","87589326","wem/bandit_either","A259UZJQOOVE4V","either","4","32","","","","","","","","","","","","","","","","","","","","","","","","","","","","","","","","","","",""
"19353","","text","4","95353","0.0-4.0","87589326","wem/bandit_either","A259UZJQOOVE4V","either","4","32","","","","","","","","","","","","","","","","","","","","","","","","","","","","","","","","","","",""
"20755","","text","5","116111","0.0-5.0","87589326","wem/bandit_either","A259UZJQOOVE4V","either","4","32","","","","","","","","","","","","","","","","","","","","","","","","","","","","","","","","","","",""
"11410","","text","6","127523","0.0-6.0","87589326","wem/bandit_either","A259UZJQOOVE4V","either","4","32","","","","","","","","","","","","","","","","","","","","","","","","","","","","","","","","","","",""
"6405","","text","7","133931","0.0-7.0","87589326","wem/bandit_either","A259UZJQOOVE4V","either","4","32","","","","","","","","","","","","","","","","","","","","","","","","","","","","","","","","","","",""
"9611","","identification","8","143591","0.0-8.0-0.0","87589326","wem/bandit_either","A259UZJQOOVE4V","either","4","","identification_pre","the village of Zur","","","","","","","","","","","","","","","","","","","","","","","","","","","","","","","","",""
"7068","","identification","9","151713","0.0-8.0-1.0","87589326","wem/bandit_either","A259UZJQOOVE4V","either","4","","identification_pre","the village of Nyx","","","","","","","","","","","","","","","","","","","","","","","","","","","","","","","","",""
"7303","","text","10","160019","0.0-9.0","87589326","wem/bandit_either","A259UZJQOOVE4V","either","4","32","","","","","","","","","","","","","","","","","","","","","","","","","","","","","","","","","","",""
"4782","","text","11","164804","0.0-10.0","87589326","wem/bandit_either","A259UZJQOOVE4V","either","4","32","","","","","","","","","","","","","","","","","","","","","","","","","","","","","","","","","","",""
"2767","","text","12","167574","0.0-11.0","87589326","wem/bandit_either","A259UZJQOOVE4V","either","4","32","","","","","","","","","","","","","","","","","","","","","","","","","","","","","","","","","","",""
"4206","","text","13","171783","0.0-12.0","87589326","wem/bandit_either","A259UZJQOOVE4V","either","4","32","","","","","","","","","","","","","","","","","","","","","","","","","","","","","","","","","","",""
"4059","","bandit","14","177365","0.0-13.0-0.0","87589326","wem/bandit_either","A259UZJQOOVE4V","either","4","","","","","","","0","0","1","0","0","","","","","0","","","","0","","","","","","","","","","74","J","0","img/none_selected_demo.jpg","true","0",""
"3033","","bandit","15","181915","0.0-14.0-0.0","87589326","wem/bandit_either","A259UZJQOOVE4V","either","4","","","","","","","0","0","1","0","0","","","","","0","","","","0","","","","","","","","","","75","K","0","img/none_selected_demo.jpg","true","0",""
"12918","","text","16","194837","0.0-15.0","87589326","wem/bandit_either","A259UZJQOOVE4V","either","4","32","","","","","","","","","","","","","","","","","","","","","","","","","","","","","","","","","","",""
"16379","","text","17","211220","0.0-16.0","87589326","wem/bandit_either","A259UZJQOOVE4V","either","4","32","","","","","","","","","","","","","","","","","","","","","","","","","","","","","","","","","","",""
"8667","","text","18","219891","0.0-17.0","87589326","wem/bandit_either","A259UZJQOOVE4V","either","4","32","","","","","","","","","","","","","","","","","","","","","","","","","","","","","","","","","","",""
"4243","","text","19","224137","0.0-18.0","87589326","wem/bandit_either","A259UZJQOOVE4V","either","4","32","","","","","","","","","","","","","","","","","","","","","","","","","","","","","","","","","","",""
"2598","","bandit","20","228248","0.0-19.0-0.0","87589326","wem/bandit_either","A259UZJQOOVE4V","either","4","","","","","","","1","0","0","0.2","","0.5","0.5","","","","","","","0.8","0.2","","","","","","","","","75","K","1","","true","0","80_20_practice"
"2043","","bandit","21","231808","0.0-19.0-1.0","87589326","wem/bandit_either","A259UZJQOOVE4V","either","4","","","","","","","0","0","1","0.2","","0.5","0.5","","","","","","","0.8","0.2","","","","","","","","","75","K","1","","true","0","80_20_practice"
"945","","bandit","22","234270","0.0-19.0-2.0","87589326","wem/bandit_either","A259UZJQOOVE4V","either","4","","","","","","","0","0","1","","0.2","0.5","0.5","","","0.8","0.2","","","","","","","","","","","","","75","K","1","","true","0","80_20_practice"
"2515","","bandit","23","238300","0.0-19.0-3.0","87589326","wem/bandit_either","A259UZJQOOVE4V","either","4","","","","","","","1","0","0","0.8","","0.5","0.5","","","","","","","0.8","0.2","","","","","","","","","74","J","0","img/none_selected_demo.jpg","true","0","80_20_practice"
"900","","bandit","24","240716","0.0-19.0-4.0","87589326","wem/bandit_either","A259UZJQOOVE4V","either","4","","","","","","","0","1","0","","0.8","0.5","0.5","","","0.8","0.2","","","","","","","","","","","","","74","J","0","img/none_selected_demo.jpg","true","0","80_20_practice"
"924","","bandit","25","243151","0.0-19.0-5.0","87589326","wem/bandit_either","A259UZJQOOVE4V","either","4","","","","","","","1","0","0","0.2","","0.5","0.5","","","","","","","0.8","0.2","","","","","","","","","75","K","1","","true","0","80_20_practice"
"636","","bandit","26","245303","0.0-19.0-6.0","87589326","wem/bandit_either","A259UZJQOOVE4V","either","4","","","","","","","0","0","1","0.2","","0.5","0.5","","","","","","","0.8","0.2","","","","","","","","","75","K","1","","true","0","80_20_practice"
"716","","bandit","27","247532","0.0-19.0-7.0","87589326","wem/bandit_either","A259UZJQOOVE4V","either","4","","","","","","","0","1","0","","0.8","0.5","0.5","","","0.8","0.2","","","","","","","","","","","","","74","J","0","img/none_selected_demo.jpg","true","0","80_20_practice"
"588","","bandit","28","249629","0.0-19.0-8.0","87589326","wem/bandit_either","A259UZJQOOVE4V","either","4","","","","","","","0","1","0","","0.2","0.5","0.5","","","0.8","0.2","","","","","","","","","","","","","75","K","1","","true","0","80_20_practice"
"1208","","bandit","29","252347","0.0-19.0-9.0","87589326","wem/bandit_either","A259UZJQOOVE4V","either","4","","","","","","","0","0","1","","0.2","0.5","0.5","","","0.8","0.2","","","","","","","","","","","","","75","K","1","","true","0","80_20_practice"
"541","","bandit","30","254404","0.0-19.0-10.0","87589326","wem/bandit_either","A259UZJQOOVE4V","either","4","","","","","","","0","0","1","0.2","","0.5","0.5","","","","","","","0.8","0.2","","","","","","","","","75","K","1","","true","0","80_20_practice"
"944","","bandit","31","256862","0.0-19.0-11.0","87589326","wem/bandit_either","A259UZJQOOVE4V","either","4","","","","","","","1","0","0","0.8","","0.5","0.5","","","","","","","0.8","0.2","","","","","","","","","74","J","0","img/none_selected_demo.jpg","true","0","80_20_practice"
"1013","","bandit","32","259393","0.0-19.0-12.0","87589326","wem/bandit_either","A259UZJQOOVE4V","either","4","","","","","","","0","1","0","","0.8","0.5","0.5","","","0.8","0.2","","","","","","","","","","","","","74","J","0","img/none_selected_demo.jpg","true","0","80_20_practice"
"745","","bandit","33","261646","0.0-19.0-13.0","87589326","wem/bandit_either","A259UZJQOOVE4V","either","4","","","","","","","1","0","0","0.2","","0.5","0.5","","","","","","","0.8","0.2","","","","","","","","","75","K","1","","true","0","80_20_practice"
"673","","bandit","34","263838","0.0-19.0-14.0","87589326","wem/bandit_either","A259UZJQOOVE4V","either","4","","","","","","","1","0","0","0.8","","0.5","0.5","","","","","","","0.8","0.2","","","","","","","","","74","J","0","img/none_selected_demo.jpg","true","0","80_20_practice"
"654","","bandit","35","266005","0.0-19.0-15.0","87589326","wem/bandit_either","A259UZJQOOVE4V","either","4","","","","","","","0","0","1","0.2","","0.5","0.5","","","","","","","0.8","0.2","","","","","","","","","75","K","1","","true","0","80_20_practice"
"676","","bandit","36","268193","0.0-19.0-16.0","87589326","wem/bandit_either","A259UZJQOOVE4V","either","4","","","","","","","1","0","0","0.8","","0.5","0.5","","","","","","","0.8","0.2","","","","","","","","","74","J","0","img/none_selected_demo.jpg","true","0","80_20_practice"
"793","","bandit","37","270504","0.0-19.0-17.0","87589326","wem/bandit_either","A259UZJQOOVE4V","either","4","","","","","","","0","0","1","","0.2","0.5","0.5","","","0.8","0.2","","","","","","","","","","","","","75","K","1","","true","0","80_20_practice"
"570","","bandit","38","272580","0.0-19.0-18.0","87589326","wem/bandit_either","A259UZJQOOVE4V","either","4","","","","","","","0","0","1","","0.2","0.5","0.5","","","0.8","0.2","","","","","","","","","","","","","75","K","1","","true","0","80_20_practice"
"673","","bandit","39","274762","0.0-19.0-19.0","87589326","wem/bandit_either","A259UZJQOOVE4V","either","4","","","","","","","0","1","0","","0.8","0.5","0.5","","","0.8","0.2","","","","","","","","","","","","","74","J","0","img/none_selected_demo.jpg","true","0","80_20_practice"
"7389","","text","40","282155","0.0-20.0","87589326","wem/bandit_either","A259UZJQOOVE4V","either","4","32","","","","","","","","","","","","","","","","","","","","","","","","","","","","","","","","","","",""
"2920","","bandit","41","286587","0.0-21.0-0.0","87589326","wem/bandit_either","A259UZJQOOVE4V","either","4","","","","","","","1","0","0","1","0","","","","","0","1","","","1","0","","","","","","","","","74","J","0","img/none_selected_demo.jpg","true","0",""
"12307","","text","42","298897","0.0-22.0","87589326","wem/bandit_either","A259UZJQOOVE4V","either","4","32","","","","","","","","","","","","","","","","","","","","","","","","","","","","","","","","","","",""
"3989","","text","43","302891","0.0-23.0","87589326","wem/bandit_either","A259UZJQOOVE4V","either","4","32","","","","","","","","","","","","","","","","","","","","","","","","","","","","","","","","","","",""
"3707","","text","44","306602","0.0-24.0","87589326","wem/bandit_either","A259UZJQOOVE4V","either","4","32","","","","","","","","","","","","","","","","","","","","","","","","","","","","","","","","","","",""
"4201","","text","45","310806","0.0-25.0","87589326","wem/bandit_either","A259UZJQOOVE4V","either","4","32","","","","","","","","","","","","","","","","","","","","","","","","","","","","","","","","","","",""
"15079","","text","46","325890","0.0-26.0","87589326","wem/bandit_either","A259UZJQOOVE4V","either","4","32","","","","","","","","","","","","","","","","","","","","","","","","","","","","","","","","","","",""
"4544","","text","47","330437","0.0-27.0","87589326","wem/bandit_either","A259UZJQOOVE4V","either","4","32","","","","","","","","","","","","","","","","","","","","","","","","","","","","","","","","","","",""
"6331","","text","48","336773","0.0-28.0","87589326","wem/bandit_either","A259UZJQOOVE4V","either","4","32","","","","","","","","","","","","","","","","","","","","","","","","","","","","","","","","","","",""
"4703","","text","49","341480","0.0-29.0","87589326","wem/bandit_either","A259UZJQOOVE4V","either","4","32","","","","","","","","","","","","","","","","","","","","","","","","","","","","","","","","","","",""
"10366","","text","50","351850","0.0-30.0","87589326","wem/bandit_either","A259UZJQOOVE4V","either","4","32","","","","","","","","","","","","","","","","","","","","","","","","","","","","","","","","","","",""
"3329","","text","51","355184","0.0-31.0","87589326","wem/bandit_either","A259UZJQOOVE4V","either","4","32","","","","","","","","","","","","","","","","","","","","","","","","","","","","","","","","","","",""
"10143","","text","52","365333","0.0-32.0","87589326","wem/bandit_either","A259UZJQOOVE4V","either","4","32","","","","","","","","","","","","","","","","","","","","","","","","","","","","","","","","","","",""
"1179","","bandit","53","368027","0.0-33.0-0.0","87589326","wem/bandit_either","A259UZJQOOVE4V","either","4","","","","","","","0","1","0","","0.8","0.5","0.5","0.5","0.5","0.8","0.2","0.6","0.2","","","","","","","","","","","72","H","0","img/none_selected.jpg","true","0","full_practice"
"675","","bandit","54","370217","0.0-33.0-1.0","87589326","wem/bandit_either","A259UZJQOOVE4V","either","4","","","","","","","1","0","0","0.8","","0.5","0.5","0.5","0.5","","","","","0.8","0.2","0.6","0.2","","","","","","","72","H","0","img/none_selected.jpg","true","0","full_practice"
"842","","bandit","55","372578","0.0-33.0-2.0","87589326","wem/bandit_either","A259UZJQOOVE4V","either","4","","","","","","","1","0","0","0.2","","0.5","0.5","0.5","0.5","","","","","0.8","0.2","0.6","0.2","","","","","","","74","J","1","","true","0","full_practice"
"620","","bandit","56","374709","0.0-33.0-3.0","87589326","wem/bandit_either","A259UZJQOOVE4V","either","4","","","","","","","0","1","0","","0.2","0.5","0.5","0.5","0.5","0.8","0.2","0.6","0.2","","","","","","","","","","","74","J","1","","true","0","full_practice"
"574","","bandit","57","376801","0.0-33.0-4.0","87589326","wem/bandit_either","A259UZJQOOVE4V","either","4","","","","","","","1","0","0","0.6","","0.5","0.5","0.5","0.5","","","","","0.8","0.2","0.6","0.2","","","","","","","75","K","2","","true","0","full_practice"
"441","","bandit","58","378762","0.0-33.0-5.0","87589326","wem/bandit_either","A259UZJQOOVE4V","either","4","","","","","","","0","1","0","","0.6","0.5","0.5","0.5","0.5","0.8","0.2","0.6","0.2","","","","","","","","","","","75","K","2","","true","0","full_practice"
"590","","bandit","59","380871","0.0-33.0-6.0","87589326","wem/bandit_either","A259UZJQOOVE4V","either","4","","","","","","","0","0","1","","0.2","0.5","0.5","0.5","0.5","0.8","0.2","0.6","0.2","","","","","","","","","","","76","L","3","","true","0","full_practice"
"507","","bandit","60","382898","0.0-33.0-7.0","87589326","wem/bandit_either","A259UZJQOOVE4V","either","4","","","","","","","0","0","1","0.2","","0.5","0.5","0.5","0.5","","","","","0.8","0.2","0.6","0.2","","","","","","","76","L","3","","true","0","full_practice"
"613","","bandit","61","385025","0.0-33.0-8.0","87589326","wem/bandit_either","A259UZJQOOVE4V","either","4","","","","","","","0","0","1","0.8","","0.5","0.5","0.5","0.5","","","","","0.8","0.2","0.6","0.2","","","","","","","72","H","0","img/none_selected.jpg","true","0","full_practice"
"851","","bandit","62","387387","0.0-33.0-9.0","87589326","wem/bandit_either","A259UZJQOOVE4V","either","4","","","","","","","0","0","1","0.6","","0.5","0.5","0.5","0.5","","","","","0.8","0.2","0.6","0.2","","","","","","","75","K","2","","true","0","full_practice"
"480","","bandit","63","389395","0.0-33.0-10.0","87589326","wem/bandit_either","A259UZJQOOVE4V","either","4","","","","","","","0","0","1","0.2","","0.5","0.5","0.5","0.5","","","","","0.8","0.2","0.6","0.2","","","","","","","74","J","1","","true","0","full_practice"
"461","","bandit","64","391382","0.0-33.0-11.0","87589326","wem/bandit_either","A259UZJQOOVE4V","either","4","","","","","","","1","0","0","0.2","","0.5","0.5","0.5","0.5","","","","","0.8","0.2","0.6","0.2","","","","","","","76","L","3","","true","0","full_practice"
"405","","bandit","65","393307","0.0-33.0-12.0","87589326","wem/bandit_either","A259UZJQOOVE4V","either","4","","","","","","","0","0","1","0.2","","0.5","0.5","0.5","0.5","","","","","0.8","0.2","0.6","0.2","","","","","","","76","L","3","","true","0","full_practice"
"668","","bandit","66","395493","0.0-33.0-13.0","87589326","wem/bandit_either","A259UZJQOOVE4V","either","4","","","","","","","1","0","0","0.8","","0.5","0.5","0.5","0.5","","","","","0.8","0.2","0.6","0.2","","","","","","","72","H","0","img/none_selected.jpg","true","0","full_practice"
"633","","bandit","67","397633","0.0-33.0-14.0","87589326","wem/bandit_either","A259UZJQOOVE4V","either","4","","","","","","","0","1","0","","0.8","0.5","0.5","0.5","0.5","0.8","0.2","0.6","0.2","","","","","","","","","","","72","H","0","img/none_selected.jpg","true","0","full_practice"
"632","","bandit","68","399776","0.0-33.0-15.0","87589326","wem/bandit_either","A259UZJQOOVE4V","either","4","","","","","","","0","0","1","0.2","","0.5","0.5","0.5","0.5","","","","","0.8","0.2","0.6","0.2","","","","","","","74","J","1","","true","0","full_practice"
"421","","bandit","69","401708","0.0-33.0-16.0","87589326","wem/bandit_either","A259UZJQOOVE4V","either","4","","","","","","","0","0","1","0.6","","0.5","0.5","0.5","0.5","","","","","0.8","0.2","0.6","0.2","","","","","","","75","K","2","","true","0","full_practice"
"497","","bandit","70","403722","0.0-33.0-17.0","87589326","wem/bandit_either","A259UZJQOOVE4V","either","4","","","","","","","0","0","1","0.2","","0.5","0.5","0.5","0.5","","","","","0.8","0.2","0.6","0.2","","","","","","","74","J","1","","true","0","full_practice"
"450","","bandit","71","405687","0.0-33.0-18.0","87589326","wem/bandit_either","A259UZJQOOVE4V","either","4","","","","","","","1","0","0","0.2","","0.5","0.5","0.5","0.5","","","","","0.8","0.2","0.6","0.2","","","","","","","76","L","3","","true","0","full_practice"
"621","","bandit","72","407827","0.0-33.0-19.0","87589326","wem/bandit_either","A259UZJQOOVE4V","either","4","","","","","","","0","1","0","","0.8","0.5","0.5","0.5","0.5","0.8","0.2","0.6","0.2","","","","","","","","","","","72","H","0","img/none_selected.jpg","true","0","full_practice"
"3356","","text","73","411202","0.0-34.0","87589326","wem/bandit_either","A259UZJQOOVE4V","either","4","32","","","","","","","","","","","","","","","","","","","","","","","","","","","","","","","","","","",""
"15424","","text","74","427631","0.0-35.0","87589326","wem/bandit_either","A259UZJQOOVE4V","either","4","32","","","","","","","","","","","","","","","","","","","","","","","","","","","","","","","","","","",""
"14495","","text","75","442130","0.0-36.0","87589326","wem/bandit_either","A259UZJQOOVE4V","either","4","32","","","","","","","","","","","","","","","","","","","","","","","","","","","","","","","","","","",""
"7898","","text","76","450034","0.0-37.0","87589326","wem/bandit_either","A259UZJQOOVE4V","either","4","32","","","","","","","","","","","","","","","","","","","","","","","","","","","","","","","","","","",""
"7261","","text","77","457297","0.0-38.0","87589326","wem/bandit_either","A259UZJQOOVE4V","either","4","32","","","","","","","","","","","","","","","","","","","","","","","","","","","","","","","","","","",""
"4322","","text","78","461628","0.0-39.0","87589326","wem/bandit_either","A259UZJQOOVE4V","either","4","32","","","","","","","","","","","","","","","","","","","","","","","","","","","","","","","","","","",""
"1179","","bandit","79","464330","0.0-40.0-0.0","87589326","wem/bandit_either","A259UZJQOOVE4V","either","4","","","","","","","0","0","1","0.3525715257","","0.8","0.4","0.6","0.2","","","","","0.3525715257","0.3894728165","0.3242650943","0.2771551185","","","","","","","72","H","0","img/none_selected.jpg","","1","main_expt"
"558","","bandit","80","466414","0.0-41.0-0.0","87589326","wem/bandit_either","A259UZJQOOVE4V","either","4","","","","","","","1","0","0","0.363660736","","0.8","0.4","0.6","0.2","","","","","0.390153736","0.363660736","0.3296228245","0.3030893157","","","","","","","74","J","1","","","2","main_expt"
"431","","bandit","81","468379","0.0-42.0-0.0","87589326","wem/bandit_either","A259UZJQOOVE4V","either","4","","","","","","","0","1","0","","0.3842171554","0.8","0.4","0.6","0.2","0.3725447061","0.3842171554","0.3102780753","0.3211059343","","","","","","","","","","","74","J","1","","","3","main_expt"
"452","","bandit","82","470351","0.0-43.0-0.0","87589326","wem/bandit_either","A259UZJQOOVE4V","either","4","","","","","","","0","0","1","","0.3831963053","0.8","0.4","0.6","0.2","0.3431524481","0.3831963053","0.2749892112","0.2804386453","","","","","","","","","","","74","J","1","","","4","main_expt"
"501","","bandit","83","472373","0.0-44.0-0.0","87589326","wem/bandit_either","A259UZJQOOVE4V","either","4","","","","","","","0","0","1","0.3037824898","","0.8","0.4","0.6","0.2","","","","","0.3448007793","0.4056596471","0.3037824898","0.2609559086","","","","","","","75","K","2","","","5","main_expt"
"568","","bandit","84","474464","0.0-45.0-0.0","87589326","wem/bandit_either","A259UZJQOOVE4V","either","4","","","","","","","1","0","0","0.4409946319","","0.8","0.4","0.6","0.2","","","","","0.3980888019","0.4409946319","0.3217417103","0.2259287768","","","","","","","74","J","1","","","6","main_expt"
"447","","bandit","85","476424","0.0-46.0-0.0","87589326","wem/bandit_either","A259UZJQOOVE4V","either","4","","","","","","","0","0","1","0.3821747998","","0.8","0.4","0.6","0.2","","","","","0.3693121862","0.3821747998","0.3018715163","0.2433618728","","","","","","","74","J","1","","","7","main_expt"
"518","","bandit","86","478457","0.0-47.0-0.0","87589326","wem/bandit_either","A259UZJQOOVE4V","either","4","","","","","","","0","0","1","","0.2025356769","0.8","0.4","0.6","0.2","0.2933697555","0.3841844813","0.3643645816","0.2025356769","","","","","","","","","","","76","L","3","","","8","main_expt"
"401","","bandit","87","480372","0.0-48.0-0.0","87589326","wem/bandit_either","A259UZJQOOVE4V","either","4","","","","","","","0","0","1","","0.1441028094","0.8","0.4","0.6","0.2","0.3036212831","0.3412237964","0.3418610374","0.1441028094","","","","","","","","","","","76","L","3","","","9","main_expt"
"502","","bandit","88","482398","0.0-49.0-0.0","87589326","wem/bandit_either","A259UZJQOOVE4V","either","4","","","","","","","0","0","1","","0.308020301","0.8","0.4","0.6","0.2","0.308020301","0.3256420777","0.3190157878","0.1736005971","","","","","","","","","","","72","H","0","img/none_selected.jpg","","10","main_expt"
"471","","bandit","89","484393","0.0-50.0-0.0","87589326","wem/bandit_either","A259UZJQOOVE4V","either","4","","","","","","","1","0","0","0.2998731478","","0.8","0.4","0.6","0.2","","","","","0.3065973113","0.3514007431","0.2998731478","0.1836365694","","","","","","","75","K","2","","","11","main_expt"
"343","","bandit","90","486258","0.0-51.0-0.0","87589326","wem/bandit_either","A259UZJQOOVE4V","either","4","","","","","","","0","0","1","","0.2942822571","0.8","0.4","0.6","0.2","0.3271859636","0.3722032088","0.2942822571","0.2143869662","","","","","","","","","","","75","K","2","","","12","main_expt"
"408","","bandit","91","488185","0.0-52.0-0.0","87589326","wem/bandit_either","A259UZJQOOVE4V","either","4","","","","","","","1","0","0","0.3681707299","","0.8","0.4","0.6","0.2","","","","","0.2761076709","0.3681707299","0.3009212619","0.1637139448","","","","","","","74","J","1","","","13","main_expt"
"383","","bandit","92","490087","0.0-53.0-0.0","87589326","wem/bandit_either","A259UZJQOOVE4V","either","4","","","","","","","0","0","1","","0.3528222564","0.8","0.4","0.6","0.2","0.2311164494","0.3528222564","0.3227424667","0.1488535162","","","","","","","","","","","74","J","1","","","14","main_expt"
"509","","bandit","93","492106","0.0-54.0-0.0","87589326","wem/bandit_either","A259UZJQOOVE4V","either","4","","","","","","","0","1","0","","0.3547546862","0.8","0.4","0.6","0.2","0.2905977425","0.3738838661","0.3547546862","0.1332411271","","","","","","","","","","","75","K","2","","","15","main_expt"
"493","","bandit","94","494120","0.0-55.0-0.0","87589326","wem/bandit_either","A259UZJQOOVE4V","either","4","","","","","","","0","0","1","0.3241157583","","0.8","0.4","0.6","0.2","","","","","0.2924554969","0.3385239332","0.3241157583","0.09882415698","","","","","","","75","K","2","","","16","main_expt"
"426","","bandit","95","496066","0.0-56.0-0.0","87589326","wem/bandit_either","A259UZJQOOVE4V","either","4","","","","","","","0","0","1","","0.1069157009","0.8","0.4","0.6","0.2","0.3114836302","0.3111355138","0.3363410386","0.1069157009","","","","","","","","","","","76","L","3","","","17","main_expt"
"348","","bandit","96","497926","0.0-57.0-0.0","87589326","wem/bandit_either","A259UZJQOOVE4V","either","4","","","","","","","0","0","1","","0.134958137","0.8","0.4","0.6","0.2","0.3215333475","0.3487767647","0.3880947854","0.134958137","","","","","","","","","","","76","L","3","","","18","main_expt"
"453","","bandit","97","499899","0.0-58.0-0.0","87589326","wem/bandit_either","A259UZJQOOVE4V","either","4","","","","","","","0","1","0","","0.1230418706","0.8","0.4","0.6","0.2","0.2733398822","0.3010303499","0.4116912081","0.1230418706","","","","","","","","","","","76","L","3","","","19","main_expt"
"400","","bandit","98","501820","0.0-59.0-0.0","87589326","wem/bandit_either","A259UZJQOOVE4V","either","4","","","","","","","0","0","1","","0.09866604889","0.8","0.4","0.6","0.2","0.2351410235","0.2907203997","0.3973894305","0.09866604889","","","","","","","","","","","76","L","3","","","20","main_expt"
"420","","bandit","99","503763","0.0-60.0-0.0","87589326","wem/bandit_either","A259UZJQOOVE4V","either","4","","","","","","","1","0","0","0.2257810982","","0.8","0.4","0.6","0.2","","","","","0.2257810982","0.3088108907","0.369037109","0.1021222834","","","","","","","72","H","0","img/none_selected.jpg","","21","main_expt"
"392","","bandit","100","505674","0.0-61.0-0.0","87589326","wem/bandit_either","A259UZJQOOVE4V","either","4","","","","","","","0","0","1","","0.2221856846","0.8","0.4","0.6","0.2","0.2221856846","0.349202701","0.4179468344","0.1234138809","","","","","","","","","","","72","H","0","img/none_selected.jpg","","22","main_expt"
"453","","bandit","101","507645","0.0-62.0-0.0","87589326","wem/bandit_either","A259UZJQOOVE4V","either","4","","","","","","","1","0","0","0.3785068464","","0.8","0.4","0.6","0.2","","","","","0.2127124712","0.3785068464","0.4276062926","0.1030640584","","","","","","","74","J","1","","","23","main_expt"
"352","","bandit","102","509521","0.0-63.0-0.0","87589326","wem/bandit_either","A259UZJQOOVE4V","either","4","","","","","","","0","1","0","","0.4012919653","0.8","0.4","0.6","0.2","0.1882566648","0.4012919653","0.4078122208","0.1261035851","","","","","","","","","","","74","J","1","","","24","main_expt"
"415","","bandit","103","511449","0.0-64.0-0.0","87589326","wem/bandit_either","A259UZJQOOVE4V","either","4","","","","","","","1","0","0","0.3950411191","","0.8","0.4","0.6","0.2","","","","","0.1273223766","0.400899794","0.3950411191","0.1796705612","","","","","","","75","K","2","","","25","main_expt"
"393","","bandit","104","513364","0.0-65.0-0.0","87589326","wem/bandit_either","A259UZJQOOVE4V","either","4","","","","","","","0","1","0","","0.4322303329","0.8","0.4","0.6","0.2","0.15747458","0.4126274585","0.4322303329","0.2414651519","","","","","","","","","","","75","K","2","","","26","main_expt"
"446","","bandit","105","515331","0.0-66.0-0.0","87589326","wem/bandit_either","A259UZJQOOVE4V","either","4","","","","","","","0","0","1","0.3992263875","","0.8","0.4","0.6","0.2","","","","","0.1442684908","0.3992263875","0.4353643722","0.2005374927","","","","","","","74","J","1","","","27","main_expt"
"327","","bandit","106","517180","0.0-67.0-0.0","87589326","wem/bandit_either","A259UZJQOOVE4V","either","4","","","","","","","0","0","1","","0.3197257227","0.8","0.4","0.6","0.2","0.2255404594","0.3846584236","0.4464017809","0.3197257227","","","","","","","","","","","76","L","3","","","28","main_expt"
"399","","bandit","107","519100","0.0-68.0-0.0","87589326","wem/bandit_either","A259UZJQOOVE4V","either","4","","","","","","","0","0","1","0.2730951691","","0.8","0.4","0.6","0.2","","","","","0.2730951691","0.3561298134","0.4417109462","0.3141869899","","","","","","","72","H","0","img/none_selected.jpg","","29","main_expt"
"427","","bandit","108","521043","0.0-69.0-0.0","87589326","wem/bandit_either","A259UZJQOOVE4V","either","4","","","","","","","0","0","1","","0.3445991012","0.8","0.4","0.6","0.2","0.2890412698","0.3101363315","0.4065908859","0.3445991012","","","","","","","","","","","76","L","3","","","30","main_expt"
"532","","bandit","109","523089","0.0-70.0-0.0","87589326","wem/bandit_either","A259UZJQOOVE4V","either","4","","","","","","","0","1","0","","0.3322219809","0.8","0.4","0.6","0.2","0.3309226042","0.3322219809","0.3954582793","0.3456655029","","","","","","","","","","","74","J","1","","","31","main_expt"
"375","","bandit","110","524982","0.0-71.0-0.0","87589326","wem/bandit_either","A259UZJQOOVE4V","either","4","","","","","","","0","1","0","","0.3516269472","0.8","0.4","0.6","0.2","0.3519301717","0.3516269472","0.3716723047","0.3826172224","","","","","","","","","","","74","J","1","","","32","main_expt"
"26736","","bandit","111","553233","0.0-72.0-0.0","87589326","wem/bandit_either","A259UZJQOOVE4V","either","4","","","","","","","0","0","1","","0.3414953842","0.8","0.4","0.6","0.2","0.3414953842","0.3852085553","0.3799724366","0.3804083149","","","","","","","","","","","72","H","0","img/none_selected.jpg","","33","main_expt"
"2521","","bandit","112","557278","0.0-73.0-0.0","87589326","wem/bandit_either","A259UZJQOOVE4V","either","4","","","","","","","0","1","0","","0.4196644934","0.8","0.4","0.6","0.2","0.2938412915","0.4196644934","0.409480615","0.3808178469","","","","","","","","","","","74","J","1","","","34","main_expt"
"1625","","bandit","113","560422","0.0-74.0-0.0","87589326","wem/bandit_either","A259UZJQOOVE4V","either","4","","","","","","","0","0","1","0.420891004","","0.8","0.4","0.6","0.2","","","","","0.2256616696","0.420891004","0.3869649509","0.376129724","","","","","","","74","J","1","","","35","main_expt"
"606","","bandit","114","562545","0.0-75.0-0.0","87589326","wem/bandit_either","A259UZJQOOVE4V","either","4","","","","","","","1","0","0","0.3045389962","","0.8","0.4","0.6","0.2","","","","","0.2525957923","0.3808881167","0.3045389962","0.4027809904","","","","","","","75","K","2","","","36","main_expt"
"386","","bandit","115","564443","0.0-76.0-0.0","87589326","wem/bandit_either","A259UZJQOOVE4V","either","4","","","","","","","0","0","1","0.2954217214","","0.8","0.4","0.6","0.2","","","","","0.2333373749","0.3634360393","0.2954217214","0.3715556026","","","","","","","75","K","2","","","37","main_expt"
"416","","bandit","116","566377","0.0-77.0-0.0","87589326","wem/bandit_either","A259UZJQOOVE4V","either","4","","","","","","","0","0","1","0.2749906923","","0.8","0.4","0.6","0.2","","","","","0.2126884676","0.3432691328","0.2749906923","0.354842885","","","","","","","75","K","2","","","38","main_expt"
"349","","bandit","117","568243","0.0-78.0-0.0","87589326","wem/bandit_either","A259UZJQOOVE4V","either","4","","","","","","","0","0","1","","0.3066825603","0.8","0.4","0.6","0.2","0.212498526","0.3113322025","0.2911873598","0.3066825603","","","","","","","","","","","76","L","3","","","39","main_expt"
"1233","","bandit","118","570995","0.0-79.0-0.0","87589326","wem/bandit_either","A259UZJQOOVE4V","either","4","","","","","","","1","0","0","0.2031275136","","0.8","0.4","0.6","0.2","","","","","0.2031275136","0.3298138996","0.3066149412","0.3208648015","","","","","","","72","H","0","img/none_selected.jpg","","40","main_expt"
"352","","bandit","119","572864","0.0-80.0-0.0","87589326","wem/bandit_either","A259UZJQOOVE4V","either","4","","","","","","","1","0","0","0.2409224204","","0.8","0.4","0.6","0.2","","","","","0.2409224204","0.3590557929","0.2612722093","0.2774570704","","","","","","","72","H","0","img/none_selected.jpg","","41","main_expt"
"451","","bandit","120","574838","0.0-81.0-0.0","87589326","wem/bandit_either","A259UZJQOOVE4V","either","4","","","","","","","1","0","0","0.2166695961","","0.8","0.4","0.6","0.2","","","","","0.2166695961","0.3455434044","0.2579482203","0.3092882543","","","","","","","72","H","0","img/none_selected.jpg","","42","main_expt"
"365","","bandit","121","576724","0.0-82.0-0.0","87589326","wem/bandit_either","A259UZJQOOVE4V","either","4","","","","","","","0","0","1","0.2314197793","","0.8","0.4","0.6","0.2","","","","","0.2314197793","0.4020043176","0.2232302517","0.3161251671","","","","","","","72","H","0","img/none_selected.jpg","","43","main_expt"
"381","","bandit","122","578625","0.0-83.0-0.0","87589326","wem/bandit_either","A259UZJQOOVE4V","either","4","","","","","","","0","0","1","0.4088695108","","0.8","0.4","0.6","0.2","","","","","0.1889371852","0.4088695108","0.2435669349","0.3032549762","","","","","","","74","J","1","","","44","main_expt"
"471","","bandit","123","580608","0.0-84.0-0.0","87589326","wem/bandit_either","A259UZJQOOVE4V","either","4","","","","","","","0","0","1","0.3914045207","","0.8","0.4","0.6","0.2","","","","","0.2152104473","0.3914045207","0.1885724617","0.3012359134","","","","","","","74","J","1","","","45","main_expt"
"5385","","bandit","124","587504","0.0-85.0-0.0","87589326","wem/bandit_either","A259UZJQOOVE4V","either","4","","","","","","","0","0","1","","0.104230756","0.8","0.4","0.6","0.2","0.2260726972","0.3682142312","0.104230756","0.2994346937","","","","","","","","","","","75","K","2","","","46","main_expt"
"1467","","bandit","125","590484","0.0-86.0-0.0","87589326","wem/bandit_either","A259UZJQOOVE4V","either","4","","","","","","","0","0","1","","0.3169549043","0.8","0.4","0.6","0.2","0.2330399618","0.3462276735","0.09013225529","0.3169549043","","","","","","","","","","","76","L","3","","","47","main_expt"
"1074","","bandit","126","593069","0.0-87.0-0.0","87589326","wem/bandit_either","A259UZJQOOVE4V","either","4","","","","","","","0","0","1","0.3501405617","","0.8","0.4","0.6","0.2","","","","","0.2769685944","0.3501405617","0.1066227192","0.3137179834","","","","","","","74","J","1","","","48","main_expt"
"388","","bandit","127","594969","0.0-88.0-0.0","87589326","wem/bandit_either","A259UZJQOOVE4V","either","4","","","","","","","0","0","1","0.1273062614","","0.8","0.4","0.6","0.2","","","","","0.2954986192","0.3607669766","0.1273062614","0.3026837323","","","","","","","75","K","2","","","49","main_expt"
"387","","bandit","128","596871","0.0-89.0-0.0","87589326","wem/bandit_either","A259UZJQOOVE4V","either","4","","","","","","","0","0","1","","0.3776327681","0.8","0.4","0.6","0.2","0.2730110453","0.3776327681","0.08158159543","0.2690248343","","","","","","","","","","","74","J","1","","","50","main_expt"
"355","","bandit","129","598751","0.0-90.0-0.0","87589326","wem/bandit_either","A259UZJQOOVE4V","either","4","","","","","","","0","0","1","0.2672659715","","0.8","0.4","0.6","0.2","","","","","0.2672659715","0.3922012959","0.08035098666","0.2407215714","","","","","","","72","H","0","img/none_selected.jpg","","51","main_expt"
"326","","bandit","130","600597","0.0-91.0-0.0","87589326","wem/bandit_either","A259UZJQOOVE4V","either","4","","","","","","","0","0","1","","0.2758158767","0.8","0.4","0.6","0.2","0.2552972095","0.3532085343","0.1007468434","0.2758158767","","","","","","","","","","","76","L","3","","","52","main_expt"
"320","","bandit","131","602430","0.0-92.0-0.0","87589326","wem/bandit_either","A259UZJQOOVE4V","either","4","","","","","","","0","0","1","","0.2661511239","0.8","0.4","0.6","0.2","0.1954439593","0.3597378762","0.1479770317","0.2661511239","","","","","","","","","","","76","L","3","","","53","main_expt"
"382","","bandit","132","604330","0.0-93.0-0.0","87589326","wem/bandit_either","A259UZJQOOVE4V","either","4","","","","","","","0","0","1","0.250303373","","0.8","0.4","0.6","0.2","","","","","0.1250298759","0.3553644404","0.1450389045","0.250303373","","","","","","","76","L","3","","","54","main_expt"
"474","","bandit","133","606329","0.0-94.0-0.0","87589326","wem/bandit_either","A259UZJQOOVE4V","either","4","","","","","","","0","1","0","","0.3427354451","0.8","0.4","0.6","0.2","0.1224949652","0.3427354451","0.1678096349","0.1850572083","","","","","","","","","","","74","J","1","","","55","main_expt"
"426","","bandit","134","608280","0.0-95.0-0.0","87589326","wem/bandit_either","A259UZJQOOVE4V","either","4","","","","","","","1","0","0","0.3158877586","","0.8","0.4","0.6","0.2","","","","","0.1312048923","0.3158877586","0.1748395718","0.2410157884","","","","","","","74","J","1","","","56","main_expt"
"371","","bandit","135","610173","0.0-96.0-0.0","87589326","wem/bandit_either","A259UZJQOOVE4V","either","4","","","","","","","0","1","0","","0.3224611445","0.8","0.4","0.6","0.2","0.14452077","0.3224611445","0.146986137","0.2657224069","","","","","","","","","","","74","J","1","","","57","main_expt"
"346","","bandit","136","612041","0.0-97.0-0.0","87589326","wem/bandit_either","A259UZJQOOVE4V","either","4","","","","","","","0","0","1","0.3378672788","","0.8","0.4","0.6","0.2","","","","","0.1198415177","0.3378672788","0.1316135006","0.2361308133","","","","","","","74","J","1","","","58","main_expt"
"339","","bandit","137","613896","0.0-98.0-0.0","87589326","wem/bandit_either","A259UZJQOOVE4V","either","4","","","","","","","0","0","1","0.1776120447","","0.8","0.4","0.6","0.2","","","","","0.1674914914","0.3438075972","0.1776120447","0.2078360154","","","","","","","75","K","2","","","59","main_expt"
"298","","bandit","138","615715","0.0-99.0-0.0","87589326","wem/bandit_either","A259UZJQOOVE4V","either","4","","","","","","","0","1","0","","0.2034864675","0.8","0.4","0.6","0.2","0.147959707","0.2950987239","0.2034864675","0.2256957235","","","","","","","","","","","75","K","2","","","60","main_expt"
"362","","bandit","139","617597","0.0-100.0-0.0","87589326","wem/bandit_either","A259UZJQOOVE4V","either","4","","","","","","","1","0","0","0.1325668513","","0.8","0.4","0.6","0.2","","","","","0.1217284172","0.2939622289","0.1325668513","0.2713547376","","","","","","","75","K","2","","","61","main_expt"
"281","","bandit","140","619396","0.0-101.0-0.0","87589326","wem/bandit_either","A259UZJQOOVE4V","either","4","","","","","","","0","0","1","","0.125492747","0.8","0.4","0.6","0.2","0.1392905859","0.2907096119","0.125492747","0.2800078023","","","","","","","","","","","75","K","2","","","62","main_expt"
"412","","bandit","141","621334","0.0-102.0-0.0","87589326","wem/bandit_either","A259UZJQOOVE4V","either","4","","","","","","","0","0","1","","0.2696382907","0.8","0.4","0.6","0.2","0.1953314019","0.2696382907","0.1081989139","0.362183352","","","","","","","","","","","74","J","1","","","63","main_expt"
"337","","bandit","142","623192","0.0-103.0-0.0","87589326","wem/bandit_either","A259UZJQOOVE4V","either","4","","","","","","","0","0","1","","0.2496415039","0.8","0.4","0.6","0.2","0.2618523415","0.2496415039","0.09104284411","0.3354395381","","","","","","","","","","","74","J","1","","","64","main_expt"
"319","","bandit","143","625032","0.0-104.0-0.0","87589326","wem/bandit_either","A259UZJQOOVE4V","either","4","","","","","","","0","0","1","0.1264903162","","0.8","0.4","0.6","0.2","","","","","0.2686672798","0.2364994079","0.1264903162","0.2893845237","","","","","","","75","K","2","","","65","main_expt"
"396","","bandit","144","626942","0.0-105.0-0.0","87589326","wem/bandit_either","A259UZJQOOVE4V","either","4","","","","","","","0","0","1","","0.2355717356","0.8","0.4","0.6","0.2","0.2451656397","0.2541683514","0.1665937301","0.2355717356","","","","","","","","","","","76","L","3","","","66","main_expt"
"360","","bandit","145","628826","0.0-106.0-0.0","87589326","wem/bandit_either","A259UZJQOOVE4V","either","4","","","","","","","0","1","0","","0.2848755716","0.8","0.4","0.6","0.2","0.2445320338","0.2985471382","0.1740025863","0.2848755716","","","","","","","","","","","76","L","3","","","67","main_expt"
"377","","bandit","146","630726","0.0-107.0-0.0","87589326","wem/bandit_either","A259UZJQOOVE4V","either","4","","","","","","","0","0","1","","0.3341158043","0.8","0.4","0.6","0.2","0.2261158315","0.3391290389","0.2300011382","0.3341158043","","","","","","","","","","","76","L","3","","","68","main_expt"
"367","","bandit","147","632614","0.0-108.0-0.0","87589326","wem/bandit_either","A259UZJQOOVE4V","either","4","","","","","","","0","1","0","","0.3253412689","0.8","0.4","0.6","0.2","0.1627286519","0.3114764975","0.1768594062","0.3253412689","","","","","","","","","","","76","L","3","","","69","main_expt"
"335","","bandit","148","634460","0.0-109.0-0.0","87589326","wem/bandit_either","A259UZJQOOVE4V","either","4","","","","","","","0","0","1","0.3280915152","","0.8","0.4","0.6","0.2","","","","","0.1301009224","0.3056328376","0.1906145184","0.3280915152","","","","","","","76","L","3","","","70","main_expt"
"404","","bandit","149","636381","0.0-110.0-0.0","87589326","wem/bandit_either","A259UZJQOOVE4V","either","4","","","","","","","0","1","0","","0.1356707761","0.8","0.4","0.6","0.2","0.1356707761","0.3445325487","0.1451664327","0.3772643828","","","","","","","","","","","72","H","0","img/none_selected.jpg","","71","main_expt"
"322","","bandit","150","638228","0.0-111.0-0.0","87589326","wem/bandit_either","A259UZJQOOVE4V","either","4","","","","","","","0","0","1","0.1045412551","","0.8","0.4","0.6","0.2","","","","","0.1045412551","0.364612409","0.1091447996","0.4074174212","","","","","","","72","H","0","img/none_selected.jpg","","72","main_expt"
"246","","bandit","151","639995","0.0-112.0-0.0","87589326","wem/bandit_either","A259UZJQOOVE4V","either","4","","","","","","","0","0","1","0.0867882282","","0.8","0.4","0.6","0.2","","","","","0.0867882282","0.4454774056","0.1248737042","0.3736299767","","","","","","","72","H","0","img/none_selected.jpg","","73","main_expt"
"387","","bandit","152","641899","0.0-113.0-0.0","87589326","wem/bandit_either","A259UZJQOOVE4V","either","4","","","","","","","0","0","1","","0.4492830973","0.8","0.4","0.6","0.2","0.1018359722","0.4492830973","0.1073746888","0.383211712","","","","","","","","","","","74","J","1","","","74","main_expt"
"325","","bandit","153","643746","0.0-114.0-0.0","87589326","wem/bandit_either","A259UZJQOOVE4V","either","4","","","","","","","0","0","1","0.1051395745","","0.8","0.4","0.6","0.2","","","","","0.09443707336","0.449321966","0.1051395745","0.3681962321","","","","","","","75","K","2","","","75","main_expt"
"346","","bandit","154","645613","0.0-115.0-0.0","87589326","wem/bandit_either","A259UZJQOOVE4V","either","4","","","","","","","0","0","1","","0.09171451076","0.8","0.4","0.6","0.2","0.08768691443","0.4299726132","0.09171451076","0.3574328021","","","","","","","","","","","75","K","2","","","76","main_expt"
"375","","bandit","155","647499","0.0-116.0-0.0","87589326","wem/bandit_either","A259UZJQOOVE4V","either","4","","","","","","","0","1","0","","0.4349340462","0.8","0.4","0.6","0.2","0.07744448812","0.4349340462","0.1256070833","0.4041720962","","","","","","","","","","","74","J","1","","","77","main_expt"
"304","","bandit","156","649334","0.0-117.0-0.0","87589326","wem/bandit_either","A259UZJQOOVE4V","either","4","","","","","","","1","0","0","0.4112950215","","0.8","0.4","0.6","0.2","","","","","0.05712631425","0.4112950215","0.1398604905","0.4000946746","","","","","","","74","J","1","","","78","main_expt"
"305","","bandit","157","651170","0.0-118.0-0.0","87589326","wem/bandit_either","A259UZJQOOVE4V","either","4","","","","","","","0","1","0","","0.4123046053","0.8","0.4","0.6","0.2","0.03981704588","0.4123046053","0.1303191282","0.425248604","","","","","","","","","","","74","J","1","","","79","main_expt"
"222","","bandit","158","652917","0.0-119.0-0.0","87589326","wem/bandit_either","A259UZJQOOVE4V","either","4","","","","","","","1","0","0","0.4345430878","","0.8","0.4","0.6","0.2","","","","","0.02961196177","0.4345430878","0.1491340647","0.4263383456","","","","","","","74","J","1","","","80","main_expt"
"317","","bandit","159","654761","0.0-120.0-0.0","87589326","wem/bandit_either","A259UZJQOOVE4V","either","4","","","","","","","1","0","0","0.4255274095","","0.8","0.4","0.6","0.2","","","","","0.0408206899","0.4255274095","0.1484119081","0.4377411966","","","","","","","74","J","1","","","81","main_expt"
"411","","bandit","160","656695","0.0-121.0-0.0","87589326","wem/bandit_either","A259UZJQOOVE4V","either","4","","","","","","","0","0","1","","0.4266934287","0.8","0.4","0.6","0.2","0.03491361241","0.4266934287","0.135460029","0.4263216968","","","","","","","","","","","74","J","1","","","82","main_expt"
"306","","bandit","161","658515","0.0-122.0-0.0","87589326","wem/bandit_either","A259UZJQOOVE4V","either","4","","","","","","","0","0","1","0.09497461961","","0.8","0.4","0.6","0.2","","","","","0.01881925386","0.4321646522","0.09497461961","0.4536492548","","","","","","","75","K","2","","","83","main_expt"
"352","","bandit","162","660384","0.0-123.0-0.0","87589326","wem/bandit_either","A259UZJQOOVE4V","either","4","","","","","","","0","0","1","","0.4344769981","0.8","0.4","0.6","0.2","0.03441768066","0.43129245","0.0956585677","0.4344769981","","","","","","","","","","","76","L","3","","","84","main_expt"
"434","","bandit","163","662361","0.0-124.0-0.0","87589326","wem/bandit_either","A259UZJQOOVE4V","either","4","","","","","","","0","0","1","0.04015732792","","0.8","0.4","0.6","0.2","","","","","0.04015732792","0.4307495417","0.08427930603","0.4167097255","","","","","","","72","H","0","img/none_selected.jpg","","85","main_expt"
"295","","bandit","164","664179","0.0-125.0-0.0","87589326","wem/bandit_either","A259UZJQOOVE4V","either","4","","","","","","","0","0","1","","0.0462821445","0.8","0.4","0.6","0.2","0.0462821445","0.4327415212","0.09540141202","0.4215971904","","","","","","","","","","","72","H","0","img/none_selected.jpg","","86","main_expt"
"397","","bandit","165","666095","0.0-126.0-0.0","87589326","wem/bandit_either","A259UZJQOOVE4V","either","4","","","","","","","0","0","1","","0.3962725568","0.8","0.4","0.6","0.2","0.07236867375","0.4507305815","0.06504543429","0.3962725568","","","","","","","","","","","76","L","3","","","87","main_expt"
"338","","bandit","166","667949","0.0-127.0-0.0","87589326","wem/bandit_either","A259UZJQOOVE4V","either","4","","","","","","","0","0","1","0.1132918069","","0.8","0.4","0.6","0.2","","","","","0.1132918069","0.4571393315","0.05894337134","0.4038430626","","","","","","","72","H","0","img/none_selected.jpg","","88","main_expt"
"356","","bandit","167","669830","0.0-128.0-0.0","87589326","wem/bandit_either","A259UZJQOOVE4V","either","4","","","","","","","0","1","0","","0.4639779763","0.8","0.4","0.6","0.2","0.1466354559","0.4639779763","0.06803635399","0.4247877058","","","","","","","","","","","74","J","1","","","89","main_expt"
"343","","bandit","168","671687","0.0-129.0-0.0","87589326","wem/bandit_either","A259UZJQOOVE4V","either","4","","","","","","","1","0","0","0.4620017245","","0.8","0.4","0.6","0.2","","","","","0.1746819083","0.4620017245","0.09657856289","0.4196700557","","","","","","","74","J","1","","","90","main_expt"
"404","","bandit","169","673606","0.0-130.0-0.0","87589326","wem/bandit_either","A259UZJQOOVE4V","either","4","","","","","","","0","1","0","","0.4492963398","0.8","0.4","0.6","0.2","0.1864657318","0.4492963398","0.08522031428","0.401758082","","","","","","","","","","","74","J","1","","","91","main_expt"
"352","","bandit","170","675484","0.0-131.0-0.0","87589326","wem/bandit_either","A259UZJQOOVE4V","either","4","","","","","","","0","1","0","","0.462009279","0.8","0.4","0.6","0.2","0.2124622091","0.462009279","0.07078380504","0.3422099147","","","","","","","","","","","74","J","1","","","92","main_expt"
"328","","bandit","171","677327","0.0-132.0-0.0","87589326","wem/bandit_either","A259UZJQOOVE4V","either","4","","","","","","","0","0","1","","0.4363090379","0.8","0.4","0.6","0.2","0.245786276","0.4363090379","0.0564278809","0.3279059742","","","","","","","","","","","74","J","1","","","93","main_expt"
"396","","bandit","172","679251","0.0-133.0-0.0","87589326","wem/bandit_either","A259UZJQOOVE4V","either","4","","","","","","","0","0","1","0.06067733924","","0.8","0.4","0.6","0.2","","","","","0.2316759231","0.4457519602","0.06067733924","0.3155724737","","","","","","","75","K","2","","","94","main_expt"
"338","","bandit","173","681113","0.0-134.0-0.0","87589326","wem/bandit_either","A259UZJQOOVE4V","either","4","","","","","","","0","0","1","","0.08632751489","0.8","0.4","0.6","0.2","0.2231756969","0.4231248902","0.08632751489","0.3519625041","","","","","","","","","","","75","K","2","","","95","main_expt"
"326","","bandit","174","682958","0.0-135.0-0.0","87589326","wem/bandit_either","A259UZJQOOVE4V","either","4","","","","","","","0","0","1","","0.08481729553","0.8","0.4","0.6","0.2","0.1957128212","0.4210676831","0.08481729553","0.3661455107","","","","","","","","","","","75","K","2","","","96","main_expt"
"352","","bandit","175","684826","0.0-136.0-0.0","87589326","wem/bandit_either","A259UZJQOOVE4V","either","4","","","","","","","0","0","1","","0.08386440452","0.8","0.4","0.6","0.2","0.1638116915","0.4022895305","0.08386440452","0.3558031673","","","","","","","","","","","75","K","2","","","97","main_expt"
"385","","bandit","176","686736","0.0-137.0-0.0","87589326","wem/bandit_either","A259UZJQOOVE4V","either","4","","","","","","","0","0","1","","0.3558230887","0.8","0.4","0.6","0.2","0.1405816365","0.4187351015","0.0940701929","0.3558230887","","","","","","","","","","","76","L","3","","","98","main_expt"
"332","","bandit","177","688582","0.0-138.0-0.0","87589326","wem/bandit_either","A259UZJQOOVE4V","either","4","","","","","","","0","0","1","0.1285058524","","0.8","0.4","0.6","0.2","","","","","0.1435678602","0.3981340028","0.1285058524","0.3064708089","","","","","","","75","K","2","","","99","main_expt"
"329","","bandit","178","690433","0.0-139.0-0.0","87589326","wem/bandit_either","A259UZJQOOVE4V","either","4","","","","","","","1","0","0","0.352498313","","0.8","0.4","0.6","0.2","","","","","0.1478754355","0.3520446815","0.065882019","0.352498313","","","","","","","76","L","3","","","100","main_expt"
"326","","bandit","179","692282","0.0-140.0-0.0","87589326","wem/bandit_either","A259UZJQOOVE4V","either","4","","","","","","","0","0","1","","0.3511810171","0.8","0.4","0.6","0.2","0.1532559328","0.3715523215","0.05692140794","0.3511810171","","","","","","","","","","","76","L","3","","","101","main_expt"
"435","","bandit","180","694243","0.0-141.0-0.0","87589326","wem/bandit_either","A259UZJQOOVE4V","either","4","","","","","","","0","1","0","","0.3246867477","0.8","0.4","0.6","0.2","0.15857411","0.3966955113","0.04322280369","0.3246867477","","","","","","","","","","","76","L","3","","","102","main_expt"
"479","","bandit","181","696249","0.0-142.0-0.0","87589326","wem/bandit_either","A259UZJQOOVE4V","either","4","","","","","","","0","1","0","","0.2827689756","0.8","0.4","0.6","0.2","0.1552377357","0.3865714765","0.05121437093","0.2827689756","","","","","","","","","","","76","L","3","","","103","main_expt"
"347","","bandit","182","698119","0.0-143.0-0.0","87589326","wem/bandit_either","A259UZJQOOVE4V","either","4","","","","","","","1","0","0","0.3307995119","","0.8","0.4","0.6","0.2","","","","","0.1584193753","0.3440646931","0.06548077564","0.3307995119","","","","","","","76","L","3","","","104","main_expt"
"412","","bandit","183","700041","0.0-144.0-0.0","87589326","wem/bandit_either","A259UZJQOOVE4V","either","4","","","","","","","0","0","1","","0.3078297571","0.8","0.4","0.6","0.2","0.192058402","0.330981063","0.07577357845","0.3078297571","","","","","","","","","","","76","L","3","","","105","main_expt"
"394","","bandit","184","701952","0.0-145.0-0.0","87589326","wem/bandit_either","A259UZJQOOVE4V","either","4","","","","","","","0","0","1","0.3202685942","","0.8","0.4","0.6","0.2","","","","","0.1562344916","0.3317280627","0.09041352565","0.3202685942","","","","","","","76","L","3","","","106","main_expt"
"465","","bandit","185","703943","0.0-146.0-0.0","87589326","wem/bandit_either","A259UZJQOOVE4V","either","4","","","","","","","0","0","1","0.1493116313","","0.8","0.4","0.6","0.2","","","","","0.1493116313","0.2760665195","0.1184921167","0.3163418234","","","","","","","72","H","0","img/none_selected.jpg","","107","main_expt"
"404","","bandit","186","705870","0.0-147.0-0.0","87589326","wem/bandit_either","A259UZJQOOVE4V","either","4","","","","","","","0","0","1","0.1357435498","","0.8","0.4","0.6","0.2","","","","","0.1357435498","0.2826301941","0.1057615429","0.3425943818","","","","","","","72","H","0","img/none_selected.jpg","","108","main_expt"
"380","","bandit","187","707776","0.0-148.0-0.0","87589326","wem/bandit_either","A259UZJQOOVE4V","either","4","","","","","","","0","0","1","0.1164074326","","0.8","0.4","0.6","0.2","","","","","0.1164074326","0.318117281","0.1464484126","0.2852030557","","","","","","","72","H","0","img/none_selected.jpg","","109","main_expt"
"447","","bandit","188","709748","0.0-149.0-0.0","87589326","wem/bandit_either","A259UZJQOOVE4V","either","4","","","","","","","0","0","1","0.3358587519","","0.8","0.4","0.6","0.2","","","","","0.1444451916","0.3358587519","0.1641354829","0.3392406975","","","","","","","74","J","1","","","110","main_expt"
"304","","bandit","189","711573","0.0-150.0-0.0","87589326","wem/bandit_either","A259UZJQOOVE4V","either","4","","","","","","","0","0","1","0.3031660534","","0.8","0.4","0.6","0.2","","","","","0.09905323685","0.3031660534","0.1386891192","0.3023411017","","","","","","","74","J","1","","","111","main_expt"
"393","","bandit","190","713486","0.0-151.0-0.0","87589326","wem/bandit_either","A259UZJQOOVE4V","either","4","","","","","","","0","0","1","0.1847512065","","0.8","0.4","0.6","0.2","","","","","0.09652445584","0.2773548355","0.1847512065","0.296849772","","","","","","","75","K","2","","","112","main_expt"
"424","","bandit","191","715455","0.0-152.0-0.0","87589326","wem/bandit_either","A259UZJQOOVE4V","either","4","","","","","","","0","0","1","0.1304555333","","0.8","0.4","0.6","0.2","","","","","0.09961189632","0.2370758425","0.1304555333","0.2673419259","","","","","","","75","K","2","","","113","main_expt"
"416","","bandit","192","717396","0.0-153.0-0.0","87589326","wem/bandit_either","A259UZJQOOVE4V","either","4","","","","","","","0","0","1","","0.1036139638","0.8","0.4","0.6","0.2","0.1036139638","0.1821928837","0.1770102637","0.2670531803","","","","","","","","","","","72","H","0","img/none_selected.jpg","","114","main_expt"
"353","","bandit","193","719276","0.0-154.0-0.0","87589326","wem/bandit_either","A259UZJQOOVE4V","either","4","","","","","","","0","0","1","","0.0968506792","0.8","0.4","0.6","0.2","0.0968506792","0.1315453283","0.1564651975","0.2825009356","","","","","","","","","","","72","H","0","img/none_selected.jpg","","115","main_expt"
"391","","bandit","194","721194","0.0-155.0-0.0","87589326","wem/bandit_either","A259UZJQOOVE4V","either","4","","","","","","","0","0","1","0.3237719372","","0.8","0.4","0.6","0.2","","","","","0.08782875681","0.1102777544","0.1665702367","0.3237719372","","","","","","","76","L","3","","","116","main_expt"
"390","","bandit","195","723108","0.0-156.0-0.0","87589326","wem/bandit_either","A259UZJQOOVE4V","either","4","","","","","","","0","0","1","0.3154846423","","0.8","0.4","0.6","0.2","","","","","0.06031800864","0.1101610351","0.1530687496","0.3154846423","","","","","","","76","L","3","","","117","main_expt"
"353","","bandit","196","724985","0.0-157.0-0.0","87589326","wem/bandit_either","A259UZJQOOVE4V","either","4","","","","","","","0","0","1","","0.2584508078","0.8","0.4","0.6","0.2","0.05633053331","0.122460482","0.1674206906","0.2584508078","","","","","","","","","","","76","L","3","","","118","main_expt"
"398","","bandit","197","726902","0.0-158.0-0.0","87589326","wem/bandit_either","A259UZJQOOVE4V","either","4","","","","","","","0","1","0","","0.1451868924","0.8","0.4","0.6","0.2","0.07530514027","0.1451868924","0.1990215448","0.2141905193","","","","","","","","","","","74","J","1","","","119","main_expt"
"379","","bandit","198","728808","0.0-159.0-0.0","87589326","wem/bandit_either","A259UZJQOOVE4V","either","4","","","","","","","0","0","1","","0.09092593383","0.8","0.4","0.6","0.2","0.09639595661","0.09092593383","0.2208640619","0.2341954374","","","","","","","","","","","74","J","1","","","120","main_expt"
"425","","bandit","199","730760","0.0-160.0-0.0","87589326","wem/bandit_either","A259UZJQOOVE4V","either","4","","","","","","","0","0","1","","0.1080456108","0.8","0.4","0.6","0.2","0.1421799471","0.1080456108","0.2602917539","0.1886372651","","","","","","","","","","","74","J","1","","","121","main_expt"
"389","","bandit","200","732675","0.0-161.0-0.0","87589326","wem/bandit_either","A259UZJQOOVE4V","either","4","","","","","","","1","0","0","0.2512498235","","0.8","0.4","0.6","0.2","","","","","0.1624760489","0.1169053248","0.2512498235","0.1597592322","","","","","","","75","K","2","","","122","main_expt"
"340","","bandit","201","734529","0.0-162.0-0.0","87589326","wem/bandit_either","A259UZJQOOVE4V","either","4","","","","","","","0","0","1","0.2266242761","","0.8","0.4","0.6","0.2","","","","","0.1640214383","0.1571594809","0.2266242761","0.1895266442","","","","","","","75","K","2","","","123","main_expt"
"330","","bandit","202","736387","0.0-163.0-0.0","87589326","wem/bandit_either","A259UZJQOOVE4V","either","4","","","","","","","0","0","1","","0.2373824638","0.8","0.4","0.6","0.2","0.2014340991","0.2231804049","0.2373824638","0.2042850732","","","","","","","","","","","75","K","2","","","124","main_expt"
"312","","bandit","203","738228","0.0-164.0-0.0","87589326","wem/bandit_either","A259UZJQOOVE4V","either","4","","","","","","","0","1","0","","0.2538727107","0.8","0.4","0.6","0.2","0.2229229076","0.2232794356","0.2538727107","0.1812515389","","","","","","","","","","","75","K","2","","","125","main_expt"
"359","","bandit","204","740112","0.0-165.0-0.0","87589326","wem/bandit_either","A259UZJQOOVE4V","either","4","","","","","","","0","0","1","","0.290219491","0.8","0.4","0.6","0.2","0.2324712723","0.2316903634","0.290219491","0.1694736183","","","","","","","","","","","75","K","2","","","126","main_expt"
"370","","bandit","205","741996","0.0-166.0-0.0","87589326","wem/bandit_either","A259UZJQOOVE4V","either","4","","","","","","","0","0","1","0.2337524142","","0.8","0.4","0.6","0.2","","","","","0.2628391623","0.2337524142","0.2542505169","0.1624528765","","","","","","","74","J","1","","","127","main_expt"
"339","","bandit","206","743851","0.0-167.0-0.0","87589326","wem/bandit_either","A259UZJQOOVE4V","either","4","","","","","","","0","0","1","","0.1632982916","0.8","0.4","0.6","0.2","0.2654356302","0.2198210178","0.2582316027","0.1632982916","","","","","","","","","","","76","L","3","","","128","main_expt"
"190","","bandit","207","745564","0.0-168.0-0.0","87589326","wem/bandit_either","A259UZJQOOVE4V","either","4","","","","","","","0","0","1","","0.2264598068","0.8","0.4","0.6","0.2","0.2070569149","0.2280168395","0.3267566011","0.2264598068","","","","","","","","","","","76","L","3","","","129","main_expt"
"301","","bandit","208","747387","0.0-169.0-0.0","87589326","wem/bandit_either","A259UZJQOOVE4V","either","4","","","","","","","0","1","0","","0.202760285","0.8","0.4","0.6","0.2","0.2579182239","0.243895296","0.3323271388","0.202760285","","","","","","","","","","","76","L","3","","","130","main_expt"
"367","","bandit","209","749290","0.0-170.0-0.0","87589326","wem/bandit_either","A259UZJQOOVE4V","either","4","","","","","","","0","0","1","","0.1585094705","0.8","0.4","0.6","0.2","0.2329110821","0.2164454501","0.2666668646","0.1585094705","","","","","","","","","","","76","L","3","","","131","main_expt"
"485","","bandit","210","751304","0.0-171.0-0.0","87589326","wem/bandit_either","A259UZJQOOVE4V","either","4","","","","","","","0","0","1","","0.1304261544","0.8","0.4","0.6","0.2","0.2400232435","0.200468731","0.2359119393","0.1304261544","","","","","","","","","","","76","L","3","","","132","main_expt"
"369","","bandit","211","753200","0.0-172.0-0.0","87589326","wem/bandit_either","A259UZJQOOVE4V","either","4","","","","","","","0","0","1","","0.09339990826","0.8","0.4","0.6","0.2","0.2084798617","0.2038597077","0.2540740643","0.09339990826","","","","","","","","","","","76","L","3","","","133","main_expt"
"407","","bandit","212","755133","0.0-173.0-0.0","87589326","wem/bandit_either","A259UZJQOOVE4V","either","4","","","","","","","0","0","1","0.2034544","","0.8","0.4","0.6","0.2","","","","","0.2034544","0.2263269307","0.2414927735","0.08524612959","","","","","","","72","H","0","img/none_selected.jpg","","134","main_expt"
"312","","bandit","213","756958","0.0-174.0-0.0","87589326","wem/bandit_either","A259UZJQOOVE4V","either","4","","","","","","","0","0","1","0.2088958693","","0.8","0.4","0.6","0.2","","","","","0.2088958693","0.2686469146","0.2632369982","0.0622033461","","","","","","","72","H","0","img/none_selected.jpg","","135","main_expt"
"502","","bandit","214","758978","0.0-175.0-0.0","87589326","wem/bandit_either","A259UZJQOOVE4V","either","4","","","","","","","0","0","1","0.3170393738","","0.8","0.4","0.6","0.2","","","","","0.2573758916","0.3170393738","0.3032623762","0.05632890875","","","","","","","74","J","1","","","136","main_expt"
"399","","bandit","215","760893","0.0-176.0-0.0","87589326","wem/bandit_either","A259UZJQOOVE4V","either","4","","","","","","","0","1","0","","0.2984046037","0.8","0.4","0.6","0.2","0.2467438462","0.338962466","0.2984046037","0.06052980877","","","","","","","","","","","75","K","2","","","137","main_expt"
"391","","bandit","216","762811","0.0-177.0-0.0","87589326","wem/bandit_either","A259UZJQOOVE4V","either","4","","","","","","","0","0","1","0.3110629865","","0.8","0.4","0.6","0.2","","","","","0.2221944767","0.3586643031","0.3110629865","0.1038497792","","","","","","","75","K","2","","","138","main_expt"
"376","","bandit","217","764705","0.0-178.0-0.0","87589326","wem/bandit_either","A259UZJQOOVE4V","either","4","","","","","","","0","0","1","","0.3048373826","0.8","0.4","0.6","0.2","0.2750517365","0.3430902759","0.3048373826","0.08561062373","","","","","","","","","","","75","K","2","","","139","main_expt"
"500","","bandit","218","766730","0.0-179.0-0.0","87589326","wem/bandit_either","A259UZJQOOVE4V","either","4","","","","","","","0","0","1","0.3163642845","","0.8","0.4","0.6","0.2","","","","","0.277474309","0.3777112835","0.3163642845","0.08025295029","","","","","","","75","K","2","","","140","main_expt"
"474","","bandit","219","768729","0.0-180.0-0.0","87589326","wem/bandit_either","A259UZJQOOVE4V","either","4","","","","","","","0","0","1","0.4276051364","","0.8","0.4","0.6","0.2","","","","","0.2932007391","0.4276051364","0.2213861514","0.09309891757","","","","","","","74","J","1","","","141","main_expt"
"389","","bandit","220","770645","0.0-181.0-0.0","87589326","wem/bandit_either","A259UZJQOOVE4V","either","4","","","","","","","0","1","0","","0.4312347149","0.8","0.4","0.6","0.2","0.3001807938","0.4312347149","0.2492613222","0.1107976638","","","","","","","","","","","74","J","1","","","142","main_expt"
"387","","bandit","221","772543","0.0-182.0-0.0","87589326","wem/bandit_either","A259UZJQOOVE4V","either","4","","","","","","","0","0","1","","0.386657586","0.8","0.4","0.6","0.2","0.3640878437","0.386657586","0.2645663874","0.09575525052","","","","","","","","","","","74","J","1","","","143","main_expt"
"380","","bandit","222","774442","0.0-183.0-0.0","87589326","wem/bandit_either","A259UZJQOOVE4V","either","4","","","","","","","0","0","1","0.3409851627","","0.8","0.4","0.6","0.2","","","","","0.2706796495","0.3409851627","0.2928215939","0.07222794989","","","","","","","74","J","1","","","144","main_expt"
"320","","bandit","223","776288","0.0-184.0-0.0","87589326","wem/bandit_either","A259UZJQOOVE4V","either","4","","","","","","","1","0","0","0.3538709708","","0.8","0.4","0.6","0.2","","","","","0.2359726437","0.3538709708","0.3178979655","0.03203798906","","","","","","","74","J","1","","","145","main_expt"
"369","","bandit","224","778186","0.0-185.0-0.0","87589326","wem/bandit_either","A259UZJQOOVE4V","either","4","","","","","","","0","0","1","","0.2745956728","0.8","0.4","0.6","0.2","0.2200332621","0.2745956728","0.2850957273","0.03073079809","","","","","","","","","","","74","J","1","","","146","main_expt"
"544","","bandit","225","780252","0.0-186.0-0.0","87589326","wem/bandit_either","A259UZJQOOVE4V","either","4","","","","","","","0","0","1","","0.2375793476","0.8","0.4","0.6","0.2","0.1957794229","0.2375793476","0.2483519338","0.05105424151","","","","","","","","","","","74","J","1","","","147","main_expt"
"369","","bandit","226","782156","0.0-187.0-0.0","87589326","wem/bandit_either","A259UZJQOOVE4V","either","4","","","","","","","0","1","0","","0.2954602587","0.8","0.4","0.6","0.2","0.1790722045","0.2954602587","0.2309770791","0.04045355104","","","","","","","","","","","74","J","1","","","148","main_expt"
"339","","bandit","227","784007","0.0-188.0-0.0","87589326","wem/bandit_either","A259UZJQOOVE4V","either","4","","","","","","","1","0","0","0.3435099865","","0.8","0.4","0.6","0.2","","","","","0.2189150546","0.3435099865","0.1759049641","0.06416506337","","","","","","","74","J","1","","","149","main_expt"
"363","","bandit","228","785888","0.0-189.0-0.0","87589326","wem/bandit_either","A259UZJQOOVE4V","either","4","","","","","","","0","0","1","","0.268900415","0.8","0.4","0.6","0.2","0.2119229637","0.268900415","0.1910702346","0.07819388902","","","","","","","","","","","74","J","1","","","150","main_expt"
"362","","bandit","229","787778","0.0-190.0-0.0","87589326","wem/bandit_either","A259UZJQOOVE4V","either","4","","","","","","","1","0","0","0.2326488896","","0.8","0.4","0.6","0.2","","","","","0.2472398003","0.2326488896","0.1799178466","0.1186979887","","","","","","","74","J","1","","","151","main_expt"
"374","","bandit","230","789682","0.0-191.0-0.0","87589326","wem/bandit_either","A259UZJQOOVE4V","either","4","","","","","","","1","0","0","0.2768057641","","0.8","0.4","0.6","0.2","","","","","0.2148428051","0.2768057641","0.1826140084","0.1084773402","","","","","","","74","J","1","","","152","main_expt"
"376","","bandit","231","791593","0.0-192.0-0.0","87589326","wem/bandit_either","A259UZJQOOVE4V","either","4","","","","","","","0","0","1","","0.2997660112","0.8","0.4","0.6","0.2","0.1598057249","0.2997660112","0.147924298","0.1314289417","","","","","","","","","","","74","J","1","","","153","main_expt"
"433","","bandit","232","793539","0.0-193.0-0.0","87589326","wem/bandit_either","A259UZJQOOVE4V","either","4","","","","","","","0","0","1","0.1354051011","","0.8","0.4","0.6","0.2","","","","","0.1489099923","0.3196464983","0.1388357139","0.1354051011","","","","","","","76","L","3","","","154","main_expt"
"364","","bandit","233","795422","0.0-194.0-0.0","87589326","wem/bandit_either","A259UZJQOOVE4V","either","4","","","","","","","0","0","1","","0.1085215933","0.8","0.4","0.6","0.2","0.1502541116","0.3141654429","0.1658398244","0.1085215933","","","","","","","","","","","76","L","3","","","155","main_expt"
"760","","bandit","234","797725","0.0-195.0-0.0","87589326","wem/bandit_either","A259UZJQOOVE4V","either","4","","","","","","","0","0","1","0.1104921729","","0.8","0.4","0.6","0.2","","","","","0.1605084188","0.2667217688","0.1104921729","0.1383379057","","","","","","","75","K","2","","","156","main_expt"
"472","","bandit","235","799729","0.0-196.0-0.0","87589326","wem/bandit_either","A259UZJQOOVE4V","either","4","","","","","","","0","1","0","","0.2867075714","0.8","0.4","0.6","0.2","0.1684101418","0.2867075714","0.09530810267","0.1428990181","","","","","","","","","","","74","J","1","","","157","main_expt"
"364","","bandit","236","801615","0.0-197.0-0.0","87589326","wem/bandit_either","A259UZJQOOVE4V","either","4","","","","","","","0","1","0","","0.2788639118","0.8","0.4","0.6","0.2","0.1807688322","0.2788639118","0.1211627972","0.07455979893","","","","","","","","","","","74","J","1","","","158","main_expt"
"405","","bandit","237","803535","0.0-198.0-0.0","87589326","wem/bandit_either","A259UZJQOOVE4V","either","4","","","","","","","0","0","1","","0.3020710819","0.8","0.4","0.6","0.2","0.1516426412","0.3020710819","0.1012897464","0.1009372764","","","","","","","","","","","74","J","1","","","159","main_expt"
"399","","bandit","238","805472","0.0-199.0-0.0","87589326","wem/bandit_either","A259UZJQOOVE4V","either","4","","","","","","","0","0","1","","0.3404227007","0.8","0.4","0.6","0.2","0.1638698877","0.3404227007","0.1188035868","0.05118862797","","","","","","","","","","","74","J","1","","","160","main_expt"
"386","","bandit","239","807393","0.0-200.0-0.0","87589326","wem/bandit_either","A259UZJQOOVE4V","either","4","","","","","","","0","0","1","","0.2876249865","0.8","0.4","0.6","0.2","0.1645359983","0.2876249865","0.1606836622","0.05265847637","","","","","","","","","","","74","J","1","","","161","main_expt"
"418","","bandit","240","809330","0.0-201.0-0.0","87589326","wem/bandit_either","A259UZJQOOVE4V","either","4","","","","","","","0","0","1","0.2509918509","","0.8","0.4","0.6","0.2","","","","","0.2509918509","0.2401308511","0.1859884171","0.07938684611","","","","","","","72","H","0","img/none_selected.jpg","","162","main_expt"
"364","","bandit","241","811227","0.0-202.0-0.0","87589326","wem/bandit_either","A259UZJQOOVE4V","either","4","","","","","","","0","0","1","","0.0970900163","0.8","0.4","0.6","0.2","0.1883685458","0.2486605046","0.2528258464","0.0970900163","","","","","","","","","","","76","L","3","","","163","main_expt"
"379","","bandit","242","813134","0.0-203.0-0.0","87589326","wem/bandit_either","A259UZJQOOVE4V","either","4","","","","","","","0","0","1","","0.07401968201","0.8","0.4","0.6","0.2","0.2179532334","0.22675384","0.2515292425","0.07401968201","","","","","","","","","","","76","L","3","","","164","main_expt"
"465","","bandit","243","815129","0.0-204.0-0.0","87589326","wem/bandit_either","A259UZJQOOVE4V","either","4","","","","","","","0","0","1","","0.2143704678","0.8","0.4","0.6","0.2","0.2143704678","0.2841151948","0.2068970429","0.06633104104","","","","","","","","","","","72","H","0","img/none_selected.jpg","","165","main_expt"
"467","","bandit","244","817117","0.0-205.0-0.0","87589326","wem/bandit_either","A259UZJQOOVE4V","either","4","","","","","","","0","0","1","","0.1413778631","0.8","0.4","0.6","0.2","0.2175899085","0.2842980464","0.1413778631","0.05309652092","","","","","","","","","","","75","K","2","","","166","main_expt"
"413","","bandit","245","819060","0.0-206.0-0.0","87589326","wem/bandit_either","A259UZJQOOVE4V","either","4","","","","","","","1","0","0","0.1999497975","","0.8","0.4","0.6","0.2","","","","","0.2137120923","0.3007590714","0.1999497975","0.07357446968","","","","","","","75","K","2","","","167","main_expt"
"393","","bandit","246","820966","0.0-207.0-0.0","87589326","wem/bandit_either","A259UZJQOOVE4V","either","4","","","","","","","0","0","1","0.1696145944","","0.8","0.4","0.6","0.2","","","","","0.2331560811","0.2884936601","0.1696145944","0.1054325378","","","","","","","75","K","2","","","168","main_expt"
"430","","bandit","247","822916","0.0-208.0-0.0","87589326","wem/bandit_either","A259UZJQOOVE4V","either","4","","","","","","","0","0","1","0.1338518967","","0.8","0.4","0.6","0.2","","","","","0.2367963754","0.2803439438","0.1338518967","0.08536867429","","","","","","","75","K","2","","","169","main_expt"
"413","","bandit","248","824858","0.0-209.0-0.0","87589326","wem/bandit_either","A259UZJQOOVE4V","either","4","","","","","","","0","0","1","0.3010437192","","0.8","0.4","0.6","0.2","","","","","0.2378050175","0.3010437192","0.1307598277","0.1083432756","","","","","","","74","J","1","","","170","main_expt"
"436","","bandit","249","826827","0.0-210.0-0.0","87589326","wem/bandit_either","A259UZJQOOVE4V","either","4","","","","","","","0","0","1","","0.1200375331","0.8","0.4","0.6","0.2","0.2253696972","0.3243802095","0.1200375331","0.09185370626","","","","","","","","","","","75","K","2","","","171","main_expt"
"413","","bandit","250","828770","0.0-211.0-0.0","87589326","wem/bandit_either","A259UZJQOOVE4V","either","4","","","","","","","0","1","0","","0.3140094691","0.8","0.4","0.6","0.2","0.2903394368","0.3140094691","0.07514546963","0.09458096772","","","","","","","","","","","74","J","1","","","172","main_expt"
"332","","bandit","251","830632","0.0-212.0-0.0","87589326","wem/bandit_either","A259UZJQOOVE4V","either","4","","","","","","","0","0","1","","0.2433770114","0.8","0.4","0.6","0.2","0.2384828248","0.2433770114","0.07704486673","0.1016296913","","","","","","","","","","","74","J","1","","","173","main_expt"
"391","","bandit","252","832534","0.0-213.0-0.0","87589326","wem/bandit_either","A259UZJQOOVE4V","either","4","","","","","","","0","0","1","","0.2080779891","0.8","0.4","0.6","0.2","0.2823111034","0.2080779891","0.04061738922","0.117107939","","","","","","","","","","","74","J","1","","","174","main_expt"
"446","","bandit","253","834494","0.0-214.0-0.0","87589326","wem/bandit_either","A259UZJQOOVE4V","either","4","","","","","","","0","0","1","0.2211365803","","0.8","0.4","0.6","0.2","","","","","0.292147578","0.2211365803","0.02968316822","0.1254773658","","","","","","","74","J","1","","","175","main_expt"
"369","","bandit","254","836378","0.0-215.0-0.0","87589326","wem/bandit_either","A259UZJQOOVE4V","either","4","","","","","","","0","0","1","0.04419366322","","0.8","0.4","0.6","0.2","","","","","0.2928295457","0.231280906","0.04419366322","0.1518856622","","","","","","","75","K","2","","","176","main_expt"
"366","","bandit","255","838263","0.0-216.0-0.0","87589326","wem/bandit_either","A259UZJQOOVE4V","either","4","","","","","","","0","0","1","","0.1502483312","0.8","0.4","0.6","0.2","0.297241693","0.1689881391","0.04140429262","0.1502483312","","","","","","","","","","","76","L","3","","","177","main_expt"
"354","","bandit","256","840146","0.0-217.0-0.0","87589326","wem/bandit_either","A259UZJQOOVE4V","either","4","","","","","","","0","0","1","","0.2073149786","0.8","0.4","0.6","0.2","0.276241128","0.1699404395","0.06103489621","0.2073149786","","","","","","","","","","","76","L","3","","","178","main_expt"
"320","","bandit","257","841997","0.0-218.0-0.0","87589326","wem/bandit_either","A259UZJQOOVE4V","either","4","","","","","","","0","0","1","","0.1928578162","0.8","0.4","0.6","0.2","0.2405339857","0.1571972967","0.053608248","0.1928578162","","","","","","","","","","","76","L","3","","","179","main_expt"
"644","","bandit","258","844157","0.0-219.0-0.0","87589326","wem/bandit_either","A259UZJQOOVE4V","either","4","","","","","","","1","0","0","0.233428307","","0.8","0.4","0.6","0.2","","","","","0.233428307","0.1567782565","0.06289379635","0.1412953234","","","","","","","72","H","0","img/none_selected.jpg","","180","main_expt"
"400","","bandit","259","846084","0.0-220.0-0.0","87589326","wem/bandit_either","A259UZJQOOVE4V","either","4","","","","","","","0","0","1","0.1459310114","","0.8","0.4","0.6","0.2","","","","","0.1459310114","0.1492691696","0.07748386732","0.1258774719","","","","","","","72","H","0","img/none_selected.jpg","","181","main_expt"
"363","","bandit","260","847961","0.0-221.0-0.0","87589326","wem/bandit_either","A259UZJQOOVE4V","either","4","","","","","","","1","0","0","0.1796360657","","0.8","0.4","0.6","0.2","","","","","0.1796360657","0.1609613705","0.096714051","0.1121960069","","","","","","","72","H","0","img/none_selected.jpg","","182","main_expt"
"367","","bandit","261","849861","0.0-222.0-0.0","87589326","wem/bandit_either","A259UZJQOOVE4V","either","4","","","","","","","0","0","1","0.1907874973","","0.8","0.4","0.6","0.2","","","","","0.1907874973","0.1982891881","0.05351369794","0.08335286121","","","","","","","72","H","0","img/none_selected.jpg","","183","main_expt"
"382","","bandit","262","851772","0.0-223.0-0.0","87589326","wem/bandit_either","A259UZJQOOVE4V","either","4","","","","","","","0","0","1","0.1451627339","","0.8","0.4","0.6","0.2","","","","","0.1451627339","0.1703318442","0.08854511538","0.1085923678","","","","","","","72","H","0","img/none_selected.jpg","","184","main_expt"
"446","","bandit","263","853751","0.0-224.0-0.0","87589326","wem/bandit_either","A259UZJQOOVE4V","either","4","","","","","","","0","0","1","","0.1113654269","0.8","0.4","0.6","0.2","0.1692531577","0.09566746086","0.136385666","0.1113654269","","","","","","","","","","","76","L","3","","","185","main_expt"
"380","","bandit","264","855660","0.0-225.0-0.0","87589326","wem/bandit_either","A259UZJQOOVE4V","either","4","","","","","","","0","0","1","0.1254261761","","0.8","0.4","0.6","0.2","","","","","0.1885113298","0.1254261761","0.1848043888","0.1383531569","","","","","","","74","J","1","","","186","main_expt"
"351","","bandit","265","857527","0.0-226.0-0.0","87589326","wem/bandit_either","A259UZJQOOVE4V","either","4","","","","","","","0","0","1","","0.1081798115","0.8","0.4","0.6","0.2","0.2088125345","0.1081798115","0.1640989128","0.1739713275","","","","","","","","","","","74","J","1","","","187","main_expt"
"366","","bandit","266","859422","0.0-227.0-0.0","87589326","wem/bandit_either","A259UZJQOOVE4V","either","4","","","","","","","0","0","1","0.2228369986","","0.8","0.4","0.6","0.2","","","","","0.2228369986","0.08529062399","0.1301402021","0.1926366302","","","","","","","72","H","0","img/none_selected.jpg","","188","main_expt"
"353","","bandit","267","861297","0.0-228.0-0.0","87589326","wem/bandit_either","A259UZJQOOVE4V","either","4","","","","","","","0","0","1","","0.2567428292","0.8","0.4","0.6","0.2","0.2567428292","0.07250281893","0.1980942663","0.2499935398","","","","","","","","","","","72","H","0","img/none_selected.jpg","","189","main_expt"
"394","","bandit","268","863222","0.0-229.0-0.0","87589326","wem/bandit_either","A259UZJQOOVE4V","either","4","","","","","","","0","0","1","","0.1842725295","0.8","0.4","0.6","0.2","0.3177850294","0.07895395147","0.1842725295","0.2367317824","","","","","","","","","","","75","K","2","","","190","main_expt"
"360","","bandit","269","865131","0.0-230.0-0.0","87589326","wem/bandit_either","A259UZJQOOVE4V","either","4","","","","","","","0","0","1","0.2087081259","","0.8","0.4","0.6","0.2","","","","","0.2876912335","0.06204701637","0.2087081259","0.2515026666","","","","","","","75","K","2","","","191","main_expt"
"367","","bandit","270","867022","0.0-231.0-0.0","87589326","wem/bandit_either","A259UZJQOOVE4V","either","4","","","","","","","0","0","1","0.064067899","","0.8","0.4","0.6","0.2","","","","","0.2383873749","0.064067899","0.1800110976","0.2451916405","","","","","","","74","J","1","","","192","main_expt"
"394","","bandit","271","868934","0.0-232.0-0.0","87589326","wem/bandit_either","A259UZJQOOVE4V","either","4","","","","","","","0","0","1","0.1286650472","","0.8","0.4","0.6","0.2","","","","","0.24690957","0.1286650472","0.1519186298","0.2353451433","","","","","","","74","J","1","","","193","main_expt"
"306","","bandit","272","870770","0.0-233.0-0.0","87589326","wem/bandit_either","A259UZJQOOVE4V","either","4","","","","","","","0","0","1","0.1746490116","","0.8","0.4","0.6","0.2","","","","","0.2728455101","0.1746490116","0.1431656489","0.307075739","","","","","","","74","J","1","","","194","main_expt"
"366","","bandit","273","872665","0.0-234.0-0.0","87589326","wem/bandit_either","A259UZJQOOVE4V","either","4","","","","","","","0","0","1","0.129035247","","0.8","0.4","0.6","0.2","","","","","0.2421292151","0.129035247","0.1868251083","0.3011001907","","","","","","","74","J","1","","","195","main_expt"
"395","","bandit","274","874577","0.0-235.0-0.0","87589326","wem/bandit_either","A259UZJQOOVE4V","either","4","","","","","","","0","0","1","0.09052040682","","0.8","0.4","0.6","0.2","","","","","0.2598052724","0.09052040682","0.176624335","0.2861216794","","","","","","","74","J","1","","","196","main_expt"
"474","","bandit","275","876583","0.0-236.0-0.0","87589326","wem/bandit_either","A259UZJQOOVE4V","either","4","","","","","","","0","1","0","","0.2383323772","0.8","0.4","0.6","0.2","0.2540930088","0.08675464884","0.2383323772","0.2121549007","","","","","","","","","","","75","K","2","","","197","main_expt"
"324","","bandit","276","878424","0.0-237.0-0.0","87589326","wem/bandit_either","A259UZJQOOVE4V","either","4","","","","","","","0","0","1","","0.260618614","0.8","0.4","0.6","0.2","0.2460150375","0.09429549835","0.260618614","0.260340052","","","","","","","","","","","75","K","2","","","198","main_expt"
"347","","bandit","277","880298","0.0-238.0-0.0","87589326","wem/bandit_either","A259UZJQOOVE4V","either","4","","","","","","","0","1","0","","0.2935067364","0.8","0.4","0.6","0.2","0.2217343644","0.09303778716","0.2935067364","0.3009562829","","","","","","","","","","","75","K","2","","","199","main_expt"
"400","","bandit","278","882230","0.0-239.0-0.0","87589326","wem/bandit_either","A259UZJQOOVE4V","either","4","","","","","","","0","0","1","0.362920627","","0.8","0.4","0.6","0.2","","","","","0.2830302048","0.07354084322","0.362920627","0.3430896668","","","","","","","75","K","2","","","200","main_expt"
"379","","bandit","279","884141","0.0-240.0-0.0","87589326","wem/bandit_either","A259UZJQOOVE4V","either","4","","","","","","","0","1","0","","0.3119044903","0.8","0.4","0.6","0.2","0.3175621279","0.08115367452","0.3119044903","0.2973668079","","","","","","","","","","","75","K","2","","","201","main_expt"
"507","","bandit","280","886178","0.0-241.0-0.0","87589326","wem/bandit_either","A259UZJQOOVE4V","either","4","","","","","","","0","0","1","","0.3095695708","0.8","0.4","0.6","0.2","0.3049471546","0.0774842685","0.3095695708","0.3219337599","","","","","","","","","","","75","K","2","","","202","main_expt"
"413","","bandit","281","888125","0.0-242.0-0.0","87589326","wem/bandit_either","A259UZJQOOVE4V","either","4","","","","","","","0","0","1","0.3005459379","","0.8","0.4","0.6","0.2","","","","","0.2975042969","0.09704724367","0.3005459379","0.3229991028","","","","","","","75","K","2","","","203","main_expt"
"383","","bandit","282","890038","0.0-243.0-0.0","87589326","wem/bandit_either","A259UZJQOOVE4V","either","4","","","","","","","0","0","1","","0.3077995671","0.8","0.4","0.6","0.2","0.2268457719","0.1224111047","0.3116824409","0.3077995671","","","","","","","","","","","76","L","3","","","204","main_expt"
"322","","bandit","283","891878","0.0-244.0-0.0","87589326","wem/bandit_either","A259UZJQOOVE4V","either","4","","","","","","","0","0","1","","0.3070199156","0.8","0.4","0.6","0.2","0.2582085449","0.1627664319","0.3291635812","0.3070199156","","","","","","","","","","","76","L","3","","","205","main_expt"
"328","","bandit","284","893736","0.0-245.0-0.0","87589326","wem/bandit_either","A259UZJQOOVE4V","either","4","","","","","","","0","0","1","","0.3109683939","0.8","0.4","0.6","0.2","0.2841247045","0.1604236747","0.4008790519","0.3109683939","","","","","","","","","","","76","L","3","","","206","main_expt"
"410","","bandit","285","895680","0.0-246.0-0.0","87589326","wem/bandit_either","A259UZJQOOVE4V","either","4","","","","","","","0","0","1","0.2845075958","","0.8","0.4","0.6","0.2","","","","","0.3333225396","0.126388554","0.4202180382","0.2845075958","","","","","","","76","L","3","","","207","main_expt"
"369","","bandit","286","897576","0.0-247.0-0.0","87589326","wem/bandit_either","A259UZJQOOVE4V","either","4","","","","","","","0","0","1","0.290219871","","0.8","0.4","0.6","0.2","","","","","0.290219871","0.1602309633","0.4168586074","0.2419557814","","","","","","","72","H","0","img/none_selected.jpg","","208","main_expt"
"367","","bandit","287","899460","0.0-248.0-0.0","87589326","wem/bandit_either","A259UZJQOOVE4V","either","4","","","","","","","0","0","1","","0.2009997365","0.8","0.4","0.6","0.2","0.3426384504","0.2009997365","0.3949328033","0.2449545816","","","","","","","","","","","74","J","1","","","209","main_expt"
"354","","bandit","288","901348","0.0-249.0-0.0","87589326","wem/bandit_either","A259UZJQOOVE4V","either","4","","","","","","","0","0","1","0.1997114924","","0.8","0.4","0.6","0.2","","","","","0.2932754766","0.1997114924","0.41782505","0.2176860071","","","","","","","74","J","1","","","210","main_expt"
"391","","bandit","289","903271","0.0-250.0-0.0","87589326","wem/bandit_either","A259UZJQOOVE4V","either","4","","","","","","","1","0","0","0.4377941382","","0.8","0.4","0.6","0.2","","","","","0.2522206247","0.2631807131","0.4377941382","0.2460847292","","","","","","","75","K","2","","","211","main_expt"
"420","","bandit","290","905225","0.0-251.0-0.0","87589326","wem/bandit_either","A259UZJQOOVE4V","either","4","","","","","","","0","1","0","","0.4619006446","0.8","0.4","0.6","0.2","0.2323705111","0.2008991105","0.4619006446","0.2017704833","","","","","","","","","","","75","K","2","","","212","main_expt"
"475","","bandit","291","907233","0.0-252.0-0.0","87589326","wem/bandit_either","A259UZJQOOVE4V","either","4","","","","","","","0","0","1","0.4508737721","","0.8","0.4","0.6","0.2","","","","","0.2815580385","0.1656487101","0.4508737721","0.1891715169","","","","","","","75","K","2","","","213","main_expt"
"478","","bandit","292","909247","0.0-253.0-0.0","87589326","wem/bandit_either","A259UZJQOOVE4V","either","4","","","","","","","0","0","1","","0.4639731149","0.8","0.4","0.6","0.2","0.2955812139","0.213788386","0.4639731149","0.1819308411","","","","","","","","","","","75","K","2","","","214","main_expt"
"430","","bandit","293","911211","0.0-254.0-0.0","87589326","wem/bandit_either","A259UZJQOOVE4V","either","4","","","","","","","1","0","0","0.4690757113","","0.8","0.4","0.6","0.2","","","","","0.2988647484","0.2206736926","0.4690757113","0.1406935411","","","","","","","75","K","2","","","215","main_expt"
"419","","bandit","294","913162","0.0-255.0-0.0","87589326","wem/bandit_either","A259UZJQOOVE4V","either","4","","","","","","","1","0","0","0.4685680314","","0.8","0.4","0.6","0.2","","","","","0.3361974059","0.2270120675","0.4685680314","0.206739756","","","","","","","75","K","2","","","216","main_expt"
"448","","bandit","295","915141","0.0-256.0-0.0","87589326","wem/bandit_either","A259UZJQOOVE4V","either","4","","","","","","","0","0","1","0.4873952874","","0.8","0.4","0.6","0.2","","","","","0.2764506131","0.2561581829","0.4873952874","0.178624692","","","","","","","75","K","2","","","217","main_expt"
"402","","bandit","296","917061","0.0-257.0-0.0","87589326","wem/bandit_either","A259UZJQOOVE4V","either","4","","","","","","","1","0","0","0.4790671899","","0.8","0.4","0.6","0.2","","","","","0.299893698","0.2785758431","0.4790671899","0.2021641755","","","","","","","75","K","2","","","218","main_expt"
"414","","bandit","297","918991","0.0-258.0-0.0","87589326","wem/bandit_either","A259UZJQOOVE4V","either","4","","","","","","","0","0","1","0.4769795117","","0.8","0.4","0.6","0.2","","","","","0.3213687962","0.2707863597","0.4769795117","0.2076996705","","","","","","","75","K","2","","","219","main_expt"
"395","","bandit","298","920903","0.0-259.0-0.0","87589326","wem/bandit_either","A259UZJQOOVE4V","either","4","","","","","","","1","0","0","0.4746148145","","0.8","0.4","0.6","0.2","","","","","0.3782095139","0.2262269101","0.4746148145","0.2479045362","","","","","","","75","K","2","","","220","main_expt"
"467","","bandit","299","922904","0.0-260.0-0.0","87589326","wem/bandit_either","A259UZJQOOVE4V","either","4","","","","","","","1","0","0","0.4789253058","","0.8","0.4","0.6","0.2","","","","","0.3572699546","0.2522421151","0.4789253058","0.251163546","","","","","","","75","K","2","","","221","main_expt"
"412","","bandit","300","924845","0.0-261.0-0.0","87589326","wem/bandit_either","A259UZJQOOVE4V","either","4","","","","","","","0","1","0","","0.4765400837","0.8","0.4","0.6","0.2","0.332217079","0.2323100388","0.4765400837","0.2653622565","","","","","","","","","","","75","K","2","","","222","main_expt"
"366","","bandit","301","926730","0.0-262.0-0.0","87589326","wem/bandit_either","A259UZJQOOVE4V","either","4","","","","","","","0","0","1","0.4872993944","","0.8","0.4","0.6","0.2","","","","","0.3327789551","0.2013525365","0.4872993944","0.2034578964","","","","","","","75","K","2","","","223","main_expt"
"380","","bandit","302","928630","0.0-263.0-0.0","87589326","wem/bandit_either","A259UZJQOOVE4V","either","4","","","","","","","0","0","1","0.4864577786","","0.8","0.4","0.6","0.2","","","","","0.3720138676","0.2017363432","0.4864577786","0.1176985371","","","","","","","75","K","2","","","224","main_expt"
"417","","bandit","303","930567","0.0-264.0-0.0","87589326","wem/bandit_either","A259UZJQOOVE4V","either","4","","","","","","","1","0","0","0.4815865163","","0.8","0.4","0.6","0.2","","","","","0.4035982493","0.1608447522","0.4815865163","0.08531446518","","","","","","","75","K","2","","","225","main_expt"
"411","","bandit","304","932493","0.0-265.0-0.0","87589326","wem/bandit_either","A259UZJQOOVE4V","either","4","","","","","","","0","0","1","0.4781941344","","0.8","0.4","0.6","0.2","","","","","0.3538577565","0.2023183299","0.4781941344","0.0901010045","","","","","","","75","K","2","","","226","main_expt"
"393","","bandit","305","934406","0.0-266.0-0.0","87589326","wem/bandit_either","A259UZJQOOVE4V","either","4","","","","","","","1","0","0","0.4742279627","","0.8","0.4","0.6","0.2","","","","","0.4205879778","0.1555458008","0.4742279627","0.06499555022","","","","","","","75","K","2","","","227","main_expt"
"377","","bandit","306","936309","0.0-267.0-0.0","87589326","wem/bandit_either","A259UZJQOOVE4V","either","4","","","","","","","1","0","0","0.4597327255","","0.8","0.4","0.6","0.2","","","","","0.4082381823","0.1210896773","0.4597327255","0.06967502077","","","","","","","75","K","2","","","228","main_expt"
"418","","bandit","307","938260","0.0-268.0-0.0","87589326","wem/bandit_either","A259UZJQOOVE4V","either","4","","","","","","","1","0","0","0.4733003713","","0.8","0.4","0.6","0.2","","","","","0.4274963613","0.1206830913","0.4733003713","0.07642173418","","","","","","","75","K","2","","","229","main_expt"
"444","","bandit","308","940237","0.0-269.0-0.0","87589326","wem/bandit_either","A259UZJQOOVE4V","either","4","","","","","","","1","0","0","0.4832022084","","0.8","0.4","0.6","0.2","","","","","0.4362488765","0.1334008039","0.4832022084","0.04973788902","","","","","","","75","K","2","","","230","main_expt"
"421","","bandit","309","942191","0.0-270.0-0.0","87589326","wem/bandit_either","A259UZJQOOVE4V","either","4","","","","","","","0","1","0","","0.4802630573","0.8","0.4","0.6","0.2","0.4420629534","0.1048467088","0.4802630573","0.07419495466","","","","","","","","","","","75","K","2","","","231","main_expt"
"422","","bandit","310","944143","0.0-271.0-0.0","87589326","wem/bandit_either","A259UZJQOOVE4V","either","4","","","","","","","0","1","0","","0.4739318499","0.8","0.4","0.6","0.2","0.4287414635","0.1184002818","0.4739318499","0.08125260149","","","","","","","","","","","75","K","2","","","232","main_expt"
"414","","bandit","311","946089","0.0-272.0-0.0","87589326","wem/bandit_either","A259UZJQOOVE4V","either","4","","","","","","","1","0","0","0.4709765286","","0.8","0.4","0.6","0.2","","","","","0.4395511981","0.08533064469","0.4709765286","0.06057073796","","","","","","","75","K","2","","","233","main_expt"
"393","","bandit","312","948011","0.0-273.0-0.0","87589326","wem/bandit_either","A259UZJQOOVE4V","either","4","","","","","","","0","0","1","0.4658145356","","0.8","0.4","0.6","0.2","","","","","0.4479240545","0.1190123434","0.4658145356","0.1037411708","","","","","","","75","K","2","","","234","main_expt"
"390","","bandit","313","949923","0.0-274.0-0.0","87589326","wem/bandit_either","A259UZJQOOVE4V","either","4","","","","","","","0","0","1","0.4312508187","","0.8","0.4","0.6","0.2","","","","","0.4476644646","0.1392024459","0.4312508187","0.1267441937","","","","","","","75","K","2","","","235","main_expt"
"349","","bandit","314","951806","0.0-275.0-0.0","87589326","wem/bandit_either","A259UZJQOOVE4V","either","4","","","","","","","1","0","0","0.4323277229","","0.8","0.4","0.6","0.2","","","","","0.457106966","0.1076242464","0.4323277229","0.1002206095","","","","","","","75","K","2","","","236","main_expt"
"462","","bandit","315","953804","0.0-276.0-0.0","87589326","wem/bandit_either","A259UZJQOOVE4V","either","4","","","","","","","1","0","0","0.4517679415","","0.8","0.4","0.6","0.2","","","","","0.4097288684","0.1539911713","0.4517679415","0.08353940566","","","","","","","75","K","2","","","237","main_expt"
"384","","bandit","316","955719","0.0-277.0-0.0","87589326","wem/bandit_either","A259UZJQOOVE4V","either","4","","","","","","","0","0","1","0.4476427196","","0.8","0.4","0.6","0.2","","","","","0.4530646831","0.1833253983","0.4476427196","0.07847158511","","","","","","","75","K","2","","","238","main_expt"
"394","","bandit","317","957643","0.0-278.0-0.0","87589326","wem/bandit_either","A259UZJQOOVE4V","either","4","","","","","","","0","0","1","0.4421551546","","0.8","0.4","0.6","0.2","","","","","0.4532148127","0.185515968","0.4421551546","0.1132310855","","","","","","","75","K","2","","","239","main_expt"
"437","","bandit","318","959599","0.0-279.0-0.0","87589326","wem/bandit_either","A259UZJQOOVE4V","either","4","","","","","","","1","0","0","0.4205303603","","0.8","0.4","0.6","0.2","","","","","0.4456906816","0.2545144829","0.4205303603","0.130249024","","","","","","","75","K","2","","","240","main_expt"
"403","","bandit","319","961519","0.0-280.0-0.0","87589326","wem/bandit_either","A259UZJQOOVE4V","either","4","","","","","","","1","0","0","0.4304808994","","0.8","0.4","0.6","0.2","","","","","0.4515134246","0.1902236802","0.4304808994","0.1356270161","","","","","","","75","K","2","","","241","main_expt"
"442","","bandit","320","963496","0.0-281.0-0.0","87589326","wem/bandit_either","A259UZJQOOVE4V","either","4","","","","","","","0","0","1","","0.4318168925","0.8","0.4","0.6","0.2","0.4640222466","0.2196571485","0.4318168925","0.1402569013","","","","","","","","","","","75","K","2","","","242","main_expt"
"320","","bandit","321","965340","0.0-282.0-0.0","87589326","wem/bandit_either","A259UZJQOOVE4V","either","4","","","","","","","0","0","1","","0.4437639365","0.8","0.4","0.6","0.2","0.4305348251","0.2691755858","0.4437639365","0.1851652895","","","","","","","","","","","75","K","2","","","243","main_expt"
"419","","bandit","322","967297","0.0-283.0-0.0","87589326","wem/bandit_either","A259UZJQOOVE4V","either","4","","","","","","","0","0","1","0.2689580194","","0.8","0.4","0.6","0.2","","","","","0.4444417595","0.2689580194","0.4444545885","0.1871667761","","","","","","","74","J","1","","","244","main_expt"
"338","","bandit","323","969177","0.0-284.0-0.0","87589326","wem/bandit_either","A259UZJQOOVE4V","either","4","","","","","","","0","0","1","","0.1935089033","0.8","0.4","0.6","0.2","0.4468105605","0.1935089033","0.445216333","0.1881322931","","","","","","","","","","","74","J","1","","","245","main_expt"
"387","","bandit","324","971101","0.0-285.0-0.0","87589326","wem/bandit_either","A259UZJQOOVE4V","either","4","","","","","","","0","0","1","0.4767449203","","0.8","0.4","0.6","0.2","","","","","0.4453418505","0.1466547275","0.4767449203","0.187853128","","","","","","","75","K","2","","","246","main_expt"
"421","","bandit","325","973044","0.0-286.0-0.0","87589326","wem/bandit_either","A259UZJQOOVE4V","either","4","","","","","","","0","0","1","","0.1952756904","0.8","0.4","0.6","0.2","0.4426138654","0.1275107348","0.4530054638","0.1952756904","","","","","","","","","","","76","L","3","","","247","main_expt"
"337","","bandit","326","974901","0.0-287.0-0.0","87589326","wem/bandit_either","A259UZJQOOVE4V","either","4","","","","","","","0","0","1","0.1722543521","","0.8","0.4","0.6","0.2","","","","","0.464375056","0.107785627","0.4326938674","0.1722543521","","","","","","","76","L","3","","","248","main_expt"
"347","","bandit","327","976785","0.0-288.0-0.0","87589326","wem/bandit_either","A259UZJQOOVE4V","either","4","","","","","","","0","1","0","","0.1935833679","0.8","0.4","0.6","0.2","0.4416705694","0.1169449123","0.4276367863","0.1935833679","","","","","","","","","","","76","L","3","","","249","main_expt"
"379","","bandit","328","978696","0.0-289.0-0.0","87589326","wem/bandit_either","A259UZJQOOVE4V","either","4","","","","","","","0","0","1","","0.1783221165","0.8","0.4","0.6","0.2","0.4352039605","0.1474950258","0.4602627553","0.1783221165","","","","","","","","","","","76","L","3","","","250","main_expt"
"380","","bandit","329","980609","0.0-290.0-0.0","87589326","wem/bandit_either","A259UZJQOOVE4V","either","4","","","","","","","0","0","1","","0.2191654692","0.8","0.4","0.6","0.2","0.4625669079","0.1272017844","0.4429671406","0.2191654692","","","","","","","","","","","76","L","3","","","251","main_expt"
"335","","bandit","330","982480","0.0-291.0-0.0","87589326","wem/bandit_either","A259UZJQOOVE4V","either","4","","","","","","","0","1","0","","0.2357097141","0.8","0.4","0.6","0.2","0.4714010403","0.1383509771","0.4423062834","0.2357097141","","","","","","","","","","","76","L","3","","","252","main_expt"
"426","","bandit","331","984425","0.0-292.0-0.0","87589326","wem/bandit_either","A259UZJQOOVE4V","either","4","","","","","","","0","0","1","","0.214143541","0.8","0.4","0.6","0.2","0.4487775435","0.1251389104","0.4509963191","0.214143541","","","","","","","","","","","76","L","3","","","253","main_expt"
"374","","bandit","332","986322","0.0-293.0-0.0","87589326","wem/bandit_either","A259UZJQOOVE4V","either","4","","","","","","","0","0","1","","0.2603333519","0.8","0.4","0.6","0.2","0.4801031999","0.1660910957","0.4552381636","0.2603333519","","","","","","","","","","","76","L","3","","","254","main_expt"
"427","","bandit","333","988283","0.0-294.0-0.0","87589326","wem/bandit_either","A259UZJQOOVE4V","either","4","","","","","","","0","0","1","","0.2904938923","0.8","0.4","0.6","0.2","0.4710832431","0.1691625935","0.4535988902","0.2904938923","","","","","","","","","","","76","L","3","","","255","main_expt"
"379","","bandit","334","990198","0.0-295.0-0.0","87589326","wem/bandit_either","A259UZJQOOVE4V","either","4","","","","","","","0","0","1","","0.4557922487","0.8","0.4","0.6","0.2","0.4557922487","0.1404895313","0.4245319916","0.3362296119","","","","","","","","","","","72","H","0","img/none_selected.jpg","","256","main_expt"
