"rt","responses","trial_type","trial_index","time_elapsed","internal_node_id","subjID","study","MID","cond","drift","key_press","expt_phase","target","like","value","connected","gems","bombs","no_reward","GemPrChosen","BombPrChosen","GainOverPainPr_0","GainOverPainPr_1","GainOverPainPr_2","GainOverPainPr_3","LosePr_0","LosePr_1","LosePr_2","LosePr_3","WinPr_0","WinPr_1","WinPr_2","WinPr_3","Q0","Q1","Q2","gender","age","ethnicity","respCharCode","respKey","respChoiceNum","respChoice","practice","trial_counter","trial_label"
"11390","{""Q0"":""A36T4UBLY7PC5B""}","survey-text","0","11399","0.0-0.0","88625619","wem/bandit_either","A36T4UBLY7PC5B","either","3","","","","","","","","","","","","","","","","","","","","","","","","","","","","","","","","","","","",""
"9328","","text","1","21731","0.0-1.0","88625619","wem/bandit_either","A36T4UBLY7PC5B","either","3","32","","","","","","","","","","","","","","","","","","","","","","","","","","","","","","","","","","",""
"5673","","text","2","27406","0.0-2.0","88625619","wem/bandit_either","A36T4UBLY7PC5B","either","3","32","","","","","","","","","","","","","","","","","","","","","","","","","","","","","","","","","","",""
"12441","","text","3","39848","0.0-3.0","88625619","wem/bandit_either","A36T4UBLY7PC5B","either","3","32","","","","","","","","","","","","","","","","","","","","","","","","","","","","","","","","","","",""
"37521","","text","4","77371","0.0-4.0","88625619","wem/bandit_either","A36T4UBLY7PC5B","either","3","32","","","","","","","","","","","","","","","","","","","","","","","","","","","","","","","","","","",""
"23008","","text","5","100383","0.0-5.0","88625619","wem/bandit_either","A36T4UBLY7PC5B","either","3","32","","","","","","","","","","","","","","","","","","","","","","","","","","","","","","","","","","",""
"7251","","text","6","107636","0.0-6.0","88625619","wem/bandit_either","A36T4UBLY7PC5B","either","3","32","","","","","","","","","","","","","","","","","","","","","","","","","","","","","","","","","","",""
"2675","","text","7","110313","0.0-7.0","88625619","wem/bandit_either","A36T4UBLY7PC5B","either","3","32","","","","","","","","","","","","","","","","","","","","","","","","","","","","","","","","","","",""
"7824","","identification","8","118155","0.0-8.0-0.0","88625619","wem/bandit_either","A36T4UBLY7PC5B","either","3","","identification_pre","the village of Zur","","","","","","","","","","","","","","","","","","","","","","","","","","","","","","","","",""
"6241","","identification","9","125413","0.0-8.0-1.0","88625619","wem/bandit_either","A36T4UBLY7PC5B","either","3","","identification_pre","the village of Nyx","","","","","","","","","","","","","","","","","","","","","","","","","","","","","","","","",""
"8676","","text","10","135093","0.0-9.0","88625619","wem/bandit_either","A36T4UBLY7PC5B","either","3","32","","","","","","","","","","","","","","","","","","","","","","","","","","","","","","","","","","",""
"3795","","text","11","138890","0.0-10.0","88625619","wem/bandit_either","A36T4UBLY7PC5B","either","3","32","","","","","","","","","","","","","","","","","","","","","","","","","","","","","","","","","","",""
"2500","","text","12","141391","0.0-11.0","88625619","wem/bandit_either","A36T4UBLY7PC5B","either","3","32","","","","","","","","","","","","","","","","","","","","","","","","","","","","","","","","","","",""
"3509","","text","13","144902","0.0-12.0","88625619","wem/bandit_either","A36T4UBLY7PC5B","either","3","32","","","","","","","","","","","","","","","","","","","","","","","","","","","","","","","","","","",""
"1751","","bandit","14","148161","0.0-13.0-0.0","88625619","wem/bandit_either","A36T4UBLY7PC5B","either","3","","","","","","","0","0","1","0","0","","","","","0","","","","0","","","","","","","","","","74","J","0","img/none_selected_demo.jpg","true","0",""
"1877","","bandit","15","151553","0.0-14.0-0.0","88625619","wem/bandit_either","A36T4UBLY7PC5B","either","3","","","","","","","0","0","1","0","0","","","","","0","","","","0","","","","","","","","","","75","K","0","img/none_selected_demo.jpg","true","0",""
"9607","","text","16","161162","0.0-15.0","88625619","wem/bandit_either","A36T4UBLY7PC5B","either","3","32","","","","","","","","","","","","","","","","","","","","","","","","","","","","","","","","","","",""
"39400","","text","17","200566","0.0-16.0","88625619","wem/bandit_either","A36T4UBLY7PC5B","either","3","32","","","","","","","","","","","","","","","","","","","","","","","","","","","","","","","","","","",""
"6836","","text","18","207406","0.0-17.0","88625619","wem/bandit_either","A36T4UBLY7PC5B","either","3","32","","","","","","","","","","","","","","","","","","","","","","","","","","","","","","","","","","",""
"5475","","text","19","212883","0.0-18.0","88625619","wem/bandit_either","A36T4UBLY7PC5B","either","3","32","","","","","","","","","","","","","","","","","","","","","","","","","","","","","","","","","","",""
"1591","","bandit","20","215982","0.0-19.0-0.0","88625619","wem/bandit_either","A36T4UBLY7PC5B","either","3","","","","","","","0","1","0","","0.8","0.5","0.5","","","0.8","0.2","","","","","","","","","","","","","74","J","0","img/none_selected_demo.jpg","true","0","80_20_practice"
"847","","bandit","21","218336","0.0-19.0-1.0","88625619","wem/bandit_either","A36T4UBLY7PC5B","either","3","","","","","","","0","0","1","0.8","","0.5","0.5","","","","","","","0.8","0.2","","","","","","","","","74","J","0","img/none_selected_demo.jpg","true","0","80_20_practice"
"381","","bandit","22","220223","0.0-19.0-2.0","88625619","wem/bandit_either","A36T4UBLY7PC5B","either","3","","","","","","","0","0","1","","0.8","0.5","0.5","","","0.8","0.2","","","","","","","","","","","","","74","J","0","img/none_selected_demo.jpg","true","0","80_20_practice"
"276","","bandit","23","222006","0.0-19.0-3.0","88625619","wem/bandit_either","A36T4UBLY7PC5B","either","3","","","","","","","0","0","1","","0.8","0.5","0.5","","","0.8","0.2","","","","","","","","","","","","","74","J","0","img/none_selected_demo.jpg","true","0","80_20_practice"
"332","","bandit","24","223841","0.0-19.0-4.0","88625619","wem/bandit_either","A36T4UBLY7PC5B","either","3","","","","","","","1","0","0","0.8","","0.5","0.5","","","","","","","0.8","0.2","","","","","","","","","74","J","0","img/none_selected_demo.jpg","true","0","80_20_practice"
"511","","bandit","25","225858","0.0-19.0-5.0","88625619","wem/bandit_either","A36T4UBLY7PC5B","either","3","","","","","","","0","0","1","0.8","","0.5","0.5","","","","","","","0.8","0.2","","","","","","","","","74","J","0","img/none_selected_demo.jpg","true","0","80_20_practice"
"315","","bandit","26","227679","0.0-19.0-6.0","88625619","wem/bandit_either","A36T4UBLY7PC5B","either","3","","","","","","","0","0","1","","0.2","0.5","0.5","","","0.8","0.2","","","","","","","","","","","","","75","K","1","","true","0","80_20_practice"
"342","","bandit","27","229528","0.0-19.0-7.0","88625619","wem/bandit_either","A36T4UBLY7PC5B","either","3","","","","","","","0","0","1","0.2","","0.5","0.5","","","","","","","0.8","0.2","","","","","","","","","75","K","1","","true","0","80_20_practice"
"307","","bandit","28","231376","0.0-19.0-8.0","88625619","wem/bandit_either","A36T4UBLY7PC5B","either","3","","","","","","","0","0","1","0.2","","0.5","0.5","","","","","","","0.8","0.2","","","","","","","","","75","K","1","","true","0","80_20_practice"
"0","","bandit","29","232883","0.0-19.0-9.0","88625619","wem/bandit_either","A36T4UBLY7PC5B","either","3","","","","","","","0","1","0","","0.8","0.5","0.5","","","0.8","0.2","","","","","","","","","","","","","74","J","0","img/none_selected_demo.jpg","true","0","80_20_practice"
"363","","bandit","30","234750","0.0-19.0-10.0","88625619","wem/bandit_either","A36T4UBLY7PC5B","either","3","","","","","","","0","1","0","","0.8","0.5","0.5","","","0.8","0.2","","","","","","","","","","","","","74","J","0","img/none_selected_demo.jpg","true","0","80_20_practice"
"2233","","bandit","31","238490","0.0-19.0-11.0","88625619","wem/bandit_either","A36T4UBLY7PC5B","either","3","","","","","","","1","0","0","0.8","","0.5","0.5","","","","","","","0.8","0.2","","","","","","","","","74","J","0","img/none_selected_demo.jpg","true","0","80_20_practice"
"621","","bandit","32","240617","0.0-19.0-12.0","88625619","wem/bandit_either","A36T4UBLY7PC5B","either","3","","","","","","","0","1","0","","0.8","0.5","0.5","","","0.8","0.2","","","","","","","","","","","","","74","J","0","img/none_selected_demo.jpg","true","0","80_20_practice"
"446","","bandit","33","242568","0.0-19.0-13.0","88625619","wem/bandit_either","A36T4UBLY7PC5B","either","3","","","","","","","1","0","0","0.8","","0.5","0.5","","","","","","","0.8","0.2","","","","","","","","","74","J","0","img/none_selected_demo.jpg","true","0","80_20_practice"
"353","","bandit","34","244547","0.0-19.0-14.0","88625619","wem/bandit_either","A36T4UBLY7PC5B","either","3","","","","","","","0","0","1","","0.8","0.5","0.5","","","0.8","0.2","","","","","","","","","","","","","74","J","0","img/none_selected_demo.jpg","true","0","80_20_practice"
"340","","bandit","35","246394","0.0-19.0-15.0","88625619","wem/bandit_either","A36T4UBLY7PC5B","either","3","","","","","","","0","0","1","0.8","","0.5","0.5","","","","","","","0.8","0.2","","","","","","","","","74","J","0","img/none_selected_demo.jpg","true","0","80_20_practice"
"512","","bandit","36","248412","0.0-19.0-16.0","88625619","wem/bandit_either","A36T4UBLY7PC5B","either","3","","","","","","","1","0","0","0.8","","0.5","0.5","","","","","","","0.8","0.2","","","","","","","","","74","J","0","img/none_selected_demo.jpg","true","0","80_20_practice"
"403","","bandit","37","250322","0.0-19.0-17.0","88625619","wem/bandit_either","A36T4UBLY7PC5B","either","3","","","","","","","0","1","0","","0.8","0.5","0.5","","","0.8","0.2","","","","","","","","","","","","","74","J","0","img/none_selected_demo.jpg","true","0","80_20_practice"
"338","","bandit","38","252168","0.0-19.0-18.0","88625619","wem/bandit_either","A36T4UBLY7PC5B","either","3","","","","","","","0","1","0","","0.8","0.5","0.5","","","0.8","0.2","","","","","","","","","","","","","74","J","0","img/none_selected_demo.jpg","true","0","80_20_practice"
"181","","bandit","39","253855","0.0-19.0-19.0","88625619","wem/bandit_either","A36T4UBLY7PC5B","either","3","","","","","","","0","1","0","","0.8","0.5","0.5","","","0.8","0.2","","","","","","","","","","","","","74","J","0","img/none_selected_demo.jpg","true","0","80_20_practice"
"4839","","text","40","258697","0.0-20.0","88625619","wem/bandit_either","A36T4UBLY7PC5B","either","3","32","","","","","","","","","","","","","","","","","","","","","","","","","","","","","","","","","","",""
"1163","","bandit","41","261367","0.0-21.0-0.0","88625619","wem/bandit_either","A36T4UBLY7PC5B","either","3","","","","","","","1","0","0","1","0","","","","","0","1","","","1","0","","","","","","","","","74","J","0","img/none_selected_demo.jpg","true","0",""
"4852","","text","42","266220","0.0-22.0","88625619","wem/bandit_either","A36T4UBLY7PC5B","either","3","32","","","","","","","","","","","","","","","","","","","","","","","","","","","","","","","","","","",""
"5253","","text","43","271474","0.0-23.0","88625619","wem/bandit_either","A36T4UBLY7PC5B","either","3","32","","","","","","","","","","","","","","","","","","","","","","","","","","","","","","","","","","",""
"1846","","text","44","273323","0.0-24.0","88625619","wem/bandit_either","A36T4UBLY7PC5B","either","3","32","","","","","","","","","","","","","","","","","","","","","","","","","","","","","","","","","","",""
"32904","","text","45","306234","0.0-25.0","88625619","wem/bandit_either","A36T4UBLY7PC5B","either","3","32","","","","","","","","","","","","","","","","","","","","","","","","","","","","","","","","","","",""
"21531","","text","46","327781","0.0-26.0","88625619","wem/bandit_either","A36T4UBLY7PC5B","either","3","32","","","","","","","","","","","","","","","","","","","","","","","","","","","","","","","","","","",""
"3556","","text","47","331347","0.0-27.0","88625619","wem/bandit_either","A36T4UBLY7PC5B","either","3","32","","","","","","","","","","","","","","","","","","","","","","","","","","","","","","","","","","",""
"3892","","text","48","335244","0.0-28.0","88625619","wem/bandit_either","A36T4UBLY7PC5B","either","3","32","","","","","","","","","","","","","","","","","","","","","","","","","","","","","","","","","","",""
"3654","","text","49","338903","0.0-29.0","88625619","wem/bandit_either","A36T4UBLY7PC5B","either","3","32","","","","","","","","","","","","","","","","","","","","","","","","","","","","","","","","","","",""
"1943","","text","50","340850","0.0-30.0","88625619","wem/bandit_either","A36T4UBLY7PC5B","either","3","32","","","","","","","","","","","","","","","","","","","","","","","","","","","","","","","","","","",""
"1386","","text","51","342241","0.0-31.0","88625619","wem/bandit_either","A36T4UBLY7PC5B","either","3","32","","","","","","","","","","","","","","","","","","","","","","","","","","","","","","","","","","",""
"2374","","text","52","344620","0.0-32.0","88625619","wem/bandit_either","A36T4UBLY7PC5B","either","3","32","","","","","","","","","","","","","","","","","","","","","","","","","","","","","","","","","","",""
"1478","","bandit","53","347621","0.0-33.0-0.0","88625619","wem/bandit_either","A36T4UBLY7PC5B","either","3","","","","","","","0","1","0","","0.8","0.5","0.5","0.5","0.5","0.8","0.2","0.6","0.2","","","","","","","","","","","72","H","0","img/none_selected.jpg","true","0","full_practice"
"267","","bandit","54","349561","0.0-33.0-1.0","88625619","wem/bandit_either","A36T4UBLY7PC5B","either","3","","","","","","","1","0","0","0.8","","0.5","0.5","0.5","0.5","","","","","0.8","0.2","0.6","0.2","","","","","","","72","H","0","img/none_selected.jpg","true","0","full_practice"
"324","","bandit","55","351399","0.0-33.0-2.0","88625619","wem/bandit_either","A36T4UBLY7PC5B","either","3","","","","","","","1","0","0","0.8","","0.5","0.5","0.5","0.5","","","","","0.8","0.2","0.6","0.2","","","","","","","72","H","0","img/none_selected.jpg","true","0","full_practice"
"312","","bandit","56","353222","0.0-33.0-3.0","88625619","wem/bandit_either","A36T4UBLY7PC5B","either","3","","","","","","","1","0","0","0.8","","0.5","0.5","0.5","0.5","","","","","0.8","0.2","0.6","0.2","","","","","","","72","H","0","img/none_selected.jpg","true","0","full_practice"
"347","","bandit","57","355080","0.0-33.0-4.0","88625619","wem/bandit_either","A36T4UBLY7PC5B","either","3","","","","","","","0","0","1","0.8","","0.5","0.5","0.5","0.5","","","","","0.8","0.2","0.6","0.2","","","","","","","72","H","0","img/none_selected.jpg","true","0","full_practice"
"463","","bandit","58","357247","0.0-33.0-5.0","88625619","wem/bandit_either","A36T4UBLY7PC5B","either","3","","","","","","","0","0","1","","0.8","0.5","0.5","0.5","0.5","0.8","0.2","0.6","0.2","","","","","","","","","","","72","H","0","img/none_selected.jpg","true","0","full_practice"
"488","","bandit","59","359249","0.0-33.0-6.0","88625619","wem/bandit_either","A36T4UBLY7PC5B","either","3","","","","","","","0","1","0","","0.8","0.5","0.5","0.5","0.5","0.8","0.2","0.6","0.2","","","","","","","","","","","72","H","0","img/none_selected.jpg","true","0","full_practice"
"1219","","bandit","60","362157","0.0-33.0-7.0","88625619","wem/bandit_either","A36T4UBLY7PC5B","either","3","","","","","","","0","1","0","","0.8","0.5","0.5","0.5","0.5","0.8","0.2","0.6","0.2","","","","","","","","","","","72","H","0","img/none_selected.jpg","true","0","full_practice"
"561","","bandit","61","364234","0.0-33.0-8.0","88625619","wem/bandit_either","A36T4UBLY7PC5B","either","3","","","","","","","1","0","0","0.8","","0.5","0.5","0.5","0.5","","","","","0.8","0.2","0.6","0.2","","","","","","","72","H","0","img/none_selected.jpg","true","0","full_practice"
"408","","bandit","62","366155","0.0-33.0-9.0","88625619","wem/bandit_either","A36T4UBLY7PC5B","either","3","","","","","","","0","0","1","0.8","","0.5","0.5","0.5","0.5","","","","","0.8","0.2","0.6","0.2","","","","","","","72","H","0","img/none_selected.jpg","true","0","full_practice"
"321","","bandit","63","368012","0.0-33.0-10.0","88625619","wem/bandit_either","A36T4UBLY7PC5B","either","3","","","","","","","0","0","1","0.8","","0.5","0.5","0.5","0.5","","","","","0.8","0.2","0.6","0.2","","","","","","","72","H","0","img/none_selected.jpg","true","0","full_practice"
"907","","bandit","64","370461","0.0-33.0-11.0","88625619","wem/bandit_either","A36T4UBLY7PC5B","either","3","","","","","","","0","1","0","","0.8","0.5","0.5","0.5","0.5","0.8","0.2","0.6","0.2","","","","","","","","","","","72","H","0","img/none_selected.jpg","true","0","full_practice"
"396","","bandit","65","372370","0.0-33.0-12.0","88625619","wem/bandit_either","A36T4UBLY7PC5B","either","3","","","","","","","1","0","0","0.8","","0.5","0.5","0.5","0.5","","","","","0.8","0.2","0.6","0.2","","","","","","","72","H","0","img/none_selected.jpg","true","0","full_practice"
"734","","bandit","66","374651","0.0-33.0-13.0","88625619","wem/bandit_either","A36T4UBLY7PC5B","either","3","","","","","","","1","0","0","0.8","","0.5","0.5","0.5","0.5","","","","","0.8","0.2","0.6","0.2","","","","","","","72","H","0","img/none_selected.jpg","true","0","full_practice"
"647","","bandit","67","376919","0.0-33.0-14.0","88625619","wem/bandit_either","A36T4UBLY7PC5B","either","3","","","","","","","1","0","0","0.8","","0.5","0.5","0.5","0.5","","","","","0.8","0.2","0.6","0.2","","","","","","","72","H","0","img/none_selected.jpg","true","0","full_practice"
"197","","bandit","68","378630","0.0-33.0-15.0","88625619","wem/bandit_either","A36T4UBLY7PC5B","either","3","","","","","","","1","0","0","0.8","","0.5","0.5","0.5","0.5","","","","","0.8","0.2","0.6","0.2","","","","","","","72","H","0","img/none_selected.jpg","true","0","full_practice"
"644","","bandit","69","380787","0.0-33.0-16.0","88625619","wem/bandit_either","A36T4UBLY7PC5B","either","3","","","","","","","1","0","0","0.8","","0.5","0.5","0.5","0.5","","","","","0.8","0.2","0.6","0.2","","","","","","","72","H","0","img/none_selected.jpg","true","0","full_practice"
"2748","","bandit","70","385049","0.0-33.0-17.0","88625619","wem/bandit_either","A36T4UBLY7PC5B","either","3","","","","","","","0","0","1","0.8","","0.5","0.5","0.5","0.5","","","","","0.8","0.2","0.6","0.2","","","","","","","72","H","0","img/none_selected.jpg","true","0","full_practice"
"5290","","bandit","71","391971","0.0-33.0-18.0","88625619","wem/bandit_either","A36T4UBLY7PC5B","either","3","","","","","","","0","1","0","","0.8","0.5","0.5","0.5","0.5","0.8","0.2","0.6","0.2","","","","","","","","","","","72","H","0","img/none_selected.jpg","true","0","full_practice"
"2941","","bandit","72","396426","0.0-33.0-19.0","88625619","wem/bandit_either","A36T4UBLY7PC5B","either","3","","","","","","","0","0","1","","0.8","0.5","0.5","0.5","0.5","0.8","0.2","0.6","0.2","","","","","","","","","","","72","H","0","img/none_selected.jpg","true","0","full_practice"
"5202","","text","73","401643","0.0-34.0","88625619","wem/bandit_either","A36T4UBLY7PC5B","either","3","32","","","","","","","","","","","","","","","","","","","","","","","","","","","","","","","","","","",""
"13608","","text","74","416260","0.0-35.0","88625619","wem/bandit_either","A36T4UBLY7PC5B","either","3","32","","","","","","","","","","","","","","","","","","","","","","","","","","","","","","","","","","",""
"28343","","text","75","444609","0.0-36.0","88625619","wem/bandit_either","A36T4UBLY7PC5B","either","3","32","","","","","","","","","","","","","","","","","","","","","","","","","","","","","","","","","","",""
"2302","","text","76","446914","0.0-37.0","88625619","wem/bandit_either","A36T4UBLY7PC5B","either","3","32","","","","","","","","","","","","","","","","","","","","","","","","","","","","","","","","","","",""
"4427","","text","77","451344","0.0-38.0","88625619","wem/bandit_either","A36T4UBLY7PC5B","either","3","32","","","","","","","","","","","","","","","","","","","","","","","","","","","","","","","","","","",""
"3287","","text","78","454634","0.0-39.0","88625619","wem/bandit_either","A36T4UBLY7PC5B","either","3","32","","","","","","","","","","","","","","","","","","","","","","","","","","","","","","","","","","",""
"1454","","bandit","79","457608","0.0-40.0-0.0","88625619","wem/bandit_either","A36T4UBLY7PC5B","either","3","","","","","","","1","0","0","0.1646489015","","0.8","0.6","0.2","0.4","","","","","0.1646489015","0.07685641067","0.1426046982","0.4870892339","","","","","","","72","H","0","img/none_selected.jpg","","1","main_expt"
"1182","","bandit","80","460313","0.0-41.0-0.0","88625619","wem/bandit_either","A36T4UBLY7PC5B","either","3","","","","","","","0","0","1","0.2180431119","","0.8","0.6","0.2","0.4","","","","","0.2180431119","0.08388143876","0.1597004976","0.4875162112","","","","","","","72","H","0","img/none_selected.jpg","","2","main_expt"
"381","","bandit","81","462201","0.0-42.0-0.0","88625619","wem/bandit_either","A36T4UBLY7PC5B","either","3","","","","","","","1","0","0","0.2294217256","","0.8","0.6","0.2","0.4","","","","","0.2294217256","0.06528774038","0.1381850853","0.4909945117","","","","","","","72","H","0","img/none_selected.jpg","","3","main_expt"
"461","","bandit","82","464172","0.0-43.0-0.0","88625619","wem/bandit_either","A36T4UBLY7PC5B","either","3","","","","","","","0","1","0","","0.2162119515","0.8","0.6","0.2","0.4","0.2162119515","0.07987899881","0.1787932262","0.482579304","","","","","","","","","","","72","H","0","img/none_selected.jpg","","4","main_expt"
"406","","bandit","83","466087","0.0-44.0-0.0","88625619","wem/bandit_either","A36T4UBLY7PC5B","either","3","","","","","","","0","0","1","","0.2246316054","0.8","0.6","0.2","0.4","0.2246316054","0.0432391811","0.1795032464","0.4887913002","","","","","","","","","","","72","H","0","img/none_selected.jpg","","5","main_expt"
"527","","bandit","84","468121","0.0-45.0-0.0","88625619","wem/bandit_either","A36T4UBLY7PC5B","either","3","","","","","","","1","0","0","0.2061018479","","0.8","0.6","0.2","0.4","","","","","0.2061018479","0.03467601655","0.164375756","0.4887860333","","","","","","","72","H","0","img/none_selected.jpg","","6","main_expt"
"377","","bandit","85","470004","0.0-46.0-0.0","88625619","wem/bandit_either","A36T4UBLY7PC5B","either","3","","","","","","","1","0","0","0.1795347326","","0.8","0.6","0.2","0.4","","","","","0.1795347326","0.05033951668","0.204957223","0.4901971563","","","","","","","72","H","0","img/none_selected.jpg","","7","main_expt"
"335","","bandit","86","471845","0.0-47.0-0.0","88625619","wem/bandit_either","A36T4UBLY7PC5B","either","3","","","","","","","1","0","0","0.1290452752","","0.8","0.6","0.2","0.4","","","","","0.1290452752","0.07676355645","0.2162036531","0.4862230721","","","","","","","72","H","0","img/none_selected.jpg","","8","main_expt"
"80","","bandit","87","473432","0.0-48.0-0.0","88625619","wem/bandit_either","A36T4UBLY7PC5B","either","3","","","","","","","0","0","1","0.1559184374","","0.8","0.6","0.2","0.4","","","","","0.1559184374","0.08620859221","0.2167418122","0.4759730645","","","","","","","72","H","0","img/none_selected.jpg","","9","main_expt"
"355","","bandit","88","475295","0.0-49.0-0.0","88625619","wem/bandit_either","A36T4UBLY7PC5B","either","3","","","","","","","0","0","1","","0.1381514788","0.8","0.6","0.2","0.4","0.1381514788","0.1103839657","0.1607923637","0.4560980466","","","","","","","","","","","72","H","0","img/none_selected.jpg","","10","main_expt"
"299","","bandit","89","477101","0.0-50.0-0.0","88625619","wem/bandit_either","A36T4UBLY7PC5B","either","3","","","","","","","0","0","1","","0.1271140015","0.8","0.6","0.2","0.4","0.1271140015","0.1334948588","0.1386410957","0.4775116046","","","","","","","","","","","72","H","0","img/none_selected.jpg","","11","main_expt"
"279","","bandit","90","478888","0.0-51.0-0.0","88625619","wem/bandit_either","A36T4UBLY7PC5B","either","3","","","","","","","0","0","1","0.1854664659","","0.8","0.6","0.2","0.4","","","","","0.1854664659","0.1535602519","0.1718380738","0.4705073552","","","","","","","72","H","0","img/none_selected.jpg","","12","main_expt"
"275","","bandit","91","480669","0.0-52.0-0.0","88625619","wem/bandit_either","A36T4UBLY7PC5B","either","3","","","","","","","0","0","1","0.1869952656","","0.8","0.6","0.2","0.4","","","","","0.1869952656","0.127854239","0.1686303413","0.4851887342","","","","","","","72","H","0","img/none_selected.jpg","","13","main_expt"
"301","","bandit","92","482478","0.0-53.0-0.0","88625619","wem/bandit_either","A36T4UBLY7PC5B","either","3","","","","","","","0","0","1","0.1507911491","","0.8","0.6","0.2","0.4","","","","","0.2035171393","0.1507911491","0.1460019496","0.4731273917","","","","","","","74","J","1","","","14","main_expt"
"337","","bandit","93","484326","0.0-54.0-0.0","88625619","wem/bandit_either","A36T4UBLY7PC5B","either","3","","","","","","","0","0","1","0.1741212098","","0.8","0.6","0.2","0.4","","","","","0.2800299461","0.1741212098","0.1667614464","0.4585867004","","","","","","","74","J","1","","","15","main_expt"
"290","","bandit","94","486125","0.0-55.0-0.0","88625619","wem/bandit_either","A36T4UBLY7PC5B","either","3","","","","","","","0","0","1","0.1918308831","","0.8","0.6","0.2","0.4","","","","","0.2725454461","0.1918308831","0.1973644546","0.4366533258","","","","","","","74","J","1","","","16","main_expt"
"289","","bandit","95","487921","0.0-56.0-0.0","88625619","wem/bandit_either","A36T4UBLY7PC5B","either","3","","","","","","","0","0","1","0.1950212473","","0.8","0.6","0.2","0.4","","","","","0.1570621471","0.1950212473","0.1873415792","0.4405228744","","","","","","","74","J","1","","","17","main_expt"
"364","","bandit","96","489792","0.0-57.0-0.0","88625619","wem/bandit_either","A36T4UBLY7PC5B","either","3","","","","","","","0","0","1","","0.1875860444","0.8","0.6","0.2","0.4","0.1968188506","0.2094813194","0.1875860444","0.4678551263","","","","","","","","","","","75","K","2","","","18","main_expt"
"1034","","bandit","97","492336","0.0-58.0-0.0","88625619","wem/bandit_either","A36T4UBLY7PC5B","either","3","","","","","","","0","0","1","","0.1988439388","0.8","0.6","0.2","0.4","0.2439518204","0.2628959394","0.1988439388","0.466140525","","","","","","","","","","","75","K","2","","","19","main_expt"
"332","","bandit","98","494174","0.0-59.0-0.0","88625619","wem/bandit_either","A36T4UBLY7PC5B","either","3","","","","","","","0","1","0","","0.1813993393","0.8","0.6","0.2","0.4","0.2806117898","0.2116504525","0.1813993393","0.4094087999","","","","","","","","","","","75","K","2","","","20","main_expt"
"306","","bandit","99","495989","0.0-60.0-0.0","88625619","wem/bandit_either","A36T4UBLY7PC5B","either","3","","","","","","","0","0","1","","0.2012004452","0.8","0.6","0.2","0.4","0.2658005831","0.1904426465","0.2012004452","0.4386974508","","","","","","","","","","","75","K","2","","","21","main_expt"
"518","","bandit","100","498013","0.0-61.0-0.0","88625619","wem/bandit_either","A36T4UBLY7PC5B","either","3","","","","","","","0","0","1","","0.1958646163","0.8","0.6","0.2","0.4","0.2774390086","0.1581796968","0.1958646163","0.4505723784","","","","","","","","","","","75","K","2","","","22","main_expt"
"527","","bandit","101","500048","0.0-62.0-0.0","88625619","wem/bandit_either","A36T4UBLY7PC5B","either","3","","","","","","","0","0","1","0.4568000239","","0.8","0.6","0.2","0.4","","","","","0.2795917474","0.2039009352","0.2626819079","0.4568000239","","","","","","","76","L","3","","","23","main_expt"
"462","","bandit","102","502019","0.0-63.0-0.0","88625619","wem/bandit_either","A36T4UBLY7PC5B","either","3","","","","","","","0","0","1","0.4518339256","","0.8","0.6","0.2","0.4","","","","","0.2981059477","0.228339491","0.2906682881","0.4518339256","","","","","","","76","L","3","","","24","main_expt"
"280","","bandit","103","503807","0.0-64.0-0.0","88625619","wem/bandit_either","A36T4UBLY7PC5B","either","3","","","","","","","0","1","0","","0.4120159309","0.8","0.6","0.2","0.4","0.3272059922","0.2602465224","0.3270173502","0.4120159309","","","","","","","","","","","76","L","3","","","25","main_expt"
"197","","bandit","104","505512","0.0-65.0-0.0","88625619","wem/bandit_either","A36T4UBLY7PC5B","either","3","","","","","","","0","0","1","0.4134154185","","0.8","0.6","0.2","0.4","","","","","0.3369826645","0.1939420306","0.2951289915","0.4134154185","","","","","","","76","L","3","","","26","main_expt"
"1575","","bandit","105","508595","0.0-66.0-0.0","88625619","wem/bandit_either","A36T4UBLY7PC5B","either","3","","","","","","","0","0","1","","0.4031068294","0.8","0.6","0.2","0.4","0.2531212506","0.2387331149","0.3520126272","0.4031068294","","","","","","","","","","","76","L","3","","","27","main_expt"
"594","","bandit","106","510698","0.0-67.0-0.0","88625619","wem/bandit_either","A36T4UBLY7PC5B","either","3","","","","","","","0","0","1","0.2170461037","","0.8","0.6","0.2","0.4","","","","","0.2170461037","0.2183458617","0.3369287003","0.4305883772","","","","","","","72","H","0","img/none_selected.jpg","","28","main_expt"
"62","","bandit","107","512268","0.0-68.0-0.0","88625619","wem/bandit_either","A36T4UBLY7PC5B","either","3","","","","","","","1","0","0","0.2346211465","","0.8","0.6","0.2","0.4","","","","","0.2346211465","0.2151501268","0.3591799128","0.4383329838","","","","","","","72","H","0","img/none_selected.jpg","","29","main_expt"
"2478","","bandit","108","516253","0.0-69.0-0.0","88625619","wem/bandit_either","A36T4UBLY7PC5B","either","3","","","","","","","0","0","1","0.2450860663","","0.8","0.6","0.2","0.4","","","","","0.2450860663","0.2267233056","0.3324285477","0.4233276099","","","","","","","72","H","0","img/none_selected.jpg","","30","main_expt"
"133","","bandit","109","517897","0.0-70.0-0.0","88625619","wem/bandit_either","A36T4UBLY7PC5B","either","3","","","","","","","0","1","0","","0.2141169407","0.8","0.6","0.2","0.4","0.2141169407","0.2663701676","0.327032362","0.4016185005","","","","","","","","","","","72","H","0","img/none_selected.jpg","","31","main_expt"
"1825","","bandit","110","521229","0.0-71.0-0.0","88625619","wem/bandit_either","A36T4UBLY7PC5B","either","3","","","","","","","0","0","1","","0.2347854155","0.8","0.6","0.2","0.4","0.2347854155","0.275969473","0.3230905041","0.4134940178","","","","","","","","","","","72","H","0","img/none_selected.jpg","","32","main_expt"
"1193","","bandit","111","523932","0.0-72.0-0.0","88625619","wem/bandit_either","A36T4UBLY7PC5B","either","3","","","","","","","0","0","1","","0.246596708","0.8","0.6","0.2","0.4","0.246596708","0.3365270118","0.2969008969","0.4331174495","","","","","","","","","","","72","H","0","img/none_selected.jpg","","33","main_expt"
"233","","bandit","112","525672","0.0-73.0-0.0","88625619","wem/bandit_either","A36T4UBLY7PC5B","either","3","","","","","","","0","0","1","0.2916301021","","0.8","0.6","0.2","0.4","","","","","0.1914370393","0.2916301021","0.2536392951","0.4454497031","","","","","","","74","J","1","","","34","main_expt"
"280","","bandit","113","527460","0.0-74.0-0.0","88625619","wem/bandit_either","A36T4UBLY7PC5B","either","3","","","","","","","0","0","1","0.3236538836","","0.8","0.6","0.2","0.4","","","","","0.1408207185","0.3236538836","0.2336030597","0.4419706984","","","","","","","74","J","1","","","35","main_expt"
"403","","bandit","114","529371","0.0-75.0-0.0","88625619","wem/bandit_either","A36T4UBLY7PC5B","either","3","","","","","","","0","0","1","","0.3317439785","0.8","0.6","0.2","0.4","0.09539735145","0.3317439785","0.3110392291","0.4205940312","","","","","","","","","","","74","J","1","","","36","main_expt"
"324","","bandit","115","531204","0.0-76.0-0.0","88625619","wem/bandit_either","A36T4UBLY7PC5B","either","3","","","","","","","0","0","1","","0.3354302382","0.8","0.6","0.2","0.4","0.08867332122","0.3620900841","0.3354302382","0.4227305347","","","","","","","","","","","75","K","2","","","37","main_expt"
"271","","bandit","116","532984","0.0-77.0-0.0","88625619","wem/bandit_either","A36T4UBLY7PC5B","either","3","","","","","","","0","0","1","","0.3359947902","0.8","0.6","0.2","0.4","0.0804097964","0.3649119955","0.3359947902","0.3904174821","","","","","","","","","","","75","K","2","","","38","main_expt"
"242","","bandit","117","534734","0.0-78.0-0.0","88625619","wem/bandit_either","A36T4UBLY7PC5B","either","3","","","","","","","0","0","1","","0.3719467902","0.8","0.6","0.2","0.4","0.1092906338","0.3993258453","0.3719467902","0.3704092514","","","","","","","","","","","75","K","2","","","39","main_expt"
"170","","bandit","118","536412","0.0-79.0-0.0","88625619","wem/bandit_either","A36T4UBLY7PC5B","either","3","","","","","","","0","1","0","","0.3250394812","0.8","0.6","0.2","0.4","0.08771014895","0.43145226","0.37180955","0.3250394812","","","","","","","","","","","76","L","3","","","40","main_expt"
"358","","bandit","119","538280","0.0-80.0-0.0","88625619","wem/bandit_either","A36T4UBLY7PC5B","either","3","","","","","","","0","0","1","0.3633775572","","0.8","0.6","0.2","0.4","","","","","0.1065106481","0.3925837484","0.3972707938","0.3633775572","","","","","","","76","L","3","","","41","main_expt"
"666","","bandit","120","540455","0.0-81.0-0.0","88625619","wem/bandit_either","A36T4UBLY7PC5B","either","3","","","","","","","0","0","1","","0.3708570881","0.8","0.6","0.2","0.4","0.0926848955","0.4020613291","0.3981555674","0.3708570881","","","","","","","","","","","76","L","3","","","42","main_expt"
"634","","bandit","121","542597","0.0-82.0-0.0","88625619","wem/bandit_either","A36T4UBLY7PC5B","either","3","","","","","","","1","0","0","0.3852030547","","0.8","0.6","0.2","0.4","","","","","0.09213729174","0.4199094288","0.3698022864","0.3852030547","","","","","","","76","L","3","","","43","main_expt"
"426","","bandit","122","544604","0.0-83.0-0.0","88625619","wem/bandit_either","A36T4UBLY7PC5B","either","3","","","","","","","0","0","1","","0.3653477133","0.8","0.6","0.2","0.4","0.0950319608","0.4362917367","0.3278340923","0.3653477133","","","","","","","","","","","76","L","3","","","44","main_expt"
"1041","","bandit","123","547154","0.0-84.0-0.0","88625619","wem/bandit_either","A36T4UBLY7PC5B","either","3","","","","","","","0","0","1","","0.3423722135","0.8","0.6","0.2","0.4","0.07917944011","0.4310393502","0.4004869948","0.3423722135","","","","","","","","","","","76","L","3","","","45","main_expt"
"386","","bandit","124","549048","0.0-85.0-0.0","88625619","wem/bandit_either","A36T4UBLY7PC5B","either","3","","","","","","","0","0","1","","0.2713785315","0.8","0.6","0.2","0.4","0.08528552535","0.4301719659","0.4389658195","0.2713785315","","","","","","","","","","","76","L","3","","","46","main_expt"
"323","","bandit","125","550878","0.0-86.0-0.0","88625619","wem/bandit_either","A36T4UBLY7PC5B","either","3","","","","","","","0","0","1","0.2675382036","","0.8","0.6","0.2","0.4","","","","","0.08303267599","0.4274268526","0.4294918489","0.2675382036","","","","","","","76","L","3","","","47","main_expt"
"525","","bandit","126","552915","0.0-87.0-0.0","88625619","wem/bandit_either","A36T4UBLY7PC5B","either","3","","","","","","","0","0","1","0.3006553151","","0.8","0.6","0.2","0.4","","","","","0.1183490009","0.4559220927","0.3948346084","0.3006553151","","","","","","","76","L","3","","","48","main_expt"
"287","","bandit","127","554714","0.0-88.0-0.0","88625619","wem/bandit_either","A36T4UBLY7PC5B","either","3","","","","","","","1","0","0","0.2865645246","","0.8","0.6","0.2","0.4","","","","","0.09831357925","0.4362936898","0.4226663974","0.2865645246","","","","","","","76","L","3","","","49","main_expt"
"454","","bandit","128","556675","0.0-89.0-0.0","88625619","wem/bandit_either","A36T4UBLY7PC5B","either","3","","","","","","","0","1","0","","0.2842330123","0.8","0.6","0.2","0.4","0.0896163698","0.4001593617","0.3943232949","0.2842330123","","","","","","","","","","","76","L","3","","","50","main_expt"
"521","","bandit","129","558704","0.0-90.0-0.0","88625619","wem/bandit_either","A36T4UBLY7PC5B","either","3","","","","","","","1","0","0","0.2933637591","","0.8","0.6","0.2","0.4","","","","","0.08239790895","0.3737598101","0.3911898034","0.2933637591","","","","","","","76","L","3","","","51","main_expt"
"288","","bandit","130","560500","0.0-91.0-0.0","88625619","wem/bandit_either","A36T4UBLY7PC5B","either","3","","","","","","","0","0","1","0.2802127762","","0.8","0.6","0.2","0.4","","","","","0.06509061927","0.3490564905","0.3897106723","0.2802127762","","","","","","","76","L","3","","","52","main_expt"
"519","","bandit","131","562527","0.0-92.0-0.0","88625619","wem/bandit_either","A36T4UBLY7PC5B","either","3","","","","","","","1","0","0","0.2567133084","","0.8","0.6","0.2","0.4","","","","","0.05503049918","0.3606416198","0.3977919118","0.2567133084","","","","","","","76","L","3","","","53","main_expt"
"412","","bandit","132","564453","0.0-93.0-0.0","88625619","wem/bandit_either","A36T4UBLY7PC5B","either","3","","","","","","","0","0","1","","0.304436262","0.8","0.6","0.2","0.4","0.06606451817","0.3920172378","0.3803623479","0.304436262","","","","","","","","","","","76","L","3","","","54","main_expt"
"409","","bandit","133","566372","0.0-94.0-0.0","88625619","wem/bandit_either","A36T4UBLY7PC5B","either","3","","","","","","","0","0","1","","0.3050376594","0.8","0.6","0.2","0.4","0.0812436444","0.3841867886","0.3898030924","0.3050376594","","","","","","","","","","","76","L","3","","","55","main_expt"
"574","","bandit","134","568456","0.0-95.0-0.0","88625619","wem/bandit_either","A36T4UBLY7PC5B","either","3","","","","","","","0","0","1","0.05752214818","","0.8","0.6","0.2","0.4","","","","","0.05752214818","0.3752679739","0.4332266089","0.2874076515","","","","","","","72","H","0","img/none_selected.jpg","","56","main_expt"
"541","","bandit","135","570506","0.0-96.0-0.0","88625619","wem/bandit_either","A36T4UBLY7PC5B","either","3","","","","","","","0","0","1","0.05957573693","","0.8","0.6","0.2","0.4","","","","","0.05957573693","0.3595388075","0.4598680415","0.2633226407","","","","","","","72","H","0","img/none_selected.jpg","","57","main_expt"
"528","","bandit","136","572542","0.0-97.0-0.0","88625619","wem/bandit_either","A36T4UBLY7PC5B","either","3","","","","","","","0","1","0","","0.4510058242","0.8","0.6","0.2","0.4","0.08347810371","0.2926617498","0.4510058242","0.282557186","","","","","","","","","","","75","K","2","","","58","main_expt"
"286","","bandit","137","574335","0.0-98.0-0.0","88625619","wem/bandit_either","A36T4UBLY7PC5B","either","3","","","","","","","0","0","1","0.4587464736","","0.8","0.6","0.2","0.4","","","","","0.1166757522","0.2854140482","0.4587464736","0.2675679041","","","","","","","75","K","2","","","59","main_expt"
"39","","bandit","138","575885","0.0-99.0-0.0","88625619","wem/bandit_either","A36T4UBLY7PC5B","either","3","","","","","","","0","0","1","0.4534111386","","0.8","0.6","0.2","0.4","","","","","0.1223048521","0.2767785787","0.4534111386","0.2654645802","","","","","","","75","K","2","","","60","main_expt"
"182","","bandit","139","577576","0.0-100.0-0.0","88625619","wem/bandit_either","A36T4UBLY7PC5B","either","3","","","","","","","0","0","1","","0.4581751116","0.8","0.6","0.2","0.4","0.1341525672","0.3110110239","0.4581751116","0.2326588137","","","","","","","","","","","75","K","2","","","61","main_expt"
"552","","bandit","140","579669","0.0-101.0-0.0","88625619","wem/bandit_either","A36T4UBLY7PC5B","either","3","","","","","","","0","0","1","","0.4447189615","0.8","0.6","0.2","0.4","0.1748443247","0.2739379344","0.4447189615","0.2430345153","","","","","","","","","","","75","K","2","","","62","main_expt"
"254","","bandit","141","581432","0.0-102.0-0.0","88625619","wem/bandit_either","A36T4UBLY7PC5B","either","3","","","","","","","0","0","1","","0.2682261916","0.8","0.6","0.2","0.4","0.1872250423","0.2518438402","0.4351057758","0.2682261916","","","","","","","","","","","76","L","3","","","63","main_expt"
"315","","bandit","142","583305","0.0-103.0-0.0","88625619","wem/bandit_either","A36T4UBLY7PC5B","either","3","","","","","","","0","0","1","0.3136585585","","0.8","0.6","0.2","0.4","","","","","0.1592276408","0.216118181","0.4559228662","0.3136585585","","","","","","","76","L","3","","","64","main_expt"
"501","","bandit","143","585321","0.0-104.0-0.0","88625619","wem/bandit_either","A36T4UBLY7PC5B","either","3","","","","","","","0","0","1","","0.3208042698","0.8","0.6","0.2","0.4","0.1881419285","0.1961712117","0.4526438492","0.3208042698","","","","","","","","","","","76","L","3","","","65","main_expt"
"225","","bandit","144","587053","0.0-105.0-0.0","88625619","wem/bandit_either","A36T4UBLY7PC5B","either","3","","","","","","","0","1","0","","0.1821057022","0.8","0.6","0.2","0.4","0.2075830042","0.1821057022","0.4604690516","0.3550213758","","","","","","","","","","","74","J","1","","","66","main_expt"
"275","","bandit","145","588837","0.0-106.0-0.0","88625619","wem/bandit_either","A36T4UBLY7PC5B","either","3","","","","","","","1","0","0","0.2221692745","","0.8","0.6","0.2","0.4","","","","","0.210321401","0.2221692745","0.4479534522","0.2883445083","","","","","","","74","J","1","","","67","main_expt"
"218","","bandit","146","590565","0.0-107.0-0.0","88625619","wem/bandit_either","A36T4UBLY7PC5B","either","3","","","","","","","0","0","1","0.2385328342","","0.8","0.6","0.2","0.4","","","","","0.1740681144","0.2385328342","0.4420076102","0.2492112051","","","","","","","74","J","1","","","68","main_expt"
"411","","bandit","147","592491","0.0-108.0-0.0","88625619","wem/bandit_either","A36T4UBLY7PC5B","either","3","","","","","","","0","0","1","0.2693988132","","0.8","0.6","0.2","0.4","","","","","0.1495678232","0.2693988132","0.3840886122","0.1725364023","","","","","","","74","J","1","","","69","main_expt"
"148","","bandit","148","594148","0.0-109.0-0.0","88625619","wem/bandit_either","A36T4UBLY7PC5B","either","3","","","","","","","0","0","1","","0.3764426572","0.8","0.6","0.2","0.4","0.1594524764","0.2633889128","0.3764426572","0.2081322216","","","","","","","","","","","75","K","2","","","70","main_expt"
"453","","bandit","149","596109","0.0-110.0-0.0","88625619","wem/bandit_either","A36T4UBLY7PC5B","either","3","","","","","","","0","0","1","","0.2222096595","0.8","0.6","0.2","0.4","0.1308665948","0.2881785301","0.3925575972","0.2222096595","","","","","","","","","","","76","L","3","","","71","main_expt"
"333","","bandit","150","597950","0.0-111.0-0.0","88625619","wem/bandit_either","A36T4UBLY7PC5B","either","3","","","","","","","0","0","1","0.1413665491","","0.8","0.6","0.2","0.4","","","","","0.1413665491","0.3496752211","0.4055717031","0.2276413934","","","","","","","72","H","0","img/none_selected.jpg","","72","main_expt"
"250","","bandit","151","599711","0.0-112.0-0.0","88625619","wem/bandit_either","A36T4UBLY7PC5B","either","3","","","","","","","0","0","1","","0.3662649551","0.8","0.6","0.2","0.4","0.1562096843","0.3662649551","0.4313753627","0.202726327","","","","","","","","","","","74","J","1","","","73","main_expt"
"304","","bandit","152","601525","0.0-113.0-0.0","88625619","wem/bandit_either","A36T4UBLY7PC5B","either","3","","","","","","","0","1","0","","0.4294283137","0.8","0.6","0.2","0.4","0.1601549975","0.3318597218","0.4294283137","0.2465356434","","","","","","","","","","","75","K","2","","","74","main_expt"
"335","","bandit","153","603367","0.0-114.0-0.0","88625619","wem/bandit_either","A36T4UBLY7PC5B","either","3","","","","","","","0","0","1","","0.4114775526","0.8","0.6","0.2","0.4","0.1962365409","0.3129946244","0.4114775526","0.2780880013","","","","","","","","","","","75","K","2","","","75","main_expt"
"210","","bandit","154","605085","0.0-115.0-0.0","88625619","wem/bandit_either","A36T4UBLY7PC5B","either","3","","","","","","","0","0","1","0.4038916894","","0.8","0.6","0.2","0.4","","","","","0.2315068675","0.3299880354","0.4038916894","0.230570622","","","","","","","75","K","2","","","76","main_expt"
"396","","bandit","155","606990","0.0-116.0-0.0","88625619","wem/bandit_either","A36T4UBLY7PC5B","either","3","","","","","","","0","0","1","","0.1747897532","0.8","0.6","0.2","0.4","0.1749603823","0.2704336052","0.4028298088","0.1747897532","","","","","","","","","","","76","L","3","","","77","main_expt"
"512","","bandit","156","609012","0.0-117.0-0.0","88625619","wem/bandit_either","A36T4UBLY7PC5B","either","3","","","","","","","0","0","1","","0.2009150394","0.8","0.6","0.2","0.4","0.2091975686","0.2489008917","0.4004321452","0.2009150394","","","","","","","","","","","76","L","3","","","78","main_expt"
"645","","bandit","157","611165","0.0-118.0-0.0","88625619","wem/bandit_either","A36T4UBLY7PC5B","either","3","","","","","","","0","0","1","0.2699334682","","0.8","0.6","0.2","0.4","","","","","0.2699334682","0.2182462247","0.3909827091","0.2090883318","","","","","","","72","H","0","img/none_selected.jpg","","79","main_expt"
"289","","bandit","158","612963","0.0-119.0-0.0","88625619","wem/bandit_either","A36T4UBLY7PC5B","either","3","","","","","","","0","0","1","0.1591694045","","0.8","0.6","0.2","0.4","","","","","0.2712134299","0.1591694045","0.4289339141","0.215522018","","","","","","","74","J","1","","","80","main_expt"
"514","","bandit","159","614985","0.0-120.0-0.0","88625619","wem/bandit_either","A36T4UBLY7PC5B","either","3","","","","","","","0","0","1","0.4256341571","","0.8","0.6","0.2","0.4","","","","","0.2563236188","0.1661146317","0.4256341571","0.2655955182","","","","","","","75","K","2","","","81","main_expt"
"2143","","bandit","160","618637","0.0-121.0-0.0","88625619","wem/bandit_either","A36T4UBLY7PC5B","either","3","","","","","","","0","0","1","","0.2642342948","0.8","0.6","0.2","0.4","0.2474856626","0.2249160828","0.4153375647","0.2642342948","","","","","","","","","","","76","L","3","","","82","main_expt"
"867","","bandit","161","621014","0.0-122.0-0.0","88625619","wem/bandit_either","A36T4UBLY7PC5B","either","3","","","","","","","0","0","1","0.2338037125","","0.8","0.6","0.2","0.4","","","","","0.2338037125","0.2194800234","0.4239102097","0.2615040017","","","","","","","72","H","0","img/none_selected.jpg","","83","main_expt"
"1742","","bandit","162","624265","0.0-123.0-0.0","88625619","wem/bandit_either","A36T4UBLY7PC5B","either","3","","","","","","","0","0","1","0.2020024956","","0.8","0.6","0.2","0.4","","","","","0.2929655049","0.2020024956","0.4021041833","0.3136368113","","","","","","","74","J","1","","","84","main_expt"
"3171","","bandit","163","628946","0.0-124.0-0.0","88625619","wem/bandit_either","A36T4UBLY7PC5B","either","3","","","","","","","0","1","0","","0.4322374594","0.8","0.6","0.2","0.4","0.2755572306","0.1639230135","0.4322374594","0.2433538552","","","","","","","","","","","75","K","2","","","85","main_expt"
"284","","bandit","164","630738","0.0-125.0-0.0","88625619","wem/bandit_either","A36T4UBLY7PC5B","either","3","","","","","","","0","1","0","","0.4247618508","0.8","0.6","0.2","0.4","0.2706615249","0.1423092638","0.4247618508","0.2583740773","","","","","","","","","","","75","K","2","","","86","main_expt"
"83","","bandit","165","632331","0.0-126.0-0.0","88625619","wem/bandit_either","A36T4UBLY7PC5B","either","3","","","","","","","0","0","1","0.4130492334","","0.8","0.6","0.2","0.4","","","","","0.3259805539","0.1623313408","0.4130492334","0.2656778135","","","","","","","75","K","2","","","87","main_expt"
"125","","bandit","166","633966","0.0-127.0-0.0","88625619","wem/bandit_either","A36T4UBLY7PC5B","either","3","","","","","","","1","0","0","0.2565525481","","0.8","0.6","0.2","0.4","","","","","0.3471137027","0.1459946163","0.3883747858","0.2565525481","","","","","","","76","L","3","","","88","main_expt"
"248","","bandit","167","635724","0.0-128.0-0.0","88625619","wem/bandit_either","A36T4UBLY7PC5B","either","3","","","","","","","0","1","0","","0.2471999074","0.8","0.6","0.2","0.4","0.3715311126","0.1684807643","0.3950807547","0.2471999074","","","","","","","","","","","76","L","3","","","89","main_expt"
"290","","bandit","168","637525","0.0-129.0-0.0","88625619","wem/bandit_either","A36T4UBLY7PC5B","either","3","","","","","","","0","0","1","0.2204199549","","0.8","0.6","0.2","0.4","","","","","0.3571728809","0.1937692241","0.420982679","0.2204199549","","","","","","","76","L","3","","","90","main_expt"
"205","","bandit","169","639240","0.0-130.0-0.0","88625619","wem/bandit_either","A36T4UBLY7PC5B","either","3","","","","","","","0","0","1","0.3348642023","","0.8","0.6","0.2","0.4","","","","","0.3348642023","0.1670397906","0.4012606491","0.2013548925","","","","","","","72","H","0","img/none_selected.jpg","","91","main_expt"
"76","","bandit","170","640863","0.0-131.0-0.0","88625619","wem/bandit_either","A36T4UBLY7PC5B","either","3","","","","","","","0","0","1","","0.1936095216","0.8","0.6","0.2","0.4","0.3551195155","0.1936095216","0.3950870333","0.174921714","","","","","","","","","","","74","J","1","","","92","main_expt"
"279","","bandit","171","642652","0.0-132.0-0.0","88625619","wem/bandit_either","A36T4UBLY7PC5B","either","3","","","","","","","1","0","0","0.3797372222","","0.8","0.6","0.2","0.4","","","","","0.3494458231","0.2399824117","0.3797372222","0.1972058505","","","","","","","75","K","2","","","93","main_expt"
"276","","bandit","172","644437","0.0-133.0-0.0","88625619","wem/bandit_either","A36T4UBLY7PC5B","either","3","","","","","","","0","0","1","","0.3346339076","0.8","0.6","0.2","0.4","0.3759818745","0.242536602","0.3346339076","0.2144007407","","","","","","","","","","","75","K","2","","","94","main_expt"
"338","","bandit","173","646283","0.0-134.0-0.0","88625619","wem/bandit_either","A36T4UBLY7PC5B","either","3","","","","","","","0","0","1","","0.2025691914","0.8","0.6","0.2","0.4","0.3467088588","0.3081296623","0.3433005441","0.2025691914","","","","","","","","","","","76","L","3","","","95","main_expt"
"345","","bandit","174","648139","0.0-135.0-0.0","88625619","wem/bandit_either","A36T4UBLY7PC5B","either","3","","","","","","","0","0","1","","0.2900415689","0.8","0.6","0.2","0.4","0.3520186383","0.371766452","0.2900415689","0.1750118246","","","","","","","","","","","75","K","2","","","96","main_expt"
"308","","bandit","175","649957","0.0-136.0-0.0","88625619","wem/bandit_either","A36T4UBLY7PC5B","either","3","","","","","","","0","1","0","","0.3737721809","0.8","0.6","0.2","0.4","0.342216001","0.3737721809","0.3136050561","0.2433812568","","","","","","","","","","","74","J","1","","","97","main_expt"
"423","","bandit","176","651892","0.0-137.0-0.0","88625619","wem/bandit_either","A36T4UBLY7PC5B","either","3","","","","","","","0","0","1","","0.3775958225","0.8","0.6","0.2","0.4","0.3775958225","0.3662625892","0.3236610102","0.1834100281","","","","","","","","","","","72","H","0","img/none_selected.jpg","","98","main_expt"
"438","","bandit","177","653840","0.0-138.0-0.0","88625619","wem/bandit_either","A36T4UBLY7PC5B","either","3","","","","","","","0","0","1","","0.3912879072","0.8","0.6","0.2","0.4","0.3490624926","0.3912879072","0.3116662608","0.146161558","","","","","","","","","","","74","J","1","","","99","main_expt"
"352","","bandit","178","655703","0.0-139.0-0.0","88625619","wem/bandit_either","A36T4UBLY7PC5B","either","3","","","","","","","0","0","1","","0.3806420769","0.8","0.6","0.2","0.4","0.3418910903","0.3916888764","0.3806420769","0.1186266926","","","","","","","","","","","75","K","2","","","100","main_expt"
"32361","","bandit","179","689574","0.0-140.0-0.0","88625619","wem/bandit_either","A36T4UBLY7PC5B","either","3","","","","","","","0","0","1","","0.3825052475","0.8","0.6","0.2","0.4","0.3544055354","0.3803758031","0.3825052475","0.1467879228","","","","","","","","","","","75","K","2","","","101","main_expt"
"320","","bandit","180","691417","0.0-141.0-0.0","88625619","wem/bandit_either","A36T4UBLY7PC5B","either","3","","","","","","","0","0","1","","0.1336514036","0.8","0.6","0.2","0.4","0.3580864163","0.3685266224","0.3799327693","0.1336514036","","","","","","","","","","","76","L","3","","","102","main_expt"
"396","","bandit","181","693333","0.0-142.0-0.0","88625619","wem/bandit_either","A36T4UBLY7PC5B","either","3","","","","","","","1","0","0","0.336528594","","0.8","0.6","0.2","0.4","","","","","0.336528594","0.3754978655","0.3502018886","0.1325092095","","","","","","","72","H","0","img/none_selected.jpg","","103","main_expt"
"997","","bandit","182","695852","0.0-143.0-0.0","88625619","wem/bandit_either","A36T4UBLY7PC5B","either","3","","","","","","","0","0","1","0.3190078166","","0.8","0.6","0.2","0.4","","","","","0.3190078166","0.4033056484","0.3443431466","0.1162839287","","","","","","","72","H","0","img/none_selected.jpg","","104","main_expt"
"1639","","bandit","183","699177","0.0-144.0-0.0","88625619","wem/bandit_either","A36T4UBLY7PC5B","either","3","","","","","","","0","0","1","0.3100940773","","0.8","0.6","0.2","0.4","","","","","0.3100940773","0.3617388181","0.3551378046","0.115620258","","","","","","","72","H","0","img/none_selected.jpg","","105","main_expt"
"460","","bandit","184","701159","0.0-145.0-0.0","88625619","wem/bandit_either","A36T4UBLY7PC5B","either","3","","","","","","","0","0","1","0.3656875331","","0.8","0.6","0.2","0.4","","","","","0.2964842485","0.3656875331","0.3177956882","0.1102569517","","","","","","","74","J","1","","","106","main_expt"
"1234","","bandit","185","704043","0.0-146.0-0.0","88625619","wem/bandit_either","A36T4UBLY7PC5B","either","3","","","","","","","0","1","0","","0.3463124521","0.8","0.6","0.2","0.4","0.3224579283","0.3478183852","0.3463124521","0.110599846","","","","","","","","","","","75","K","2","","","107","main_expt"
"1217","","bandit","186","706782","0.0-147.0-0.0","88625619","wem/bandit_either","A36T4UBLY7PC5B","either","3","","","","","","","0","1","0","","0.330790185","0.8","0.6","0.2","0.4","0.3365568187","0.3715517583","0.330790185","0.1647947233","","","","","","","","","","","75","K","2","","","108","main_expt"
"1735","","bandit","187","710039","0.0-148.0-0.0","88625619","wem/bandit_either","A36T4UBLY7PC5B","either","3","","","","","","","0","0","1","","0.146095753","0.8","0.6","0.2","0.4","0.3200824859","0.3713851569","0.3259779601","0.146095753","","","","","","","","","","","76","L","3","","","109","main_expt"
"1014","","bandit","188","712878","0.0-149.0-0.0","88625619","wem/bandit_either","A36T4UBLY7PC5B","either","3","","","","","","","0","0","1","0.3179471713","","0.8","0.6","0.2","0.4","","","","","0.3179471713","0.3401672382","0.3169053314","0.1691954855","","","","","","","72","H","0","img/none_selected.jpg","","110","main_expt"
"701","","bandit","189","715167","0.0-150.0-0.0","88625619","wem/bandit_either","A36T4UBLY7PC5B","either","3","","","","","","","0","0","1","0.3242328008","","0.8","0.6","0.2","0.4","","","","","0.3168158386","0.3242328008","0.342138516","0.1690298198","","","","","","","74","J","1","","","111","main_expt"
"501","","bandit","190","717204","0.0-151.0-0.0","88625619","wem/bandit_either","A36T4UBLY7PC5B","either","3","","","","","","","0","0","1","","0.3597886873","0.8","0.6","0.2","0.4","0.3551606626","0.2991119965","0.3597886873","0.2196992501","","","","","","","","","","","75","K","2","","","112","main_expt"
"514","","bandit","191","719239","0.0-152.0-0.0","88625619","wem/bandit_either","A36T4UBLY7PC5B","either","3","","","","","","","1","0","0","0.2723467559","","0.8","0.6","0.2","0.4","","","","","0.3615444015","0.3364281798","0.3580549124","0.2723467559","","","","","","","76","L","3","","","113","main_expt"
"804","","bandit","192","721565","0.0-153.0-0.0","88625619","wem/bandit_either","A36T4UBLY7PC5B","either","3","","","","","","","0","0","1","","0.2470985199","0.8","0.6","0.2","0.4","0.4043222556","0.3495122724","0.3556181037","0.2470985199","","","","","","","","","","","76","L","3","","","114","main_expt"
"994","","bandit","193","724081","0.0-154.0-0.0","88625619","wem/bandit_either","A36T4UBLY7PC5B","either","3","","","","","","","0","0","1","0.4179696435","","0.8","0.6","0.2","0.4","","","","","0.4179696435","0.324938203","0.3489042174","0.2482590513","","","","","","","72","H","0","img/none_selected.jpg","","115","main_expt"
"609","","bandit","194","726213","0.0-155.0-0.0","88625619","wem/bandit_either","A36T4UBLY7PC5B","either","3","","","","","","","0","0","1","0.3227512736","","0.8","0.6","0.2","0.4","","","","","0.4324393975","0.3227512736","0.3466245191","0.1992012358","","","","","","","74","J","1","","","116","main_expt"
"1315","","bandit","195","729050","0.0-156.0-0.0","88625619","wem/bandit_either","A36T4UBLY7PC5B","either","3","","","","","","","0","0","1","","0.3581754781","0.8","0.6","0.2","0.4","0.4290779421","0.2585209305","0.3581754781","0.216355905","","","","","","","","","","","75","K","2","","","117","main_expt"
"793","","bandit","196","731368","0.0-157.0-0.0","88625619","wem/bandit_either","A36T4UBLY7PC5B","either","3","","","","","","","0","1","0","","0.1715453935","0.8","0.6","0.2","0.4","0.4459264202","0.2817260076","0.283939031","0.1715453935","","","","","","","","","","","76","L","3","","","118","main_expt"
"1455","","bandit","197","734345","0.0-158.0-0.0","88625619","wem/bandit_either","A36T4UBLY7PC5B","either","3","","","","","","","0","0","1","0.1843456939","","0.8","0.6","0.2","0.4","","","","","0.436995295","0.328214026","0.2992634423","0.1843456939","","","","","","","76","L","3","","","119","main_expt"
"953","","bandit","198","736821","0.0-159.0-0.0","88625619","wem/bandit_either","A36T4UBLY7PC5B","either","3","","","","","","","0","0","1","","0.1848061615","0.8","0.6","0.2","0.4","0.4151314625","0.3355603121","0.1878150733","0.1848061615","","","","","","","","","","","76","L","3","","","120","main_expt"
"631","","bandit","199","738975","0.0-160.0-0.0","88625619","wem/bandit_either","A36T4UBLY7PC5B","either","3","","","","","","","1","0","0","0.4384064527","","0.8","0.6","0.2","0.4","","","","","0.4384064527","0.3829587724","0.1447458933","0.1679578636","","","","","","","72","H","0","img/none_selected.jpg","","121","main_expt"
"834","","bandit","200","741332","0.0-161.0-0.0","88625619","wem/bandit_either","A36T4UBLY7PC5B","either","3","","","","","","","1","0","0","0.4417589501","","0.8","0.6","0.2","0.4","","","","","0.4417589501","0.3995678287","0.1176060398","0.197295971","","","","","","","72","H","0","img/none_selected.jpg","","122","main_expt"
"1125","","bandit","201","743978","0.0-162.0-0.0","88625619","wem/bandit_either","A36T4UBLY7PC5B","either","3","","","","","","","1","0","0","0.4017154396","","0.8","0.6","0.2","0.4","","","","","0.4017154396","0.3656739583","0.1097677055","0.2184653352","","","","","","","72","H","0","img/none_selected.jpg","","123","main_expt"
"1148","","bandit","202","746655","0.0-163.0-0.0","88625619","wem/bandit_either","A36T4UBLY7PC5B","either","3","","","","","","","0","1","0","","0.3619070526","0.8","0.6","0.2","0.4","0.3619070526","0.3862549257","0.08048168986","0.2147868977","","","","","","","","","","","72","H","0","img/none_selected.jpg","","124","main_expt"
"2423","","bandit","203","750598","0.0-164.0-0.0","88625619","wem/bandit_either","A36T4UBLY7PC5B","either","3","","","","","","","0","1","0","","0.3567490645","0.8","0.6","0.2","0.4","0.3567490645","0.3593796239","0.07842900555","0.1667936559","","","","","","","","","","","72","H","0","img/none_selected.jpg","","125","main_expt"
"398","","bandit","204","752516","0.0-165.0-0.0","88625619","wem/bandit_either","A36T4UBLY7PC5B","either","3","","","","","","","0","0","1","0.3558473019","","0.8","0.6","0.2","0.4","","","","","0.3558473019","0.3413194209","0.08318363027","0.1453295256","","","","","","","72","H","0","img/none_selected.jpg","","126","main_expt"
"345","","bandit","205","754382","0.0-166.0-0.0","88625619","wem/bandit_either","A36T4UBLY7PC5B","either","3","","","","","","","1","0","0","0.3369929262","","0.8","0.6","0.2","0.4","","","","","0.3543069734","0.3369929262","0.06812438963","0.1635755653","","","","","","","74","J","1","","","127","main_expt"
"2602","","bandit","206","758505","0.0-167.0-0.0","88625619","wem/bandit_either","A36T4UBLY7PC5B","either","3","","","","","","","0","0","1","0.2922989636","","0.8","0.6","0.2","0.4","","","","","0.3328374851","0.2922989636","0.08303766286","0.1872639566","","","","","","","74","J","1","","","128","main_expt"
"465","","bandit","207","760490","0.0-168.0-0.0","88625619","wem/bandit_either","A36T4UBLY7PC5B","either","3","","","","","","","0","0","1","","0.09047360051","0.8","0.6","0.2","0.4","0.3238683282","0.3095146075","0.09047360051","0.2032718864","","","","","","","","","","","75","K","2","","","129","main_expt"
"305","","bandit","208","762462","0.0-169.0-0.0","88625619","wem/bandit_either","A36T4UBLY7PC5B","either","3","","","","","","","0","1","0","","0.2025864764","0.8","0.6","0.2","0.4","0.2750329062","0.3068425872","0.131542256","0.2025864764","","","","","","","","","","","76","L","3","","","130","main_expt"
"653","","bandit","209","764635","0.0-170.0-0.0","88625619","wem/bandit_either","A36T4UBLY7PC5B","either","3","","","","","","","1","0","0","0.2158584071","","0.8","0.6","0.2","0.4","","","","","0.2751886228","0.3112504131","0.1492019489","0.2158584071","","","","","","","76","L","3","","","131","main_expt"
"556","","bandit","210","766711","0.0-171.0-0.0","88625619","wem/bandit_either","A36T4UBLY7PC5B","either","3","","","","","","","1","0","0","0.2729729886","","0.8","0.6","0.2","0.4","","","","","0.2729729886","0.3595653039","0.1571188116","0.2105840197","","","","","","","72","H","0","img/none_selected.jpg","","132","main_expt"
"870","","bandit","211","769120","0.0-172.0-0.0","88625619","wem/bandit_either","A36T4UBLY7PC5B","either","3","","","","","","","0","0","1","0.3248088544","","0.8","0.6","0.2","0.4","","","","","0.3248088544","0.3873527377","0.2021073832","0.2328486735","","","","","","","72","H","0","img/none_selected.jpg","","133","main_expt"
"371","","bandit","212","771010","0.0-173.0-0.0","88625619","wem/bandit_either","A36T4UBLY7PC5B","either","3","","","","","","","1","0","0","0.3973884711","","0.8","0.6","0.2","0.4","","","","","0.3596446835","0.3973884711","0.2693148074","0.2589092944","","","","","","","74","J","1","","","134","main_expt"
"657","","bandit","213","773191","0.0-174.0-0.0","88625619","wem/bandit_either","A36T4UBLY7PC5B","either","3","","","","","","","0","0","1","","0.2625780805","0.8","0.6","0.2","0.4","0.318377279","0.4080523157","0.2625780805","0.2637326353","","","","","","","","","","","75","K","2","","","135","main_expt"
"288","","bandit","214","775002","0.0-175.0-0.0","88625619","wem/bandit_either","A36T4UBLY7PC5B","either","3","","","","","","","0","0","1","0.2718680576","","0.8","0.6","0.2","0.4","","","","","0.3160887017","0.4176503084","0.2981707722","0.2718680576","","","","","","","76","L","3","","","136","main_expt"
"1034","","bandit","215","777557","0.0-176.0-0.0","88625619","wem/bandit_either","A36T4UBLY7PC5B","either","3","","","","","","","0","0","1","0.3859803947","","0.8","0.6","0.2","0.4","","","","","0.2883225013","0.3859803947","0.3148158286","0.2919957672","","","","","","","74","J","1","","","137","main_expt"
"747","","bandit","216","779829","0.0-177.0-0.0","88625619","wem/bandit_either","A36T4UBLY7PC5B","either","3","","","","","","","0","0","1","0.3009152141","","0.8","0.6","0.2","0.4","","","","","0.3009152141","0.358492916","0.3111523267","0.3193993407","","","","","","","72","H","0","img/none_selected.jpg","","138","main_expt"
"4926","","bandit","217","786276","0.0-178.0-0.0","88625619","wem/bandit_either","A36T4UBLY7PC5B","either","3","","","","","","","0","1","0","","0.293720077","0.8","0.6","0.2","0.4","0.293720077","0.3608756281","0.3034593298","0.3404434035","","","","","","","","","","","72","H","0","img/none_selected.jpg","","139","main_expt"
"549","","bandit","218","788346","0.0-179.0-0.0","88625619","wem/bandit_either","A36T4UBLY7PC5B","either","3","","","","","","","0","0","1","","0.286059761","0.8","0.6","0.2","0.4","0.286059761","0.3421836092","0.2507495005","0.3278052243","","","","","","","","","","","72","H","0","img/none_selected.jpg","","140","main_expt"
"1811","","bandit","219","791679","0.0-180.0-0.0","88625619","wem/bandit_either","A36T4UBLY7PC5B","either","3","","","","","","","0","0","1","0.3737340371","","0.8","0.6","0.2","0.4","","","","","0.2931724706","0.3737340371","0.2220694513","0.3038906839","","","","","","","74","J","1","","","141","main_expt"
"488","","bandit","220","793688","0.0-181.0-0.0","88625619","wem/bandit_either","A36T4UBLY7PC5B","either","3","","","","","","","0","1","0","","0.2119249064","0.8","0.6","0.2","0.4","0.2182180164","0.3461121542","0.2119249064","0.2924195757","","","","","","","","","","","75","K","2","","","142","main_expt"
"2157","","bandit","221","797370","0.0-182.0-0.0","88625619","wem/bandit_either","A36T4UBLY7PC5B","either","3","","","","","","","0","0","1","","0.2665135591","0.8","0.6","0.2","0.4","0.2015475508","0.3305931074","0.2665135591","0.2816149275","","","","","","","","","","","75","K","2","","","143","main_expt"
"195","","bandit","222","799285","0.0-183.0-0.0","88625619","wem/bandit_either","A36T4UBLY7PC5B","either","3","","","","","","","0","0","1","","0.2355525614","0.8","0.6","0.2","0.4","0.2074070562","0.3561039987","0.2854155153","0.2355525614","","","","","","","","","","","76","L","3","","","144","main_expt"
"694","","bandit","223","801604","0.0-184.0-0.0","88625619","wem/bandit_either","A36T4UBLY7PC5B","either","3","","","","","","","0","0","1","0.1415368311","","0.8","0.6","0.2","0.4","","","","","0.1415368311","0.3648023512","0.2521048148","0.2185662272","","","","","","","72","H","0","img/none_selected.jpg","","145","main_expt"
"1724","","bandit","224","804852","0.0-185.0-0.0","88625619","wem/bandit_either","A36T4UBLY7PC5B","either","3","","","","","","","0","0","1","0.3450315","","0.8","0.6","0.2","0.4","","","","","0.1549520657","0.3450315","0.2321266643","0.2209315791","","","","","","","74","J","1","","","146","main_expt"
"475","","bandit","225","806850","0.0-186.0-0.0","88625619","wem/bandit_either","A36T4UBLY7PC5B","either","3","","","","","","","0","1","0","","0.3159383216","0.8","0.6","0.2","0.4","0.1469310363","0.2720321141","0.3159383216","0.2889766311","","","","","","","","","","","75","K","2","","","147","main_expt"
"262","","bandit","226","808638","0.0-187.0-0.0","88625619","wem/bandit_either","A36T4UBLY7PC5B","either","3","","","","","","","0","0","1","","0.2673485129","0.8","0.6","0.2","0.4","0.1332828417","0.2598972664","0.2673485129","0.2859466156","","","","","","","","","","","75","K","2","","","148","main_expt"
"462","","bandit","227","810625","0.0-188.0-0.0","88625619","wem/bandit_either","A36T4UBLY7PC5B","either","3","","","","","","","0","0","1","","0.3348600541","0.8","0.6","0.2","0.4","0.1102010463","0.2343157719","0.3348600541","0.2588478233","","","","","","","","","","","75","K","2","","","149","main_expt"
"41","","bandit","228","812192","0.0-189.0-0.0","88625619","wem/bandit_either","A36T4UBLY7PC5B","either","3","","","","","","","1","0","0","0.3659656834","","0.8","0.6","0.2","0.4","","","","","0.1356103494","0.2451363599","0.3659656834","0.2224653457","","","","","","","75","K","2","","","150","main_expt"
"297","","bandit","229","814129","0.0-190.0-0.0","88625619","wem/bandit_either","A36T4UBLY7PC5B","either","3","","","","","","","0","0","1","","0.36397653","0.8","0.6","0.2","0.4","0.1621229287","0.2053737132","0.36397653","0.2387237716","","","","","","","","","","","75","K","2","","","151","main_expt"
"89","","bandit","230","815743","0.0-191.0-0.0","88625619","wem/bandit_either","A36T4UBLY7PC5B","either","3","","","","","","","0","1","0","","0.3710672623","0.8","0.6","0.2","0.4","0.1412745606","0.2396242378","0.3710672623","0.2519133504","","","","","","","","","","","75","K","2","","","152","main_expt"
"610","","bandit","231","817875","0.0-192.0-0.0","88625619","wem/bandit_either","A36T4UBLY7PC5B","either","3","","","","","","","0","0","1","","0.3828607765","0.8","0.6","0.2","0.4","0.1707580034","0.2923277395","0.3828607765","0.3078499427","","","","","","","","","","","75","K","2","","","153","main_expt"
"703","","bandit","232","820197","0.0-193.0-0.0","88625619","wem/bandit_either","A36T4UBLY7PC5B","either","3","","","","","","","1","0","0","0.3526468527","","0.8","0.6","0.2","0.4","","","","","0.1717455462","0.3166515581","0.3526468527","0.3283820497","","","","","","","75","K","2","","","154","main_expt"
"433","","bandit","233","822158","0.0-194.0-0.0","88625619","wem/bandit_either","A36T4UBLY7PC5B","either","3","","","","","","","0","0","1","","0.3865981945","0.8","0.6","0.2","0.4","0.1785539081","0.3194616596","0.3865981945","0.3303057687","","","","","","","","","","","75","K","2","","","155","main_expt"
"178","","bandit","234","823863","0.0-195.0-0.0","88625619","wem/bandit_either","A36T4UBLY7PC5B","either","3","","","","","","","0","0","1","","0.4328422877","0.8","0.6","0.2","0.4","0.2175815231","0.3767011333","0.4328422877","0.3178912443","","","","","","","","","","","75","K","2","","","156","main_expt"
"488","","bandit","235","826079","0.0-196.0-0.0","88625619","wem/bandit_either","A36T4UBLY7PC5B","either","3","","","","","","","0","0","1","0.4224906378","","0.8","0.6","0.2","0.4","","","","","0.216674397","0.3853144204","0.4224906378","0.3236874272","","","","","","","75","K","2","","","157","main_expt"
"506","","bandit","236","828109","0.0-197.0-0.0","88625619","wem/bandit_either","A36T4UBLY7PC5B","either","3","","","","","","","0","0","1","0.3731337511","","0.8","0.6","0.2","0.4","","","","","0.2184316938","0.3519128793","0.4428847078","0.3731337511","","","","","","","76","L","3","","","158","main_expt"
"463","","bandit","237","830094","0.0-198.0-0.0","88625619","wem/bandit_either","A36T4UBLY7PC5B","either","3","","","","","","","0","0","1","","0.3758107074","0.8","0.6","0.2","0.4","0.2603966468","0.3255157266","0.4498083842","0.3758107074","","","","","","","","","","","76","L","3","","","159","main_expt"
"263","","bandit","238","831882","0.0-199.0-0.0","88625619","wem/bandit_either","A36T4UBLY7PC5B","either","3","","","","","","","1","0","0","0.3494215766","","0.8","0.6","0.2","0.4","","","","","0.2242017374","0.379238532","0.4319550234","0.3494215766","","","","","","","76","L","3","","","160","main_expt"
"550","","bandit","239","833959","0.0-200.0-0.0","88625619","wem/bandit_either","A36T4UBLY7PC5B","either","3","","","","","","","0","1","0","","0.3327111917","0.8","0.6","0.2","0.4","0.2014027125","0.3776335756","0.4417514389","0.3327111917","","","","","","","","","","","76","L","3","","","161","main_expt"
"825","","bandit","240","836309","0.0-201.0-0.0","88625619","wem/bandit_either","A36T4UBLY7PC5B","either","3","","","","","","","1","0","0","0.3171011618","","0.8","0.6","0.2","0.4","","","","","0.2038621466","0.2955751891","0.4081293495","0.3171011618","","","","","","","76","L","3","","","162","main_expt"
"528","","bandit","241","838360","0.0-202.0-0.0","88625619","wem/bandit_either","A36T4UBLY7PC5B","either","3","","","","","","","0","0","1","0.364183239","","0.8","0.6","0.2","0.4","","","","","0.1238136799","0.30851492","0.4265776113","0.364183239","","","","","","","76","L","3","","","163","main_expt"
"472","","bandit","242","840568","0.0-203.0-0.0","88625619","wem/bandit_either","A36T4UBLY7PC5B","either","3","","","","","","","0","0","1","","0.3917374524","0.8","0.6","0.2","0.4","0.1104941302","0.3074756362","0.427472809","0.3917374524","","","","","","","","","","","76","L","3","","","164","main_expt"
"412","","bandit","243","842504","0.0-204.0-0.0","88625619","wem/bandit_either","A36T4UBLY7PC5B","either","3","","","","","","","0","1","0","","0.3629360172","0.8","0.6","0.2","0.4","0.1099358877","0.2743039079","0.4016343469","0.3629360172","","","","","","","","","","","76","L","3","","","165","main_expt"
"443","","bandit","244","844471","0.0-205.0-0.0","88625619","wem/bandit_either","A36T4UBLY7PC5B","either","3","","","","","","","0","1","0","","0.3697042915","0.8","0.6","0.2","0.4","0.08082918558","0.2900226329","0.3578169927","0.3697042915","","","","","","","","","","","76","L","3","","","166","main_expt"
"579","","bandit","245","846573","0.0-206.0-0.0","88625619","wem/bandit_either","A36T4UBLY7PC5B","either","3","","","","","","","0","0","1","0.3626443337","","0.8","0.6","0.2","0.4","","","","","0.08539074978","0.3444017494","0.3346076013","0.3626443337","","","","","","","76","L","3","","","167","main_expt"
"384","","bandit","246","848481","0.0-207.0-0.0","88625619","wem/bandit_either","A36T4UBLY7PC5B","either","3","","","","","","","0","1","0","","0.3488380128","0.8","0.6","0.2","0.4","0.1307687804","0.3934904689","0.36326211","0.3488380128","","","","","","","","","","","76","L","3","","","168","main_expt"
"687","","bandit","247","850695","0.0-208.0-0.0","88625619","wem/bandit_either","A36T4UBLY7PC5B","either","3","","","","","","","0","0","1","","0.3338465455","0.8","0.6","0.2","0.4","0.09435724838","0.3712778229","0.3389060657","0.3338465455","","","","","","","","","","","76","L","3","","","169","main_expt"
"297","","bandit","248","852668","0.0-209.0-0.0","88625619","wem/bandit_either","A36T4UBLY7PC5B","either","3","","","","","","","1","0","0","0.3675902536","","0.8","0.6","0.2","0.4","","","","","0.09371103674","0.3348119161","0.3820287301","0.3675902536","","","","","","","76","L","3","","","170","main_expt"
"450","","bandit","249","854641","0.0-210.0-0.0","88625619","wem/bandit_either","A36T4UBLY7PC5B","either","3","","","","","","","1","0","0","0.3663425941","","0.8","0.6","0.2","0.4","","","","","0.0912992704","0.3697689907","0.3738350687","0.3663425941","","","","","","","76","L","3","","","171","main_expt"
"318","","bandit","250","856636","0.0-211.0-0.0","88625619","wem/bandit_either","A36T4UBLY7PC5B","either","3","","","","","","","0","0","1","","0.3571019768","0.8","0.6","0.2","0.4","0.1053216192","0.3438364448","0.3449486646","0.3571019768","","","","","","","","","","","76","L","3","","","172","main_expt"
"304","","bandit","251","858493","0.0-212.0-0.0","88625619","wem/bandit_either","A36T4UBLY7PC5B","either","3","","","","","","","0","1","0","","0.383943734","0.8","0.6","0.2","0.4","0.1119971747","0.4064517123","0.3754463001","0.383943734","","","","","","","","","","","76","L","3","","","173","main_expt"
"473","","bandit","252","860490","0.0-213.0-0.0","88625619","wem/bandit_either","A36T4UBLY7PC5B","either","3","","","","","","","0","0","1","0.378453819","","0.8","0.6","0.2","0.4","","","","","0.1049574405","0.4266345201","0.3983783957","0.378453819","","","","","","","76","L","3","","","174","main_expt"
"259","","bandit","253","862414","0.0-214.0-0.0","88625619","wem/bandit_either","A36T4UBLY7PC5B","either","3","","","","","","","0","1","0","","0.3577460836","0.8","0.6","0.2","0.4","0.07351671593","0.4413212306","0.4176958341","0.3577460836","","","","","","","","","","","76","L","3","","","175","main_expt"
"357","","bandit","254","864296","0.0-215.0-0.0","88625619","wem/bandit_either","A36T4UBLY7PC5B","either","3","","","","","","","0","0","1","","0.3346789668","0.8","0.6","0.2","0.4","0.06097876817","0.438548454","0.4336280271","0.3346789668","","","","","","","","","","","76","L","3","","","176","main_expt"
"192","","bandit","255","866027","0.0-216.0-0.0","88625619","wem/bandit_either","A36T4UBLY7PC5B","either","3","","","","","","","0","0","1","0.3720341948","","0.8","0.6","0.2","0.4","","","","","0.05873143133","0.4350726265","0.3863917124","0.3720341948","","","","","","","76","L","3","","","177","main_expt"
"306","","bandit","256","867860","0.0-217.0-0.0","88625619","wem/bandit_either","A36T4UBLY7PC5B","either","3","","","","","","","1","0","0","0.4243236705","","0.8","0.6","0.2","0.4","","","","","0.07829718294","0.4029859975","0.3826512014","0.4243236705","","","","","","","76","L","3","","","178","main_expt"
"324","","bandit","257","869758","0.0-218.0-0.0","88625619","wem/bandit_either","A36T4UBLY7PC5B","either","3","","","","","","","0","0","1","","0.4396564102","0.8","0.6","0.2","0.4","0.05868413977","0.3738585124","0.3681046487","0.4396564102","","","","","","","","","","","76","L","3","","","179","main_expt"
"232","","bandit","258","871515","0.0-219.0-0.0","88625619","wem/bandit_either","A36T4UBLY7PC5B","either","3","","","","","","","0","1","0","","0.4501825932","0.8","0.6","0.2","0.4","0.04540529238","0.3884150149","0.374340785","0.4501825932","","","","","","","","","","","76","L","3","","","180","main_expt"
"400","","bandit","259","873679","0.0-220.0-0.0","88625619","wem/bandit_either","A36T4UBLY7PC5B","either","3","","","","","","","0","1","0","","0.4527537228","0.8","0.6","0.2","0.4","0.04810206047","0.3977335033","0.3844034803","0.4527537228","","","","","","","","","","","76","L","3","","","181","main_expt"
"274","","bandit","260","875509","0.0-221.0-0.0","88625619","wem/bandit_either","A36T4UBLY7PC5B","either","3","","","","","","","0","0","1","","0.4733821952","0.8","0.6","0.2","0.4","0.0564969073","0.4194204302","0.3569363444","0.4733821952","","","","","","","","","","","76","L","3","","","182","main_expt"
"533","","bandit","261","877568","0.0-222.0-0.0","88625619","wem/bandit_either","A36T4UBLY7PC5B","either","3","","","","","","","0","1","0","","0.4741352064","0.8","0.6","0.2","0.4","0.06674959941","0.4050300101","0.3930074682","0.4741352064","","","","","","","","","","","76","L","3","","","183","main_expt"
"745","","bandit","262","879837","0.0-223.0-0.0","88625619","wem/bandit_either","A36T4UBLY7PC5B","either","3","","","","","","","0","1","0","","0.4835015011","0.8","0.6","0.2","0.4","0.05730522946","0.4272992256","0.4105724965","0.4835015011","","","","","","","","","","","76","L","3","","","184","main_expt"
"354","","bandit","263","881735","0.0-224.0-0.0","88625619","wem/bandit_either","A36T4UBLY7PC5B","either","3","","","","","","","0","0","1","","0.4907566516","0.8","0.6","0.2","0.4","0.0759668512","0.4213026748","0.4230276401","0.4907566516","","","","","","","","","","","76","L","3","","","185","main_expt"
"482","","bandit","264","883741","0.0-225.0-0.0","88625619","wem/bandit_either","A36T4UBLY7PC5B","either","3","","","","","","","0","0","1","","0.4777100538","0.8","0.6","0.2","0.4","0.0736669194","0.3729626057","0.4243078066","0.4777100538","","","","","","","","","","","76","L","3","","","186","main_expt"
"274","","bandit","265","885544","0.0-226.0-0.0","88625619","wem/bandit_either","A36T4UBLY7PC5B","either","3","","","","","","","0","1","0","","0.4751658893","0.8","0.6","0.2","0.4","0.1020870739","0.4022080601","0.419104652","0.4751658893","","","","","","","","","","","76","L","3","","","187","main_expt"
"320","","bandit","266","887390","0.0-227.0-0.0","88625619","wem/bandit_either","A36T4UBLY7PC5B","either","3","","","","","","","0","1","0","","0.4711403756","0.8","0.6","0.2","0.4","0.110066606","0.4218987807","0.3917910895","0.4711403756","","","","","","","","","","","76","L","3","","","188","main_expt"
"289","","bandit","267","889484","0.0-228.0-0.0","88625619","wem/bandit_either","A36T4UBLY7PC5B","either","3","","","","","","","1","0","0","0.4848283219","","0.8","0.6","0.2","0.4","","","","","0.1616324423","0.4284519853","0.3696037293","0.4848283219","","","","","","","76","L","3","","","189","main_expt"
"99","","bandit","268","891112","0.0-229.0-0.0","88625619","wem/bandit_either","A36T4UBLY7PC5B","either","3","","","","","","","1","0","0","0.4906713727","","0.8","0.6","0.2","0.4","","","","","0.1401199573","0.4104863902","0.3722688899","0.4906713727","","","","","","","76","L","3","","","190","main_expt"
"538","","bandit","269","893189","0.0-230.0-0.0","88625619","wem/bandit_either","A36T4UBLY7PC5B","either","3","","","","","","","0","0","1","","0.4944082075","0.8","0.6","0.2","0.4","0.1782786715","0.4071825693","0.3956575009","0.4944082075","","","","","","","","","","","76","L","3","","","191","main_expt"
"74","","bandit","270","894794","0.0-231.0-0.0","88625619","wem/bandit_either","A36T4UBLY7PC5B","either","3","","","","","","","0","0","1","0.4922337742","","0.8","0.6","0.2","0.4","","","","","0.203517815","0.4172763132","0.3843500594","0.4922337742","","","","","","","76","L","3","","","192","main_expt"
"199","","bandit","271","896641","0.0-232.0-0.0","88625619","wem/bandit_either","A36T4UBLY7PC5B","either","3","","","","","","","0","0","1","","0.4887356563","0.8","0.6","0.2","0.4","0.172030281","0.3965334946","0.3801723293","0.4887356563","","","","","","","","","","","76","L","3","","","193","main_expt"
"237","","bandit","272","898403","0.0-233.0-0.0","88625619","wem/bandit_either","A36T4UBLY7PC5B","either","3","","","","","","","0","1","0","","0.4850955297","0.8","0.6","0.2","0.4","0.1813301739","0.383316574","0.3871645121","0.4850955297","","","","","","","","","","","76","L","3","","","194","main_expt"
"240","","bandit","273","900168","0.0-234.0-0.0","88625619","wem/bandit_either","A36T4UBLY7PC5B","either","3","","","","","","","0","0","1","0.4848341758","","0.8","0.6","0.2","0.4","","","","","0.2284295163","0.3965345796","0.3633903175","0.4848341758","","","","","","","76","L","3","","","195","main_expt"
"39","","bandit","274","901733","0.0-235.0-0.0","88625619","wem/bandit_either","A36T4UBLY7PC5B","either","3","","","","","","","0","0","1","","0.490049139","0.8","0.6","0.2","0.4","0.2501246714","0.3978469093","0.3811675741","0.490049139","","","","","","","","","","","76","L","3","","","196","main_expt"
"274","","bandit","275","903536","0.0-236.0-0.0","88625619","wem/bandit_either","A36T4UBLY7PC5B","either","3","","","","","","","0","0","1","0.4912643012","","0.8","0.6","0.2","0.4","","","","","0.3150809007","0.3172926233","0.3487868089","0.4912643012","","","","","","","76","L","3","","","197","main_expt"
"131","","bandit","276","905192","0.0-237.0-0.0","88625619","wem/bandit_either","A36T4UBLY7PC5B","either","3","","","","","","","1","0","0","0.4793615714","","0.8","0.6","0.2","0.4","","","","","0.3442077965","0.3113170709","0.2986771554","0.4793615714","","","","","","","76","L","3","","","198","main_expt"
"415","","bandit","277","907137","0.0-238.0-0.0","88625619","wem/bandit_either","A36T4UBLY7PC5B","either","3","","","","","","","1","0","0","0.4661622676","","0.8","0.6","0.2","0.4","","","","","0.3675051223","0.3066116159","0.3481418533","0.4661622676","","","","","","","76","L","3","","","199","main_expt"
"273","","bandit","278","909068","0.0-239.0-0.0","88625619","wem/bandit_either","A36T4UBLY7PC5B","either","3","","","","","","","0","1","0","","0.4479238565","0.8","0.6","0.2","0.4","0.3044821291","0.2521122026","0.353319573","0.4479238565","","","","","","","","","","","76","L","3","","","200","main_expt"
"290","","bandit","279","910947","0.0-240.0-0.0","88625619","wem/bandit_either","A36T4UBLY7PC5B","either","3","","","","","","","1","0","0","0.4429166455","","0.8","0.6","0.2","0.4","","","","","0.3013824411","0.2679963248","0.3676338631","0.4429166455","","","","","","","76","L","3","","","201","main_expt"
"203","","bandit","280","912682","0.0-241.0-0.0","88625619","wem/bandit_either","A36T4UBLY7PC5B","either","3","","","","","","","0","0","1","0.442820363","","0.8","0.6","0.2","0.4","","","","","0.3001954661","0.2076546236","0.311657493","0.442820363","","","","","","","76","L","3","","","202","main_expt"
"340","","bandit","281","914547","0.0-242.0-0.0","88625619","wem/bandit_either","A36T4UBLY7PC5B","either","3","","","","","","","0","1","0","","0.4539008368","0.8","0.6","0.2","0.4","0.3189156814","0.1881707852","0.3364041998","0.4539008368","","","","","","","","","","","76","L","3","","","203","main_expt"
"178","","bandit","282","916462","0.0-243.0-0.0","88625619","wem/bandit_either","A36T4UBLY7PC5B","either","3","","","","","","","0","0","1","0.4163307037","","0.8","0.6","0.2","0.4","","","","","0.3162062407","0.2057853427","0.3148670147","0.4163307037","","","","","","","76","L","3","","","204","main_expt"
"288","","bandit","283","918275","0.0-244.0-0.0","88625619","wem/bandit_either","A36T4UBLY7PC5B","either","3","","","","","","","0","0","1","","0.4045388199","0.8","0.6","0.2","0.4","0.347278619","0.2564451259","0.3293187519","0.4045388199","","","","","","","","","","","76","L","3","","","205","main_expt"
"268","","bandit","284","920068","0.0-245.0-0.0","88625619","wem/bandit_either","A36T4UBLY7PC5B","either","3","","","","","","","1","0","0","0.4083422121","","0.8","0.6","0.2","0.4","","","","","0.2970129147","0.3082896296","0.2705077244","0.4083422121","","","","","","","76","L","3","","","206","main_expt"
"372","","bandit","285","921966","0.0-246.0-0.0","88625619","wem/bandit_either","A36T4UBLY7PC5B","either","3","","","","","","","0","0","1","","0.4033585138","0.8","0.6","0.2","0.4","0.3331481178","0.3235103938","0.3083591011","0.4033585138","","","","","","","","","","","76","L","3","","","207","main_expt"
"285","","bandit","286","923838","0.0-247.0-0.0","88625619","wem/bandit_either","A36T4UBLY7PC5B","either","3","","","","","","","0","0","1","0.3753320851","","0.8","0.6","0.2","0.4","","","","","0.3195917859","0.3563539536","0.2489273718","0.3753320851","","","","","","","76","L","3","","","208","main_expt"
"150","","bandit","287","925518","0.0-248.0-0.0","88625619","wem/bandit_either","A36T4UBLY7PC5B","either","3","","","","","","","0","0","1","0.3864970555","","0.8","0.6","0.2","0.4","","","","","0.3642345195","0.3821305916","0.2224321457","0.3864970555","","","","","","","76","L","3","","","209","main_expt"
"203","","bandit","288","927250","0.0-249.0-0.0","88625619","wem/bandit_either","A36T4UBLY7PC5B","either","3","","","","","","","0","1","0","","0.3894881908","0.8","0.6","0.2","0.4","0.3518797164","0.4067483812","0.2184729634","0.3894881908","","","","","","","","","","","76","L","3","","","210","main_expt"
"376","","bandit","289","929153","0.0-250.0-0.0","88625619","wem/bandit_either","A36T4UBLY7PC5B","either","3","","","","","","","0","0","1","","0.4052823736","0.8","0.6","0.2","0.4","0.3781537602","0.376825818","0.2178464352","0.4052823736","","","","","","","","","","","76","L","3","","","211","main_expt"
"296","","bandit","290","931139","0.0-251.0-0.0","88625619","wem/bandit_either","A36T4UBLY7PC5B","either","3","","","","","","","0","0","1","0.3783189977","","0.8","0.6","0.2","0.4","","","","","0.3773353051","0.3481764155","0.1644702768","0.3783189977","","","","","","","76","L","3","","","212","main_expt"
"338","","bandit","291","933003","0.0-252.0-0.0","88625619","wem/bandit_either","A36T4UBLY7PC5B","either","3","","","","","","","0","0","1","","0.3804187243","0.8","0.6","0.2","0.4","0.3448860985","0.3239198888","0.1271660564","0.3804187243","","","","","","","","","","","76","L","3","","","213","main_expt"
"407","","bandit","292","935100","0.0-253.0-0.0","88625619","wem/bandit_either","A36T4UBLY7PC5B","either","3","","","","","","","0","0","1","","0.3964056757","0.8","0.6","0.2","0.4","0.3622000499","0.3592643085","0.1368129038","0.3964056757","","","","","","","","","","","76","L","3","","","214","main_expt"
"226","","bandit","293","936876","0.0-254.0-0.0","88625619","wem/bandit_either","A36T4UBLY7PC5B","either","3","","","","","","","1","0","0","0.3408682726","","0.8","0.6","0.2","0.4","","","","","0.3408682726","0.3482739819","0.07615368859","0.3939862607","","","","","","","72","H","0","img/none_selected.jpg","","215","main_expt"
"580","","bandit","294","938985","0.0-255.0-0.0","88625619","wem/bandit_either","A36T4UBLY7PC5B","either","3","","","","","","","0","0","1","0.328819006","","0.8","0.6","0.2","0.4","","","","","0.328819006","0.2972527025","0.07711559412","0.4062496234","","","","","","","72","H","0","img/none_selected.jpg","","216","main_expt"
"612","","bandit","295","941324","0.0-256.0-0.0","88625619","wem/bandit_either","A36T4UBLY7PC5B","either","3","","","","","","","0","0","1","0.3229374792","","0.8","0.6","0.2","0.4","","","","","0.3229374792","0.2850944341","0.07728173513","0.3440498305","","","","","","","72","H","0","img/none_selected.jpg","","217","main_expt"
"322","","bandit","296","943177","0.0-257.0-0.0","88625619","wem/bandit_either","A36T4UBLY7PC5B","either","3","","","","","","","0","1","0","","0.3616220652","0.8","0.6","0.2","0.4","0.3616220652","0.2483413171","0.07919919155","0.3198020565","","","","","","","","","","","72","H","0","img/none_selected.jpg","","218","main_expt"
"398","","bandit","297","945253","0.0-258.0-0.0","88625619","wem/bandit_either","A36T4UBLY7PC5B","either","3","","","","","","","1","0","0","0.3591176528","","0.8","0.6","0.2","0.4","","","","","0.3591176528","0.2680513607","0.1270410367","0.3078290176","","","","","","","72","H","0","img/none_selected.jpg","","219","main_expt"
"377","","bandit","298","947159","0.0-259.0-0.0","88625619","wem/bandit_either","A36T4UBLY7PC5B","either","3","","","","","","","0","0","1","0.2758994579","","0.8","0.6","0.2","0.4","","","","","0.2758994579","0.304668496","0.1117499599","0.2961895162","","","","","","","72","H","0","img/none_selected.jpg","","220","main_expt"
"396","","bandit","299","949085","0.0-260.0-0.0","88625619","wem/bandit_either","A36T4UBLY7PC5B","either","3","","","","","","","0","0","1","0.3119987931","","0.8","0.6","0.2","0.4","","","","","0.3119987931","0.2773284289","0.1186324211","0.2658603678","","","","","","","72","H","0","img/none_selected.jpg","","221","main_expt"
"509","","bandit","300","951123","0.0-261.0-0.0","88625619","wem/bandit_either","A36T4UBLY7PC5B","either","3","","","","","","","0","0","1","0.3106374463","","0.8","0.6","0.2","0.4","","","","","0.3106374463","0.2152506718","0.1141050397","0.274695037","","","","","","","72","H","0","img/none_selected.jpg","","222","main_expt"
"670","","bandit","301","953511","0.0-262.0-0.0","88625619","wem/bandit_either","A36T4UBLY7PC5B","either","3","","","","","","","0","0","1","0.3131570504","","0.8","0.6","0.2","0.4","","","","","0.3131570504","0.2445797097","0.1007228699","0.2210940289","","","","","","","72","H","0","img/none_selected.jpg","","223","main_expt"
"488","","bandit","302","955529","0.0-263.0-0.0","88625619","wem/bandit_either","A36T4UBLY7PC5B","either","3","","","","","","","0","0","1","0.2559263424","","0.8","0.6","0.2","0.4","","","","","0.3025994915","0.2559263424","0.1380584308","0.1843933297","","","","","","","74","J","1","","","224","main_expt"
"455","","bandit","303","957497","0.0-264.0-0.0","88625619","wem/bandit_either","A36T4UBLY7PC5B","either","3","","","","","","","1","0","0","0.2702522324","","0.8","0.6","0.2","0.4","","","","","0.2994132709","0.2702522324","0.1393521225","0.212211923","","","","","","","74","J","1","","","225","main_expt"
"398","","bandit","304","959408","0.0-265.0-0.0","88625619","wem/bandit_either","A36T4UBLY7PC5B","either","3","","","","","","","1","0","0","0.2646860425","","0.8","0.6","0.2","0.4","","","","","0.2866794375","0.2646860425","0.2094269877","0.2315036379","","","","","","","74","J","1","","","226","main_expt"
"736","","bandit","305","961659","0.0-266.0-0.0","88625619","wem/bandit_either","A36T4UBLY7PC5B","either","3","","","","","","","0","0","1","0.269556559","","0.8","0.6","0.2","0.4","","","","","0.2299222882","0.269556559","0.2959232149","0.2646353212","","","","","","","74","J","1","","","227","main_expt"
"513","","bandit","306","963685","0.0-267.0-0.0","88625619","wem/bandit_either","A36T4UBLY7PC5B","either","3","","","","","","","0","1","0","","0.2498152532","0.8","0.6","0.2","0.4","0.2991813551","0.2498152532","0.374355758","0.2443517867","","","","","","","","","","","74","J","1","","","228","main_expt"
"1061","","bandit","307","966260","0.0-268.0-0.0","88625619","wem/bandit_either","A36T4UBLY7PC5B","either","3","","","","","","","0","0","1","","0.2495566458","0.8","0.6","0.2","0.4","0.3295538921","0.2495566458","0.3876740502","0.2569692975","","","","","","","","","","","74","J","1","","","229","main_expt"
"788","","bandit","308","968561","0.0-269.0-0.0","88625619","wem/bandit_either","A36T4UBLY7PC5B","either","3","","","","","","","0","0","1","","0.2134382902","0.8","0.6","0.2","0.4","0.2713593359","0.2134382902","0.3341674595","0.2490290172","","","","","","","","","","","74","J","1","","","230","main_expt"
"286","","bandit","309","970362","0.0-270.0-0.0","88625619","wem/bandit_either","A36T4UBLY7PC5B","either","3","","","","","","","0","0","1","","0.2099205747","0.8","0.6","0.2","0.4","0.2746975787","0.2099205747","0.3558281537","0.2368643707","","","","","","","","","","","74","J","1","","","231","main_expt"
"368","","bandit","310","972250","0.0-271.0-0.0","88625619","wem/bandit_either","A36T4UBLY7PC5B","either","3","","","","","","","0","0","1","","0.1598609145","0.8","0.6","0.2","0.4","0.2817934899","0.1598609145","0.3293076861","0.2857324616","","","","","","","","","","","74","J","1","","","232","main_expt"
"172","","bandit","311","973936","0.0-272.0-0.0","88625619","wem/bandit_either","A36T4UBLY7PC5B","either","3","","","","","","","0","0","1","0.1472569172","","0.8","0.6","0.2","0.4","","","","","0.3139736629","0.1472569172","0.3271309306","0.226619475","","","","","","","74","J","1","","","233","main_expt"
"449","","bandit","312","975899","0.0-273.0-0.0","88625619","wem/bandit_either","A36T4UBLY7PC5B","either","3","","","","","","","1","0","0","0.1123375355","","0.8","0.6","0.2","0.4","","","","","0.3332560948","0.1123375355","0.3510228885","0.2448251662","","","","","","","74","J","1","","","234","main_expt"
"403","","bandit","313","977814","0.0-274.0-0.0","88625619","wem/bandit_either","A36T4UBLY7PC5B","either","3","","","","","","","0","0","1","0.1562424728","","0.8","0.6","0.2","0.4","","","","","0.3475281657","0.1562424728","0.3346663699","0.2996798263","","","","","","","74","J","1","","","235","main_expt"
"269","","bandit","314","979597","0.0-275.0-0.0","88625619","wem/bandit_either","A36T4UBLY7PC5B","either","3","","","","","","","0","0","1","","0.1623269298","0.8","0.6","0.2","0.4","0.3170984437","0.1623269298","0.332043614","0.3220329496","","","","","","","","","","","74","J","1","","","236","main_expt"
"417","","bandit","315","981529","0.0-276.0-0.0","88625619","wem/bandit_either","A36T4UBLY7PC5B","either","3","","","","","","","0","0","1","","0.1362759337","0.8","0.6","0.2","0.4","0.3611259067","0.1362759337","0.2780661838","0.3672390457","","","","","","","","","","","74","J","1","","","237","main_expt"
"63","","bandit","316","983184","0.0-277.0-0.0","88625619","wem/bandit_either","A36T4UBLY7PC5B","either","3","","","","","","","0","0","1","0.1282223372","","0.8","0.6","0.2","0.4","","","","","0.3449339383","0.1282223372","0.3071002506","0.3702030288","","","","","","","74","J","1","","","238","main_expt"
"486","","bandit","317","985195","0.0-278.0-0.0","88625619","wem/bandit_either","A36T4UBLY7PC5B","either","3","","","","","","","0","0","1","","0.08262393641","0.8","0.6","0.2","0.4","0.3006984684","0.08262393641","0.3101279526","0.3486367063","","","","","","","","","","","74","J","1","","","239","main_expt"
"424","","bandit","318","987132","0.0-279.0-0.0","88625619","wem/bandit_either","A36T4UBLY7PC5B","either","3","","","","","","","0","0","1","0.09366491666","","0.8","0.6","0.2","0.4","","","","","0.3355390738","0.09366491666","0.3071576631","0.3422639114","","","","","","","74","J","1","","","240","main_expt"
"468","","bandit","319","989113","0.0-280.0-0.0","88625619","wem/bandit_either","A36T4UBLY7PC5B","either","3","","","","","","","0","0","1","","0.3213727252","0.8","0.6","0.2","0.4","0.3513118525","0.09778426954","0.3213727252","0.3703795114","","","","","","","","","","","75","K","2","","","241","main_expt"
"113","","bandit","320","990741","0.0-281.0-0.0","88625619","wem/bandit_either","A36T4UBLY7PC5B","either","3","","","","","","","0","0","1","","0.3303042821","0.8","0.6","0.2","0.4","0.2871404103","0.0684580113","0.3303042821","0.3362310887","","","","","","","","","","","75","K","2","","","242","main_expt"
"262","","bandit","321","992562","0.0-282.0-0.0","88625619","wem/bandit_either","A36T4UBLY7PC5B","either","3","","","","","","","0","0","1","0.386578507","","0.8","0.6","0.2","0.4","","","","","0.2582353252","0.05756719403","0.386578507","0.3855302341","","","","","","","75","K","2","","","243","main_expt"
"48","","bandit","322","994128","0.0-283.0-0.0","88625619","wem/bandit_either","A36T4UBLY7PC5B","either","3","","","","","","","0","0","1","","0.3582196724","0.8","0.6","0.2","0.4","0.2108553612","0.07954378931","0.3582196724","0.3504604058","","","","","","","","","","","75","K","2","","","244","main_expt"
"165","","bandit","323","995808","0.0-284.0-0.0","88625619","wem/bandit_either","A36T4UBLY7PC5B","either","3","","","","","","","0","0","1","","0.3626170977","0.8","0.6","0.2","0.4","0.190308294","0.07668718344","0.3626170977","0.3586275713","","","","","","","","","","","75","K","2","","","245","main_expt"
"62","","bandit","324","997385","0.0-285.0-0.0","88625619","wem/bandit_either","A36T4UBLY7PC5B","either","3","","","","","","","0","1","0","","0.2778980274","0.8","0.6","0.2","0.4","0.2079876503","0.08627194322","0.2778980274","0.3202710015","","","","","","","","","","","75","K","2","","","246","main_expt"
"396","","bandit","325","999293","0.0-286.0-0.0","88625619","wem/bandit_either","A36T4UBLY7PC5B","either","3","","","","","","","0","1","0","","0.2864864277","0.8","0.6","0.2","0.4","0.2053262284","0.1009858539","0.2864864277","0.2874587678","","","","","","","","","","","75","K","2","","","247","main_expt"
"306","","bandit","326","1001111","0.0-287.0-0.0","88625619","wem/bandit_either","A36T4UBLY7PC5B","either","3","","","","","","","0","0","1","","0.2883304048","0.8","0.6","0.2","0.4","0.2699327364","0.1044033157","0.2883304048","0.2703076155","","","","","","","","","","","75","K","2","","","248","main_expt"
"269","","bandit","327","1002948","0.0-288.0-0.0","88625619","wem/bandit_either","A36T4UBLY7PC5B","either","3","","","","","","","0","0","1","","0.3034325887","0.8","0.6","0.2","0.4","0.2917851334","0.07254640656","0.3034325887","0.2212833967","","","","","","","","","","","75","K","2","","","249","main_expt"
"504","","bandit","328","1004966","0.0-289.0-0.0","88625619","wem/bandit_either","A36T4UBLY7PC5B","either","3","","","","","","","0","0","1","","0.2582013927","0.8","0.6","0.2","0.4","0.2530543584","0.09512939239","0.2582013927","0.2174917034","","","","","","","","","","","75","K","2","","","250","main_expt"
"301","","bandit","329","1006780","0.0-290.0-0.0","88625619","wem/bandit_either","A36T4UBLY7PC5B","either","3","","","","","","","0","0","1","","0.2337836179","0.8","0.6","0.2","0.4","0.2345859063","0.06759478125","0.2337836179","0.2008338107","","","","","","","","","","","75","K","2","","","251","main_expt"
"265","","bandit","330","1008560","0.0-291.0-0.0","88625619","wem/bandit_either","A36T4UBLY7PC5B","either","3","","","","","","","0","0","1","","0.05682902113","0.8","0.6","0.2","0.4","0.2407419433","0.05682902113","0.2477033955","0.2294508047","","","","","","","","","","","74","J","1","","","252","main_expt"
"198","","bandit","331","1010272","0.0-292.0-0.0","88625619","wem/bandit_either","A36T4UBLY7PC5B","either","3","","","","","","","0","1","0","","0.2678406235","0.8","0.6","0.2","0.4","0.2016139721","0.04662337877","0.2187012899","0.2678406235","","","","","","","","","","","76","L","3","","","253","main_expt"
