"rt","responses","trial_type","trial_index","time_elapsed","internal_node_id","subjID","study","MID","cond","drift","key_press","expt_phase","target","like","value","connected","gems","bombs","no_reward","GemPrChosen","BombPrChosen","GainOverPainPr_0","GainOverPainPr_1","GainOverPainPr_2","GainOverPainPr_3","LosePr_0","LosePr_1","LosePr_2","LosePr_3","WinPr_0","WinPr_1","WinPr_2","WinPr_3","Q0","Q1","Q2","gender","age","ethnicity","respCharCode","respKey","respChoiceNum","respChoice","practice","trial_counter","trial_label"
"4131","{""Q0"":""ARLGZWN6W91WD""}","survey-text","0","4142","0.0-0.0","89443707","wem/bandit_either","ARLGZWN6W91WD","either","4","","","","","","","","","","","","","","","","","","","","","","","","","","","","","","","","","","","",""
"8348","","text","1","13509","0.0-1.0","89443707","wem/bandit_either","ARLGZWN6W91WD","either","4","32","","","","","","","","","","","","","","","","","","","","","","","","","","","","","","","","","","",""
"4350","","text","2","17863","0.0-2.0","89443707","wem/bandit_either","ARLGZWN6W91WD","either","4","32","","","","","","","","","","","","","","","","","","","","","","","","","","","","","","","","","","",""
"19246","","text","3","37115","0.0-3.0","89443707","wem/bandit_either","ARLGZWN6W91WD","either","4","32","","","","","","","","","","","","","","","","","","","","","","","","","","","","","","","","","","",""
"10289","","text","4","47409","0.0-4.0","89443707","wem/bandit_either","ARLGZWN6W91WD","either","4","32","","","","","","","","","","","","","","","","","","","","","","","","","","","","","","","","","","",""
"13394","","text","5","60809","0.0-5.0","89443707","wem/bandit_either","ARLGZWN6W91WD","either","4","32","","","","","","","","","","","","","","","","","","","","","","","","","","","","","","","","","","",""
"5065","","text","6","65880","0.0-6.0","89443707","wem/bandit_either","ARLGZWN6W91WD","either","4","32","","","","","","","","","","","","","","","","","","","","","","","","","","","","","","","","","","",""
"3291","","text","7","69174","0.0-7.0","89443707","wem/bandit_either","ARLGZWN6W91WD","either","4","32","","","","","","","","","","","","","","","","","","","","","","","","","","","","","","","","","","",""
"6653","","identification","8","75862","0.0-8.0-0.0","89443707","wem/bandit_either","ARLGZWN6W91WD","either","4","","identification_pre","the village of Zur","","","","","","","","","","","","","","","","","","","","","","","","","","","","","","","","",""
"3509","","identification","9","80409","0.0-8.0-1.0","89443707","wem/bandit_either","ARLGZWN6W91WD","either","4","","identification_pre","the village of Nyx","","","","","","","","","","","","","","","","","","","","","","","","","","","","","","","","",""
"4750","","text","10","86176","0.0-9.0","89443707","wem/bandit_either","ARLGZWN6W91WD","either","4","32","","","","","","","","","","","","","","","","","","","","","","","","","","","","","","","","","","",""
"3200","","text","11","89382","0.0-10.0","89443707","wem/bandit_either","ARLGZWN6W91WD","either","4","32","","","","","","","","","","","","","","","","","","","","","","","","","","","","","","","","","","",""
"1509","","text","12","90896","0.0-11.0","89443707","wem/bandit_either","ARLGZWN6W91WD","either","4","32","","","","","","","","","","","","","","","","","","","","","","","","","","","","","","","","","","",""
"3243","","text","13","94143","0.0-12.0","89443707","wem/bandit_either","ARLGZWN6W91WD","either","4","32","","","","","","","","","","","","","","","","","","","","","","","","","","","","","","","","","","",""
"2758","","bandit","14","98422","0.0-13.0-0.0","89443707","wem/bandit_either","ARLGZWN6W91WD","either","4","","","","","","","0","0","1","0","0","","","","","0","","","","0","","","","","","","","","","74","J","0","img/none_selected_demo.jpg","true","0",""
"2272","","bandit","15","102217","0.0-14.0-0.0","89443707","wem/bandit_either","ARLGZWN6W91WD","either","4","","","","","","","0","0","1","0","0","","","","","0","","","","0","","","","","","","","","","75","K","0","img/none_selected_demo.jpg","true","0",""
"5770","","text","16","107993","0.0-15.0","89443707","wem/bandit_either","ARLGZWN6W91WD","either","4","32","","","","","","","","","","","","","","","","","","","","","","","","","","","","","","","","","","",""
"8313","","text","17","116312","0.0-16.0","89443707","wem/bandit_either","ARLGZWN6W91WD","either","4","32","","","","","","","","","","","","","","","","","","","","","","","","","","","","","","","","","","",""
"7404","","text","18","123719","0.0-17.0","89443707","wem/bandit_either","ARLGZWN6W91WD","either","4","32","","","","","","","","","","","","","","","","","","","","","","","","","","","","","","","","","","",""
"3772","","text","19","127494","0.0-18.0","89443707","wem/bandit_either","ARLGZWN6W91WD","either","4","32","","","","","","","","","","","","","","","","","","","","","","","","","","","","","","","","","","",""
"564","","bandit","20","129583","0.0-19.0-0.0","89443707","wem/bandit_either","ARLGZWN6W91WD","either","4","","","","","","","0","0","1","","0.8","0.5","0.5","","","0.8","0.2","","","","","","","","","","","","","74","J","0","img/none_selected_demo.jpg","true","0","80_20_practice"
"110","","bandit","21","131216","0.0-19.0-1.0","89443707","wem/bandit_either","ARLGZWN6W91WD","either","4","","","","","","","0","0","1","0.2","","0.5","0.5","","","","","","","0.8","0.2","","","","","","","","","75","K","1","","true","0","80_20_practice"
"86","","bandit","22","132816","0.0-19.0-2.0","89443707","wem/bandit_either","ARLGZWN6W91WD","either","4","","","","","","","0","1","0","","0.2","0.5","0.5","","","0.8","0.2","","","","","","","","","","","","","75","K","1","","true","0","80_20_practice"
"263","","bandit","23","134626","0.0-19.0-3.0","89443707","wem/bandit_either","ARLGZWN6W91WD","either","4","","","","","","","0","0","1","","0.8","0.5","0.5","","","0.8","0.2","","","","","","","","","","","","","74","J","0","img/none_selected_demo.jpg","true","0","80_20_practice"
"477","","bandit","24","136624","0.0-19.0-4.0","89443707","wem/bandit_either","ARLGZWN6W91WD","either","4","","","","","","","0","1","0","","0.8","0.5","0.5","","","0.8","0.2","","","","","","","","","","","","","74","J","0","img/none_selected_demo.jpg","true","0","80_20_practice"
"599","","bandit","25","138744","0.0-19.0-5.0","89443707","wem/bandit_either","ARLGZWN6W91WD","either","4","","","","","","","1","0","0","0.8","","0.5","0.5","","","","","","","0.8","0.2","","","","","","","","","74","J","0","img/none_selected_demo.jpg","true","0","80_20_practice"
"179","","bandit","26","140446","0.0-19.0-6.0","89443707","wem/bandit_either","ARLGZWN6W91WD","either","4","","","","","","","1","0","0","0.8","","0.5","0.5","","","","","","","0.8","0.2","","","","","","","","","74","J","0","img/none_selected_demo.jpg","true","0","80_20_practice"
"370","","bandit","27","142329","0.0-19.0-7.0","89443707","wem/bandit_either","ARLGZWN6W91WD","either","4","","","","","","","1","0","0","0.8","","0.5","0.5","","","","","","","0.8","0.2","","","","","","","","","74","J","0","img/none_selected_demo.jpg","true","0","80_20_practice"
"529","","bandit","28","144394","0.0-19.0-8.0","89443707","wem/bandit_either","ARLGZWN6W91WD","either","4","","","","","","","0","0","1","0.2","","0.5","0.5","","","","","","","0.8","0.2","","","","","","","","","75","K","1","","true","0","80_20_practice"
"552","","bandit","29","146468","0.0-19.0-9.0","89443707","wem/bandit_either","ARLGZWN6W91WD","either","4","","","","","","","0","0","1","0.8","","0.5","0.5","","","","","","","0.8","0.2","","","","","","","","","74","J","0","img/none_selected_demo.jpg","true","0","80_20_practice"
"288","","bandit","30","148275","0.0-19.0-10.0","89443707","wem/bandit_either","ARLGZWN6W91WD","either","4","","","","","","","1","0","0","0.8","","0.5","0.5","","","","","","","0.8","0.2","","","","","","","","","74","J","0","img/none_selected_demo.jpg","true","0","80_20_practice"
"124","","bandit","31","149948","0.0-19.0-11.0","89443707","wem/bandit_either","ARLGZWN6W91WD","either","4","","","","","","","0","1","0","","0.8","0.5","0.5","","","0.8","0.2","","","","","","","","","","","","","74","J","0","img/none_selected_demo.jpg","true","0","80_20_practice"
"226","","bandit","32","151693","0.0-19.0-12.0","89443707","wem/bandit_either","ARLGZWN6W91WD","either","4","","","","","","","0","1","0","","0.8","0.5","0.5","","","0.8","0.2","","","","","","","","","","","","","74","J","0","img/none_selected_demo.jpg","true","0","80_20_practice"
"671","","bandit","33","153882","0.0-19.0-13.0","89443707","wem/bandit_either","ARLGZWN6W91WD","either","4","","","","","","","0","0","1","0.8","","0.5","0.5","","","","","","","0.8","0.2","","","","","","","","","74","J","0","img/none_selected_demo.jpg","true","0","80_20_practice"
"344","","bandit","34","155739","0.0-19.0-14.0","89443707","wem/bandit_either","ARLGZWN6W91WD","either","4","","","","","","","0","1","0","","0.8","0.5","0.5","","","0.8","0.2","","","","","","","","","","","","","74","J","0","img/none_selected_demo.jpg","true","0","80_20_practice"
"323","","bandit","35","157577","0.0-19.0-15.0","89443707","wem/bandit_either","ARLGZWN6W91WD","either","4","","","","","","","0","1","0","","0.8","0.5","0.5","","","0.8","0.2","","","","","","","","","","","","","74","J","0","img/none_selected_demo.jpg","true","0","80_20_practice"
"2382","","bandit","36","161489","0.0-19.0-16.0","89443707","wem/bandit_either","ARLGZWN6W91WD","either","4","","","","","","","1","0","0","0.8","","0.5","0.5","","","","","","","0.8","0.2","","","","","","","","","74","J","0","img/none_selected_demo.jpg","true","0","80_20_practice"
"658","","bandit","37","163681","0.0-19.0-17.0","89443707","wem/bandit_either","ARLGZWN6W91WD","either","4","","","","","","","1","0","0","0.8","","0.5","0.5","","","","","","","0.8","0.2","","","","","","","","","74","J","0","img/none_selected_demo.jpg","true","0","80_20_practice"
"392","","bandit","38","165612","0.0-19.0-18.0","89443707","wem/bandit_either","ARLGZWN6W91WD","either","4","","","","","","","0","1","0","","0.8","0.5","0.5","","","0.8","0.2","","","","","","","","","","","","","74","J","0","img/none_selected_demo.jpg","true","0","80_20_practice"
"1343","","bandit","39","168481","0.0-19.0-19.0","89443707","wem/bandit_either","ARLGZWN6W91WD","either","4","","","","","","","0","1","0","","0.8","0.5","0.5","","","0.8","0.2","","","","","","","","","","","","","74","J","0","img/none_selected_demo.jpg","true","0","80_20_practice"
"6303","","text","40","174791","0.0-20.0","89443707","wem/bandit_either","ARLGZWN6W91WD","either","4","32","","","","","","","","","","","","","","","","","","","","","","","","","","","","","","","","","","",""
"795","","bandit","41","177114","0.0-21.0-0.0","89443707","wem/bandit_either","ARLGZWN6W91WD","either","4","","","","","","","1","0","0","1","0","","","","","0","1","","","1","0","","","","","","","","","74","J","0","img/none_selected_demo.jpg","true","0",""
"64559","","text","42","241681","0.0-22.0","89443707","wem/bandit_either","ARLGZWN6W91WD","either","4","32","","","","","","","","","","","","","","","","","","","","","","","","","","","","","","","","","","",""
"2494","","text","43","244185","0.0-23.0","89443707","wem/bandit_either","ARLGZWN6W91WD","either","4","32","","","","","","","","","","","","","","","","","","","","","","","","","","","","","","","","","","",""
"2124","","text","44","246315","0.0-24.0","89443707","wem/bandit_either","ARLGZWN6W91WD","either","4","32","","","","","","","","","","","","","","","","","","","","","","","","","","","","","","","","","","",""
"21231","","text","45","267552","0.0-25.0","89443707","wem/bandit_either","ARLGZWN6W91WD","either","4","32","","","","","","","","","","","","","","","","","","","","","","","","","","","","","","","","","","",""
"7864","","text","46","275423","0.0-26.0","89443707","wem/bandit_either","ARLGZWN6W91WD","either","4","32","","","","","","","","","","","","","","","","","","","","","","","","","","","","","","","","","","",""
"1729","","text","47","277160","0.0-27.0","89443707","wem/bandit_either","ARLGZWN6W91WD","either","4","32","","","","","","","","","","","","","","","","","","","","","","","","","","","","","","","","","","",""
"1737","","text","48","278903","0.0-28.0","89443707","wem/bandit_either","ARLGZWN6W91WD","either","4","32","","","","","","","","","","","","","","","","","","","","","","","","","","","","","","","","","","",""
"2136","","text","49","281048","0.0-29.0","89443707","wem/bandit_either","ARLGZWN6W91WD","either","4","32","","","","","","","","","","","","","","","","","","","","","","","","","","","","","","","","","","",""
"2624","","text","50","283679","0.0-30.0","89443707","wem/bandit_either","ARLGZWN6W91WD","either","4","32","","","","","","","","","","","","","","","","","","","","","","","","","","","","","","","","","","",""
"1947","","text","51","285631","0.0-31.0","89443707","wem/bandit_either","ARLGZWN6W91WD","either","4","32","","","","","","","","","","","","","","","","","","","","","","","","","","","","","","","","","","",""
"2928","","text","52","288568","0.0-32.0","89443707","wem/bandit_either","ARLGZWN6W91WD","either","4","32","","","","","","","","","","","","","","","","","","","","","","","","","","","","","","","","","","",""
"541","","bandit","53","290641","0.0-33.0-0.0","89443707","wem/bandit_either","ARLGZWN6W91WD","either","4","","","","","","","0","0","1","0.8","","0.5","0.5","0.5","0.5","","","","","0.8","0.2","0.6","0.2","","","","","","","72","H","0","img/none_selected.jpg","true","0","full_practice"
"999","","bandit","54","293293","0.0-33.0-1.0","89443707","wem/bandit_either","ARLGZWN6W91WD","either","4","","","","","","","0","0","1","","0.2","0.5","0.5","0.5","0.5","0.8","0.2","0.6","0.2","","","","","","","","","","","74","J","1","","true","0","full_practice"
"373","","bandit","55","295196","0.0-33.0-2.0","89443707","wem/bandit_either","ARLGZWN6W91WD","either","4","","","","","","","1","0","0","0.6","","0.5","0.5","0.5","0.5","","","","","0.8","0.2","0.6","0.2","","","","","","","75","K","2","","true","0","full_practice"
"395","","bandit","56","297123","0.0-33.0-3.0","89443707","wem/bandit_either","ARLGZWN6W91WD","either","4","","","","","","","0","0","1","0.2","","0.5","0.5","0.5","0.5","","","","","0.8","0.2","0.6","0.2","","","","","","","76","L","3","","true","0","full_practice"
"1201","","bandit","57","299876","0.0-33.0-4.0","89443707","wem/bandit_either","ARLGZWN6W91WD","either","4","","","","","","","1","0","0","0.6","","0.5","0.5","0.5","0.5","","","","","0.8","0.2","0.6","0.2","","","","","","","75","K","2","","true","0","full_practice"
"676","","bandit","58","302073","0.0-33.0-5.0","89443707","wem/bandit_either","ARLGZWN6W91WD","either","4","","","","","","","0","0","1","0.6","","0.5","0.5","0.5","0.5","","","","","0.8","0.2","0.6","0.2","","","","","","","75","K","2","","true","0","full_practice"
"365","","bandit","59","303960","0.0-33.0-6.0","89443707","wem/bandit_either","ARLGZWN6W91WD","either","4","","","","","","","1","0","0","0.6","","0.5","0.5","0.5","0.5","","","","","0.8","0.2","0.6","0.2","","","","","","","75","K","2","","true","0","full_practice"
"441","","bandit","60","305933","0.0-33.0-7.0","89443707","wem/bandit_either","ARLGZWN6W91WD","either","4","","","","","","","1","0","0","0.6","","0.5","0.5","0.5","0.5","","","","","0.8","0.2","0.6","0.2","","","","","","","75","K","2","","true","0","full_practice"
"1634","","bandit","61","309173","0.0-33.0-8.0","89443707","wem/bandit_either","ARLGZWN6W91WD","either","4","","","","","","","1","0","0","0.6","","0.5","0.5","0.5","0.5","","","","","0.8","0.2","0.6","0.2","","","","","","","75","K","2","","true","0","full_practice"
"2144","","bandit","62","312842","0.0-33.0-9.0","89443707","wem/bandit_either","ARLGZWN6W91WD","either","4","","","","","","","0","1","0","","0.6","0.5","0.5","0.5","0.5","0.8","0.2","0.6","0.2","","","","","","","","","","","75","K","2","","true","0","full_practice"
"874","","bandit","63","315235","0.0-33.0-10.0","89443707","wem/bandit_either","ARLGZWN6W91WD","either","4","","","","","","","0","0","1","0.6","","0.5","0.5","0.5","0.5","","","","","0.8","0.2","0.6","0.2","","","","","","","75","K","2","","true","0","full_practice"
"390","","bandit","64","317147","0.0-33.0-11.0","89443707","wem/bandit_either","ARLGZWN6W91WD","either","4","","","","","","","0","0","1","0.6","","0.5","0.5","0.5","0.5","","","","","0.8","0.2","0.6","0.2","","","","","","","75","K","2","","true","0","full_practice"
"108","","bandit","65","318781","0.0-33.0-12.0","89443707","wem/bandit_either","ARLGZWN6W91WD","either","4","","","","","","","0","0","1","","0.2","0.5","0.5","0.5","0.5","0.8","0.2","0.6","0.2","","","","","","","","","","","74","J","1","","true","0","full_practice"
"111","","bandit","66","320422","0.0-33.0-13.0","89443707","wem/bandit_either","ARLGZWN6W91WD","either","4","","","","","","","0","0","1","","0.2","0.5","0.5","0.5","0.5","0.8","0.2","0.6","0.2","","","","","","","","","","","74","J","1","","true","0","full_practice"
"648","","bandit","67","322632","0.0-33.0-14.0","89443707","wem/bandit_either","ARLGZWN6W91WD","either","4","","","","","","","0","1","0","","0.8","0.5","0.5","0.5","0.5","0.8","0.2","0.6","0.2","","","","","","","","","","","72","H","0","img/none_selected.jpg","true","0","full_practice"
"355","","bandit","68","324512","0.0-33.0-15.0","89443707","wem/bandit_either","ARLGZWN6W91WD","either","4","","","","","","","0","0","1","0.8","","0.5","0.5","0.5","0.5","","","","","0.8","0.2","0.6","0.2","","","","","","","72","H","0","img/none_selected.jpg","true","0","full_practice"
"448","","bandit","69","326577","0.0-33.0-16.0","89443707","wem/bandit_either","ARLGZWN6W91WD","either","4","","","","","","","1","0","0","0.8","","0.5","0.5","0.5","0.5","","","","","0.8","0.2","0.6","0.2","","","","","","","72","H","0","img/none_selected.jpg","true","0","full_practice"
"638","","bandit","70","328752","0.0-33.0-17.0","89443707","wem/bandit_either","ARLGZWN6W91WD","either","4","","","","","","","1","0","0","0.8","","0.5","0.5","0.5","0.5","","","","","0.8","0.2","0.6","0.2","","","","","","","72","H","0","img/none_selected.jpg","true","0","full_practice"
"600","","bandit","71","330875","0.0-33.0-18.0","89443707","wem/bandit_either","ARLGZWN6W91WD","either","4","","","","","","","0","0","1","","0.8","0.5","0.5","0.5","0.5","0.8","0.2","0.6","0.2","","","","","","","","","","","72","H","0","img/none_selected.jpg","true","0","full_practice"
"1122","","bandit","72","333520","0.0-33.0-19.0","89443707","wem/bandit_either","ARLGZWN6W91WD","either","4","","","","","","","1","0","0","0.8","","0.5","0.5","0.5","0.5","","","","","0.8","0.2","0.6","0.2","","","","","","","72","H","0","img/none_selected.jpg","true","0","full_practice"
"3440","","text","73","336976","0.0-34.0","89443707","wem/bandit_either","ARLGZWN6W91WD","either","4","32","","","","","","","","","","","","","","","","","","","","","","","","","","","","","","","","","","",""
"14439","","text","74","352428","0.0-35.0","89443707","wem/bandit_either","ARLGZWN6W91WD","either","4","32","","","","","","","","","","","","","","","","","","","","","","","","","","","","","","","","","","",""
"9379","","text","75","361816","0.0-36.0","89443707","wem/bandit_either","ARLGZWN6W91WD","either","4","32","","","","","","","","","","","","","","","","","","","","","","","","","","","","","","","","","","",""
"4296","","text","76","366123","0.0-37.0","89443707","wem/bandit_either","ARLGZWN6W91WD","either","4","32","","","","","","","","","","","","","","","","","","","","","","","","","","","","","","","","","","",""
"3239","","text","77","369375","0.0-38.0","89443707","wem/bandit_either","ARLGZWN6W91WD","either","4","32","","","","","","","","","","","","","","","","","","","","","","","","","","","","","","","","","","",""
"2345","","text","78","371728","0.0-39.0","89443707","wem/bandit_either","ARLGZWN6W91WD","either","4","32","","","","","","","","","","","","","","","","","","","","","","","","","","","","","","","","","","",""
"609","","bandit","79","373872","0.0-40.0-0.0","89443707","wem/bandit_either","ARLGZWN6W91WD","either","4","","","","","","","0","0","1","0.3525715257","","0.4","0.2","0.6","0.8","","","","","0.3525715257","0.3242650943","0.3894728165","0.2771551185","","","","","","","72","H","0","img/none_selected.jpg","","1","main_expt"
"331","","bandit","80","375721","0.0-41.0-0.0","89443707","wem/bandit_either","ARLGZWN6W91WD","either","4","","","","","","","0","0","1","0.390153736","","0.4","0.2","0.6","0.8","","","","","0.390153736","0.3296228245","0.363660736","0.3030893157","","","","","","","72","H","0","img/none_selected.jpg","","2","main_expt"
"342","","bandit","81","377682","0.0-42.0-0.0","89443707","wem/bandit_either","ARLGZWN6W91WD","either","4","","","","","","","0","0","1","","0.3725447061","0.4","0.2","0.6","0.8","0.3725447061","0.3102780753","0.3842171554","0.3211059343","","","","","","","","","","","72","H","0","img/none_selected.jpg","","3","main_expt"
"345","","bandit","82","379545","0.0-43.0-0.0","89443707","wem/bandit_either","ARLGZWN6W91WD","either","4","","","","","","","0","0","1","","0.3431524481","0.4","0.2","0.6","0.8","0.3431524481","0.2749892112","0.3831963053","0.2804386453","","","","","","","","","","","72","H","0","img/none_selected.jpg","","4","main_expt"
"286","","bandit","83","381354","0.0-44.0-0.0","89443707","wem/bandit_either","ARLGZWN6W91WD","either","4","","","","","","","0","0","1","","0.3448007793","0.4","0.2","0.6","0.8","0.3448007793","0.3037824898","0.4056596471","0.2609559086","","","","","","","","","","","72","H","0","img/none_selected.jpg","","5","main_expt"
"244","","bandit","84","383128","0.0-45.0-0.0","89443707","wem/bandit_either","ARLGZWN6W91WD","either","4","","","","","","","0","1","0","","0.3217417103","0.4","0.2","0.6","0.8","0.3980888019","0.3217417103","0.4409946319","0.2259287768","","","","","","","","","","","74","J","1","","","6","main_expt"
"331","","bandit","85","384994","0.0-46.0-0.0","89443707","wem/bandit_either","ARLGZWN6W91WD","either","4","","","","","","","1","0","0","0.3018715163","","0.4","0.2","0.6","0.8","","","","","0.3693121862","0.3018715163","0.3821747998","0.2433618728","","","","","","","74","J","1","","","7","main_expt"
"364","","bandit","86","386886","0.0-47.0-0.0","89443707","wem/bandit_either","ARLGZWN6W91WD","either","4","","","","","","","0","1","0","","0.3643645816","0.4","0.2","0.6","0.8","0.2933697555","0.3643645816","0.3841844813","0.2025356769","","","","","","","","","","","74","J","1","","","8","main_expt"
"320","","bandit","87","388735","0.0-48.0-0.0","89443707","wem/bandit_either","ARLGZWN6W91WD","either","4","","","","","","","0","1","0","","0.3418610374","0.4","0.2","0.6","0.8","0.3036212831","0.3418610374","0.3412237964","0.1441028094","","","","","","","","","","","74","J","1","","","9","main_expt"
"240","","bandit","88","390492","0.0-49.0-0.0","89443707","wem/bandit_either","ARLGZWN6W91WD","either","4","","","","","","","0","0","1","","0.3190157878","0.4","0.2","0.6","0.8","0.308020301","0.3190157878","0.3256420777","0.1736005971","","","","","","","","","","","74","J","1","","","10","main_expt"
"355","","bandit","89","392435","0.0-50.0-0.0","89443707","wem/bandit_either","ARLGZWN6W91WD","either","4","","","","","","","0","1","0","","0.2998731478","0.4","0.2","0.6","0.8","0.3065973113","0.2998731478","0.3514007431","0.1836365694","","","","","","","","","","","74","J","1","","","11","main_expt"
"299","","bandit","90","394255","0.0-51.0-0.0","89443707","wem/bandit_either","ARLGZWN6W91WD","either","4","","","","","","","0","1","0","","0.2942822571","0.4","0.2","0.6","0.8","0.3271859636","0.2942822571","0.3722032088","0.2143869662","","","","","","","","","","","74","J","1","","","12","main_expt"
"352","","bandit","91","396128","0.0-52.0-0.0","89443707","wem/bandit_either","ARLGZWN6W91WD","either","4","","","","","","","0","1","0","","0.3009212619","0.4","0.2","0.6","0.8","0.2761076709","0.3009212619","0.3681707299","0.1637139448","","","","","","","","","","","74","J","1","","","13","main_expt"
"384","","bandit","92","398064","0.0-53.0-0.0","89443707","wem/bandit_either","ARLGZWN6W91WD","either","4","","","","","","","0","0","1","","0.3227424667","0.4","0.2","0.6","0.8","0.2311164494","0.3227424667","0.3528222564","0.1488535162","","","","","","","","","","","74","J","1","","","14","main_expt"
"511","","bandit","93","400098","0.0-54.0-0.0","89443707","wem/bandit_either","ARLGZWN6W91WD","either","4","","","","","","","0","1","0","","0.3547546862","0.4","0.2","0.6","0.8","0.2905977425","0.3547546862","0.3738838661","0.1332411271","","","","","","","","","","","74","J","1","","","15","main_expt"
"432","","bandit","94","402061","0.0-55.0-0.0","89443707","wem/bandit_either","ARLGZWN6W91WD","either","4","","","","","","","0","1","0","","0.3241157583","0.4","0.2","0.6","0.8","0.2924554969","0.3241157583","0.3385239332","0.09882415698","","","","","","","","","","","74","J","1","","","16","main_expt"
"406","","bandit","95","403991","0.0-56.0-0.0","89443707","wem/bandit_either","ARLGZWN6W91WD","either","4","","","","","","","0","1","0","","0.3363410386","0.4","0.2","0.6","0.8","0.3114836302","0.3363410386","0.3111355138","0.1069157009","","","","","","","","","","","74","J","1","","","17","main_expt"
"296","","bandit","96","405808","0.0-57.0-0.0","89443707","wem/bandit_either","ARLGZWN6W91WD","either","4","","","","","","","0","0","1","","0.3880947854","0.4","0.2","0.6","0.8","0.3215333475","0.3880947854","0.3487767647","0.134958137","","","","","","","","","","","74","J","1","","","18","main_expt"
"347","","bandit","97","407703","0.0-58.0-0.0","89443707","wem/bandit_either","ARLGZWN6W91WD","either","4","","","","","","","0","1","0","","0.4116912081","0.4","0.2","0.6","0.8","0.2733398822","0.4116912081","0.3010303499","0.1230418706","","","","","","","","","","","74","J","1","","","19","main_expt"
"396","","bandit","98","409625","0.0-59.0-0.0","89443707","wem/bandit_either","ARLGZWN6W91WD","either","4","","","","","","","0","1","0","","0.3973894305","0.4","0.2","0.6","0.8","0.2351410235","0.3973894305","0.2907203997","0.09866604889","","","","","","","","","","","74","J","1","","","20","main_expt"
"352","","bandit","99","411494","0.0-60.0-0.0","89443707","wem/bandit_either","ARLGZWN6W91WD","either","4","","","","","","","1","0","0","0.369037109","","0.4","0.2","0.6","0.8","","","","","0.2257810982","0.369037109","0.3088108907","0.1021222834","","","","","","","74","J","1","","","21","main_expt"
"575","","bandit","100","413597","0.0-61.0-0.0","89443707","wem/bandit_either","ARLGZWN6W91WD","either","4","","","","","","","0","1","0","","0.4179468344","0.4","0.2","0.6","0.8","0.2221856846","0.4179468344","0.349202701","0.1234138809","","","","","","","","","","","74","J","1","","","22","main_expt"
"1001","","bandit","101","416237","0.0-62.0-0.0","89443707","wem/bandit_either","ARLGZWN6W91WD","either","4","","","","","","","0","0","1","","0.4276062926","0.4","0.2","0.6","0.8","0.2127124712","0.4276062926","0.3785068464","0.1030640584","","","","","","","","","","","74","J","1","","","23","main_expt"
"746","","bandit","102","418511","0.0-63.0-0.0","89443707","wem/bandit_either","ARLGZWN6W91WD","either","4","","","","","","","0","0","1","0.4078122208","","0.4","0.2","0.6","0.8","","","","","0.1882566648","0.4078122208","0.4012919653","0.1261035851","","","","","","","74","J","1","","","24","main_expt"
"847","","bandit","103","420881","0.0-64.0-0.0","89443707","wem/bandit_either","ARLGZWN6W91WD","either","4","","","","","","","0","1","0","","0.3950411191","0.4","0.2","0.6","0.8","0.1273223766","0.3950411191","0.400899794","0.1796705612","","","","","","","","","","","74","J","1","","","25","main_expt"
"973","","bandit","104","423437","0.0-65.0-0.0","89443707","wem/bandit_either","ARLGZWN6W91WD","either","4","","","","","","","0","0","1","0.4322303329","","0.4","0.2","0.6","0.8","","","","","0.15747458","0.4322303329","0.4126274585","0.2414651519","","","","","","","74","J","1","","","26","main_expt"
"422","","bandit","105","425377","0.0-66.0-0.0","89443707","wem/bandit_either","ARLGZWN6W91WD","either","4","","","","","","","0","1","0","","0.4353643722","0.4","0.2","0.6","0.8","0.1442684908","0.4353643722","0.3992263875","0.2005374927","","","","","","","","","","","74","J","1","","","27","main_expt"
"1971","","bandit","106","428901","0.0-67.0-0.0","89443707","wem/bandit_either","ARLGZWN6W91WD","either","4","","","","","","","0","0","1","","0.4464017809","0.4","0.2","0.6","0.8","0.2255404594","0.4464017809","0.3846584236","0.3197257227","","","","","","","","","","","74","J","1","","","28","main_expt"
"506","","bandit","107","430929","0.0-68.0-0.0","89443707","wem/bandit_either","ARLGZWN6W91WD","either","4","","","","","","","0","0","1","","0.4417109462","0.4","0.2","0.6","0.8","0.2730951691","0.4417109462","0.3561298134","0.3141869899","","","","","","","","","","","74","J","1","","","29","main_expt"
"370","","bandit","108","432858","0.0-69.0-0.0","89443707","wem/bandit_either","ARLGZWN6W91WD","either","4","","","","","","","0","1","0","","0.4065908859","0.4","0.2","0.6","0.8","0.2890412698","0.4065908859","0.3101363315","0.3445991012","","","","","","","","","","","74","J","1","","","30","main_expt"
"739","","bandit","109","435151","0.0-70.0-0.0","89443707","wem/bandit_either","ARLGZWN6W91WD","either","4","","","","","","","0","0","1","","0.3954582793","0.4","0.2","0.6","0.8","0.3309226042","0.3954582793","0.3322219809","0.3456655029","","","","","","","","","","","74","J","1","","","31","main_expt"
"673","","bandit","110","437343","0.0-71.0-0.0","89443707","wem/bandit_either","ARLGZWN6W91WD","either","4","","","","","","","0","0","1","","0.3716723047","0.4","0.2","0.6","0.8","0.3519301717","0.3716723047","0.3516269472","0.3826172224","","","","","","","","","","","74","J","1","","","32","main_expt"
"394","","bandit","111","439254","0.0-72.0-0.0","89443707","wem/bandit_either","ARLGZWN6W91WD","either","4","","","","","","","0","0","1","","0.3799724366","0.4","0.2","0.6","0.8","0.3414953842","0.3799724366","0.3852085553","0.3804083149","","","","","","","","","","","74","J","1","","","33","main_expt"
"273","","bandit","112","441072","0.0-73.0-0.0","89443707","wem/bandit_either","ARLGZWN6W91WD","either","4","","","","","","","0","0","1","0.4196644934","","0.4","0.2","0.6","0.8","","","","","0.2938412915","0.409480615","0.4196644934","0.3808178469","","","","","","","75","K","2","","","34","main_expt"
"268","","bandit","113","442944","0.0-74.0-0.0","89443707","wem/bandit_either","ARLGZWN6W91WD","either","4","","","","","","","0","0","1","","0.420891004","0.4","0.2","0.6","0.8","0.2256616696","0.3869649509","0.420891004","0.376129724","","","","","","","","","","","75","K","2","","","35","main_expt"
"504","","bandit","114","444995","0.0-75.0-0.0","89443707","wem/bandit_either","ARLGZWN6W91WD","either","4","","","","","","","0","0","1","0.3808881167","","0.4","0.2","0.6","0.8","","","","","0.2525957923","0.3045389962","0.3808881167","0.4027809904","","","","","","","75","K","2","","","36","main_expt"
"699","","bandit","115","447218","0.0-76.0-0.0","89443707","wem/bandit_either","ARLGZWN6W91WD","either","4","","","","","","","0","1","0","","0.3715556026","0.4","0.2","0.6","0.8","0.2333373749","0.2954217214","0.3634360393","0.3715556026","","","","","","","","","","","76","L","3","","","37","main_expt"
"473","","bandit","116","449215","0.0-77.0-0.0","89443707","wem/bandit_either","ARLGZWN6W91WD","either","4","","","","","","","0","0","1","0.354842885","","0.4","0.2","0.6","0.8","","","","","0.2126884676","0.2749906923","0.3432691328","0.354842885","","","","","","","76","L","3","","","38","main_expt"
"374","","bandit","117","451118","0.0-78.0-0.0","89443707","wem/bandit_either","ARLGZWN6W91WD","either","4","","","","","","","0","0","1","0.3066825603","","0.4","0.2","0.6","0.8","","","","","0.212498526","0.2911873598","0.3113322025","0.3066825603","","","","","","","76","L","3","","","39","main_expt"
"354","","bandit","118","452991","0.0-79.0-0.0","89443707","wem/bandit_either","ARLGZWN6W91WD","either","4","","","","","","","0","0","1","0.3208648015","","0.4","0.2","0.6","0.8","","","","","0.2031275136","0.3066149412","0.3298138996","0.3208648015","","","","","","","76","L","3","","","40","main_expt"
"179","","bandit","119","454688","0.0-80.0-0.0","89443707","wem/bandit_either","ARLGZWN6W91WD","either","4","","","","","","","0","0","1","","0.2774570704","0.4","0.2","0.6","0.8","0.2409224204","0.2612722093","0.3590557929","0.2774570704","","","","","","","","","","","76","L","3","","","41","main_expt"
"387","","bandit","120","456593","0.0-81.0-0.0","89443707","wem/bandit_either","ARLGZWN6W91WD","either","4","","","","","","","0","0","1","0.3455434044","","0.4","0.2","0.6","0.8","","","","","0.2166695961","0.2579482203","0.3455434044","0.3092882543","","","","","","","75","K","2","","","42","main_expt"
"322","","bandit","121","458444","0.0-82.0-0.0","89443707","wem/bandit_either","ARLGZWN6W91WD","either","4","","","","","","","0","0","1","","0.4020043176","0.4","0.2","0.6","0.8","0.2314197793","0.2232302517","0.4020043176","0.3161251671","","","","","","","","","","","75","K","2","","","43","main_expt"
"329","","bandit","122","460301","0.0-83.0-0.0","89443707","wem/bandit_either","ARLGZWN6W91WD","either","4","","","","","","","0","0","1","","0.4088695108","0.4","0.2","0.6","0.8","0.1889371852","0.2435669349","0.4088695108","0.3032549762","","","","","","","","","","","75","K","2","","","44","main_expt"
"108","","bandit","123","461927","0.0-84.0-0.0","89443707","wem/bandit_either","ARLGZWN6W91WD","either","4","","","","","","","1","0","0","0.2152104473","","0.4","0.2","0.6","0.8","","","","","0.2152104473","0.1885724617","0.3914045207","0.3012359134","","","","","","","72","H","0","img/none_selected.jpg","","45","main_expt"
"355","","bandit","124","463800","0.0-85.0-0.0","89443707","wem/bandit_either","ARLGZWN6W91WD","either","4","","","","","","","1","0","0","0.2260726972","","0.4","0.2","0.6","0.8","","","","","0.2260726972","0.104230756","0.3682142312","0.2994346937","","","","","","","72","H","0","img/none_selected.jpg","","46","main_expt"
"333","","bandit","125","465655","0.0-86.0-0.0","89443707","wem/bandit_either","ARLGZWN6W91WD","either","4","","","","","","","0","0","1","","0.2330399618","0.4","0.2","0.6","0.8","0.2330399618","0.09013225529","0.3462276735","0.3169549043","","","","","","","","","","","72","H","0","img/none_selected.jpg","","47","main_expt"
"339","","bandit","126","467516","0.0-87.0-0.0","89443707","wem/bandit_either","ARLGZWN6W91WD","either","4","","","","","","","1","0","0","0.2769685944","","0.4","0.2","0.6","0.8","","","","","0.2769685944","0.1066227192","0.3501405617","0.3137179834","","","","","","","72","H","0","img/none_selected.jpg","","48","main_expt"
"312","","bandit","127","469419","0.0-88.0-0.0","89443707","wem/bandit_either","ARLGZWN6W91WD","either","4","","","","","","","0","0","1","","0.2954986192","0.4","0.2","0.6","0.8","0.2954986192","0.1273062614","0.3607669766","0.3026837323","","","","","","","","","","","72","H","0","img/none_selected.jpg","","49","main_expt"
"344","","bandit","128","471410","0.0-89.0-0.0","89443707","wem/bandit_either","ARLGZWN6W91WD","either","4","","","","","","","0","0","1","0.2730110453","","0.4","0.2","0.6","0.8","","","","","0.2730110453","0.08158159543","0.3776327681","0.2690248343","","","","","","","72","H","0","img/none_selected.jpg","","50","main_expt"
"377","","bandit","129","473310","0.0-90.0-0.0","89443707","wem/bandit_either","ARLGZWN6W91WD","either","4","","","","","","","0","0","1","0.2672659715","","0.4","0.2","0.6","0.8","","","","","0.2672659715","0.08035098666","0.3922012959","0.2407215714","","","","","","","72","H","0","img/none_selected.jpg","","51","main_expt"
"395","","bandit","130","475222","0.0-91.0-0.0","89443707","wem/bandit_either","ARLGZWN6W91WD","either","4","","","","","","","0","0","1","","0.2552972095","0.4","0.2","0.6","0.8","0.2552972095","0.1007468434","0.3532085343","0.2758158767","","","","","","","","","","","72","H","0","img/none_selected.jpg","","52","main_expt"
"458","","bandit","131","477199","0.0-92.0-0.0","89443707","wem/bandit_either","ARLGZWN6W91WD","either","4","","","","","","","0","0","1","0.1954439593","","0.4","0.2","0.6","0.8","","","","","0.1954439593","0.1479770317","0.3597378762","0.2661511239","","","","","","","72","H","0","img/none_selected.jpg","","53","main_expt"
"349","","bandit","132","479096","0.0-93.0-0.0","89443707","wem/bandit_either","ARLGZWN6W91WD","either","4","","","","","","","0","0","1","","0.1450389045","0.4","0.2","0.6","0.8","0.1250298759","0.1450389045","0.3553644404","0.250303373","","","","","","","","","","","74","J","1","","","54","main_expt"
"288","","bandit","133","480914","0.0-94.0-0.0","89443707","wem/bandit_either","ARLGZWN6W91WD","either","4","","","","","","","0","1","0","","0.1678096349","0.4","0.2","0.6","0.8","0.1224949652","0.1678096349","0.3427354451","0.1850572083","","","","","","","","","","","74","J","1","","","55","main_expt"
"607","","bandit","134","483075","0.0-95.0-0.0","89443707","wem/bandit_either","ARLGZWN6W91WD","either","4","","","","","","","0","0","1","","0.1748395718","0.4","0.2","0.6","0.8","0.1312048923","0.1748395718","0.3158877586","0.2410157884","","","","","","","","","","","74","J","1","","","56","main_expt"
"428","","bandit","135","485023","0.0-96.0-0.0","89443707","wem/bandit_either","ARLGZWN6W91WD","either","4","","","","","","","0","0","1","0.146986137","","0.4","0.2","0.6","0.8","","","","","0.14452077","0.146986137","0.3224611445","0.2657224069","","","","","","","74","J","1","","","57","main_expt"
"349","","bandit","136","486916","0.0-97.0-0.0","89443707","wem/bandit_either","ARLGZWN6W91WD","either","4","","","","","","","0","0","1","","0.1316135006","0.4","0.2","0.6","0.8","0.1198415177","0.1316135006","0.3378672788","0.2361308133","","","","","","","","","","","74","J","1","","","58","main_expt"
"297","","bandit","137","488815","0.0-98.0-0.0","89443707","wem/bandit_either","ARLGZWN6W91WD","either","4","","","","","","","0","0","1","0.3438075972","","0.4","0.2","0.6","0.8","","","","","0.1674914914","0.1776120447","0.3438075972","0.2078360154","","","","","","","75","K","2","","","59","main_expt"
"450","","bandit","138","490784","0.0-99.0-0.0","89443707","wem/bandit_either","ARLGZWN6W91WD","either","4","","","","","","","1","0","0","0.2950987239","","0.4","0.2","0.6","0.8","","","","","0.147959707","0.2034864675","0.2950987239","0.2256957235","","","","","","","75","K","2","","","60","main_expt"
"668","","bandit","139","492981","0.0-100.0-0.0","89443707","wem/bandit_either","ARLGZWN6W91WD","either","4","","","","","","","0","0","1","","0.2939622289","0.4","0.2","0.6","0.8","0.1217284172","0.1325668513","0.2939622289","0.2713547376","","","","","","","","","","","75","K","2","","","61","main_expt"
"232","","bandit","140","494749","0.0-101.0-0.0","89443707","wem/bandit_either","ARLGZWN6W91WD","either","4","","","","","","","0","0","1","0.2907096119","","0.4","0.2","0.6","0.8","","","","","0.1392905859","0.125492747","0.2907096119","0.2800078023","","","","","","","75","K","2","","","62","main_expt"
"1642","","bandit","141","497911","0.0-102.0-0.0","89443707","wem/bandit_either","ARLGZWN6W91WD","either","4","","","","","","","0","0","1","0.2696382907","","0.4","0.2","0.6","0.8","","","","","0.1953314019","0.1081989139","0.2696382907","0.362183352","","","","","","","75","K","2","","","63","main_expt"
"469","","bandit","142","499906","0.0-103.0-0.0","89443707","wem/bandit_either","ARLGZWN6W91WD","either","4","","","","","","","0","1","0","","0.2496415039","0.4","0.2","0.6","0.8","0.2618523415","0.09104284411","0.2496415039","0.3354395381","","","","","","","","","","","75","K","2","","","64","main_expt"
"854","","bandit","143","502305","0.0-104.0-0.0","89443707","wem/bandit_either","ARLGZWN6W91WD","either","4","","","","","","","0","0","1","0.2364994079","","0.4","0.2","0.6","0.8","","","","","0.2686672798","0.1264903162","0.2364994079","0.2893845237","","","","","","","75","K","2","","","65","main_expt"
"401","","bandit","144","504251","0.0-105.0-0.0","89443707","wem/bandit_either","ARLGZWN6W91WD","either","4","","","","","","","0","0","1","0.2541683514","","0.4","0.2","0.6","0.8","","","","","0.2451656397","0.1665937301","0.2541683514","0.2355717356","","","","","","","75","K","2","","","66","main_expt"
"305","","bandit","145","506093","0.0-106.0-0.0","89443707","wem/bandit_either","ARLGZWN6W91WD","either","4","","","","","","","0","0","1","0.2848755716","","0.4","0.2","0.6","0.8","","","","","0.2445320338","0.1740025863","0.2985471382","0.2848755716","","","","","","","76","L","3","","","67","main_expt"
"359","","bandit","146","508038","0.0-107.0-0.0","89443707","wem/bandit_either","ARLGZWN6W91WD","either","4","","","","","","","0","0","1","0.3341158043","","0.4","0.2","0.6","0.8","","","","","0.2261158315","0.2300011382","0.3391290389","0.3341158043","","","","","","","76","L","3","","","68","main_expt"
"445","","bandit","147","510004","0.0-108.0-0.0","89443707","wem/bandit_either","ARLGZWN6W91WD","either","4","","","","","","","1","0","0","0.3253412689","","0.4","0.2","0.6","0.8","","","","","0.1627286519","0.1768594062","0.3114764975","0.3253412689","","","","","","","76","L","3","","","69","main_expt"
"551","","bandit","148","512126","0.0-109.0-0.0","89443707","wem/bandit_either","ARLGZWN6W91WD","either","4","","","","","","","0","0","1","0.3280915152","","0.4","0.2","0.6","0.8","","","","","0.1301009224","0.1906145184","0.3056328376","0.3280915152","","","","","","","76","L","3","","","70","main_expt"
"615","","bandit","149","514269","0.0-110.0-0.0","89443707","wem/bandit_either","ARLGZWN6W91WD","either","4","","","","","","","0","0","1","0.3772643828","","0.4","0.2","0.6","0.8","","","","","0.1356707761","0.1451664327","0.3445325487","0.3772643828","","","","","","","76","L","3","","","71","main_expt"
"429","","bandit","150","516368","0.0-111.0-0.0","89443707","wem/bandit_either","ARLGZWN6W91WD","either","4","","","","","","","1","0","0","0.4074174212","","0.4","0.2","0.6","0.8","","","","","0.1045412551","0.1091447996","0.364612409","0.4074174212","","","","","","","76","L","3","","","72","main_expt"
"800","","bandit","151","518686","0.0-112.0-0.0","89443707","wem/bandit_either","ARLGZWN6W91WD","either","4","","","","","","","0","0","1","0.3736299767","","0.4","0.2","0.6","0.8","","","","","0.0867882282","0.1248737042","0.4454774056","0.3736299767","","","","","","","76","L","3","","","73","main_expt"
"652","","bandit","152","520857","0.0-113.0-0.0","89443707","wem/bandit_either","ARLGZWN6W91WD","either","4","","","","","","","0","0","1","0.383211712","","0.4","0.2","0.6","0.8","","","","","0.1018359722","0.1073746888","0.4492830973","0.383211712","","","","","","","76","L","3","","","74","main_expt"
"484","","bandit","153","522961","0.0-114.0-0.0","89443707","wem/bandit_either","ARLGZWN6W91WD","either","4","","","","","","","0","0","1","0.3681962321","","0.4","0.2","0.6","0.8","","","","","0.09443707336","0.1051395745","0.449321966","0.3681962321","","","","","","","76","L","3","","","75","main_expt"
"431","","bandit","154","524911","0.0-115.0-0.0","89443707","wem/bandit_either","ARLGZWN6W91WD","either","4","","","","","","","0","0","1","0.08768691443","","0.4","0.2","0.6","0.8","","","","","0.08768691443","0.09171451076","0.4299726132","0.3574328021","","","","","","","72","H","0","img/none_selected.jpg","","76","main_expt"
"472","","bandit","155","526949","0.0-116.0-0.0","89443707","wem/bandit_either","ARLGZWN6W91WD","either","4","","","","","","","0","0","1","0.07744448812","","0.4","0.2","0.6","0.8","","","","","0.07744448812","0.1256070833","0.4349340462","0.4041720962","","","","","","","72","H","0","img/none_selected.jpg","","77","main_expt"
"311","","bandit","156","528845","0.0-117.0-0.0","89443707","wem/bandit_either","ARLGZWN6W91WD","either","4","","","","","","","0","0","1","0.05712631425","","0.4","0.2","0.6","0.8","","","","","0.05712631425","0.1398604905","0.4112950215","0.4000946746","","","","","","","72","H","0","img/none_selected.jpg","","78","main_expt"
"375","","bandit","157","530744","0.0-118.0-0.0","89443707","wem/bandit_either","ARLGZWN6W91WD","either","4","","","","","","","0","0","1","","0.03981704588","0.4","0.2","0.6","0.8","0.03981704588","0.1303191282","0.4123046053","0.425248604","","","","","","","","","","","72","H","0","img/none_selected.jpg","","79","main_expt"
"382","","bandit","158","532654","0.0-119.0-0.0","89443707","wem/bandit_either","ARLGZWN6W91WD","either","4","","","","","","","0","0","1","0.02961196177","","0.4","0.2","0.6","0.8","","","","","0.02961196177","0.1491340647","0.4345430878","0.4263383456","","","","","","","72","H","0","img/none_selected.jpg","","80","main_expt"
"338","","bandit","159","534513","0.0-120.0-0.0","89443707","wem/bandit_either","ARLGZWN6W91WD","either","4","","","","","","","0","0","1","","0.1484119081","0.4","0.2","0.6","0.8","0.0408206899","0.1484119081","0.4255274095","0.4377411966","","","","","","","","","","","74","J","1","","","81","main_expt"
"331","","bandit","160","536425","0.0-121.0-0.0","89443707","wem/bandit_either","ARLGZWN6W91WD","either","4","","","","","","","0","1","0","","0.135460029","0.4","0.2","0.6","0.8","0.03491361241","0.135460029","0.4266934287","0.4263216968","","","","","","","","","","","74","J","1","","","82","main_expt"
"932","","bandit","161","538881","0.0-122.0-0.0","89443707","wem/bandit_either","ARLGZWN6W91WD","either","4","","","","","","","0","0","1","0.09497461961","","0.4","0.2","0.6","0.8","","","","","0.01881925386","0.09497461961","0.4321646522","0.4536492548","","","","","","","74","J","1","","","83","main_expt"
"342","","bandit","162","540775","0.0-123.0-0.0","89443707","wem/bandit_either","ARLGZWN6W91WD","either","4","","","","","","","0","0","1","","0.0956585677","0.4","0.2","0.6","0.8","0.03441768066","0.0956585677","0.43129245","0.4344769981","","","","","","","","","","","74","J","1","","","84","main_expt"
"670","","bandit","163","542998","0.0-124.0-0.0","89443707","wem/bandit_either","ARLGZWN6W91WD","either","4","","","","","","","0","0","1","","0.08427930603","0.4","0.2","0.6","0.8","0.04015732792","0.08427930603","0.4307495417","0.4167097255","","","","","","","","","","","74","J","1","","","85","main_expt"
"381","","bandit","164","544947","0.0-125.0-0.0","89443707","wem/bandit_either","ARLGZWN6W91WD","either","4","","","","","","","0","0","1","","0.09540141202","0.4","0.2","0.6","0.8","0.0462821445","0.09540141202","0.4327415212","0.4215971904","","","","","","","","","","","74","J","1","","","86","main_expt"
"516","","bandit","165","546984","0.0-126.0-0.0","89443707","wem/bandit_either","ARLGZWN6W91WD","either","4","","","","","","","0","1","0","","0.4507305815","0.4","0.2","0.6","0.8","0.07236867375","0.06504543429","0.4507305815","0.3962725568","","","","","","","","","","","75","K","2","","","87","main_expt"
"344","","bandit","166","548847","0.0-127.0-0.0","89443707","wem/bandit_either","ARLGZWN6W91WD","either","4","","","","","","","0","0","1","0.4571393315","","0.4","0.2","0.6","0.8","","","","","0.1132918069","0.05894337134","0.4571393315","0.4038430626","","","","","","","75","K","2","","","88","main_expt"
"413","","bandit","167","550794","0.0-128.0-0.0","89443707","wem/bandit_either","ARLGZWN6W91WD","either","4","","","","","","","1","0","0","0.4639779763","","0.4","0.2","0.6","0.8","","","","","0.1466354559","0.06803635399","0.4639779763","0.4247877058","","","","","","","75","K","2","","","89","main_expt"
"1730","","bandit","168","554048","0.0-129.0-0.0","89443707","wem/bandit_either","ARLGZWN6W91WD","either","4","","","","","","","1","0","0","0.4620017245","","0.4","0.2","0.6","0.8","","","","","0.1746819083","0.09657856289","0.4620017245","0.4196700557","","","","","","","75","K","2","","","90","main_expt"
"537","","bandit","169","556183","0.0-130.0-0.0","89443707","wem/bandit_either","ARLGZWN6W91WD","either","4","","","","","","","0","1","0","","0.4492963398","0.4","0.2","0.6","0.8","0.1864657318","0.08522031428","0.4492963398","0.401758082","","","","","","","","","","","75","K","2","","","91","main_expt"
"336","","bandit","170","558068","0.0-131.0-0.0","89443707","wem/bandit_either","ARLGZWN6W91WD","either","4","","","","","","","0","0","1","0.462009279","","0.4","0.2","0.6","0.8","","","","","0.2124622091","0.07078380504","0.462009279","0.3422099147","","","","","","","75","K","2","","","92","main_expt"
"381","","bandit","171","560003","0.0-132.0-0.0","89443707","wem/bandit_either","ARLGZWN6W91WD","either","4","","","","","","","0","0","1","0.4363090379","","0.4","0.2","0.6","0.8","","","","","0.245786276","0.0564278809","0.4363090379","0.3279059742","","","","","","","75","K","2","","","93","main_expt"
"505","","bandit","172","562043","0.0-133.0-0.0","89443707","wem/bandit_either","ARLGZWN6W91WD","either","4","","","","","","","0","0","1","0.4457519602","","0.4","0.2","0.6","0.8","","","","","0.2316759231","0.06067733924","0.4457519602","0.3155724737","","","","","","","75","K","2","","","94","main_expt"
"796","","bandit","173","564366","0.0-134.0-0.0","89443707","wem/bandit_either","ARLGZWN6W91WD","either","4","","","","","","","0","0","1","0.4231248902","","0.4","0.2","0.6","0.8","","","","","0.2231756969","0.08632751489","0.4231248902","0.3519625041","","","","","","","75","K","2","","","95","main_expt"
"398","","bandit","174","566293","0.0-135.0-0.0","89443707","wem/bandit_either","ARLGZWN6W91WD","either","4","","","","","","","1","0","0","0.4210676831","","0.4","0.2","0.6","0.8","","","","","0.1957128212","0.08481729553","0.4210676831","0.3661455107","","","","","","","75","K","2","","","96","main_expt"
"481","","bandit","175","568312","0.0-136.0-0.0","89443707","wem/bandit_either","ARLGZWN6W91WD","either","4","","","","","","","0","0","1","0.4022895305","","0.4","0.2","0.6","0.8","","","","","0.1638116915","0.08386440452","0.4022895305","0.3558031673","","","","","","","75","K","2","","","97","main_expt"
"685","","bandit","176","570517","0.0-137.0-0.0","89443707","wem/bandit_either","ARLGZWN6W91WD","either","4","","","","","","","0","0","1","0.4187351015","","0.4","0.2","0.6","0.8","","","","","0.1405816365","0.0940701929","0.4187351015","0.3558230887","","","","","","","75","K","2","","","98","main_expt"
"267","","bandit","177","572306","0.0-138.0-0.0","89443707","wem/bandit_either","ARLGZWN6W91WD","either","4","","","","","","","1","0","0","0.3981340028","","0.4","0.2","0.6","0.8","","","","","0.1435678602","0.1285058524","0.3981340028","0.3064708089","","","","","","","75","K","2","","","99","main_expt"
"388","","bandit","178","574223","0.0-139.0-0.0","89443707","wem/bandit_either","ARLGZWN6W91WD","either","4","","","","","","","1","0","0","0.3520446815","","0.4","0.2","0.6","0.8","","","","","0.1478754355","0.065882019","0.3520446815","0.352498313","","","","","","","75","K","2","","","100","main_expt"
"691","","bandit","179","576438","0.0-140.0-0.0","89443707","wem/bandit_either","ARLGZWN6W91WD","either","4","","","","","","","0","0","1","0.3715523215","","0.4","0.2","0.6","0.8","","","","","0.1532559328","0.05692140794","0.3715523215","0.3511810171","","","","","","","75","K","2","","","101","main_expt"
"1650","","bandit","180","579611","0.0-141.0-0.0","89443707","wem/bandit_either","ARLGZWN6W91WD","either","4","","","","","","","0","0","1","","0.3966955113","0.4","0.2","0.6","0.8","0.15857411","0.04322280369","0.3966955113","0.3246867477","","","","","","","","","","","75","K","2","","","102","main_expt"
"1854","","bandit","181","583007","0.0-142.0-0.0","89443707","wem/bandit_either","ARLGZWN6W91WD","either","4","","","","","","","0","0","1","","0.3865714765","0.4","0.2","0.6","0.8","0.1552377357","0.05121437093","0.3865714765","0.2827689756","","","","","","","","","","","75","K","2","","","103","main_expt"
"752","","bandit","182","585291","0.0-143.0-0.0","89443707","wem/bandit_either","ARLGZWN6W91WD","either","4","","","","","","","0","0","1","0.3307995119","","0.4","0.2","0.6","0.8","","","","","0.1584193753","0.06548077564","0.3440646931","0.3307995119","","","","","","","76","L","3","","","104","main_expt"
"492","","bandit","183","587312","0.0-144.0-0.0","89443707","wem/bandit_either","ARLGZWN6W91WD","either","4","","","","","","","0","0","1","0.3078297571","","0.4","0.2","0.6","0.8","","","","","0.192058402","0.07577357845","0.330981063","0.3078297571","","","","","","","76","L","3","","","105","main_expt"
"345","","bandit","184","589183","0.0-145.0-0.0","89443707","wem/bandit_either","ARLGZWN6W91WD","either","4","","","","","","","0","0","1","","0.3202685942","0.4","0.2","0.6","0.8","0.1562344916","0.09041352565","0.3317280627","0.3202685942","","","","","","","","","","","76","L","3","","","106","main_expt"
"193","","bandit","185","590984","0.0-146.0-0.0","89443707","wem/bandit_either","ARLGZWN6W91WD","either","4","","","","","","","1","0","0","0.3163418234","","0.4","0.2","0.6","0.8","","","","","0.1493116313","0.1184921167","0.2760665195","0.3163418234","","","","","","","76","L","3","","","107","main_expt"
"458","","bandit","186","592986","0.0-147.0-0.0","89443707","wem/bandit_either","ARLGZWN6W91WD","either","4","","","","","","","0","0","1","0.3425943818","","0.4","0.2","0.6","0.8","","","","","0.1357435498","0.1057615429","0.2826301941","0.3425943818","","","","","","","76","L","3","","","108","main_expt"
"339","","bandit","187","594864","0.0-148.0-0.0","89443707","wem/bandit_either","ARLGZWN6W91WD","either","4","","","","","","","0","0","1","0.2852030557","","0.4","0.2","0.6","0.8","","","","","0.1164074326","0.1464484126","0.318117281","0.2852030557","","","","","","","76","L","3","","","109","main_expt"
"102","","bandit","188","596495","0.0-149.0-0.0","89443707","wem/bandit_either","ARLGZWN6W91WD","either","4","","","","","","","0","0","1","","0.3392406975","0.4","0.2","0.6","0.8","0.1444451916","0.1641354829","0.3358587519","0.3392406975","","","","","","","","","","","76","L","3","","","110","main_expt"
"384","","bandit","189","598416","0.0-150.0-0.0","89443707","wem/bandit_either","ARLGZWN6W91WD","either","4","","","","","","","0","0","1","0.09905323685","","0.4","0.2","0.6","0.8","","","","","0.09905323685","0.1386891192","0.3031660534","0.3023411017","","","","","","","72","H","0","img/none_selected.jpg","","111","main_expt"
"848","","bandit","190","600836","0.0-151.0-0.0","89443707","wem/bandit_either","ARLGZWN6W91WD","either","4","","","","","","","0","0","1","","0.09652445584","0.4","0.2","0.6","0.8","0.09652445584","0.1847512065","0.2773548355","0.296849772","","","","","","","","","","","72","H","0","img/none_selected.jpg","","112","main_expt"
"411","","bandit","191","602857","0.0-152.0-0.0","89443707","wem/bandit_either","ARLGZWN6W91WD","either","4","","","","","","","0","0","1","","0.09961189632","0.4","0.2","0.6","0.8","0.09961189632","0.1304555333","0.2370758425","0.2673419259","","","","","","","","","","","72","H","0","img/none_selected.jpg","","113","main_expt"
"397","","bandit","192","604782","0.0-153.0-0.0","89443707","wem/bandit_either","ARLGZWN6W91WD","either","4","","","","","","","0","0","1","0.1036139638","","0.4","0.2","0.6","0.8","","","","","0.1036139638","0.1770102637","0.1821928837","0.2670531803","","","","","","","72","H","0","img/none_selected.jpg","","114","main_expt"
"519","","bandit","193","606830","0.0-154.0-0.0","89443707","wem/bandit_either","ARLGZWN6W91WD","either","4","","","","","","","0","0","1","","0.1564651975","0.4","0.2","0.6","0.8","0.0968506792","0.1564651975","0.1315453283","0.2825009356","","","","","","","","","","","74","J","1","","","115","main_expt"
"233","","bandit","194","608622","0.0-155.0-0.0","89443707","wem/bandit_either","ARLGZWN6W91WD","either","4","","","","","","","0","0","1","","0.1665702367","0.4","0.2","0.6","0.8","0.08782875681","0.1665702367","0.1102777544","0.3237719372","","","","","","","","","","","74","J","1","","","116","main_expt"
"461","","bandit","195","610624","0.0-156.0-0.0","89443707","wem/bandit_either","ARLGZWN6W91WD","either","4","","","","","","","0","0","1","","0.1530687496","0.4","0.2","0.6","0.8","0.06031800864","0.1530687496","0.1101610351","0.3154846423","","","","","","","","","","","74","J","1","","","117","main_expt"
"353","","bandit","196","612503","0.0-157.0-0.0","89443707","wem/bandit_either","ARLGZWN6W91WD","either","4","","","","","","","0","0","1","0.1674206906","","0.4","0.2","0.6","0.8","","","","","0.05633053331","0.1674206906","0.122460482","0.2584508078","","","","","","","74","J","1","","","118","main_expt"
"465","","bandit","197","614534","0.0-158.0-0.0","89443707","wem/bandit_either","ARLGZWN6W91WD","either","4","","","","","","","0","0","1","","0.1990215448","0.4","0.2","0.6","0.8","0.07530514027","0.1990215448","0.1451868924","0.2141905193","","","","","","","","","","","74","J","1","","","119","main_expt"
"161","","bandit","198","616259","0.0-159.0-0.0","89443707","wem/bandit_either","ARLGZWN6W91WD","either","4","","","","","","","0","0","1","","0.09092593383","0.4","0.2","0.6","0.8","0.09639595661","0.2208640619","0.09092593383","0.2341954374","","","","","","","","","","","75","K","2","","","120","main_expt"
"365","","bandit","199","618150","0.0-160.0-0.0","89443707","wem/bandit_either","ARLGZWN6W91WD","either","4","","","","","","","0","0","1","0.1080456108","","0.4","0.2","0.6","0.8","","","","","0.1421799471","0.2602917539","0.1080456108","0.1886372651","","","","","","","75","K","2","","","121","main_expt"
"303","","bandit","200","620006","0.0-161.0-0.0","89443707","wem/bandit_either","ARLGZWN6W91WD","either","4","","","","","","","0","0","1","0.1169053248","","0.4","0.2","0.6","0.8","","","","","0.1624760489","0.2512498235","0.1169053248","0.1597592322","","","","","","","75","K","2","","","122","main_expt"
"286","","bandit","201","621826","0.0-162.0-0.0","89443707","wem/bandit_either","ARLGZWN6W91WD","either","4","","","","","","","0","0","1","0.1895266442","","0.4","0.2","0.6","0.8","","","","","0.1640214383","0.2266242761","0.1571594809","0.1895266442","","","","","","","76","L","3","","","123","main_expt"
"351","","bandit","202","623738","0.0-163.0-0.0","89443707","wem/bandit_either","ARLGZWN6W91WD","either","4","","","","","","","0","0","1","0.2042850732","","0.4","0.2","0.6","0.8","","","","","0.2014340991","0.2373824638","0.2231804049","0.2042850732","","","","","","","76","L","3","","","124","main_expt"
"156","","bandit","203","625442","0.0-164.0-0.0","89443707","wem/bandit_either","ARLGZWN6W91WD","either","4","","","","","","","0","0","1","","0.1812515389","0.4","0.2","0.6","0.8","0.2229229076","0.2538727107","0.2232794356","0.1812515389","","","","","","","","","","","76","L","3","","","125","main_expt"
"299","","bandit","204","627262","0.0-165.0-0.0","89443707","wem/bandit_either","ARLGZWN6W91WD","either","4","","","","","","","0","0","1","0.1694736183","","0.4","0.2","0.6","0.8","","","","","0.2324712723","0.290219491","0.2316903634","0.1694736183","","","","","","","76","L","3","","","126","main_expt"
"638","","bandit","205","629472","0.0-166.0-0.0","89443707","wem/bandit_either","ARLGZWN6W91WD","either","4","","","","","","","0","0","1","0.1624528765","","0.4","0.2","0.6","0.8","","","","","0.2628391623","0.2542505169","0.2337524142","0.1624528765","","","","","","","76","L","3","","","127","main_expt"
"721","","bandit","206","631721","0.0-167.0-0.0","89443707","wem/bandit_either","ARLGZWN6W91WD","either","4","","","","","","","1","0","0","0.2654356302","","0.4","0.2","0.6","0.8","","","","","0.2654356302","0.2582316027","0.2198210178","0.1632982916","","","","","","","72","H","0","img/none_selected.jpg","","128","main_expt"
"355","","bandit","207","633598","0.0-168.0-0.0","89443707","wem/bandit_either","ARLGZWN6W91WD","either","4","","","","","","","0","0","1","0.2070569149","","0.4","0.2","0.6","0.8","","","","","0.2070569149","0.3267566011","0.2280168395","0.2264598068","","","","","","","72","H","0","img/none_selected.jpg","","129","main_expt"
"262","","bandit","208","635429","0.0-169.0-0.0","89443707","wem/bandit_either","ARLGZWN6W91WD","either","4","","","","","","","0","1","0","","0.2579182239","0.4","0.2","0.6","0.8","0.2579182239","0.3323271388","0.243895296","0.202760285","","","","","","","","","","","72","H","0","img/none_selected.jpg","","130","main_expt"
"546","","bandit","209","637520","0.0-170.0-0.0","89443707","wem/bandit_either","ARLGZWN6W91WD","either","4","","","","","","","0","0","1","","0.2329110821","0.4","0.2","0.6","0.8","0.2329110821","0.2666668646","0.2164454501","0.1585094705","","","","","","","","","","","72","H","0","img/none_selected.jpg","","131","main_expt"
"317","","bandit","210","639376","0.0-171.0-0.0","89443707","wem/bandit_either","ARLGZWN6W91WD","either","4","","","","","","","0","0","1","0.2400232435","","0.4","0.2","0.6","0.8","","","","","0.2400232435","0.2359119393","0.200468731","0.1304261544","","","","","","","72","H","0","img/none_selected.jpg","","132","main_expt"
"270","","bandit","211","641167","0.0-172.0-0.0","89443707","wem/bandit_either","ARLGZWN6W91WD","either","4","","","","","","","0","0","1","0.2084798617","","0.4","0.2","0.6","0.8","","","","","0.2084798617","0.2540740643","0.2038597077","0.09339990826","","","","","","","72","H","0","img/none_selected.jpg","","133","main_expt"
"142","","bandit","212","642889","0.0-173.0-0.0","89443707","wem/bandit_either","ARLGZWN6W91WD","either","4","","","","","","","0","0","1","","0.2034544","0.4","0.2","0.6","0.8","0.2034544","0.2414927735","0.2263269307","0.08524612959","","","","","","","","","","","72","H","0","img/none_selected.jpg","","134","main_expt"
"1572","","bandit","213","645990","0.0-174.0-0.0","89443707","wem/bandit_either","ARLGZWN6W91WD","either","4","","","","","","","0","0","1","","0.2088958693","0.4","0.2","0.6","0.8","0.2088958693","0.2632369982","0.2686469146","0.0622033461","","","","","","","","","","","72","H","0","img/none_selected.jpg","","135","main_expt"
"300","","bandit","214","647823","0.0-175.0-0.0","89443707","wem/bandit_either","ARLGZWN6W91WD","either","4","","","","","","","0","0","1","0.2573758916","","0.4","0.2","0.6","0.8","","","","","0.2573758916","0.3032623762","0.3170393738","0.05632890875","","","","","","","72","H","0","img/none_selected.jpg","","136","main_expt"
"150","","bandit","215","649513","0.0-176.0-0.0","89443707","wem/bandit_either","ARLGZWN6W91WD","either","4","","","","","","","0","0","1","","0.2984046037","0.4","0.2","0.6","0.8","0.2467438462","0.2984046037","0.338962466","0.06052980877","","","","","","","","","","","74","J","1","","","137","main_expt"
"494","","bandit","216","651554","0.0-177.0-0.0","89443707","wem/bandit_either","ARLGZWN6W91WD","either","4","","","","","","","0","0","1","0.3110629865","","0.4","0.2","0.6","0.8","","","","","0.2221944767","0.3110629865","0.3586643031","0.1038497792","","","","","","","74","J","1","","","138","main_expt"
"225","","bandit","217","653308","0.0-178.0-0.0","89443707","wem/bandit_either","ARLGZWN6W91WD","either","4","","","","","","","0","0","1","","0.3048373826","0.4","0.2","0.6","0.8","0.2750517365","0.3048373826","0.3430902759","0.08561062373","","","","","","","","","","","74","J","1","","","139","main_expt"
"214","","bandit","218","655046","0.0-179.0-0.0","89443707","wem/bandit_either","ARLGZWN6W91WD","either","4","","","","","","","0","0","1","0.3163642845","","0.4","0.2","0.6","0.8","","","","","0.277474309","0.3163642845","0.3777112835","0.08025295029","","","","","","","74","J","1","","","140","main_expt"
"460","","bandit","219","657092","0.0-180.0-0.0","89443707","wem/bandit_either","ARLGZWN6W91WD","either","4","","","","","","","0","0","1","0.4276051364","","0.4","0.2","0.6","0.8","","","","","0.2932007391","0.2213861514","0.4276051364","0.09309891757","","","","","","","75","K","2","","","141","main_expt"
"59","","bandit","220","658681","0.0-181.0-0.0","89443707","wem/bandit_either","ARLGZWN6W91WD","either","4","","","","","","","0","0","1","","0.4312347149","0.4","0.2","0.6","0.8","0.3001807938","0.2492613222","0.4312347149","0.1107976638","","","","","","","","","","","75","K","2","","","142","main_expt"
"188","","bandit","221","660406","0.0-182.0-0.0","89443707","wem/bandit_either","ARLGZWN6W91WD","either","4","","","","","","","1","0","0","0.386657586","","0.4","0.2","0.6","0.8","","","","","0.3640878437","0.2645663874","0.386657586","0.09575525052","","","","","","","75","K","2","","","143","main_expt"
"326","","bandit","222","662259","0.0-183.0-0.0","89443707","wem/bandit_either","ARLGZWN6W91WD","either","4","","","","","","","0","0","1","0.3409851627","","0.4","0.2","0.6","0.8","","","","","0.2706796495","0.2928215939","0.3409851627","0.07222794989","","","","","","","75","K","2","","","144","main_expt"
"410","","bandit","223","664200","0.0-184.0-0.0","89443707","wem/bandit_either","ARLGZWN6W91WD","either","4","","","","","","","0","0","1","0.3538709708","","0.4","0.2","0.6","0.8","","","","","0.2359726437","0.3178979655","0.3538709708","0.03203798906","","","","","","","75","K","2","","","145","main_expt"
"515","","bandit","224","666249","0.0-185.0-0.0","89443707","wem/bandit_either","ARLGZWN6W91WD","either","4","","","","","","","0","0","1","0.2745956728","","0.4","0.2","0.6","0.8","","","","","0.2200332621","0.2850957273","0.2745956728","0.03073079809","","","","","","","75","K","2","","","146","main_expt"
"391","","bandit","225","668189","0.0-186.0-0.0","89443707","wem/bandit_either","ARLGZWN6W91WD","either","4","","","","","","","0","0","1","0.2375793476","","0.4","0.2","0.6","0.8","","","","","0.1957794229","0.2483519338","0.2375793476","0.05105424151","","","","","","","75","K","2","","","147","main_expt"
"346","","bandit","226","670166","0.0-187.0-0.0","89443707","wem/bandit_either","ARLGZWN6W91WD","either","4","","","","","","","0","0","1","","0.2954602587","0.4","0.2","0.6","0.8","0.1790722045","0.2309770791","0.2954602587","0.04045355104","","","","","","","","","","","75","K","2","","","148","main_expt"
"183","","bandit","227","671920","0.0-188.0-0.0","89443707","wem/bandit_either","ARLGZWN6W91WD","either","4","","","","","","","0","0","1","","0.06416506337","0.4","0.2","0.6","0.8","0.2189150546","0.1759049641","0.3435099865","0.06416506337","","","","","","","","","","","76","L","3","","","149","main_expt"
"407","","bandit","228","673861","0.0-189.0-0.0","89443707","wem/bandit_either","ARLGZWN6W91WD","either","4","","","","","","","0","0","1","0.07819388902","","0.4","0.2","0.6","0.8","","","","","0.2119229637","0.1910702346","0.268900415","0.07819388902","","","","","","","76","L","3","","","150","main_expt"
"912","","bandit","229","676303","0.0-190.0-0.0","89443707","wem/bandit_either","ARLGZWN6W91WD","either","4","","","","","","","0","0","1","","0.1186979887","0.4","0.2","0.6","0.8","0.2472398003","0.1799178466","0.2326488896","0.1186979887","","","","","","","","","","","76","L","3","","","151","main_expt"
"1369","","bandit","230","679246","0.0-191.0-0.0","89443707","wem/bandit_either","ARLGZWN6W91WD","either","4","","","","","","","0","0","1","","0.2148428051","0.4","0.2","0.6","0.8","0.2148428051","0.1826140084","0.2768057641","0.1084773402","","","","","","","","","","","72","H","0","img/none_selected.jpg","","152","main_expt"
"619","","bandit","231","681402","0.0-192.0-0.0","89443707","wem/bandit_either","ARLGZWN6W91WD","either","4","","","","","","","0","0","1","","0.1598057249","0.4","0.2","0.6","0.8","0.1598057249","0.147924298","0.2997660112","0.1314289417","","","","","","","","","","","72","H","0","img/none_selected.jpg","","153","main_expt"
"324","","bandit","232","683263","0.0-193.0-0.0","89443707","wem/bandit_either","ARLGZWN6W91WD","either","4","","","","","","","0","0","1","","0.1388357139","0.4","0.2","0.6","0.8","0.1489099923","0.1388357139","0.3196464983","0.1354051011","","","","","","","","","","","74","J","1","","","154","main_expt"
"884","","bandit","233","685671","0.0-194.0-0.0","89443707","wem/bandit_either","ARLGZWN6W91WD","either","4","","","","","","","0","1","0","","0.1658398244","0.4","0.2","0.6","0.8","0.1502541116","0.1658398244","0.3141654429","0.1085215933","","","","","","","","","","","74","J","1","","","155","main_expt"
"1111","","bandit","234","688332","0.0-195.0-0.0","89443707","wem/bandit_either","ARLGZWN6W91WD","either","4","","","","","","","0","0","1","","0.1104921729","0.4","0.2","0.6","0.8","0.1605084188","0.1104921729","0.2667217688","0.1383379057","","","","","","","","","","","74","J","1","","","156","main_expt"
"883","","bandit","235","690754","0.0-196.0-0.0","89443707","wem/bandit_either","ARLGZWN6W91WD","either","4","","","","","","","0","0","1","","0.09530810267","0.4","0.2","0.6","0.8","0.1684101418","0.09530810267","0.2867075714","0.1428990181","","","","","","","","","","","74","J","1","","","157","main_expt"
"164","","bandit","236","692463","0.0-197.0-0.0","89443707","wem/bandit_either","ARLGZWN6W91WD","either","4","","","","","","","0","0","1","","0.2788639118","0.4","0.2","0.6","0.8","0.1807688322","0.1211627972","0.2788639118","0.07455979893","","","","","","","","","","","75","K","2","","","158","main_expt"
"373","","bandit","237","694383","0.0-198.0-0.0","89443707","wem/bandit_either","ARLGZWN6W91WD","either","4","","","","","","","0","0","1","0.3020710819","","0.4","0.2","0.6","0.8","","","","","0.1516426412","0.1012897464","0.3020710819","0.1009372764","","","","","","","75","K","2","","","159","main_expt"
"281","","bandit","238","696199","0.0-199.0-0.0","89443707","wem/bandit_either","ARLGZWN6W91WD","either","4","","","","","","","1","0","0","0.3404227007","","0.4","0.2","0.6","0.8","","","","","0.1638698877","0.1188035868","0.3404227007","0.05118862797","","","","","","","75","K","2","","","160","main_expt"
"355","","bandit","239","698081","0.0-200.0-0.0","89443707","wem/bandit_either","ARLGZWN6W91WD","either","4","","","","","","","1","0","0","0.2876249865","","0.4","0.2","0.6","0.8","","","","","0.1645359983","0.1606836622","0.2876249865","0.05265847637","","","","","","","75","K","2","","","161","main_expt"
"290","","bandit","240","699936","0.0-201.0-0.0","89443707","wem/bandit_either","ARLGZWN6W91WD","either","4","","","","","","","0","0","1","","0.2401308511","0.4","0.2","0.6","0.8","0.2509918509","0.1859884171","0.2401308511","0.07938684611","","","","","","","","","","","75","K","2","","","162","main_expt"
"343","","bandit","241","701809","0.0-202.0-0.0","89443707","wem/bandit_either","ARLGZWN6W91WD","either","4","","","","","","","0","0","1","0.2486605046","","0.4","0.2","0.6","0.8","","","","","0.1883685458","0.2528258464","0.2486605046","0.0970900163","","","","","","","75","K","2","","","163","main_expt"
"574","","bandit","242","703926","0.0-203.0-0.0","89443707","wem/bandit_either","ARLGZWN6W91WD","either","4","","","","","","","0","0","1","","0.22675384","0.4","0.2","0.6","0.8","0.2179532334","0.2515292425","0.22675384","0.07401968201","","","","","","","","","","","75","K","2","","","164","main_expt"
"412","","bandit","243","705863","0.0-204.0-0.0","89443707","wem/bandit_either","ARLGZWN6W91WD","either","4","","","","","","","1","0","0","0.2841151948","","0.4","0.2","0.6","0.8","","","","","0.2143704678","0.2068970429","0.2841151948","0.06633104104","","","","","","","75","K","2","","","165","main_expt"
"577","","bandit","244","707982","0.0-205.0-0.0","89443707","wem/bandit_either","ARLGZWN6W91WD","either","4","","","","","","","1","0","0","0.2842980464","","0.4","0.2","0.6","0.8","","","","","0.2175899085","0.1413778631","0.2842980464","0.05309652092","","","","","","","75","K","2","","","166","main_expt"
"433","","bandit","245","709945","0.0-206.0-0.0","89443707","wem/bandit_either","ARLGZWN6W91WD","either","4","","","","","","","0","0","1","","0.3007590714","0.4","0.2","0.6","0.8","0.2137120923","0.1999497975","0.3007590714","0.07357446968","","","","","","","","","","","75","K","2","","","167","main_expt"
"703","","bandit","246","712180","0.0-207.0-0.0","89443707","wem/bandit_either","ARLGZWN6W91WD","either","4","","","","","","","0","0","1","","0.2884936601","0.4","0.2","0.6","0.8","0.2331560811","0.1696145944","0.2884936601","0.1054325378","","","","","","","","","","","75","K","2","","","168","main_expt"
"771","","bandit","247","714497","0.0-208.0-0.0","89443707","wem/bandit_either","ARLGZWN6W91WD","either","4","","","","","","","0","1","0","","0.2803439438","0.4","0.2","0.6","0.8","0.2367963754","0.1338518967","0.2803439438","0.08536867429","","","","","","","","","","","75","K","2","","","169","main_expt"
"573","","bandit","248","716633","0.0-209.0-0.0","89443707","wem/bandit_either","ARLGZWN6W91WD","either","4","","","","","","","0","0","1","0.3010437192","","0.4","0.2","0.6","0.8","","","","","0.2378050175","0.1307598277","0.3010437192","0.1083432756","","","","","","","75","K","2","","","170","main_expt"
"684","","bandit","249","718946","0.0-210.0-0.0","89443707","wem/bandit_either","ARLGZWN6W91WD","either","4","","","","","","","0","0","1","","0.3243802095","0.4","0.2","0.6","0.8","0.2253696972","0.1200375331","0.3243802095","0.09185370626","","","","","","","","","","","75","K","2","","","171","main_expt"
"460","","bandit","250","720935","0.0-211.0-0.0","89443707","wem/bandit_either","ARLGZWN6W91WD","either","4","","","","","","","0","0","1","","0.3140094691","0.4","0.2","0.6","0.8","0.2903394368","0.07514546963","0.3140094691","0.09458096772","","","","","","","","","","","75","K","2","","","172","main_expt"
"316","","bandit","251","722776","0.0-212.0-0.0","89443707","wem/bandit_either","ARLGZWN6W91WD","either","4","","","","","","","0","0","1","0.2433770114","","0.4","0.2","0.6","0.8","","","","","0.2384828248","0.07704486673","0.2433770114","0.1016296913","","","","","","","75","K","2","","","173","main_expt"
"499","","bandit","252","724945","0.0-213.0-0.0","89443707","wem/bandit_either","ARLGZWN6W91WD","either","4","","","","","","","0","0","1","0.2080779891","","0.4","0.2","0.6","0.8","","","","","0.2823111034","0.04061738922","0.2080779891","0.117107939","","","","","","","75","K","2","","","174","main_expt"
"555","","bandit","253","727030","0.0-214.0-0.0","89443707","wem/bandit_either","ARLGZWN6W91WD","either","4","","","","","","","0","0","1","","0.2211365803","0.4","0.2","0.6","0.8","0.292147578","0.02968316822","0.2211365803","0.1254773658","","","","","","","","","","","75","K","2","","","175","main_expt"
"1708","","bandit","254","730290","0.0-215.0-0.0","89443707","wem/bandit_either","ARLGZWN6W91WD","either","4","","","","","","","1","0","0","0.231280906","","0.4","0.2","0.6","0.8","","","","","0.2928295457","0.04419366322","0.231280906","0.1518856622","","","","","","","75","K","2","","","176","main_expt"
"1003","","bandit","255","732878","0.0-216.0-0.0","89443707","wem/bandit_either","ARLGZWN6W91WD","either","4","","","","","","","0","0","1","0.1689881391","","0.4","0.2","0.6","0.8","","","","","0.297241693","0.04140429262","0.1689881391","0.1502483312","","","","","","","75","K","2","","","177","main_expt"
"332","","bandit","256","734745","0.0-217.0-0.0","89443707","wem/bandit_either","ARLGZWN6W91WD","either","4","","","","","","","0","1","0","","0.1699404395","0.4","0.2","0.6","0.8","0.276241128","0.06103489621","0.1699404395","0.2073149786","","","","","","","","","","","75","K","2","","","178","main_expt"
"818","","bandit","257","737117","0.0-218.0-0.0","89443707","wem/bandit_either","ARLGZWN6W91WD","either","4","","","","","","","0","0","1","0.1571972967","","0.4","0.2","0.6","0.8","","","","","0.2405339857","0.053608248","0.1571972967","0.1928578162","","","","","","","75","K","2","","","179","main_expt"
"473","","bandit","258","739174","0.0-219.0-0.0","89443707","wem/bandit_either","ARLGZWN6W91WD","either","4","","","","","","","1","0","0","0.1567782565","","0.4","0.2","0.6","0.8","","","","","0.233428307","0.06289379635","0.1567782565","0.1412953234","","","","","","","75","K","2","","","180","main_expt"
"372","","bandit","259","741080","0.0-220.0-0.0","89443707","wem/bandit_either","ARLGZWN6W91WD","either","4","","","","","","","0","0","1","","0.1492691696","0.4","0.2","0.6","0.8","0.1459310114","0.07748386732","0.1492691696","0.1258774719","","","","","","","","","","","75","K","2","","","181","main_expt"
"433","","bandit","260","743058","0.0-221.0-0.0","89443707","wem/bandit_either","ARLGZWN6W91WD","either","4","","","","","","","1","0","0","0.1609613705","","0.4","0.2","0.6","0.8","","","","","0.1796360657","0.096714051","0.1609613705","0.1121960069","","","","","","","75","K","2","","","182","main_expt"
"472","","bandit","261","745107","0.0-222.0-0.0","89443707","wem/bandit_either","ARLGZWN6W91WD","either","4","","","","","","","0","0","1","0.1982891881","","0.4","0.2","0.6","0.8","","","","","0.1907874973","0.05351369794","0.1982891881","0.08335286121","","","","","","","75","K","2","","","183","main_expt"
"786","","bandit","262","747442","0.0-223.0-0.0","89443707","wem/bandit_either","ARLGZWN6W91WD","either","4","","","","","","","0","0","1","","0.1703318442","0.4","0.2","0.6","0.8","0.1451627339","0.08854511538","0.1703318442","0.1085923678","","","","","","","","","","","75","K","2","","","184","main_expt"
"1261","","bandit","263","750232","0.0-224.0-0.0","89443707","wem/bandit_either","ARLGZWN6W91WD","either","4","","","","","","","1","0","0","0.09566746086","","0.4","0.2","0.6","0.8","","","","","0.1692531577","0.136385666","0.09566746086","0.1113654269","","","","","","","75","K","2","","","185","main_expt"
"561","","bandit","264","752321","0.0-225.0-0.0","89443707","wem/bandit_either","ARLGZWN6W91WD","either","4","","","","","","","1","0","0","0.1254261761","","0.4","0.2","0.6","0.8","","","","","0.1885113298","0.1848043888","0.1254261761","0.1383531569","","","","","","","75","K","2","","","186","main_expt"
"522","","bandit","265","754382","0.0-226.0-0.0","89443707","wem/bandit_either","ARLGZWN6W91WD","either","4","","","","","","","0","0","1","0.1081798115","","0.4","0.2","0.6","0.8","","","","","0.2088125345","0.1640989128","0.1081798115","0.1739713275","","","","","","","75","K","2","","","187","main_expt"
"447","","bandit","266","756460","0.0-227.0-0.0","89443707","wem/bandit_either","ARLGZWN6W91WD","either","4","","","","","","","0","0","1","","0.08529062399","0.4","0.2","0.6","0.8","0.2228369986","0.1301402021","0.08529062399","0.1926366302","","","","","","","","","","","75","K","2","","","188","main_expt"
"238","","bandit","267","758223","0.0-228.0-0.0","89443707","wem/bandit_either","ARLGZWN6W91WD","either","4","","","","","","","0","0","1","0.07250281893","","0.4","0.2","0.6","0.8","","","","","0.2567428292","0.1980942663","0.07250281893","0.2499935398","","","","","","","75","K","2","","","189","main_expt"
"1356","","bandit","268","761108","0.0-229.0-0.0","89443707","wem/bandit_either","ARLGZWN6W91WD","either","4","","","","","","","0","0","1","","0.07895395147","0.4","0.2","0.6","0.8","0.3177850294","0.1842725295","0.07895395147","0.2367317824","","","","","","","","","","","75","K","2","","","190","main_expt"
"191","","bandit","269","762831","0.0-230.0-0.0","89443707","wem/bandit_either","ARLGZWN6W91WD","either","4","","","","","","","0","0","1","0.06204701637","","0.4","0.2","0.6","0.8","","","","","0.2876912335","0.2087081259","0.06204701637","0.2515026666","","","","","","","75","K","2","","","191","main_expt"
"372","","bandit","270","764763","0.0-231.0-0.0","89443707","wem/bandit_either","ARLGZWN6W91WD","either","4","","","","","","","0","0","1","0.064067899","","0.4","0.2","0.6","0.8","","","","","0.2383873749","0.1800110976","0.064067899","0.2451916405","","","","","","","75","K","2","","","192","main_expt"
"378","","bandit","271","766674","0.0-232.0-0.0","89443707","wem/bandit_either","ARLGZWN6W91WD","either","4","","","","","","","0","0","1","0.1286650472","","0.4","0.2","0.6","0.8","","","","","0.24690957","0.1519186298","0.1286650472","0.2353451433","","","","","","","75","K","2","","","193","main_expt"
"324","","bandit","272","768529","0.0-233.0-0.0","89443707","wem/bandit_either","ARLGZWN6W91WD","either","4","","","","","","","0","0","1","0.1746490116","","0.4","0.2","0.6","0.8","","","","","0.2728455101","0.1431656489","0.1746490116","0.307075739","","","","","","","75","K","2","","","194","main_expt"
"240","","bandit","273","770400","0.0-234.0-0.0","89443707","wem/bandit_either","ARLGZWN6W91WD","either","4","","","","","","","1","0","0","0.3011001907","","0.4","0.2","0.6","0.8","","","","","0.2421292151","0.1868251083","0.129035247","0.3011001907","","","","","","","76","L","3","","","195","main_expt"
"573","","bandit","274","772498","0.0-235.0-0.0","89443707","wem/bandit_either","ARLGZWN6W91WD","either","4","","","","","","","0","0","1","","0.2861216794","0.4","0.2","0.6","0.8","0.2598052724","0.176624335","0.09052040682","0.2861216794","","","","","","","","","","","76","L","3","","","196","main_expt"
"361","","bandit","275","774393","0.0-236.0-0.0","89443707","wem/bandit_either","ARLGZWN6W91WD","either","4","","","","","","","0","0","1","","0.2121549007","0.4","0.2","0.6","0.8","0.2540930088","0.2383323772","0.08675464884","0.2121549007","","","","","","","","","","","76","L","3","","","197","main_expt"
"342","","bandit","276","776306","0.0-237.0-0.0","89443707","wem/bandit_either","ARLGZWN6W91WD","either","4","","","","","","","0","0","1","","0.260340052","0.4","0.2","0.6","0.8","0.2460150375","0.260618614","0.09429549835","0.260340052","","","","","","","","","","","76","L","3","","","198","main_expt"
"343","","bandit","277","778180","0.0-238.0-0.0","89443707","wem/bandit_either","ARLGZWN6W91WD","either","4","","","","","","","0","0","1","","0.3009562829","0.4","0.2","0.6","0.8","0.2217343644","0.2935067364","0.09303778716","0.3009562829","","","","","","","","","","","76","L","3","","","199","main_expt"
"391","","bandit","278","780129","0.0-239.0-0.0","89443707","wem/bandit_either","ARLGZWN6W91WD","either","4","","","","","","","1","0","0","0.3430896668","","0.4","0.2","0.6","0.8","","","","","0.2830302048","0.362920627","0.07354084322","0.3430896668","","","","","","","76","L","3","","","200","main_expt"
"1171","","bandit","279","782848","0.0-240.0-0.0","89443707","wem/bandit_either","ARLGZWN6W91WD","either","4","","","","","","","0","0","1","0.2973668079","","0.4","0.2","0.6","0.8","","","","","0.3175621279","0.3119044903","0.08115367452","0.2973668079","","","","","","","76","L","3","","","201","main_expt"
"375","","bandit","280","784749","0.0-241.0-0.0","89443707","wem/bandit_either","ARLGZWN6W91WD","either","4","","","","","","","0","0","1","0.3219337599","","0.4","0.2","0.6","0.8","","","","","0.3049471546","0.3095695708","0.0774842685","0.3219337599","","","","","","","76","L","3","","","202","main_expt"
"308","","bandit","281","786587","0.0-242.0-0.0","89443707","wem/bandit_either","ARLGZWN6W91WD","either","4","","","","","","","0","0","1","0.3229991028","","0.4","0.2","0.6","0.8","","","","","0.2975042969","0.3005459379","0.09704724367","0.3229991028","","","","","","","76","L","3","","","203","main_expt"
"473","","bandit","282","788597","0.0-243.0-0.0","89443707","wem/bandit_either","ARLGZWN6W91WD","either","4","","","","","","","0","1","0","","0.2268457719","0.4","0.2","0.6","0.8","0.2268457719","0.3116824409","0.1224111047","0.3077995671","","","","","","","","","","","72","H","0","img/none_selected.jpg","","204","main_expt"
"362","","bandit","283","790517","0.0-244.0-0.0","89443707","wem/bandit_either","ARLGZWN6W91WD","either","4","","","","","","","0","0","1","0.2582085449","","0.4","0.2","0.6","0.8","","","","","0.2582085449","0.3291635812","0.1627664319","0.3070199156","","","","","","","72","H","0","img/none_selected.jpg","","205","main_expt"
"531","","bandit","284","792576","0.0-245.0-0.0","89443707","wem/bandit_either","ARLGZWN6W91WD","either","4","","","","","","","0","0","1","","0.2841247045","0.4","0.2","0.6","0.8","0.2841247045","0.4008790519","0.1604236747","0.3109683939","","","","","","","","","","","72","H","0","img/none_selected.jpg","","206","main_expt"
"57","","bandit","285","794160","0.0-246.0-0.0","89443707","wem/bandit_either","ARLGZWN6W91WD","either","4","","","","","","","0","1","0","","0.3333225396","0.4","0.2","0.6","0.8","0.3333225396","0.4202180382","0.126388554","0.2845075958","","","","","","","","","","","72","H","0","img/none_selected.jpg","","207","main_expt"
"383","","bandit","286","796081","0.0-247.0-0.0","89443707","wem/bandit_either","ARLGZWN6W91WD","either","4","","","","","","","0","0","1","0.290219871","","0.4","0.2","0.6","0.8","","","","","0.290219871","0.4168586074","0.1602309633","0.2419557814","","","","","","","72","H","0","img/none_selected.jpg","","208","main_expt"
"509","","bandit","287","798227","0.0-248.0-0.0","89443707","wem/bandit_either","ARLGZWN6W91WD","either","4","","","","","","","0","0","1","0.3426384504","","0.4","0.2","0.6","0.8","","","","","0.3426384504","0.3949328033","0.2009997365","0.2449545816","","","","","","","72","H","0","img/none_selected.jpg","","209","main_expt"
"1790","","bandit","288","801584","0.0-249.0-0.0","89443707","wem/bandit_either","ARLGZWN6W91WD","either","4","","","","","","","0","0","1","0.2932754766","","0.4","0.2","0.6","0.8","","","","","0.2932754766","0.41782505","0.1997114924","0.2176860071","","","","","","","72","H","0","img/none_selected.jpg","","210","main_expt"
"1033","","bandit","289","804188","0.0-250.0-0.0","89443707","wem/bandit_either","ARLGZWN6W91WD","either","4","","","","","","","0","0","1","","0.2522206247","0.4","0.2","0.6","0.8","0.2522206247","0.4377941382","0.2631807131","0.2460847292","","","","","","","","","","","72","H","0","img/none_selected.jpg","","211","main_expt"
"1035","","bandit","290","806750","0.0-251.0-0.0","89443707","wem/bandit_either","ARLGZWN6W91WD","either","4","","","","","","","0","0","1","","0.2323705111","0.4","0.2","0.6","0.8","0.2323705111","0.4619006446","0.2008991105","0.2017704833","","","","","","","","","","","72","H","0","img/none_selected.jpg","","212","main_expt"
"288","","bandit","291","808625","0.0-252.0-0.0","89443707","wem/bandit_either","ARLGZWN6W91WD","either","4","","","","","","","0","1","0","","0.2815580385","0.4","0.2","0.6","0.8","0.2815580385","0.4508737721","0.1656487101","0.1891715169","","","","","","","","","","","72","H","0","img/none_selected.jpg","","213","main_expt"
"887","","bandit","292","811103","0.0-253.0-0.0","89443707","wem/bandit_either","ARLGZWN6W91WD","either","4","","","","","","","0","0","1","","0.2955812139","0.4","0.2","0.6","0.8","0.2955812139","0.4639731149","0.213788386","0.1819308411","","","","","","","","","","","72","H","0","img/none_selected.jpg","","214","main_expt"
"396","","bandit","293","813039","0.0-254.0-0.0","89443707","wem/bandit_either","ARLGZWN6W91WD","either","4","","","","","","","0","0","1","","0.2988647484","0.4","0.2","0.6","0.8","0.2988647484","0.4690757113","0.2206736926","0.1406935411","","","","","","","","","","","72","H","0","img/none_selected.jpg","","215","main_expt"
"305","","bandit","294","814881","0.0-255.0-0.0","89443707","wem/bandit_either","ARLGZWN6W91WD","either","4","","","","","","","0","0","1","","0.3361974059","0.4","0.2","0.6","0.8","0.3361974059","0.4685680314","0.2270120675","0.206739756","","","","","","","","","","","72","H","0","img/none_selected.jpg","","216","main_expt"
"294","","bandit","295","816807","0.0-256.0-0.0","89443707","wem/bandit_either","ARLGZWN6W91WD","either","4","","","","","","","0","0","1","","0.2764506131","0.4","0.2","0.6","0.8","0.2764506131","0.4873952874","0.2561581829","0.178624692","","","","","","","","","","","72","H","0","img/none_selected.jpg","","217","main_expt"
"424","","bandit","296","818770","0.0-257.0-0.0","89443707","wem/bandit_either","ARLGZWN6W91WD","either","4","","","","","","","1","0","0","0.299893698","","0.4","0.2","0.6","0.8","","","","","0.299893698","0.4790671899","0.2785758431","0.2021641755","","","","","","","72","H","0","img/none_selected.jpg","","218","main_expt"
"462","","bandit","297","820777","0.0-258.0-0.0","89443707","wem/bandit_either","ARLGZWN6W91WD","either","4","","","","","","","0","0","1","","0.3213687962","0.4","0.2","0.6","0.8","0.3213687962","0.4769795117","0.2707863597","0.2076996705","","","","","","","","","","","72","H","0","img/none_selected.jpg","","219","main_expt"
"312","","bandit","298","822636","0.0-259.0-0.0","89443707","wem/bandit_either","ARLGZWN6W91WD","either","4","","","","","","","0","0","1","","0.3782095139","0.4","0.2","0.6","0.8","0.3782095139","0.4746148145","0.2262269101","0.2479045362","","","","","","","","","","","72","H","0","img/none_selected.jpg","","220","main_expt"
"45","","bandit","299","824228","0.0-260.0-0.0","89443707","wem/bandit_either","ARLGZWN6W91WD","either","4","","","","","","","0","0","1","","0.4789253058","0.4","0.2","0.6","0.8","0.3572699546","0.4789253058","0.2522421151","0.251163546","","","","","","","","","","","74","J","1","","","221","main_expt"
"410","","bandit","300","826167","0.0-261.0-0.0","89443707","wem/bandit_either","ARLGZWN6W91WD","either","4","","","","","","","0","0","1","","0.4765400837","0.4","0.2","0.6","0.8","0.332217079","0.4765400837","0.2323100388","0.2653622565","","","","","","","","","","","74","J","1","","","222","main_expt"
"753","","bandit","301","828445","0.0-262.0-0.0","89443707","wem/bandit_either","ARLGZWN6W91WD","either","4","","","","","","","0","0","1","0.4872993944","","0.4","0.2","0.6","0.8","","","","","0.3327789551","0.4872993944","0.2013525365","0.2034578964","","","","","","","74","J","1","","","223","main_expt"
"466","","bandit","302","830470","0.0-263.0-0.0","89443707","wem/bandit_either","ARLGZWN6W91WD","either","4","","","","","","","0","1","0","","0.4864577786","0.4","0.2","0.6","0.8","0.3720138676","0.4864577786","0.2017363432","0.1176985371","","","","","","","","","","","74","J","1","","","224","main_expt"
"1926","","bandit","303","833945","0.0-264.0-0.0","89443707","wem/bandit_either","ARLGZWN6W91WD","either","4","","","","","","","0","1","0","","0.4815865163","0.4","0.2","0.6","0.8","0.4035982493","0.4815865163","0.1608447522","0.08531446518","","","","","","","","","","","74","J","1","","","225","main_expt"
"790","","bandit","304","836263","0.0-265.0-0.0","89443707","wem/bandit_either","ARLGZWN6W91WD","either","4","","","","","","","0","0","1","0.4781941344","","0.4","0.2","0.6","0.8","","","","","0.3538577565","0.4781941344","0.2023183299","0.0901010045","","","","","","","74","J","1","","","226","main_expt"
"1283","","bandit","305","839144","0.0-266.0-0.0","89443707","wem/bandit_either","ARLGZWN6W91WD","either","4","","","","","","","0","1","0","","0.4742279627","0.4","0.2","0.6","0.8","0.4205879778","0.4742279627","0.1555458008","0.06499555022","","","","","","","","","","","74","J","1","","","227","main_expt"
"2226","","bandit","306","842922","0.0-267.0-0.0","89443707","wem/bandit_either","ARLGZWN6W91WD","either","4","","","","","","","0","0","1","","0.4597327255","0.4","0.2","0.6","0.8","0.4082381823","0.4597327255","0.1210896773","0.06967502077","","","","","","","","","","","74","J","1","","","228","main_expt"
"733","","bandit","307","845267","0.0-268.0-0.0","89443707","wem/bandit_either","ARLGZWN6W91WD","either","4","","","","","","","0","0","1","0.4733003713","","0.4","0.2","0.6","0.8","","","","","0.4274963613","0.4733003713","0.1206830913","0.07642173418","","","","","","","74","J","1","","","229","main_expt"
"418","","bandit","308","847227","0.0-269.0-0.0","89443707","wem/bandit_either","ARLGZWN6W91WD","either","4","","","","","","","0","0","1","0.1334008039","","0.4","0.2","0.6","0.8","","","","","0.4362488765","0.4832022084","0.1334008039","0.04973788902","","","","","","","75","K","2","","","230","main_expt"
"696","","bandit","309","849462","0.0-270.0-0.0","89443707","wem/bandit_either","ARLGZWN6W91WD","either","4","","","","","","","0","0","1","0.1048467088","","0.4","0.2","0.6","0.8","","","","","0.4420629534","0.4802630573","0.1048467088","0.07419495466","","","","","","","75","K","2","","","231","main_expt"
"489","","bandit","310","851562","0.0-271.0-0.0","89443707","wem/bandit_either","ARLGZWN6W91WD","either","4","","","","","","","0","0","1","0.08125260149","","0.4","0.2","0.6","0.8","","","","","0.4287414635","0.4739318499","0.1184002818","0.08125260149","","","","","","","76","L","3","","","232","main_expt"
"391","","bandit","311","853497","0.0-272.0-0.0","89443707","wem/bandit_either","ARLGZWN6W91WD","either","4","","","","","","","0","0","1","0.06057073796","","0.4","0.2","0.6","0.8","","","","","0.4395511981","0.4709765286","0.08533064469","0.06057073796","","","","","","","76","L","3","","","233","main_expt"
"1928","","bandit","312","856965","0.0-273.0-0.0","89443707","wem/bandit_either","ARLGZWN6W91WD","either","4","","","","","","","0","0","1","","0.1190123434","0.4","0.2","0.6","0.8","0.4479240545","0.4658145356","0.1190123434","0.1037411708","","","","","","","","","","","75","K","2","","","234","main_expt"
"418","","bandit","313","859046","0.0-274.0-0.0","89443707","wem/bandit_either","ARLGZWN6W91WD","either","4","","","","","","","0","0","1","","0.1392024459","0.4","0.2","0.6","0.8","0.4476644646","0.4312508187","0.1392024459","0.1267441937","","","","","","","","","","","75","K","2","","","235","main_expt"
"1718","","bandit","314","862300","0.0-275.0-0.0","89443707","wem/bandit_either","ARLGZWN6W91WD","either","4","","","","","","","0","0","1","","0.1076242464","0.4","0.2","0.6","0.8","0.457106966","0.4323277229","0.1076242464","0.1002206095","","","","","","","","","","","75","K","2","","","236","main_expt"
"232","","bandit","315","864066","0.0-276.0-0.0","89443707","wem/bandit_either","ARLGZWN6W91WD","either","4","","","","","","","0","0","1","","0.4517679415","0.4","0.2","0.6","0.8","0.4097288684","0.4517679415","0.1539911713","0.08353940566","","","","","","","","","","","74","J","1","","","237","main_expt"
"1100","","bandit","316","866694","0.0-277.0-0.0","89443707","wem/bandit_either","ARLGZWN6W91WD","either","4","","","","","","","0","1","0","","0.4476427196","0.4","0.2","0.6","0.8","0.4530646831","0.4476427196","0.1833253983","0.07847158511","","","","","","","","","","","74","J","1","","","238","main_expt"
"1866","","bandit","317","870095","0.0-278.0-0.0","89443707","wem/bandit_either","ARLGZWN6W91WD","either","4","","","","","","","0","0","1","0.4421551546","","0.4","0.2","0.6","0.8","","","","","0.4532148127","0.4421551546","0.185515968","0.1132310855","","","","","","","74","J","1","","","239","main_expt"
"542","","bandit","318","872203","0.0-279.0-0.0","89443707","wem/bandit_either","ARLGZWN6W91WD","either","4","","","","","","","0","0","1","","0.4205303603","0.4","0.2","0.6","0.8","0.4456906816","0.4205303603","0.2545144829","0.130249024","","","","","","","","","","","74","J","1","","","240","main_expt"
"769","","bandit","319","874516","0.0-280.0-0.0","89443707","wem/bandit_either","ARLGZWN6W91WD","either","4","","","","","","","0","1","0","","0.4304808994","0.4","0.2","0.6","0.8","0.4515134246","0.4304808994","0.1902236802","0.1356270161","","","","","","","","","","","74","J","1","","","241","main_expt"
"2581","","bandit","320","878654","0.0-281.0-0.0","89443707","wem/bandit_either","ARLGZWN6W91WD","either","4","","","","","","","1","0","0","0.4318168925","","0.4","0.2","0.6","0.8","","","","","0.4640222466","0.4318168925","0.2196571485","0.1402569013","","","","","","","74","J","1","","","242","main_expt"
"470","","bandit","321","880715","0.0-282.0-0.0","89443707","wem/bandit_either","ARLGZWN6W91WD","either","4","","","","","","","0","0","1","","0.4437639365","0.4","0.2","0.6","0.8","0.4305348251","0.4437639365","0.2691755858","0.1851652895","","","","","","","","","","","74","J","1","","","243","main_expt"
"391","","bandit","322","882641","0.0-283.0-0.0","89443707","wem/bandit_either","ARLGZWN6W91WD","either","4","","","","","","","0","1","0","","0.4444545885","0.4","0.2","0.6","0.8","0.4444417595","0.4444545885","0.2689580194","0.1871667761","","","","","","","","","","","74","J","1","","","244","main_expt"
"574","","bandit","323","884743","0.0-284.0-0.0","89443707","wem/bandit_either","ARLGZWN6W91WD","either","4","","","","","","","0","1","0","","0.445216333","0.4","0.2","0.6","0.8","0.4468105605","0.445216333","0.1935089033","0.1881322931","","","","","","","","","","","74","J","1","","","245","main_expt"
"383","","bandit","324","886686","0.0-285.0-0.0","89443707","wem/bandit_either","ARLGZWN6W91WD","either","4","","","","","","","1","0","0","0.4767449203","","0.4","0.2","0.6","0.8","","","","","0.4453418505","0.4767449203","0.1466547275","0.187853128","","","","","","","74","J","1","","","246","main_expt"
"314","","bandit","325","888554","0.0-286.0-0.0","89443707","wem/bandit_either","ARLGZWN6W91WD","either","4","","","","","","","0","0","1","","0.4530054638","0.4","0.2","0.6","0.8","0.4426138654","0.4530054638","0.1275107348","0.1952756904","","","","","","","","","","","74","J","1","","","247","main_expt"
"182","","bandit","326","890275","0.0-287.0-0.0","89443707","wem/bandit_either","ARLGZWN6W91WD","either","4","","","","","","","0","0","1","0.4326938674","","0.4","0.2","0.6","0.8","","","","","0.464375056","0.4326938674","0.107785627","0.1722543521","","","","","","","74","J","1","","","248","main_expt"
"65","","bandit","327","891872","0.0-288.0-0.0","89443707","wem/bandit_either","ARLGZWN6W91WD","either","4","","","","","","","0","1","0","","0.4276367863","0.4","0.2","0.6","0.8","0.4416705694","0.4276367863","0.1169449123","0.1935833679","","","","","","","","","","","74","J","1","","","249","main_expt"
"414","","bandit","328","893918","0.0-289.0-0.0","89443707","wem/bandit_either","ARLGZWN6W91WD","either","4","","","","","","","1","0","0","0.4602627553","","0.4","0.2","0.6","0.8","","","","","0.4352039605","0.4602627553","0.1474950258","0.1783221165","","","","","","","74","J","1","","","250","main_expt"
"234","","bandit","329","895689","0.0-290.0-0.0","89443707","wem/bandit_either","ARLGZWN6W91WD","either","4","","","","","","","0","0","1","","0.4429671406","0.4","0.2","0.6","0.8","0.4625669079","0.4429671406","0.1272017844","0.2191654692","","","","","","","","","","","74","J","1","","","251","main_expt"
"700","","bandit","330","897919","0.0-291.0-0.0","89443707","wem/bandit_either","ARLGZWN6W91WD","either","4","","","","","","","0","0","1","","0.4423062834","0.4","0.2","0.6","0.8","0.4714010403","0.4423062834","0.1383509771","0.2357097141","","","","","","","","","","","74","J","1","","","252","main_expt"
"391","","bandit","331","899843","0.0-292.0-0.0","89443707","wem/bandit_either","ARLGZWN6W91WD","either","4","","","","","","","1","0","0","0.4509963191","","0.4","0.2","0.6","0.8","","","","","0.4487775435","0.4509963191","0.1251389104","0.214143541","","","","","","","74","J","1","","","253","main_expt"
"660","","bandit","332","902062","0.0-293.0-0.0","89443707","wem/bandit_either","ARLGZWN6W91WD","either","4","","","","","","","1","0","0","0.4552381636","","0.4","0.2","0.6","0.8","","","","","0.4801031999","0.4552381636","0.1660910957","0.2603333519","","","","","","","74","J","1","","","254","main_expt"
"5821","","bandit","333","909498","0.0-294.0-0.0","89443707","wem/bandit_either","ARLGZWN6W91WD","either","4","","","","","","","0","0","1","","0.4535988902","0.4","0.2","0.6","0.8","0.4710832431","0.4535988902","0.1691625935","0.2904938923","","","","","","","","","","","74","J","1","","","255","main_expt"
