"rt","responses","trial_type","trial_index","time_elapsed","internal_node_id","subjID","study","MID","cond","drift","key_press","expt_phase","target","like","value","connected","gems","bombs","no_reward","GemPrChosen","BombPrChosen","GainOverPainPr_0","GainOverPainPr_1","GainOverPainPr_2","GainOverPainPr_3","LosePr_0","LosePr_1","LosePr_2","LosePr_3","WinPr_0","WinPr_1","WinPr_2","WinPr_3","Q0","Q1","Q2","gender","age","ethnicity","respCharCode","respKey","respChoiceNum","respChoice","practice","trial_counter","trial_label"
"38216","{""Q0"":""A1DNJ17PE2RYJZ""}","survey-text","0","38227","0.0-0.0","90138706","wem/bandit_either","A1DNJ17PE2RYJZ","either","7","","","","","","","","","","","","","","","","","","","","","","","","","","","","","","","","","","","",""
"62998","","text","1","102231","0.0-1.0","90138706","wem/bandit_either","A1DNJ17PE2RYJZ","either","7","32","","","","","","","","","","","","","","","","","","","","","","","","","","","","","","","","","","",""
"31610","","text","2","133844","0.0-2.0","90138706","wem/bandit_either","A1DNJ17PE2RYJZ","either","7","32","","","","","","","","","","","","","","","","","","","","","","","","","","","","","","","","","","",""
"30230","","text","3","164075","0.0-3.0","90138706","wem/bandit_either","A1DNJ17PE2RYJZ","either","7","32","","","","","","","","","","","","","","","","","","","","","","","","","","","","","","","","","","",""
"28320","","text","4","192397","0.0-4.0","90138706","wem/bandit_either","A1DNJ17PE2RYJZ","either","7","32","","","","","","","","","","","","","","","","","","","","","","","","","","","","","","","","","","",""
"34844","","text","5","227243","0.0-5.0","90138706","wem/bandit_either","A1DNJ17PE2RYJZ","either","7","32","","","","","","","","","","","","","","","","","","","","","","","","","","","","","","","","","","",""
"32806","","text","6","260051","0.0-6.0","90138706","wem/bandit_either","A1DNJ17PE2RYJZ","either","7","32","","","","","","","","","","","","","","","","","","","","","","","","","","","","","","","","","","",""
"11589","","text","7","271643","0.0-7.0","90138706","wem/bandit_either","A1DNJ17PE2RYJZ","either","7","32","","","","","","","","","","","","","","","","","","","","","","","","","","","","","","","","","","",""
"62985","","identification","8","334661","0.0-8.0-0.0","90138706","wem/bandit_either","A1DNJ17PE2RYJZ","either","7","","identification_pre","the village of Zur","","","","","","","","","","","","","","","","","","","","","","","","","","","","","","","","",""
"6515","","identification","9","342190","0.0-8.0-1.0","90138706","wem/bandit_either","A1DNJ17PE2RYJZ","either","7","","identification_pre","the village of Nyx","","","","","","","","","","","","","","","","","","","","","","","","","","","","","","","","",""
"15865","","text","10","359057","0.0-9.0","90138706","wem/bandit_either","A1DNJ17PE2RYJZ","either","7","32","","","","","","","","","","","","","","","","","","","","","","","","","","","","","","","","","","",""
"14526","","text","11","373586","0.0-10.0","90138706","wem/bandit_either","A1DNJ17PE2RYJZ","either","7","32","","","","","","","","","","","","","","","","","","","","","","","","","","","","","","","","","","",""
"4516","","text","12","378103","0.0-11.0","90138706","wem/bandit_either","A1DNJ17PE2RYJZ","either","7","32","","","","","","","","","","","","","","","","","","","","","","","","","","","","","","","","","","",""
"6840","","text","13","384944","0.0-12.0","90138706","wem/bandit_either","A1DNJ17PE2RYJZ","either","7","32","","","","","","","","","","","","","","","","","","","","","","","","","","","","","","","","","","",""
"2614","","bandit","14","389073","0.0-13.0-0.0","90138706","wem/bandit_either","A1DNJ17PE2RYJZ","either","7","","","","","","","0","0","1","0","0","","","","","0","","","","0","","","","","","","","","","74","J","0","img/none_selected_demo.jpg","true","0",""
"777","","bandit","15","391358","0.0-14.0-0.0","90138706","wem/bandit_either","A1DNJ17PE2RYJZ","either","7","","","","","","","0","0","1","0","0","","","","","0","","","","0","","","","","","","","","","75","K","0","img/none_selected_demo.jpg","true","0",""
"25728","","text","16","417087","0.0-15.0","90138706","wem/bandit_either","A1DNJ17PE2RYJZ","either","7","32","","","","","","","","","","","","","","","","","","","","","","","","","","","","","","","","","","",""
"28933","","text","17","446022","0.0-16.0","90138706","wem/bandit_either","A1DNJ17PE2RYJZ","either","7","32","","","","","","","","","","","","","","","","","","","","","","","","","","","","","","","","","","",""
"15902","","text","18","461926","0.0-17.0","90138706","wem/bandit_either","A1DNJ17PE2RYJZ","either","7","32","","","","","","","","","","","","","","","","","","","","","","","","","","","","","","","","","","",""
"10235","","text","19","472165","0.0-18.0","90138706","wem/bandit_either","A1DNJ17PE2RYJZ","either","7","32","","","","","","","","","","","","","","","","","","","","","","","","","","","","","","","","","","",""
"1882","","bandit","20","475555","0.0-19.0-0.0","90138706","wem/bandit_either","A1DNJ17PE2RYJZ","either","7","","","","","","","1","0","0","0.8","","0.5","0.5","","","","","","","0.8","0.2","","","","","","","","","74","J","0","img/none_selected_demo.jpg","true","0","80_20_practice"
"1293","","bandit","21","478361","0.0-19.0-1.0","90138706","wem/bandit_either","A1DNJ17PE2RYJZ","either","7","","","","","","","0","1","0","","0.8","0.5","0.5","","","0.8","0.2","","","","","","","","","","","","","74","J","0","img/none_selected_demo.jpg","true","0","80_20_practice"
"2305","","bandit","22","482174","0.0-19.0-2.0","90138706","wem/bandit_either","A1DNJ17PE2RYJZ","either","7","","","","","","","0","0","1","","0.8","0.5","0.5","","","0.8","0.2","","","","","","","","","","","","","74","J","0","img/none_selected_demo.jpg","true","0","80_20_practice"
"1092","","bandit","23","484773","0.0-19.0-3.0","90138706","wem/bandit_either","A1DNJ17PE2RYJZ","either","7","","","","","","","1","0","0","0.8","","0.5","0.5","","","","","","","0.8","0.2","","","","","","","","","74","J","0","img/none_selected_demo.jpg","true","0","80_20_practice"
"841","","bandit","24","487122","0.0-19.0-4.0","90138706","wem/bandit_either","A1DNJ17PE2RYJZ","either","7","","","","","","","1","0","0","0.8","","0.5","0.5","","","","","","","0.8","0.2","","","","","","","","","74","J","0","img/none_selected_demo.jpg","true","0","80_20_practice"
"854","","bandit","25","489484","0.0-19.0-5.0","90138706","wem/bandit_either","A1DNJ17PE2RYJZ","either","7","","","","","","","1","0","0","0.2","","0.5","0.5","","","","","","","0.8","0.2","","","","","","","","","75","K","1","","true","0","80_20_practice"
"874","","bandit","26","491868","0.0-19.0-6.0","90138706","wem/bandit_either","A1DNJ17PE2RYJZ","either","7","","","","","","","0","0","1","","0.2","0.5","0.5","","","0.8","0.2","","","","","","","","","","","","","75","K","1","","true","0","80_20_practice"
"684","","bandit","27","494061","0.0-19.0-7.0","90138706","wem/bandit_either","A1DNJ17PE2RYJZ","either","7","","","","","","","0","1","0","","0.2","0.5","0.5","","","0.8","0.2","","","","","","","","","","","","","75","K","1","","true","0","80_20_practice"
"946","","bandit","28","496515","0.0-19.0-8.0","90138706","wem/bandit_either","A1DNJ17PE2RYJZ","either","7","","","","","","","0","0","1","","0.2","0.5","0.5","","","0.8","0.2","","","","","","","","","","","","","75","K","1","","true","0","80_20_practice"
"804","","bandit","29","498827","0.0-19.0-9.0","90138706","wem/bandit_either","A1DNJ17PE2RYJZ","either","7","","","","","","","0","0","1","0.2","","0.5","0.5","","","","","","","0.8","0.2","","","","","","","","","75","K","1","","true","0","80_20_practice"
"611","","bandit","30","500948","0.0-19.0-10.0","90138706","wem/bandit_either","A1DNJ17PE2RYJZ","either","7","","","","","","","0","0","1","0.2","","0.5","0.5","","","","","","","0.8","0.2","","","","","","","","","75","K","1","","true","0","80_20_practice"
"699","","bandit","31","503155","0.0-19.0-11.0","90138706","wem/bandit_either","A1DNJ17PE2RYJZ","either","7","","","","","","","0","0","1","","0.2","0.5","0.5","","","0.8","0.2","","","","","","","","","","","","","75","K","1","","true","0","80_20_practice"
"549","","bandit","32","505214","0.0-19.0-12.0","90138706","wem/bandit_either","A1DNJ17PE2RYJZ","either","7","","","","","","","0","1","0","","0.8","0.5","0.5","","","0.8","0.2","","","","","","","","","","","","","74","J","0","img/none_selected_demo.jpg","true","0","80_20_practice"
"4351","","bandit","33","511076","0.0-19.0-13.0","90138706","wem/bandit_either","A1DNJ17PE2RYJZ","either","7","","","","","","","1","0","0","0.8","","0.5","0.5","","","","","","","0.8","0.2","","","","","","","","","74","J","0","img/none_selected_demo.jpg","true","0","80_20_practice"
"498","","bandit","34","513084","0.0-19.0-14.0","90138706","wem/bandit_either","A1DNJ17PE2RYJZ","either","7","","","","","","","0","1","0","","0.8","0.5","0.5","","","0.8","0.2","","","","","","","","","","","","","74","J","0","img/none_selected_demo.jpg","true","0","80_20_practice"
"5963","","bandit","35","520555","0.0-19.0-15.0","90138706","wem/bandit_either","A1DNJ17PE2RYJZ","either","7","","","","","","","0","1","0","","0.8","0.5","0.5","","","0.8","0.2","","","","","","","","","","","","","74","J","0","img/none_selected_demo.jpg","true","0","80_20_practice"
"536","","bandit","36","522600","0.0-19.0-16.0","90138706","wem/bandit_either","A1DNJ17PE2RYJZ","either","7","","","","","","","0","1","0","","0.8","0.5","0.5","","","0.8","0.2","","","","","","","","","","","","","74","J","0","img/none_selected_demo.jpg","true","0","80_20_practice"
"2781","","bandit","37","526891","0.0-19.0-17.0","90138706","wem/bandit_either","A1DNJ17PE2RYJZ","either","7","","","","","","","0","1","0","","0.8","0.5","0.5","","","0.8","0.2","","","","","","","","","","","","","74","J","0","img/none_selected_demo.jpg","true","0","80_20_practice"
"724","","bandit","38","529124","0.0-19.0-18.0","90138706","wem/bandit_either","A1DNJ17PE2RYJZ","either","7","","","","","","","0","0","1","","0.2","0.5","0.5","","","0.8","0.2","","","","","","","","","","","","","75","K","1","","true","0","80_20_practice"
"547","","bandit","39","531177","0.0-19.0-19.0","90138706","wem/bandit_either","A1DNJ17PE2RYJZ","either","7","","","","","","","0","0","1","","0.2","0.5","0.5","","","0.8","0.2","","","","","","","","","","","","","75","K","1","","true","0","80_20_practice"
"7551","","text","40","538729","0.0-20.0","90138706","wem/bandit_either","A1DNJ17PE2RYJZ","either","7","32","","","","","","","","","","","","","","","","","","","","","","","","","","","","","","","","","","",""
"2093","","bandit","41","542328","0.0-21.0-0.0","90138706","wem/bandit_either","A1DNJ17PE2RYJZ","either","7","","","","","","","1","0","0","1","0","","","","","0","1","","","1","0","","","","","","","","","74","J","0","img/none_selected_demo.jpg","true","0",""
"15733","","text","42","558065","0.0-22.0","90138706","wem/bandit_either","A1DNJ17PE2RYJZ","either","7","17","","","","","","","","","","","","","","","","","","","","","","","","","","","","","","","","","","",""
"15968","","text","43","574034","0.0-23.0","90138706","wem/bandit_either","A1DNJ17PE2RYJZ","either","7","32","","","","","","","","","","","","","","","","","","","","","","","","","","","","","","","","","","",""
"6301","","text","44","580337","0.0-24.0","90138706","wem/bandit_either","A1DNJ17PE2RYJZ","either","7","32","","","","","","","","","","","","","","","","","","","","","","","","","","","","","","","","","","",""
"8950","","text","45","589290","0.0-25.0","90138706","wem/bandit_either","A1DNJ17PE2RYJZ","either","7","32","","","","","","","","","","","","","","","","","","","","","","","","","","","","","","","","","","",""
"22067","","text","46","611359","0.0-26.0","90138706","wem/bandit_either","A1DNJ17PE2RYJZ","either","7","32","","","","","","","","","","","","","","","","","","","","","","","","","","","","","","","","","","",""
"10488","","text","47","621849","0.0-27.0","90138706","wem/bandit_either","A1DNJ17PE2RYJZ","either","7","32","","","","","","","","","","","","","","","","","","","","","","","","","","","","","","","","","","",""
"12757","","text","48","634610","0.0-28.0","90138706","wem/bandit_either","A1DNJ17PE2RYJZ","either","7","32","","","","","","","","","","","","","","","","","","","","","","","","","","","","","","","","","","",""
"8804","","text","49","643418","0.0-29.0","90138706","wem/bandit_either","A1DNJ17PE2RYJZ","either","7","32","","","","","","","","","","","","","","","","","","","","","","","","","","","","","","","","","","",""
"11180","","text","50","654602","0.0-30.0","90138706","wem/bandit_either","A1DNJ17PE2RYJZ","either","7","32","","","","","","","","","","","","","","","","","","","","","","","","","","","","","","","","","","",""
"5524","","text","51","660130","0.0-31.0","90138706","wem/bandit_either","A1DNJ17PE2RYJZ","either","7","32","","","","","","","","","","","","","","","","","","","","","","","","","","","","","","","","","","",""
"12373","","text","52","672506","0.0-32.0","90138706","wem/bandit_either","A1DNJ17PE2RYJZ","either","7","32","","","","","","","","","","","","","","","","","","","","","","","","","","","","","","","","","","",""
"1915","","bandit","53","675928","0.0-33.0-0.0","90138706","wem/bandit_either","A1DNJ17PE2RYJZ","either","7","","","","","","","0","0","1","0.8","","0.5","0.5","0.5","0.5","","","","","0.8","0.2","0.6","0.2","","","","","","","72","H","0","img/none_selected.jpg","true","0","full_practice"
"662","","bandit","54","678097","0.0-33.0-1.0","90138706","wem/bandit_either","A1DNJ17PE2RYJZ","either","7","","","","","","","1","0","0","0.8","","0.5","0.5","0.5","0.5","","","","","0.8","0.2","0.6","0.2","","","","","","","72","H","0","img/none_selected.jpg","true","0","full_practice"
"888","","bandit","55","680494","0.0-33.0-2.0","90138706","wem/bandit_either","A1DNJ17PE2RYJZ","either","7","","","","","","","1","0","0","0.8","","0.5","0.5","0.5","0.5","","","","","0.8","0.2","0.6","0.2","","","","","","","72","H","0","img/none_selected.jpg","true","0","full_practice"
"932","","bandit","56","682935","0.0-33.0-3.0","90138706","wem/bandit_either","A1DNJ17PE2RYJZ","either","7","","","","","","","1","0","0","0.8","","0.5","0.5","0.5","0.5","","","","","0.8","0.2","0.6","0.2","","","","","","","72","H","0","img/none_selected.jpg","true","0","full_practice"
"793","","bandit","57","685238","0.0-33.0-4.0","90138706","wem/bandit_either","A1DNJ17PE2RYJZ","either","7","","","","","","","1","0","0","0.8","","0.5","0.5","0.5","0.5","","","","","0.8","0.2","0.6","0.2","","","","","","","72","H","0","img/none_selected.jpg","true","0","full_practice"
"506","","bandit","58","687258","0.0-33.0-5.0","90138706","wem/bandit_either","A1DNJ17PE2RYJZ","either","7","","","","","","","0","1","0","","0.8","0.5","0.5","0.5","0.5","0.8","0.2","0.6","0.2","","","","","","","","","","","72","H","0","img/none_selected.jpg","true","0","full_practice"
"655","","bandit","59","689425","0.0-33.0-6.0","90138706","wem/bandit_either","A1DNJ17PE2RYJZ","either","7","","","","","","","0","1","0","","0.8","0.5","0.5","0.5","0.5","0.8","0.2","0.6","0.2","","","","","","","","","","","72","H","0","img/none_selected.jpg","true","0","full_practice"
"728","","bandit","60","691663","0.0-33.0-7.0","90138706","wem/bandit_either","A1DNJ17PE2RYJZ","either","7","","","","","","","1","0","0","0.8","","0.5","0.5","0.5","0.5","","","","","0.8","0.2","0.6","0.2","","","","","","","72","H","0","img/none_selected.jpg","true","0","full_practice"
"443","","bandit","61","693617","0.0-33.0-8.0","90138706","wem/bandit_either","A1DNJ17PE2RYJZ","either","7","","","","","","","0","1","0","","0.8","0.5","0.5","0.5","0.5","0.8","0.2","0.6","0.2","","","","","","","","","","","72","H","0","img/none_selected.jpg","true","0","full_practice"
"641","","bandit","62","695767","0.0-33.0-9.0","90138706","wem/bandit_either","A1DNJ17PE2RYJZ","either","7","","","","","","","0","0","1","","0.8","0.5","0.5","0.5","0.5","0.8","0.2","0.6","0.2","","","","","","","","","","","72","H","0","img/none_selected.jpg","true","0","full_practice"
"1237","","bandit","63","698513","0.0-33.0-10.0","90138706","wem/bandit_either","A1DNJ17PE2RYJZ","either","7","","","","","","","0","1","0","","0.8","0.5","0.5","0.5","0.5","0.8","0.2","0.6","0.2","","","","","","","","","","","72","H","0","img/none_selected.jpg","true","0","full_practice"
"641","","bandit","64","700664","0.0-33.0-11.0","90138706","wem/bandit_either","A1DNJ17PE2RYJZ","either","7","","","","","","","1","0","0","0.8","","0.5","0.5","0.5","0.5","","","","","0.8","0.2","0.6","0.2","","","","","","","72","H","0","img/none_selected.jpg","true","0","full_practice"
"545","","bandit","65","702718","0.0-33.0-12.0","90138706","wem/bandit_either","A1DNJ17PE2RYJZ","either","7","","","","","","","1","0","0","0.8","","0.5","0.5","0.5","0.5","","","","","0.8","0.2","0.6","0.2","","","","","","","72","H","0","img/none_selected.jpg","true","0","full_practice"
"395","","bandit","66","704623","0.0-33.0-13.0","90138706","wem/bandit_either","A1DNJ17PE2RYJZ","either","7","","","","","","","0","1","0","","0.8","0.5","0.5","0.5","0.5","0.8","0.2","0.6","0.2","","","","","","","","","","","72","H","0","img/none_selected.jpg","true","0","full_practice"
"749","","bandit","67","706882","0.0-33.0-14.0","90138706","wem/bandit_either","A1DNJ17PE2RYJZ","either","7","","","","","","","1","0","0","0.8","","0.5","0.5","0.5","0.5","","","","","0.8","0.2","0.6","0.2","","","","","","","72","H","0","img/none_selected.jpg","true","0","full_practice"
"768","","bandit","68","709161","0.0-33.0-15.0","90138706","wem/bandit_either","A1DNJ17PE2RYJZ","either","7","","","","","","","0","1","0","","0.8","0.5","0.5","0.5","0.5","0.8","0.2","0.6","0.2","","","","","","","","","","","72","H","0","img/none_selected.jpg","true","0","full_practice"
"400","","bandit","69","711071","0.0-33.0-16.0","90138706","wem/bandit_either","A1DNJ17PE2RYJZ","either","7","","","","","","","1","0","0","0.8","","0.5","0.5","0.5","0.5","","","","","0.8","0.2","0.6","0.2","","","","","","","72","H","0","img/none_selected.jpg","true","0","full_practice"
"433","","bandit","70","713014","0.0-33.0-17.0","90138706","wem/bandit_either","A1DNJ17PE2RYJZ","either","7","","","","","","","0","1","0","","0.8","0.5","0.5","0.5","0.5","0.8","0.2","0.6","0.2","","","","","","","","","","","72","H","0","img/none_selected.jpg","true","0","full_practice"
"477","","bandit","71","715003","0.0-33.0-18.0","90138706","wem/bandit_either","A1DNJ17PE2RYJZ","either","7","","","","","","","1","0","0","0.8","","0.5","0.5","0.5","0.5","","","","","0.8","0.2","0.6","0.2","","","","","","","72","H","0","img/none_selected.jpg","true","0","full_practice"
"1952","","bandit","72","718467","0.0-33.0-19.0","90138706","wem/bandit_either","A1DNJ17PE2RYJZ","either","7","","","","","","","0","0","1","","0.8","0.5","0.5","0.5","0.5","0.8","0.2","0.6","0.2","","","","","","","","","","","72","H","0","img/none_selected.jpg","true","0","full_practice"
"3321","","text","73","721799","0.0-34.0","90138706","wem/bandit_either","A1DNJ17PE2RYJZ","either","7","32","","","","","","","","","","","","","","","","","","","","","","","","","","","","","","","","","","",""
"30531","","text","74","753335","0.0-35.0","90138706","wem/bandit_either","A1DNJ17PE2RYJZ","either","7","32","","","","","","","","","","","","","","","","","","","","","","","","","","","","","","","","","","",""
"37332","","text","75","790671","0.0-36.0","90138706","wem/bandit_either","A1DNJ17PE2RYJZ","either","7","32","","","","","","","","","","","","","","","","","","","","","","","","","","","","","","","","","","",""
"22579","","text","76","813253","0.0-37.0","90138706","wem/bandit_either","A1DNJ17PE2RYJZ","either","7","32","","","","","","","","","","","","","","","","","","","","","","","","","","","","","","","","","","",""
"10308","","text","77","823566","0.0-38.0","90138706","wem/bandit_either","A1DNJ17PE2RYJZ","either","7","32","","","","","","","","","","","","","","","","","","","","","","","","","","","","","","","","","","",""
"14520","","text","78","838091","0.0-39.0","90138706","wem/bandit_either","A1DNJ17PE2RYJZ","either","7","32","","","","","","","","","","","","","","","","","","","","","","","","","","","","","","","","","","",""
"1007","","bandit","79","840605","0.0-40.0-0.0","90138706","wem/bandit_either","A1DNJ17PE2RYJZ","either","7","","","","","","","1","0","0","0.1952616071","","0.4","0.6","0.2","0.8","","","","","0.06530018083","0.01738065524","0.1480066451","0.1952616071","","","","","","","76","L","3","","","1","main_expt"
"775","","bandit","80","842887","0.0-41.0-0.0","90138706","wem/bandit_either","A1DNJ17PE2RYJZ","either","7","","","","","","","0","0","1","0.1652234336","","0.4","0.6","0.2","0.8","","","","","0.1011701763","0.0196943787","0.1053714073","0.1652234336","","","","","","","76","L","3","","","2","main_expt"
"747","","bandit","81","845142","0.0-42.0-0.0","90138706","wem/bandit_either","A1DNJ17PE2RYJZ","either","7","","","","","","","0","0","1","0.1347382479","","0.4","0.6","0.2","0.8","","","","","0.09486719381","0.01678573497","0.1460078221","0.1347382479","","","","","","","76","L","3","","","3","main_expt"
"673","","bandit","82","847325","0.0-43.0-0.0","90138706","wem/bandit_either","A1DNJ17PE2RYJZ","either","7","","","","","","","0","1","0","","0.1866138214","0.4","0.6","0.2","0.8","0.06705802814","0.02981965743","0.1866138214","0.1684625442","","","","","","","","","","","75","K","2","","","4","main_expt"
"664","","bandit","83","849498","0.0-44.0-0.0","90138706","wem/bandit_either","A1DNJ17PE2RYJZ","either","7","","","","","","","0","0","1","","0.2445348717","0.4","0.6","0.2","0.8","0.0822298525","0.02600208211","0.2445348717","0.1792029032","","","","","","","","","","","75","K","2","","","5","main_expt"
"504","","bandit","84","851514","0.0-45.0-0.0","90138706","wem/bandit_either","A1DNJ17PE2RYJZ","either","7","","","","","","","0","0","1","","0.2546962146","0.4","0.6","0.2","0.8","0.09162209411","0.02332436933","0.2546962146","0.2153873139","","","","","","","","","","","75","K","2","","","6","main_expt"
"617","","bandit","85","853637","0.0-46.0-0.0","90138706","wem/bandit_either","A1DNJ17PE2RYJZ","either","7","","","","","","","0","0","1","0.02864040813","","0.4","0.6","0.2","0.8","","","","","0.1028820098","0.02864040813","0.2344841702","0.1757762721","","","","","","","74","J","1","","","7","main_expt"
"634","","bandit","86","855782","0.0-47.0-0.0","90138706","wem/bandit_either","A1DNJ17PE2RYJZ","either","7","","","","","","","0","0","1","0.02951264166","","0.4","0.6","0.2","0.8","","","","","0.1532270122","0.02951264166","0.2473344203","0.2241229746","","","","","","","74","J","1","","","8","main_expt"
"951","","bandit","87","858242","0.0-48.0-0.0","90138706","wem/bandit_either","A1DNJ17PE2RYJZ","either","7","","","","","","","0","0","1","0.02997011939","","0.4","0.6","0.2","0.8","","","","","0.2131450397","0.02997011939","0.2642160399","0.2199426203","","","","","","","74","J","1","","","9","main_expt"
"729","","bandit","88","860482","0.0-49.0-0.0","90138706","wem/bandit_either","A1DNJ17PE2RYJZ","either","7","","","","","","","0","0","1","","0.2985754635","0.4","0.6","0.2","0.8","0.2985754635","0.02489651457","0.2104627424","0.1520686932","","","","","","","","","","","72","H","0","img/none_selected.jpg","","10","main_expt"
"980","","bandit","89","862972","0.0-50.0-0.0","90138706","wem/bandit_either","A1DNJ17PE2RYJZ","either","7","","","","","","","1","0","0","0.2924640086","","0.4","0.6","0.2","0.8","","","","","0.2924640086","0.01651058827","0.219372878","0.2013349999","","","","","","","72","H","0","img/none_selected.jpg","","11","main_expt"
"721","","bandit","90","865206","0.0-51.0-0.0","90138706","wem/bandit_either","A1DNJ17PE2RYJZ","either","7","","","","","","","0","0","1","0.3264291113","","0.4","0.6","0.2","0.8","","","","","0.3264291113","0.02341729431","0.2105839871","0.2156800105","","","","","","","72","H","0","img/none_selected.jpg","","12","main_expt"
"684","","bandit","91","867397","0.0-52.0-0.0","90138706","wem/bandit_either","A1DNJ17PE2RYJZ","either","7","","","","","","","0","0","1","","0.3254913314","0.4","0.6","0.2","0.8","0.3254913314","0.0257410372","0.2511698571","0.1833947696","","","","","","","","","","","72","H","0","img/none_selected.jpg","","13","main_expt"
"1221","","bandit","92","870124","0.0-53.0-0.0","90138706","wem/bandit_either","A1DNJ17PE2RYJZ","either","7","","","","","","","0","0","1","","0.243643366","0.4","0.6","0.2","0.8","0.3428504842","0.02570014082","0.2158977649","0.243643366","","","","","","","","","","","76","L","3","","","14","main_expt"
"785","","bandit","93","872418","0.0-54.0-0.0","90138706","wem/bandit_either","A1DNJ17PE2RYJZ","either","7","","","","","","","0","0","1","0.2265365198","","0.4","0.6","0.2","0.8","","","","","0.3244047679","0.04268316416","0.2762480727","0.2265365198","","","","","","","76","L","3","","","15","main_expt"
"698","","bandit","94","874626","0.0-55.0-0.0","90138706","wem/bandit_either","A1DNJ17PE2RYJZ","either","7","","","","","","","0","0","1","0.2484951132","","0.4","0.6","0.2","0.8","","","","","0.3025313629","0.04667408308","0.3202890724","0.2484951132","","","","","","","76","L","3","","","16","main_expt"
"938","","bandit","95","877072","0.0-56.0-0.0","90138706","wem/bandit_either","A1DNJ17PE2RYJZ","either","7","","","","","","","0","1","0","","0.3680552247","0.4","0.6","0.2","0.8","0.3291216938","0.0506688767","0.3680552247","0.2570267238","","","","","","","","","","","75","K","2","","","17","main_expt"
"982","","bandit","96","879560","0.0-57.0-0.0","90138706","wem/bandit_either","A1DNJ17PE2RYJZ","either","7","","","","","","","0","0","1","","0.3968593921","0.4","0.6","0.2","0.8","0.2987881532","0.02988526167","0.3968593921","0.287418789","","","","","","","","","","","75","K","2","","","18","main_expt"
"1285","","bandit","97","882351","0.0-58.0-0.0","90138706","wem/bandit_either","A1DNJ17PE2RYJZ","either","7","","","","","","","0","0","1","","0.4192996399","0.4","0.6","0.2","0.8","0.281207523","0.03476350355","0.4192996399","0.2338710899","","","","","","","","","","","75","K","2","","","19","main_expt"
"617","","bandit","98","884472","0.0-59.0-0.0","90138706","wem/bandit_either","A1DNJ17PE2RYJZ","either","7","","","","","","","0","0","1","","0.4362768361","0.4","0.6","0.2","0.8","0.291129981","0.0233687216","0.4362768361","0.2335293464","","","","","","","","","","","75","K","2","","","20","main_expt"
"542","","bandit","99","886520","0.0-60.0-0.0","90138706","wem/bandit_either","A1DNJ17PE2RYJZ","either","7","","","","","","","0","0","1","","0.01272547494","0.4","0.6","0.2","0.8","0.2729578326","0.01272547494","0.4599691003","0.2434826965","","","","","","","","","","","74","J","1","","","21","main_expt"
"1671","","bandit","100","889696","0.0-61.0-0.0","90138706","wem/bandit_either","A1DNJ17PE2RYJZ","either","7","","","","","","","0","0","1","","0.2805141014","0.4","0.6","0.2","0.8","0.2805141014","0.01739491555","0.44353765","0.2702300591","","","","","","","","","","","72","H","0","img/none_selected.jpg","","22","main_expt"
"569","","bandit","101","891772","0.0-62.0-0.0","90138706","wem/bandit_either","A1DNJ17PE2RYJZ","either","7","","","","","","","0","0","1","","0.3016389313","0.4","0.6","0.2","0.8","0.3016389313","0.006692102231","0.4105594395","0.2424740502","","","","","","","","","","","72","H","0","img/none_selected.jpg","","23","main_expt"
"1369","","bandit","102","894653","0.0-63.0-0.0","90138706","wem/bandit_either","A1DNJ17PE2RYJZ","either","7","","","","","","","0","0","1","0.01209419849","","0.4","0.6","0.2","0.8","","","","","0.2475621169","0.01209419849","0.4243351486","0.1754503809","","","","","","","74","J","1","","","24","main_expt"
"614","","bandit","103","896779","0.0-64.0-0.0","90138706","wem/bandit_either","A1DNJ17PE2RYJZ","either","7","","","","","","","0","1","0","","0.4172780312","0.4","0.6","0.2","0.8","0.2607476102","0.009734580702","0.4172780312","0.2023019753","","","","","","","","","","","75","K","2","","","25","main_expt"
"849","","bandit","104","899138","0.0-65.0-0.0","90138706","wem/bandit_either","A1DNJ17PE2RYJZ","either","7","","","","","","","0","0","1","","0.3981062588","0.4","0.6","0.2","0.8","0.292589008","0.008596148908","0.3981062588","0.1887270612","","","","","","","","","","","75","K","2","","","26","main_expt"
"1304","","bandit","105","901949","0.0-66.0-0.0","90138706","wem/bandit_either","A1DNJ17PE2RYJZ","either","7","","","","","","","0","1","0","","0.3889188119","0.4","0.6","0.2","0.8","0.2978950393","0.01380650739","0.3889188119","0.2526986378","","","","","","","","","","","75","K","2","","","27","main_expt"
"750","","bandit","106","904211","0.0-67.0-0.0","90138706","wem/bandit_either","A1DNJ17PE2RYJZ","either","7","","","","","","","0","0","1","","0.3699095679","0.4","0.6","0.2","0.8","0.337392419","0.01160852189","0.3699095679","0.2536033627","","","","","","","","","","","75","K","2","","","28","main_expt"
"598","","bandit","107","906324","0.0-68.0-0.0","90138706","wem/bandit_either","A1DNJ17PE2RYJZ","either","7","","","","","","","0","0","1","","0.4087832773","0.4","0.6","0.2","0.8","0.3830759015","0.02858314752","0.4087832773","0.258258936","","","","","","","","","","","75","K","2","","","29","main_expt"
"599","","bandit","108","908434","0.0-69.0-0.0","90138706","wem/bandit_either","A1DNJ17PE2RYJZ","either","7","","","","","","","0","1","0","","0.4162513677","0.4","0.6","0.2","0.8","0.3778881599","0.0265596094","0.4162513677","0.3152574144","","","","","","","","","","","75","K","2","","","30","main_expt"
"1401","","bandit","109","911347","0.0-70.0-0.0","90138706","wem/bandit_either","A1DNJ17PE2RYJZ","either","7","","","","","","","0","0","1","","0.43337534","0.4","0.6","0.2","0.8","0.3585458117","0.02828816112","0.43337534","0.3508579725","","","","","","","","","","","75","K","2","","","31","main_expt"
"743","","bandit","110","913601","0.0-71.0-0.0","90138706","wem/bandit_either","A1DNJ17PE2RYJZ","either","7","","","","","","","0","0","1","","0.3902021543","0.4","0.6","0.2","0.8","0.3511664436","0.03857304495","0.4399105216","0.3902021543","","","","","","","","","","","76","L","3","","","32","main_expt"
"601","","bandit","111","915715","0.0-72.0-0.0","90138706","wem/bandit_either","A1DNJ17PE2RYJZ","either","7","","","","","","","0","0","1","","0.4112626521","0.4","0.6","0.2","0.8","0.3924960189","0.02642959278","0.3859623535","0.4112626521","","","","","","","","","","","76","L","3","","","33","main_expt"
"384","","bandit","112","917609","0.0-73.0-0.0","90138706","wem/bandit_either","A1DNJ17PE2RYJZ","either","7","","","","","","","0","0","1","0.3912589523","","0.4","0.6","0.2","0.8","","","","","0.3713907517","0.06800028167","0.4231921331","0.3912589523","","","","","","","76","L","3","","","34","main_expt"
"666","","bandit","113","919788","0.0-74.0-0.0","90138706","wem/bandit_either","A1DNJ17PE2RYJZ","either","7","","","","","","","0","1","0","","0.3950458867","0.4","0.6","0.2","0.8","0.3929004689","0.05710280771","0.3950458867","0.3663646496","","","","","","","","","","","75","K","2","","","35","main_expt"
"765","","bandit","114","922065","0.0-75.0-0.0","90138706","wem/bandit_either","A1DNJ17PE2RYJZ","either","7","","","","","","","0","0","1","","0.4005306787","0.4","0.6","0.2","0.8","0.3820467604","0.07756943076","0.4005306787","0.3045225128","","","","","","","","","","","75","K","2","","","36","main_expt"
"957","","bandit","115","924533","0.0-76.0-0.0","90138706","wem/bandit_either","A1DNJ17PE2RYJZ","either","7","","","","","","","0","0","1","","0.3972735937","0.4","0.6","0.2","0.8","0.3948022939","0.06074629621","0.3972735937","0.2806474599","","","","","","","","","","","75","K","2","","","37","main_expt"
"724","","bandit","116","926766","0.0-77.0-0.0","90138706","wem/bandit_either","A1DNJ17PE2RYJZ","either","7","","","","","","","0","1","0","","0.38339591","0.4","0.6","0.2","0.8","0.3769579019","0.07063042774","0.38339591","0.3558759705","","","","","","","","","","","75","K","2","","","38","main_expt"
"801","","bandit","117","929074","0.0-78.0-0.0","90138706","wem/bandit_either","A1DNJ17PE2RYJZ","either","7","","","","","","","0","0","1","","0.3906354184","0.4","0.6","0.2","0.8","0.4030344636","0.06209293178","0.3906354184","0.3194138052","","","","","","","","","","","75","K","2","","","39","main_expt"
"599","","bandit","118","931181","0.0-79.0-0.0","90138706","wem/bandit_either","A1DNJ17PE2RYJZ","either","7","","","","","","","0","0","1","","0.3623676206","0.4","0.6","0.2","0.8","0.3622335218","0.06952578958","0.3623676206","0.3549086085","","","","","","","","","","","75","K","2","","","40","main_expt"
"566","","bandit","119","933259","0.0-80.0-0.0","90138706","wem/bandit_either","A1DNJ17PE2RYJZ","either","7","","","","","","","0","1","0","","0.3873704927","0.4","0.6","0.2","0.8","0.3911596719","0.1291245709","0.3873704927","0.3452113815","","","","","","","","","","","75","K","2","","","41","main_expt"
"651","","bandit","120","935416","0.0-81.0-0.0","90138706","wem/bandit_either","A1DNJ17PE2RYJZ","either","7","","","","","","","1","0","0","0.359823116","","0.4","0.6","0.2","0.8","","","","","0.3921858285","0.1174523948","0.359823116","0.3522960267","","","","","","","75","K","2","","","42","main_expt"
"967","","bandit","121","937889","0.0-82.0-0.0","90138706","wem/bandit_either","A1DNJ17PE2RYJZ","either","7","","","","","","","0","0","1","","0.3710191411","0.4","0.6","0.2","0.8","0.3831213528","0.1201484523","0.3710191411","0.3093122096","","","","","","","","","","","75","K","2","","","43","main_expt"
"604","","bandit","122","940001","0.0-83.0-0.0","90138706","wem/bandit_either","A1DNJ17PE2RYJZ","either","7","","","","","","","1","0","0","0.3874065465","","0.4","0.6","0.2","0.8","","","","","0.3518708159","0.09958360536","0.3874065465","0.3026159556","","","","","","","75","K","2","","","44","main_expt"
"500","","bandit","123","942009","0.0-84.0-0.0","90138706","wem/bandit_either","A1DNJ17PE2RYJZ","either","7","","","","","","","0","1","0","","0.3851533971","0.4","0.6","0.2","0.8","0.3122870636","0.05173655998","0.3851533971","0.3336294247","","","","","","","","","","","75","K","2","","","45","main_expt"
"541","","bandit","124","944056","0.0-85.0-0.0","90138706","wem/bandit_either","A1DNJ17PE2RYJZ","either","7","","","","","","","0","0","1","","0.4055883719","0.4","0.6","0.2","0.8","0.2635721956","0.05945041096","0.4055883719","0.3400222736","","","","","","","","","","","75","K","2","","","46","main_expt"
"463","","bandit","125","946025","0.0-86.0-0.0","90138706","wem/bandit_either","A1DNJ17PE2RYJZ","either","7","","","","","","","0","0","1","","0.3671593179","0.4","0.6","0.2","0.8","0.2856785865","0.04375763727","0.3671593179","0.328707825","","","","","","","","","","","75","K","2","","","47","main_expt"
"542","","bandit","126","948071","0.0-87.0-0.0","90138706","wem/bandit_either","A1DNJ17PE2RYJZ","either","7","","","","","","","0","0","1","0.3198203038","","0.4","0.6","0.2","0.8","","","","","0.2649087478","0.0666370861","0.3198203038","0.3307690822","","","","","","","75","K","2","","","48","main_expt"
"1544","","bandit","127","951121","0.0-88.0-0.0","90138706","wem/bandit_either","A1DNJ17PE2RYJZ","either","7","","","","","","","0","0","1","0.2462979357","","0.4","0.6","0.2","0.8","","","","","0.2462979357","0.08266213623","0.3111357295","0.3438067684","","","","","","","72","H","0","img/none_selected.jpg","","49","main_expt"
"678","","bandit","128","953304","0.0-89.0-0.0","90138706","wem/bandit_either","A1DNJ17PE2RYJZ","either","7","","","","","","","0","0","1","","0.2490076798","0.4","0.6","0.2","0.8","0.2490076798","0.08795051988","0.3196682981","0.4037002216","","","","","","","","","","","72","H","0","img/none_selected.jpg","","50","main_expt"
"869","","bandit","129","955681","0.0-90.0-0.0","90138706","wem/bandit_either","A1DNJ17PE2RYJZ","either","7","","","","","","","0","0","1","","0.305209751","0.4","0.6","0.2","0.8","0.305209751","0.07533366945","0.3088596379","0.3557518394","","","","","","","","","","","72","H","0","img/none_selected.jpg","","51","main_expt"
"736","","bandit","130","957921","0.0-91.0-0.0","90138706","wem/bandit_either","A1DNJ17PE2RYJZ","either","7","","","","","","","0","0","1","0.06506638851","","0.4","0.6","0.2","0.8","","","","","0.3087204988","0.06506638851","0.3060924957","0.3254324358","","","","","","","74","J","1","","","52","main_expt"
"609","","bandit","131","960043","0.0-92.0-0.0","90138706","wem/bandit_either","A1DNJ17PE2RYJZ","either","7","","","","","","","0","0","1","0.06562792832","","0.4","0.6","0.2","0.8","","","","","0.2984188648","0.06562792832","0.3229319808","0.2952150256","","","","","","","74","J","1","","","53","main_expt"
"773","","bandit","132","962324","0.0-93.0-0.0","90138706","wem/bandit_either","A1DNJ17PE2RYJZ","either","7","","","","","","","0","0","1","0.04630081711","","0.4","0.6","0.2","0.8","","","","","0.3353917468","0.04630081711","0.3280138586","0.300320608","","","","","","","74","J","1","","","54","main_expt"
"575","","bandit","133","964410","0.0-94.0-0.0","90138706","wem/bandit_either","A1DNJ17PE2RYJZ","either","7","","","","","","","0","0","1","","0.2985084879","0.4","0.6","0.2","0.8","0.3259144651","0.03868373719","0.2777260571","0.2985084879","","","","","","","","","","","76","L","3","","","55","main_expt"
"823","","bandit","134","966747","0.0-95.0-0.0","90138706","wem/bandit_either","A1DNJ17PE2RYJZ","either","7","","","","","","","0","0","1","0.2607009345","","0.4","0.6","0.2","0.8","","","","","0.3259049121","0.06235362297","0.1791004868","0.2607009345","","","","","","","76","L","3","","","56","main_expt"
"539","","bandit","135","968796","0.0-96.0-0.0","90138706","wem/bandit_either","A1DNJ17PE2RYJZ","either","7","","","","","","","0","0","1","","0.2565854794","0.4","0.6","0.2","0.8","0.3687904078","0.04639461243","0.2182265394","0.2565854794","","","","","","","","","","","76","L","3","","","57","main_expt"
"565","","bandit","136","970874","0.0-97.0-0.0","90138706","wem/bandit_either","A1DNJ17PE2RYJZ","either","7","","","","","","","0","0","1","0.2970860181","","0.4","0.6","0.2","0.8","","","","","0.3422038875","0.08954448139","0.2970860181","0.319121847","","","","","","","75","K","2","","","58","main_expt"
"625","","bandit","137","973010","0.0-98.0-0.0","90138706","wem/bandit_either","A1DNJ17PE2RYJZ","either","7","","","","","","","0","0","1","0.3249685468","","0.4","0.6","0.2","0.8","","","","","0.3771421139","0.07390342289","0.3249685468","0.3269923399","","","","","","","75","K","2","","","59","main_expt"
"559","","bandit","138","975080","0.0-99.0-0.0","90138706","wem/bandit_either","A1DNJ17PE2RYJZ","either","7","","","","","","","0","1","0","","0.2931470039","0.4","0.6","0.2","0.8","0.3620124399","0.05801548519","0.2931470039","0.3150968823","","","","","","","","","","","75","K","2","","","60","main_expt"
"1001","","bandit","139","977593","0.0-100.0-0.0","90138706","wem/bandit_either","A1DNJ17PE2RYJZ","either","7","","","","","","","0","0","1","","0.2646536279","0.4","0.6","0.2","0.8","0.3958116198","0.07333263924","0.2646536279","0.324539239","","","","","","","","","","","75","K","2","","","61","main_expt"
"794","","bandit","140","981869","0.0-101.0-0.0","90138706","wem/bandit_either","A1DNJ17PE2RYJZ","either","7","","","","","","","0","0","1","0.242461968","","0.4","0.6","0.2","0.8","","","","","0.3615218546","0.07563430262","0.242461968","0.3066306166","","","","","","","75","K","2","","","62","main_expt"
"807","","bandit","141","984183","0.0-102.0-0.0","90138706","wem/bandit_either","A1DNJ17PE2RYJZ","either","7","","","","","","","0","0","1","","0.2206683029","0.4","0.6","0.2","0.8","0.3574266064","0.06826526778","0.2206683029","0.3068900116","","","","","","","","","","","75","K","2","","","63","main_expt"
"653","","bandit","142","986343","0.0-103.0-0.0","90138706","wem/bandit_either","A1DNJ17PE2RYJZ","either","7","","","","","","","0","0","1","","0.2288959862","0.4","0.6","0.2","0.8","0.3541915859","0.1175271989","0.2288959862","0.2936494982","","","","","","","","","","","75","K","2","","","64","main_expt"
"980","","bandit","143","988831","0.0-104.0-0.0","90138706","wem/bandit_either","A1DNJ17PE2RYJZ","either","7","","","","","","","0","0","1","0.290236101","","0.4","0.6","0.2","0.8","","","","","0.3339820985","0.1273865191","0.2346523549","0.290236101","","","","","","","76","L","3","","","65","main_expt"
"942","","bandit","144","991280","0.0-105.0-0.0","90138706","wem/bandit_either","A1DNJ17PE2RYJZ","either","7","","","","","","","0","0","1","0.09075088943","","0.4","0.6","0.2","0.8","","","","","0.3195467083","0.09075088943","0.1881688105","0.2512036594","","","","","","","74","J","1","","","66","main_expt"
"547","","bandit","145","993335","0.0-106.0-0.0","90138706","wem/bandit_either","A1DNJ17PE2RYJZ","either","7","","","","","","","0","0","1","","0.3477383846","0.4","0.6","0.2","0.8","0.3477383846","0.08077075725","0.231043846","0.263747572","","","","","","","","","","","72","H","0","img/none_selected.jpg","","67","main_expt"
"892","","bandit","146","995734","0.0-107.0-0.0","90138706","wem/bandit_either","A1DNJ17PE2RYJZ","either","7","","","","","","","0","1","0","","0.3365352069","0.4","0.6","0.2","0.8","0.3365352069","0.08810311296","0.2576664243","0.2892519303","","","","","","","","","","","72","H","0","img/none_selected.jpg","","68","main_expt"
"2068","","bandit","147","999310","0.0-108.0-0.0","90138706","wem/bandit_either","A1DNJ17PE2RYJZ","either","7","","","","","","","0","0","1","","0.3148812039","0.4","0.6","0.2","0.8","0.3148812039","0.1260156682","0.2183283259","0.2383664846","","","","","","","","","","","72","H","0","img/none_selected.jpg","","69","main_expt"
"623","","bandit","148","1001438","0.0-109.0-0.0","90138706","wem/bandit_either","A1DNJ17PE2RYJZ","either","7","","","","","","","0","1","0","","0.3154014692","0.4","0.6","0.2","0.8","0.3154014692","0.08773951932","0.2260484764","0.2497111545","","","","","","","","","","","72","H","0","img/none_selected.jpg","","70","main_expt"
"574","","bandit","149","1003523","0.0-110.0-0.0","90138706","wem/bandit_either","A1DNJ17PE2RYJZ","either","7","","","","","","","0","0","1","","0.219815459","0.4","0.6","0.2","0.8","0.219815459","0.1154304285","0.3196469567","0.2095843002","","","","","","","","","","","72","H","0","img/none_selected.jpg","","71","main_expt"
"590","","bandit","150","1005626","0.0-111.0-0.0","90138706","wem/bandit_either","A1DNJ17PE2RYJZ","either","7","","","","","","","0","1","0","","0.2623730272","0.4","0.6","0.2","0.8","0.2623730272","0.10097247","0.3644141189","0.1972488467","","","","","","","","","","","72","H","0","img/none_selected.jpg","","72","main_expt"
"726","","bandit","151","1007863","0.0-112.0-0.0","90138706","wem/bandit_either","A1DNJ17PE2RYJZ","either","7","","","","","","","0","1","0","","0.2639805735","0.4","0.6","0.2","0.8","0.2639805735","0.0746930591","0.4081842109","0.15494396","","","","","","","","","","","72","H","0","img/none_selected.jpg","","73","main_expt"
"670","","bandit","152","1010050","0.0-113.0-0.0","90138706","wem/bandit_either","A1DNJ17PE2RYJZ","either","7","","","","","","","0","0","1","","0.2770925356","0.4","0.6","0.2","0.8","0.2770925356","0.1124392477","0.4506698749","0.1324790415","","","","","","","","","","","72","H","0","img/none_selected.jpg","","74","main_expt"
"565","","bandit","153","1012131","0.0-114.0-0.0","90138706","wem/bandit_either","A1DNJ17PE2RYJZ","either","7","","","","","","","0","0","1","","0.2796652475","0.4","0.6","0.2","0.8","0.2796652475","0.113494578","0.454520075","0.179195356","","","","","","","","","","","72","H","0","img/none_selected.jpg","","75","main_expt"
"779","","bandit","154","1014418","0.0-115.0-0.0","90138706","wem/bandit_either","A1DNJ17PE2RYJZ","either","7","","","","","","","0","0","1","","0.3153427244","0.4","0.6","0.2","0.8","0.3153427244","0.1469344428","0.466199952","0.215808919","","","","","","","","","","","72","H","0","img/none_selected.jpg","","76","main_expt"
"573","","bandit","155","1016505","0.0-116.0-0.0","90138706","wem/bandit_either","A1DNJ17PE2RYJZ","either","7","","","","","","","0","0","1","0.2152215887","","0.4","0.6","0.2","0.8","","","","","0.3676911864","0.2152215887","0.4402141775","0.2312347408","","","","","","","74","J","1","","","77","main_expt"
"519","","bandit","156","1018538","0.0-117.0-0.0","90138706","wem/bandit_either","A1DNJ17PE2RYJZ","either","7","","","","","","","1","0","0","0.2055177618","","0.4","0.6","0.2","0.8","","","","","0.3434277392","0.2055177618","0.4525957793","0.2197025874","","","","","","","74","J","1","","","78","main_expt"
"749","","bandit","157","1020803","0.0-118.0-0.0","90138706","wem/bandit_either","A1DNJ17PE2RYJZ","either","7","","","","","","","0","0","1","","0.222262525","0.4","0.6","0.2","0.8","0.3758616161","0.222262525","0.4630799716","0.2227420924","","","","","","","","","","","74","J","1","","","79","main_expt"
"599","","bandit","158","1022911","0.0-119.0-0.0","90138706","wem/bandit_either","A1DNJ17PE2RYJZ","either","7","","","","","","","0","0","1","0.2700860438","","0.4","0.6","0.2","0.8","","","","","0.3862393514","0.2700860438","0.423693353","0.2283057493","","","","","","","74","J","1","","","80","main_expt"
"529","","bandit","159","1024953","0.0-120.0-0.0","90138706","wem/bandit_either","A1DNJ17PE2RYJZ","either","7","","","","","","","0","0","1","0.2642688004","","0.4","0.6","0.2","0.8","","","","","0.3593770893","0.2642688004","0.4319112677","0.2721525977","","","","","","","74","J","1","","","81","main_expt"
"576","","bandit","160","1027041","0.0-121.0-0.0","90138706","wem/bandit_either","A1DNJ17PE2RYJZ","either","7","","","","","","","0","0","1","0.441827487","","0.4","0.6","0.2","0.8","","","","","0.4035110645","0.2824164754","0.441827487","0.2850237184","","","","","","","75","K","2","","","82","main_expt"
"523","","bandit","161","1029082","0.0-122.0-0.0","90138706","wem/bandit_either","A1DNJ17PE2RYJZ","either","7","","","","","","","0","1","0","","0.4288861504","0.4","0.6","0.2","0.8","0.3719627038","0.2819095575","0.4288861504","0.3236436683","","","","","","","","","","","75","K","2","","","83","main_expt"
"599","","bandit","162","1031192","0.0-123.0-0.0","90138706","wem/bandit_either","A1DNJ17PE2RYJZ","either","7","","","","","","","0","0","1","","0.4350385517","0.4","0.6","0.2","0.8","0.3349288927","0.2589745902","0.4350385517","0.3339638593","","","","","","","","","","","75","K","2","","","84","main_expt"
"914","","bandit","163","1033619","0.0-124.0-0.0","90138706","wem/bandit_either","A1DNJ17PE2RYJZ","either","7","","","","","","","0","0","1","","0.4255505645","0.4","0.6","0.2","0.8","0.3247899262","0.3626504113","0.4255505645","0.3795022601","","","","","","","","","","","75","K","2","","","85","main_expt"
"755","","bandit","164","1035888","0.0-125.0-0.0","90138706","wem/bandit_either","A1DNJ17PE2RYJZ","either","7","","","","","","","0","0","1","","0.4330938692","0.4","0.6","0.2","0.8","0.3443557019","0.3598915268","0.4330938692","0.3835523064","","","","","","","","","","","75","K","2","","","86","main_expt"
"882","","bandit","165","1038279","0.0-126.0-0.0","90138706","wem/bandit_either","A1DNJ17PE2RYJZ","either","7","","","","","","","0","1","0","","0.3772514457","0.4","0.6","0.2","0.8","0.3648776167","0.3433052933","0.4548398529","0.3772514457","","","","","","","","","","","76","L","3","","","87","main_expt"
"751","","bandit","166","1040544","0.0-127.0-0.0","90138706","wem/bandit_either","A1DNJ17PE2RYJZ","either","7","","","","","","","0","1","0","","0.3766830519","0.4","0.6","0.2","0.8","0.3609631839","0.4022938878","0.4493124031","0.3766830519","","","","","","","","","","","76","L","3","","","88","main_expt"
"678","","bandit","167","1042738","0.0-128.0-0.0","90138706","wem/bandit_either","A1DNJ17PE2RYJZ","either","7","","","","","","","0","0","1","0.3537755119","","0.4","0.6","0.2","0.8","","","","","0.3636167192","0.4141493151","0.4161110063","0.3537755119","","","","","","","76","L","3","","","89","main_expt"
"1063","","bandit","168","1045314","0.0-129.0-0.0","90138706","wem/bandit_either","A1DNJ17PE2RYJZ","either","7","","","","","","","0","0","1","0.3014761449","","0.4","0.6","0.2","0.8","","","","","0.3563441379","0.4136124289","0.405260856","0.3014761449","","","","","","","76","L","3","","","90","main_expt"
"708","","bandit","169","1047536","0.0-130.0-0.0","90138706","wem/bandit_either","A1DNJ17PE2RYJZ","either","7","","","","","","","0","0","1","0.2694038268","","0.4","0.6","0.2","0.8","","","","","0.3389138503","0.4184852842","0.3827048226","0.2694038268","","","","","","","76","L","3","","","91","main_expt"
"807","","bandit","170","1049857","0.0-131.0-0.0","90138706","wem/bandit_either","A1DNJ17PE2RYJZ","either","7","","","","","","","0","0","1","0.2651536323","","0.4","0.6","0.2","0.8","","","","","0.3263360165","0.4456808576","0.3552182969","0.2651536323","","","","","","","76","L","3","","","92","main_expt"
"726","","bandit","171","1052096","0.0-132.0-0.0","90138706","wem/bandit_either","A1DNJ17PE2RYJZ","either","7","","","","","","","0","0","1","","0.3286897504","0.4","0.6","0.2","0.8","0.2844131911","0.4355219805","0.3286897504","0.1997208586","","","","","","","","","","","75","K","2","","","93","main_expt"
"605","","bandit","172","1054216","0.0-133.0-0.0","90138706","wem/bandit_either","A1DNJ17PE2RYJZ","either","7","","","","","","","0","0","1","0.3422490236","","0.4","0.6","0.2","0.8","","","","","0.2978465223","0.4609821192","0.3422490236","0.2442555344","","","","","","","75","K","2","","","94","main_expt"
"664","","bandit","173","1056395","0.0-134.0-0.0","90138706","wem/bandit_either","A1DNJ17PE2RYJZ","either","7","","","","","","","0","0","1","","0.4419374505","0.4","0.6","0.2","0.8","0.2638723705","0.4419374505","0.3160161054","0.2638839348","","","","","","","","","","","74","J","1","","","95","main_expt"
"657","","bandit","174","1058566","0.0-135.0-0.0","90138706","wem/bandit_either","A1DNJ17PE2RYJZ","either","7","","","","","","","1","0","0","0.39438674","","0.4","0.6","0.2","0.8","","","","","0.2276010735","0.39438674","0.2945538732","0.2265245807","","","","","","","74","J","1","","","96","main_expt"
"1288","","bandit","175","1061367","0.0-136.0-0.0","90138706","wem/bandit_either","A1DNJ17PE2RYJZ","either","7","","","","","","","0","0","1","","0.3617668419","0.4","0.6","0.2","0.8","0.2045446072","0.3617668419","0.393563827","0.1969189177","","","","","","","","","","","74","J","1","","","97","main_expt"
"925","","bandit","176","1063800","0.0-137.0-0.0","90138706","wem/bandit_either","A1DNJ17PE2RYJZ","either","7","","","","","","","0","1","0","","0.3737913853","0.4","0.6","0.2","0.8","0.2436418828","0.3737913853","0.4046254927","0.1761144245","","","","","","","","","","","74","J","1","","","98","main_expt"
"717","","bandit","177","1066032","0.0-138.0-0.0","90138706","wem/bandit_either","A1DNJ17PE2RYJZ","either","7","","","","","","","0","0","1","","0.4221129479","0.4","0.6","0.2","0.8","0.2473144087","0.4221129479","0.3659012549","0.1211630765","","","","","","","","","","","74","J","1","","","99","main_expt"
"1647","","bandit","178","1069192","0.0-139.0-0.0","90138706","wem/bandit_either","A1DNJ17PE2RYJZ","either","7","","","","","","","1","0","0","0.3857893684","","0.4","0.6","0.2","0.8","","","","","0.2707360286","0.3857893684","0.400368336","0.1257326749","","","","","","","74","J","1","","","100","main_expt"
"925","","bandit","179","1071630","0.0-140.0-0.0","90138706","wem/bandit_either","A1DNJ17PE2RYJZ","either","7","","","","","","","1","0","0","0.3635527264","","0.4","0.6","0.2","0.8","","","","","0.3250409822","0.3635527264","0.4367931528","0.09975532208","","","","","","","74","J","1","","","101","main_expt"
"533","","bandit","180","1073671","0.0-141.0-0.0","90138706","wem/bandit_either","A1DNJ17PE2RYJZ","either","7","","","","","","","0","0","1","0.3738375489","","0.4","0.6","0.2","0.8","","","","","0.3088580598","0.3738375489","0.4371155326","0.1127414424","","","","","","","74","J","1","","","102","main_expt"
"595","","bandit","181","1075777","0.0-142.0-0.0","90138706","wem/bandit_either","A1DNJ17PE2RYJZ","either","7","","","","","","","0","1","0","","0.3860163181","0.4","0.6","0.2","0.8","0.2901001995","0.3860163181","0.388648264","0.1232600734","","","","","","","","","","","74","J","1","","","103","main_expt"
"659","","bandit","182","1077951","0.0-143.0-0.0","90138706","wem/bandit_either","A1DNJ17PE2RYJZ","either","7","","","","","","","0","0","1","0.390692362","","0.4","0.6","0.2","0.8","","","","","0.309645936","0.390692362","0.3718469433","0.08156843846","","","","","","","74","J","1","","","104","main_expt"
"408","","bandit","183","1079873","0.0-144.0-0.0","90138706","wem/bandit_either","A1DNJ17PE2RYJZ","either","7","","","","","","","0","0","1","0.4139082553","","0.4","0.6","0.2","0.8","","","","","0.3386062745","0.4139082553","0.3920304628","0.08245659199","","","","","","","74","J","1","","","105","main_expt"
"677","","bandit","184","1082064","0.0-145.0-0.0","90138706","wem/bandit_either","A1DNJ17PE2RYJZ","either","7","","","","","","","0","0","1","","0.3295275825","0.4","0.6","0.2","0.8","0.3827539061","0.3295275825","0.3733497125","0.1276639339","","","","","","","","","","","74","J","1","","","106","main_expt"
"1064","","bandit","185","1084638","0.0-146.0-0.0","90138706","wem/bandit_either","A1DNJ17PE2RYJZ","either","7","","","","","","","0","0","1","","0.3401355396","0.4","0.6","0.2","0.8","0.3401355396","0.3499712774","0.3878439861","0.1812689745","","","","","","","","","","","72","H","0","img/none_selected.jpg","","107","main_expt"
"528","","bandit","186","1086679","0.0-147.0-0.0","90138706","wem/bandit_either","A1DNJ17PE2RYJZ","either","7","","","","","","","0","0","1","","0.3258039352","0.4","0.6","0.2","0.8","0.3258039352","0.2666891207","0.3529013302","0.2187982558","","","","","","","","","","","72","H","0","img/none_selected.jpg","","108","main_expt"
"586","","bandit","187","1088779","0.0-148.0-0.0","90138706","wem/bandit_either","A1DNJ17PE2RYJZ","either","7","","","","","","","0","0","1","0.374919859","","0.4","0.6","0.2","0.8","","","","","0.374919859","0.2575067634","0.3457683734","0.2201216928","","","","","","","72","H","0","img/none_selected.jpg","","109","main_expt"
"1340","","bandit","188","1091633","0.0-149.0-0.0","90138706","wem/bandit_either","A1DNJ17PE2RYJZ","either","7","","","","","","","0","0","1","0.1789817232","","0.4","0.6","0.2","0.8","","","","","0.3656186065","0.2664913793","0.3316873257","0.1789817232","","","","","","","76","L","3","","","110","main_expt"
"580","","bandit","189","1093727","0.0-150.0-0.0","90138706","wem/bandit_either","A1DNJ17PE2RYJZ","either","7","","","","","","","0","0","1","","0.2404947452","0.4","0.6","0.2","0.8","0.3649701027","0.2233446911","0.3434945318","0.2404947452","","","","","","","","","","","76","L","3","","","111","main_expt"
"1170","","bandit","190","1096407","0.0-151.0-0.0","90138706","wem/bandit_either","A1DNJ17PE2RYJZ","either","7","","","","","","","1","0","0","0.2959558532","","0.4","0.6","0.2","0.8","","","","","0.3371716456","0.2170082082","0.2729480053","0.2959558532","","","","","","","76","L","3","","","112","main_expt"
"1034","","bandit","191","1098956","0.0-152.0-0.0","90138706","wem/bandit_either","A1DNJ17PE2RYJZ","either","7","","","","","","","0","0","1","0.2966985553","","0.4","0.6","0.2","0.8","","","","","0.2587224119","0.1912277411","0.2579672073","0.2966985553","","","","","","","76","L","3","","","113","main_expt"
"679","","bandit","192","1101150","0.0-153.0-0.0","90138706","wem/bandit_either","A1DNJ17PE2RYJZ","either","7","","","","","","","0","0","1","0.3289730608","","0.4","0.6","0.2","0.8","","","","","0.2384324947","0.1691995451","0.24654084","0.3289730608","","","","","","","76","L","3","","","114","main_expt"
"600","","bandit","193","1103263","0.0-154.0-0.0","90138706","wem/bandit_either","A1DNJ17PE2RYJZ","either","7","","","","","","","0","0","1","","0.2783705844","0.4","0.6","0.2","0.8","0.2705755989","0.1263730162","0.246649757","0.2783705844","","","","","","","","","","","76","L","3","","","115","main_expt"
"544","","bandit","194","1105316","0.0-155.0-0.0","90138706","wem/bandit_either","A1DNJ17PE2RYJZ","either","7","","","","","","","0","1","0","","0.2190482835","0.4","0.6","0.2","0.8","0.2666822","0.1130092975","0.2190482835","0.2990421824","","","","","","","","","","","75","K","2","","","116","main_expt"
"624","","bandit","195","1107453","0.0-156.0-0.0","90138706","wem/bandit_either","A1DNJ17PE2RYJZ","either","7","","","","","","","0","0","1","","0.1860086181","0.4","0.6","0.2","0.8","0.2664749026","0.1317362661","0.1860086181","0.3214730448","","","","","","","","","","","75","K","2","","","117","main_expt"
"416","","bandit","196","1109384","0.0-157.0-0.0","90138706","wem/bandit_either","A1DNJ17PE2RYJZ","either","7","","","","","","","0","0","1","","0.1765749983","0.4","0.6","0.2","0.8","0.285497096","0.08460291254","0.1765749983","0.3996160597","","","","","","","","","","","75","K","2","","","118","main_expt"
"529","","bandit","197","1111430","0.0-158.0-0.0","90138706","wem/bandit_either","A1DNJ17PE2RYJZ","either","7","","","","","","","0","0","1","","0.1840588368","0.4","0.6","0.2","0.8","0.3004427434","0.09168363065","0.1840588368","0.4143362638","","","","","","","","","","","75","K","2","","","119","main_expt"
"705","","bandit","198","1113649","0.0-159.0-0.0","90138706","wem/bandit_either","A1DNJ17PE2RYJZ","either","7","","","","","","","0","0","1","0.1988357929","","0.4","0.6","0.2","0.8","","","","","0.2419855731","0.06729372802","0.1988357929","0.372340151","","","","","","","75","K","2","","","120","main_expt"
"420","","bandit","199","1115583","0.0-160.0-0.0","90138706","wem/bandit_either","A1DNJ17PE2RYJZ","either","7","","","","","","","0","0","1","","0.08346408207","0.4","0.6","0.2","0.8","0.3054132847","0.08346408207","0.2315674","0.3910424524","","","","","","","","","","","74","J","1","","","121","main_expt"
"562","","bandit","200","1117661","0.0-161.0-0.0","90138706","wem/bandit_either","A1DNJ17PE2RYJZ","either","7","","","","","","","0","0","1","","0.05632743158","0.4","0.6","0.2","0.8","0.2473202095","0.05632743158","0.2041322171","0.3813410711","","","","","","","","","","","74","J","1","","","122","main_expt"
"702","","bandit","201","1119879","0.0-162.0-0.0","90138706","wem/bandit_either","A1DNJ17PE2RYJZ","either","7","","","","","","","0","0","1","","0.2909195989","0.4","0.6","0.2","0.8","0.2909195989","0.05516745574","0.1945268209","0.4247291795","","","","","","","","","","","72","H","0","img/none_selected.jpg","","123","main_expt"
"709","","bandit","202","1122104","0.0-163.0-0.0","90138706","wem/bandit_either","A1DNJ17PE2RYJZ","either","7","","","","","","","1","0","0","0.3493750294","","0.4","0.6","0.2","0.8","","","","","0.3493750294","0.05528311039","0.2206749142","0.4311179713","","","","","","","72","H","0","img/none_selected.jpg","","124","main_expt"
"645","","bandit","203","1124264","0.0-164.0-0.0","90138706","wem/bandit_either","A1DNJ17PE2RYJZ","either","7","","","","","","","0","0","1","","0.3883668019","0.4","0.6","0.2","0.8","0.3883668019","0.07149807259","0.212012295","0.4085782939","","","","","","","","","","","72","H","0","img/none_selected.jpg","","125","main_expt"
"501","","bandit","204","1126278","0.0-165.0-0.0","90138706","wem/bandit_either","A1DNJ17PE2RYJZ","either","7","","","","","","","0","1","0","","0.3888129637","0.4","0.6","0.2","0.8","0.3888129637","0.1137803622","0.1656684785","0.4110861309","","","","","","","","","","","72","H","0","img/none_selected.jpg","","126","main_expt"
"631","","bandit","205","1128423","0.0-166.0-0.0","90138706","wem/bandit_either","A1DNJ17PE2RYJZ","either","7","","","","","","","0","0","1","0.3659195129","","0.4","0.6","0.2","0.8","","","","","0.3659195129","0.1003054442","0.1685301808","0.4214671818","","","","","","","72","H","0","img/none_selected.jpg","","127","main_expt"
"714","","bandit","206","1130646","0.0-167.0-0.0","90138706","wem/bandit_either","A1DNJ17PE2RYJZ","either","7","","","","","","","1","0","0","0.3689954399","","0.4","0.6","0.2","0.8","","","","","0.3689954399","0.1378169536","0.1703551811","0.36889317","","","","","","","72","H","0","img/none_selected.jpg","","128","main_expt"
"604","","bandit","207","1132766","0.0-168.0-0.0","90138706","wem/bandit_either","A1DNJ17PE2RYJZ","either","7","","","","","","","0","1","0","","0.3600340942","0.4","0.6","0.2","0.8","0.3600340942","0.1333081235","0.1624753709","0.3840267129","","","","","","","","","","","72","H","0","img/none_selected.jpg","","129","main_expt"
"479","","bandit","208","1134761","0.0-169.0-0.0","90138706","wem/bandit_either","A1DNJ17PE2RYJZ","either","7","","","","","","","0","0","1","0.3580797835","","0.4","0.6","0.2","0.8","","","","","0.3580797835","0.1682212827","0.2335662737","0.3809677701","","","","","","","72","H","0","img/none_selected.jpg","","130","main_expt"
"595","","bandit","209","1136871","0.0-170.0-0.0","90138706","wem/bandit_either","A1DNJ17PE2RYJZ","either","7","","","","","","","0","1","0","","0.3785893338","0.4","0.6","0.2","0.8","0.3785893338","0.2193829955","0.240441026","0.3681933818","","","","","","","","","","","72","H","0","img/none_selected.jpg","","131","main_expt"
"741","","bandit","210","1139126","0.0-171.0-0.0","90138706","wem/bandit_either","A1DNJ17PE2RYJZ","either","7","","","","","","","0","0","1","0.3764735404","","0.4","0.6","0.2","0.8","","","","","0.3764735404","0.2693349046","0.2266699971","0.3664045944","","","","","","","72","H","0","img/none_selected.jpg","","132","main_expt"
"620","","bandit","211","1141254","0.0-172.0-0.0","90138706","wem/bandit_either","A1DNJ17PE2RYJZ","either","7","","","","","","","0","1","0","","0.3433534211","0.4","0.6","0.2","0.8","0.3433534211","0.2576546077","0.1994193025","0.4046437197","","","","","","","","","","","72","H","0","img/none_selected.jpg","","133","main_expt"
"688","","bandit","212","1143453","0.0-173.0-0.0","90138706","wem/bandit_either","A1DNJ17PE2RYJZ","either","7","","","","","","","1","0","0","0.3606247271","","0.4","0.6","0.2","0.8","","","","","0.3606247271","0.2412372273","0.1891464922","0.364490756","","","","","","","72","H","0","img/none_selected.jpg","","134","main_expt"
"939","","bandit","213","1145899","0.0-174.0-0.0","90138706","wem/bandit_either","A1DNJ17PE2RYJZ","either","7","","","","","","","0","0","1","0.3268624306","","0.4","0.6","0.2","0.8","","","","","0.3268624306","0.2198641054","0.1614798668","0.311914316","","","","","","","72","H","0","img/none_selected.jpg","","135","main_expt"
"583","","bandit","214","1147988","0.0-175.0-0.0","90138706","wem/bandit_either","A1DNJ17PE2RYJZ","either","7","","","","","","","1","0","0","0.2854606769","","0.4","0.6","0.2","0.8","","","","","0.2854606769","0.2504132697","0.1880386222","0.2653901568","","","","","","","72","H","0","img/none_selected.jpg","","136","main_expt"
"683","","bandit","215","1150178","0.0-176.0-0.0","90138706","wem/bandit_either","A1DNJ17PE2RYJZ","either","7","","","","","","","0","0","1","0.3311747399","","0.4","0.6","0.2","0.8","","","","","0.3311747399","0.1912230989","0.1961818793","0.2413295316","","","","","","","72","H","0","img/none_selected.jpg","","137","main_expt"
"675","","bandit","216","1152363","0.0-177.0-0.0","90138706","wem/bandit_either","A1DNJ17PE2RYJZ","either","7","","","","","","","0","1","0","","0.2570785188","0.4","0.6","0.2","0.8","0.2570785188","0.1576256809","0.2857678963","0.2060295423","","","","","","","","","","","72","H","0","img/none_selected.jpg","","138","main_expt"
"663","","bandit","217","1154540","0.0-178.0-0.0","90138706","wem/bandit_either","A1DNJ17PE2RYJZ","either","7","","","","","","","0","0","1","","0.2858060749","0.4","0.6","0.2","0.8","0.2858060749","0.1019788138","0.3449131854","0.1809645164","","","","","","","","","","","72","H","0","img/none_selected.jpg","","139","main_expt"
"501","","bandit","218","1156549","0.0-179.0-0.0","90138706","wem/bandit_either","A1DNJ17PE2RYJZ","either","7","","","","","","","0","1","0","","0.2975559752","0.4","0.6","0.2","0.8","0.2975559752","0.07754087054","0.2537716732","0.1843216893","","","","","","","","","","","72","H","0","img/none_selected.jpg","","140","main_expt"
"734","","bandit","219","1158796","0.0-180.0-0.0","90138706","wem/bandit_either","A1DNJ17PE2RYJZ","either","7","","","","","","","0","0","1","0.2802168405","","0.4","0.6","0.2","0.8","","","","","0.2802168405","0.09489610577","0.2858111263","0.1651876155","","","","","","","72","H","0","img/none_selected.jpg","","141","main_expt"
"772","","bandit","220","1161075","0.0-181.0-0.0","90138706","wem/bandit_either","A1DNJ17PE2RYJZ","either","7","","","","","","","0","0","1","0.2231986748","","0.4","0.6","0.2","0.8","","","","","0.2231986748","0.09601428546","0.303049367","0.1536427928","","","","","","","72","H","0","img/none_selected.jpg","","142","main_expt"
"726","","bandit","221","1163311","0.0-182.0-0.0","90138706","wem/bandit_either","A1DNJ17PE2RYJZ","either","7","","","","","","","0","1","0","","0.2032880393","0.4","0.6","0.2","0.8","0.2032880393","0.08301142993","0.2969419413","0.1546140226","","","","","","","","","","","72","H","0","img/none_selected.jpg","","143","main_expt"
"1172","","bandit","222","1165998","0.0-183.0-0.0","90138706","wem/bandit_either","A1DNJ17PE2RYJZ","either","7","","","","","","","0","0","1","0.1967741464","","0.4","0.6","0.2","0.8","","","","","0.1967741464","0.09599686985","0.3128690494","0.1746031107","","","","","","","72","H","0","img/none_selected.jpg","","144","main_expt"
"670","","bandit","223","1168184","0.0-184.0-0.0","90138706","wem/bandit_either","A1DNJ17PE2RYJZ","either","7","","","","","","","0","0","1","","0.2283154954","0.4","0.6","0.2","0.8","0.2283154954","0.07499383622","0.2991796355","0.2021387556","","","","","","","","","","","72","H","0","img/none_selected.jpg","","145","main_expt"
"606","","bandit","224","1170306","0.0-185.0-0.0","90138706","wem/bandit_either","A1DNJ17PE2RYJZ","either","7","","","","","","","0","0","1","0.2118700154","","0.4","0.6","0.2","0.8","","","","","0.2118700154","0.09566861","0.3163763193","0.2504344391","","","","","","","72","H","0","img/none_selected.jpg","","146","main_expt"
"648","","bandit","225","1172469","0.0-186.0-0.0","90138706","wem/bandit_either","A1DNJ17PE2RYJZ","either","7","","","","","","","0","1","0","","0.2437718569","0.4","0.6","0.2","0.8","0.210437557","0.08578591382","0.3198025905","0.2437718569","","","","","","","","","","","76","L","3","","","147","main_expt"
"677","","bandit","226","1174662","0.0-187.0-0.0","90138706","wem/bandit_either","A1DNJ17PE2RYJZ","either","7","","","","","","","1","0","0","0.2446677265","","0.4","0.6","0.2","0.8","","","","","0.2370661354","0.1147887709","0.2588245921","0.2446677265","","","","","","","76","L","3","","","148","main_expt"
"603","","bandit","227","1176782","0.0-188.0-0.0","90138706","wem/bandit_either","A1DNJ17PE2RYJZ","either","7","","","","","","","0","0","1","0.2911002833","","0.4","0.6","0.2","0.8","","","","","0.2430363771","0.1378203382","0.248712437","0.2911002833","","","","","","","76","L","3","","","149","main_expt"
"722","","bandit","228","1179019","0.0-189.0-0.0","90138706","wem/bandit_either","A1DNJ17PE2RYJZ","either","7","","","","","","","0","1","0","","0.3529655025","0.4","0.6","0.2","0.8","0.2242182381","0.1414499273","0.179144869","0.3529655025","","","","","","","","","","","76","L","3","","","150","main_expt"
"584","","bandit","229","1181116","0.0-190.0-0.0","90138706","wem/bandit_either","A1DNJ17PE2RYJZ","either","7","","","","","","","0","0","1","","0.3885741111","0.4","0.6","0.2","0.8","0.1997145133","0.07852348772","0.1545669956","0.3885741111","","","","","","","","","","","76","L","3","","","151","main_expt"
"534","","bandit","230","1183165","0.0-191.0-0.0","90138706","wem/bandit_either","A1DNJ17PE2RYJZ","either","7","","","","","","","0","0","1","0.3690499696","","0.4","0.6","0.2","0.8","","","","","0.2195927633","0.08485793113","0.1651714415","0.3690499696","","","","","","","76","L","3","","","152","main_expt"
"634","","bandit","231","1185314","0.0-192.0-0.0","90138706","wem/bandit_either","A1DNJ17PE2RYJZ","either","7","","","","","","","0","1","0","","0.3710492515","0.4","0.6","0.2","0.8","0.2121816628","0.1083789561","0.2396245514","0.3710492515","","","","","","","","","","","76","L","3","","","153","main_expt"
"774","","bandit","232","1187597","0.0-193.0-0.0","90138706","wem/bandit_either","A1DNJ17PE2RYJZ","either","7","","","","","","","1","0","0","0.3483335413","","0.4","0.6","0.2","0.8","","","","","0.1830588608","0.109098481","0.2085838567","0.3483335413","","","","","","","76","L","3","","","154","main_expt"
"937","","bandit","233","1190043","0.0-194.0-0.0","90138706","wem/bandit_either","A1DNJ17PE2RYJZ","either","7","","","","","","","0","0","1","0.3343760247","","0.4","0.6","0.2","0.8","","","","","0.2031423662","0.1758262092","0.1864274254","0.3343760247","","","","","","","76","L","3","","","155","main_expt"
"645","","bandit","234","1192197","0.0-195.0-0.0","90138706","wem/bandit_either","A1DNJ17PE2RYJZ","either","7","","","","","","","0","0","1","","0.3742013553","0.4","0.6","0.2","0.8","0.2022731065","0.2046597001","0.1750870897","0.3742013553","","","","","","","","","","","76","L","3","","","156","main_expt"
"633","","bandit","235","1194342","0.0-196.0-0.0","90138706","wem/bandit_either","A1DNJ17PE2RYJZ","either","7","","","","","","","1","0","0","0.3620366094","","0.4","0.6","0.2","0.8","","","","","0.1826661219","0.1774751899","0.1321985386","0.3620366094","","","","","","","76","L","3","","","157","main_expt"
"670","","bandit","236","1196529","0.0-197.0-0.0","90138706","wem/bandit_either","A1DNJ17PE2RYJZ","either","7","","","","","","","0","0","1","0.3671714071","","0.4","0.6","0.2","0.8","","","","","0.1658993888","0.1612033886","0.1341899746","0.3671714071","","","","","","","76","L","3","","","158","main_expt"
"840","","bandit","237","1198885","0.0-198.0-0.0","90138706","wem/bandit_either","A1DNJ17PE2RYJZ","either","7","","","","","","","0","0","1","0.4015988616","","0.4","0.6","0.2","0.8","","","","","0.1620079643","0.1586838935","0.1567784951","0.4015988616","","","","","","","76","L","3","","","159","main_expt"
"709","","bandit","238","1201111","0.0-199.0-0.0","90138706","wem/bandit_either","A1DNJ17PE2RYJZ","either","7","","","","","","","1","0","0","0.4004877553","","0.4","0.6","0.2","0.8","","","","","0.2453635642","0.2159944071","0.1615549635","0.4004877553","","","","","","","76","L","3","","","160","main_expt"
"682","","bandit","239","1203311","0.0-200.0-0.0","90138706","wem/bandit_either","A1DNJ17PE2RYJZ","either","7","","","","","","","0","0","1","0.4095849454","","0.4","0.6","0.2","0.8","","","","","0.2456373749","0.2105769377","0.1854631015","0.4095849454","","","","","","","76","L","3","","","161","main_expt"
"546","","bandit","240","1205374","0.0-201.0-0.0","90138706","wem/bandit_either","A1DNJ17PE2RYJZ","either","7","","","","","","","1","0","0","0.3978002783","","0.4","0.6","0.2","0.8","","","","","0.2460125232","0.2006925765","0.21229469","0.3978002783","","","","","","","76","L","3","","","162","main_expt"
"650","","bandit","241","1207541","0.0-202.0-0.0","90138706","wem/bandit_either","A1DNJ17PE2RYJZ","either","7","","","","","","","0","0","1","0.4180552148","","0.4","0.6","0.2","0.8","","","","","0.2013568893","0.2365124807","0.162194177","0.4180552148","","","","","","","76","L","3","","","163","main_expt"
"1068","","bandit","242","1210125","0.0-203.0-0.0","90138706","wem/bandit_either","A1DNJ17PE2RYJZ","either","7","","","","","","","1","0","0","0.4407560021","","0.4","0.6","0.2","0.8","","","","","0.1933595846","0.2157370886","0.1535707797","0.4407560021","","","","","","","76","L","3","","","164","main_expt"
"668","","bandit","243","1212311","0.0-204.0-0.0","90138706","wem/bandit_either","A1DNJ17PE2RYJZ","either","7","","","","","","","1","0","0","0.4582960521","","0.4","0.6","0.2","0.8","","","","","0.167552211","0.2166787898","0.2315934193","0.4582960521","","","","","","","76","L","3","","","165","main_expt"
"561","","bandit","244","1214390","0.0-205.0-0.0","90138706","wem/bandit_either","A1DNJ17PE2RYJZ","either","7","","","","","","","0","0","1","0.4337500892","","0.4","0.6","0.2","0.8","","","","","0.1311237951","0.1846262972","0.2579087381","0.4337500892","","","","","","","76","L","3","","","166","main_expt"
"609","","bandit","245","1216517","0.0-206.0-0.0","90138706","wem/bandit_either","A1DNJ17PE2RYJZ","either","7","","","","","","","0","0","1","","0.4537582576","0.4","0.6","0.2","0.8","0.1714029316","0.1888750078","0.2496457694","0.4537582576","","","","","","","","","","","76","L","3","","","167","main_expt"
"525","","bandit","246","1218559","0.0-207.0-0.0","90138706","wem/bandit_either","A1DNJ17PE2RYJZ","either","7","","","","","","","0","0","1","","0.4473485534","0.4","0.6","0.2","0.8","0.1494402723","0.2315683769","0.234558796","0.4473485534","","","","","","","","","","","76","L","3","","","168","main_expt"
"391","","bandit","247","1220466","0.0-208.0-0.0","90138706","wem/bandit_either","A1DNJ17PE2RYJZ","either","7","","","","","","","0","0","1","","0.2458600006","0.4","0.6","0.2","0.8","0.1819888556","0.2018123945","0.2458600006","0.4471591033","","","","","","","","","","","75","K","2","","","169","main_expt"
"600","","bandit","248","1222582","0.0-209.0-0.0","90138706","wem/bandit_either","A1DNJ17PE2RYJZ","either","7","","","","","","","0","0","1","","0.2214583157","0.4","0.6","0.2","0.8","0.2329206984","0.139238222","0.2214583157","0.4581839475","","","","","","","","","","","75","K","2","","","170","main_expt"
"527","","bandit","249","1224618","0.0-210.0-0.0","90138706","wem/bandit_either","A1DNJ17PE2RYJZ","either","7","","","","","","","0","1","0","","0.296208115","0.4","0.6","0.2","0.8","0.2000607923","0.1466511374","0.296208115","0.4674995421","","","","","","","","","","","75","K","2","","","171","main_expt"
"654","","bandit","250","1226788","0.0-211.0-0.0","90138706","wem/bandit_either","A1DNJ17PE2RYJZ","either","7","","","","","","","1","0","0","0.3062379281","","0.4","0.6","0.2","0.8","","","","","0.2342957318","0.1348290388","0.3062379281","0.4455620345","","","","","","","75","K","2","","","172","main_expt"
"563","","bandit","251","1228870","0.0-212.0-0.0","90138706","wem/bandit_either","A1DNJ17PE2RYJZ","either","7","","","","","","","0","0","1","","0.2498067723","0.4","0.6","0.2","0.8","0.2189308077","0.1521691919","0.2498067723","0.4471610379","","","","","","","","","","","75","K","2","","","173","main_expt"
"699","","bandit","252","1231084","0.0-213.0-0.0","90138706","wem/bandit_either","A1DNJ17PE2RYJZ","either","7","","","","","","","0","0","1","","0.1803522277","0.4","0.6","0.2","0.8","0.2373932689","0.2191935525","0.1803522277","0.4496576915","","","","","","","","","","","75","K","2","","","174","main_expt"
"582","","bandit","253","1233182","0.0-214.0-0.0","90138706","wem/bandit_either","A1DNJ17PE2RYJZ","either","7","","","","","","","0","1","0","","0.2014319342","0.4","0.6","0.2","0.8","0.2160264752","0.219961305","0.2014319342","0.4715297358","","","","","","","","","","","75","K","2","","","175","main_expt"
"952","","bandit","254","1235644","0.0-215.0-0.0","90138706","wem/bandit_either","A1DNJ17PE2RYJZ","either","7","","","","","","","0","0","1","0.2122003168","","0.4","0.6","0.2","0.8","","","","","0.1990604306","0.1882485239","0.2122003168","0.477956151","","","","","","","75","K","2","","","176","main_expt"
"738","","bandit","255","1237898","0.0-216.0-0.0","90138706","wem/bandit_either","A1DNJ17PE2RYJZ","either","7","","","","","","","1","0","0","0.2629069455","","0.4","0.6","0.2","0.8","","","","","0.1729978196","0.1644902553","0.2629069455","0.4563721206","","","","","","","75","K","2","","","177","main_expt"
"719","","bandit","256","1240131","0.0-217.0-0.0","90138706","wem/bandit_either","A1DNJ17PE2RYJZ","either","7","","","","","","","0","0","1","","0.2336104206","0.4","0.6","0.2","0.8","0.1633080779","0.1713669852","0.2336104206","0.4409869931","","","","","","","","","","","75","K","2","","","178","main_expt"
"493","","bandit","257","1242140","0.0-218.0-0.0","90138706","wem/bandit_either","A1DNJ17PE2RYJZ","either","7","","","","","","","0","0","1","0.1887504226","","0.4","0.6","0.2","0.8","","","","","0.1243251356","0.2263400462","0.1887504226","0.4243126063","","","","","","","75","K","2","","","179","main_expt"
"580","","bandit","258","1244237","0.0-219.0-0.0","90138706","wem/bandit_either","A1DNJ17PE2RYJZ","either","7","","","","","","","0","0","1","","0.138376641","0.4","0.6","0.2","0.8","0.1150149055","0.2036870175","0.138376641","0.4312830743","","","","","","","","","","","75","K","2","","","180","main_expt"
"9363","","bandit","259","1255117","0.0-220.0-0.0","90138706","wem/bandit_either","A1DNJ17PE2RYJZ","either","7","","","","","","","0","0","1","","0.1883992559","0.4","0.6","0.2","0.8","0.1407924877","0.1934599198","0.1883992559","0.4433127893","","","","","","","","","","","75","K","2","","","181","main_expt"
"775","","bandit","260","1257409","0.0-221.0-0.0","90138706","wem/bandit_either","A1DNJ17PE2RYJZ","either","7","","","","","","","0","0","1","","0.128889003","0.4","0.6","0.2","0.8","0.09672650852","0.2424515525","0.128889003","0.440136403","","","","","","","","","","","75","K","2","","","182","main_expt"
"465","","bandit","261","1259386","0.0-222.0-0.0","90138706","wem/bandit_either","A1DNJ17PE2RYJZ","either","7","","","","","","","0","0","1","","0.4347693449","0.4","0.6","0.2","0.8","0.09888002855","0.1961777535","0.1748769843","0.4347693449","","","","","","","","","","","76","L","3","","","183","main_expt"
"525","","bandit","262","1261427","0.0-223.0-0.0","90138706","wem/bandit_either","A1DNJ17PE2RYJZ","either","7","","","","","","","1","0","0","0.4277130926","","0.4","0.6","0.2","0.8","","","","","0.07200145298","0.1489283113","0.1945994373","0.4277130926","","","","","","","76","L","3","","","184","main_expt"
"672","","bandit","263","1263618","0.0-224.0-0.0","90138706","wem/bandit_either","A1DNJ17PE2RYJZ","either","7","","","","","","","0","0","1","0.3956248437","","0.4","0.6","0.2","0.8","","","","","0.09476413333","0.1499965078","0.1644748654","0.3956248437","","","","","","","76","L","3","","","185","main_expt"
"511","","bandit","264","1265646","0.0-225.0-0.0","90138706","wem/bandit_either","A1DNJ17PE2RYJZ","either","7","","","","","","","0","0","1","","0.3748928266","0.4","0.6","0.2","0.8","0.06556422103","0.2169832988","0.1504635592","0.3748928266","","","","","","","","","","","76","L","3","","","186","main_expt"
"903","","bandit","265","1268067","0.0-226.0-0.0","90138706","wem/bandit_either","A1DNJ17PE2RYJZ","either","7","","","","","","","1","0","0","0.3848139325","","0.4","0.6","0.2","0.8","","","","","0.08901149072","0.2655186329","0.1760039214","0.3848139325","","","","","","","76","L","3","","","187","main_expt"
"796","","bandit","266","1270379","0.0-227.0-0.0","90138706","wem/bandit_either","A1DNJ17PE2RYJZ","either","7","","","","","","","0","0","1","0.3990176401","","0.4","0.6","0.2","0.8","","","","","0.09471428588","0.2738785118","0.1203267588","0.3990176401","","","","","","","76","L","3","","","188","main_expt"
"571","","bandit","267","1272467","0.0-228.0-0.0","90138706","wem/bandit_either","A1DNJ17PE2RYJZ","either","7","","","","","","","0","1","0","","0.3581396838","0.4","0.6","0.2","0.8","0.05118235823","0.3041874674","0.1171540391","0.3581396838","","","","","","","","","","","76","L","3","","","189","main_expt"
"639","","bandit","268","1274620","0.0-229.0-0.0","90138706","wem/bandit_either","A1DNJ17PE2RYJZ","either","7","","","","","","","1","0","0","0.2882972244","","0.4","0.6","0.2","0.8","","","","","0.05788318751","0.3229453735","0.1535230761","0.2882972244","","","","","","","76","L","3","","","190","main_expt"
"447","","bandit","269","1276586","0.0-230.0-0.0","90138706","wem/bandit_either","A1DNJ17PE2RYJZ","either","7","","","","","","","0","0","1","","0.3145326233","0.4","0.6","0.2","0.8","0.08736915481","0.3818249757","0.1372750947","0.3145326233","","","","","","","","","","","76","L","3","","","191","main_expt"
"444","","bandit","270","1278548","0.0-231.0-0.0","90138706","wem/bandit_either","A1DNJ17PE2RYJZ","either","7","","","","","","","0","0","1","","0.3270603702","0.4","0.6","0.2","0.8","0.08251019118","0.4157726243","0.1047771501","0.3270603702","","","","","","","","","","","76","L","3","","","192","main_expt"
"594","","bandit","271","1280660","0.0-232.0-0.0","90138706","wem/bandit_either","A1DNJ17PE2RYJZ","either","7","","","","","","","1","0","0","0.3604030797","","0.4","0.6","0.2","0.8","","","","","0.06897628064","0.4611608212","0.1100845432","0.3604030797","","","","","","","76","L","3","","","193","main_expt"
"690","","bandit","272","1282866","0.0-233.0-0.0","90138706","wem/bandit_either","A1DNJ17PE2RYJZ","either","7","","","","","","","0","0","1","0.357423186","","0.4","0.6","0.2","0.8","","","","","0.06801266305","0.4508818777","0.1468163818","0.357423186","","","","","","","76","L","3","","","194","main_expt"
"524","","bandit","273","1284898","0.0-234.0-0.0","90138706","wem/bandit_either","A1DNJ17PE2RYJZ","either","7","","","","","","","1","0","0","0.3697779856","","0.4","0.6","0.2","0.8","","","","","0.09923709358","0.4278921451","0.1495594621","0.3697779856","","","","","","","76","L","3","","","195","main_expt"
"668","","bandit","274","1287074","0.0-235.0-0.0","90138706","wem/bandit_either","A1DNJ17PE2RYJZ","either","7","","","","","","","0","0","1","0.3617177512","","0.4","0.6","0.2","0.8","","","","","0.1103063831","0.4256293003","0.2263220537","0.3617177512","","","","","","","76","L","3","","","196","main_expt"
"608","","bandit","275","1289201","0.0-236.0-0.0","90138706","wem/bandit_either","A1DNJ17PE2RYJZ","either","7","","","","","","","0","0","1","0.3775990084","","0.4","0.6","0.2","0.8","","","","","0.07377144043","0.4476975038","0.2204718804","0.3775990084","","","","","","","76","L","3","","","197","main_expt"
"437","","bandit","276","1291155","0.0-237.0-0.0","90138706","wem/bandit_either","A1DNJ17PE2RYJZ","either","7","","","","","","","0","0","1","0.4144042571","","0.4","0.6","0.2","0.8","","","","","0.08863448313","0.4434357272","0.2401118457","0.4144042571","","","","","","","76","L","3","","","198","main_expt"
"1050","","bandit","277","1293724","0.0-238.0-0.0","90138706","wem/bandit_either","A1DNJ17PE2RYJZ","either","7","","","","","","","0","1","0","","0.4245114622","0.4","0.6","0.2","0.8","0.1082179128","0.4245114622","0.2673724497","0.4081775392","","","","","","","","","","","74","J","1","","","199","main_expt"
"673","","bandit","278","1295914","0.0-239.0-0.0","90138706","wem/bandit_either","A1DNJ17PE2RYJZ","either","7","","","","","","","0","1","0","","0.4087100315","0.4","0.6","0.2","0.8","0.09350688576","0.4087100315","0.3125307902","0.4166156547","","","","","","","","","","","74","J","1","","","200","main_expt"
"606","","bandit","279","1298037","0.0-240.0-0.0","90138706","wem/bandit_either","A1DNJ17PE2RYJZ","either","7","","","","","","","0","0","1","0.4361521275","","0.4","0.6","0.2","0.8","","","","","0.1036625099","0.4361521275","0.2914574258","0.4306537176","","","","","","","74","J","1","","","201","main_expt"
"723","","bandit","280","1300283","0.0-241.0-0.0","90138706","wem/bandit_either","A1DNJ17PE2RYJZ","either","7","","","","","","","1","0","0","0.3332596158","","0.4","0.6","0.2","0.8","","","","","0.1216733889","0.3332596158","0.2550600684","0.449382563","","","","","","","74","J","1","","","202","main_expt"
"730","","bandit","281","1302531","0.0-242.0-0.0","90138706","wem/bandit_either","A1DNJ17PE2RYJZ","either","7","","","","","","","0","0","1","0.3581848779","","0.4","0.6","0.2","0.8","","","","","0.120655788","0.3581848779","0.2769745997","0.4506576586","","","","","","","74","J","1","","","203","main_expt"
"585","","bandit","282","1304636","0.0-243.0-0.0","90138706","wem/bandit_either","A1DNJ17PE2RYJZ","either","7","","","","","","","0","0","1","","0.3597133043","0.4","0.6","0.2","0.8","0.1082970726","0.3597133043","0.2752990059","0.454839243","","","","","","","","","","","74","J","1","","","204","main_expt"
"634","","bandit","283","1306788","0.0-244.0-0.0","90138706","wem/bandit_either","A1DNJ17PE2RYJZ","either","7","","","","","","","0","0","1","0.3630183988","","0.4","0.6","0.2","0.8","","","","","0.09143681274","0.3630183988","0.2901512169","0.4512889682","","","","","","","74","J","1","","","205","main_expt"
"1371","","bandit","284","1309684","0.0-245.0-0.0","90138706","wem/bandit_either","A1DNJ17PE2RYJZ","either","7","","","","","","","0","0","1","0.08377413986","","0.4","0.6","0.2","0.8","","","","","0.08377413986","0.3737494834","0.2823763913","0.4591490044","","","","","","","72","H","0","img/none_selected.jpg","","206","main_expt"
"919","","bandit","285","1312120","0.0-246.0-0.0","90138706","wem/bandit_either","A1DNJ17PE2RYJZ","either","7","","","","","","","0","0","1","","0.1585073664","0.4","0.6","0.2","0.8","0.1585073664","0.3668784438","0.2708062506","0.4650593633","","","","","","","","","","","72","H","0","img/none_selected.jpg","","207","main_expt"
"492","","bandit","286","1314131","0.0-247.0-0.0","90138706","wem/bandit_either","A1DNJ17PE2RYJZ","either","7","","","","","","","0","1","0","","0.162299901","0.4","0.6","0.2","0.8","0.162299901","0.4045351895","0.2641553663","0.4641513068","","","","","","","","","","","72","H","0","img/none_selected.jpg","","208","main_expt"
"769","","bandit","287","1316420","0.0-248.0-0.0","90138706","wem/bandit_either","A1DNJ17PE2RYJZ","either","7","","","","","","","0","0","1","","0.1542266077","0.4","0.6","0.2","0.8","0.1542266077","0.4402386934","0.2704675845","0.4567807332","","","","","","","","","","","72","H","0","img/none_selected.jpg","","209","main_expt"
"1086","","bandit","288","1319025","0.0-249.0-0.0","90138706","wem/bandit_either","A1DNJ17PE2RYJZ","either","7","","","","","","","0","0","1","0.1890415559","","0.4","0.6","0.2","0.8","","","","","0.1890415559","0.4483623408","0.3420868926","0.428253188","","","","","","","72","H","0","img/none_selected.jpg","","210","main_expt"
"613","","bandit","289","1321157","0.0-250.0-0.0","90138706","wem/bandit_either","A1DNJ17PE2RYJZ","either","7","","","","","","","0","0","1","","0.1818133019","0.4","0.6","0.2","0.8","0.1818133019","0.4471415093","0.3069688952","0.410271385","","","","","","","","","","","72","H","0","img/none_selected.jpg","","211","main_expt"
"685","","bandit","290","1323363","0.0-251.0-0.0","90138706","wem/bandit_either","A1DNJ17PE2RYJZ","either","7","","","","","","","0","0","1","0.4065587724","","0.4","0.6","0.2","0.8","","","","","0.1782747956","0.4374655127","0.3005379093","0.4065587724","","","","","","","76","L","3","","","212","main_expt"
"735","","bandit","291","1325617","0.0-252.0-0.0","90138706","wem/bandit_either","A1DNJ17PE2RYJZ","either","7","","","","","","","0","1","0","","0.4007116542","0.4","0.6","0.2","0.8","0.1935195711","0.4381457257","0.213882915","0.4007116542","","","","","","","","","","","76","L","3","","","213","main_expt"
"776","","bandit","292","1327912","0.0-253.0-0.0","90138706","wem/bandit_either","A1DNJ17PE2RYJZ","either","7","","","","","","","0","0","1","0.4246209323","","0.4","0.6","0.2","0.8","","","","","0.2421176173","0.4643769008","0.2138557204","0.4246209323","","","","","","","76","L","3","","","214","main_expt"
"532","","bandit","293","1329963","0.0-254.0-0.0","90138706","wem/bandit_either","A1DNJ17PE2RYJZ","either","7","","","","","","","0","1","0","","0.3993057066","0.4","0.6","0.2","0.8","0.2629876012","0.4328812357","0.2142566612","0.3993057066","","","","","","","","","","","76","L","3","","","215","main_expt"
"747","","bandit","294","1332220","0.0-255.0-0.0","90138706","wem/bandit_either","A1DNJ17PE2RYJZ","either","7","","","","","","","0","0","1","","0.3987772474","0.4","0.6","0.2","0.8","0.2977714141","0.4064507999","0.1900351118","0.3987772474","","","","","","","","","","","76","L","3","","","216","main_expt"
"779","","bandit","295","1334516","0.0-256.0-0.0","90138706","wem/bandit_either","A1DNJ17PE2RYJZ","either","7","","","","","","","1","0","0","0.4101433534","","0.4","0.6","0.2","0.8","","","","","0.3017601552","0.4197961641","0.2185169477","0.4101433534","","","","","","","76","L","3","","","217","main_expt"
"591","","bandit","296","1336627","0.0-257.0-0.0","90138706","wem/bandit_either","A1DNJ17PE2RYJZ","either","7","","","","","","","1","0","0","0.4448029092","","0.4","0.6","0.2","0.8","","","","","0.2888566207","0.4167397569","0.2240895604","0.4448029092","","","","","","","76","L","3","","","218","main_expt"
"1046","","bandit","297","1339192","0.0-258.0-0.0","90138706","wem/bandit_either","A1DNJ17PE2RYJZ","either","7","","","","","","","0","0","1","0.4454766299","","0.4","0.6","0.2","0.8","","","","","0.2844008008","0.4250944588","0.1990808675","0.4454766299","","","","","","","76","L","3","","","219","main_expt"
"316","","bandit","298","1341022","0.0-259.0-0.0","90138706","wem/bandit_either","A1DNJ17PE2RYJZ","either","7","","","","","","","0","1","0","","0.4610997771","0.4","0.6","0.2","0.8","0.2225062479","0.4173336587","0.266602996","0.4610997771","","","","","","","","","","","76","L","3","","","220","main_expt"
"523","","bandit","299","1343056","0.0-260.0-0.0","90138706","wem/bandit_either","A1DNJ17PE2RYJZ","either","7","","","","","","","0","1","0","","0.4642289789","0.4","0.6","0.2","0.8","0.2409900116","0.3944711005","0.2443661227","0.4642289789","","","","","","","","","","","76","L","3","","","221","main_expt"
"566","","bandit","300","1345135","0.0-261.0-0.0","90138706","wem/bandit_either","A1DNJ17PE2RYJZ","either","7","","","","","","","1","0","0","0.4641270597","","0.4","0.6","0.2","0.8","","","","","0.1989678636","0.3619306912","0.2205922116","0.4641270597","","","","","","","76","L","3","","","222","main_expt"
"476","","bandit","301","1347119","0.0-262.0-0.0","90138706","wem/bandit_either","A1DNJ17PE2RYJZ","either","7","","","","","","","1","0","0","0.4697433819","","0.4","0.6","0.2","0.8","","","","","0.1902867071","0.4117842179","0.1861223506","0.4697433819","","","","","","","76","L","3","","","223","main_expt"
"667","","bandit","302","1349296","0.0-263.0-0.0","90138706","wem/bandit_either","A1DNJ17PE2RYJZ","either","7","","","","","","","0","1","0","","0.460898083","0.4","0.6","0.2","0.8","0.2076415522","0.3965092367","0.1668884863","0.460898083","","","","","","","","","","","76","L","3","","","224","main_expt"
"625","","bandit","303","1351431","0.0-264.0-0.0","90138706","wem/bandit_either","A1DNJ17PE2RYJZ","either","7","","","","","","","1","0","0","0.4394890665","","0.4","0.6","0.2","0.8","","","","","0.2393469174","0.4084477862","0.1481472712","0.4394890665","","","","","","","76","L","3","","","225","main_expt"
"547","","bandit","304","1353490","0.0-265.0-0.0","90138706","wem/bandit_either","A1DNJ17PE2RYJZ","either","7","","","","","","","0","0","1","0.4520955237","","0.4","0.6","0.2","0.8","","","","","0.2425440376","0.4104601526","0.1140846591","0.4520955237","","","","","","","76","L","3","","","226","main_expt"
"600","","bandit","305","1355599","0.0-266.0-0.0","90138706","wem/bandit_either","A1DNJ17PE2RYJZ","either","7","","","","","","","1","0","0","0.4324220164","","0.4","0.6","0.2","0.8","","","","","0.2365603363","0.3899733519","0.1074218354","0.4324220164","","","","","","","76","L","3","","","227","main_expt"
"652","","bandit","306","1357760","0.0-267.0-0.0","90138706","wem/bandit_either","A1DNJ17PE2RYJZ","either","7","","","","","","","0","0","1","","0.4220482421","0.4","0.6","0.2","0.8","0.2127958296","0.3796730737","0.08065165665","0.4220482421","","","","","","","","","","","76","L","3","","","228","main_expt"
"612","","bandit","307","1359880","0.0-268.0-0.0","90138706","wem/bandit_either","A1DNJ17PE2RYJZ","either","7","","","","","","","0","0","1","","0.3885749154","0.4","0.6","0.2","0.8","0.2207861463","0.4046866514","0.07774059362","0.3885749154","","","","","","","","","","","76","L","3","","","229","main_expt"
"544","","bandit","308","1361935","0.0-269.0-0.0","90138706","wem/bandit_either","A1DNJ17PE2RYJZ","either","7","","","","","","","0","0","1","0.1109483114","","0.4","0.6","0.2","0.8","","","","","0.2589226453","0.3988793555","0.1109483114","0.4023755806","","","","","","","75","K","2","","","230","main_expt"
"708","","bandit","309","1364153","0.0-270.0-0.0","90138706","wem/bandit_either","A1DNJ17PE2RYJZ","either","7","","","","","","","0","0","1","","0.05902300203","0.4","0.6","0.2","0.8","0.2956158432","0.3981898202","0.05902300203","0.3768725222","","","","","","","","","","","75","K","2","","","231","main_expt"
"727","","bandit","310","1366401","0.0-271.0-0.0","90138706","wem/bandit_either","A1DNJ17PE2RYJZ","either","7","","","","","","","0","0","1","","0.06675855664","0.4","0.6","0.2","0.8","0.3202484073","0.4411941832","0.06675855664","0.3619917427","","","","","","","","","","","75","K","2","","","232","main_expt"
"535","","bandit","311","1368458","0.0-272.0-0.0","90138706","wem/bandit_either","A1DNJ17PE2RYJZ","either","7","","","","","","","0","0","1","","0.42967461","0.4","0.6","0.2","0.8","0.2933644042","0.42967461","0.06703699679","0.3833578816","","","","","","","","","","","74","J","1","","","233","main_expt"
"457","","bandit","312","1370432","0.0-273.0-0.0","90138706","wem/bandit_either","A1DNJ17PE2RYJZ","either","7","","","","","","","0","1","0","","0.4242798354","0.4","0.6","0.2","0.8","0.3106154811","0.4242798354","0.05331023031","0.3552131768","","","","","","","","","","","74","J","1","","","234","main_expt"
"686","","bandit","313","1372633","0.0-274.0-0.0","90138706","wem/bandit_either","A1DNJ17PE2RYJZ","either","7","","","","","","","0","0","1","","0.4617388459","0.4","0.6","0.2","0.8","0.3158990995","0.4617388459","0.05187545802","0.3135084543","","","","","","","","","","","74","J","1","","","235","main_expt"
"379","","bandit","314","1374531","0.0-275.0-0.0","90138706","wem/bandit_either","A1DNJ17PE2RYJZ","either","7","","","","","","","0","0","1","","0.4619510484","0.4","0.6","0.2","0.8","0.3036927748","0.4619510484","0.06939909985","0.244945467","","","","","","","","","","","74","J","1","","","236","main_expt"
"502","","bandit","315","1376551","0.0-276.0-0.0","90138706","wem/bandit_either","A1DNJ17PE2RYJZ","either","7","","","","","","","0","0","1","0.4482398789","","0.4","0.6","0.2","0.8","","","","","0.3491021326","0.4482398789","0.1210409879","0.1823839079","","","","","","","74","J","1","","","237","main_expt"
"378","","bandit","316","1378449","0.0-277.0-0.0","90138706","wem/bandit_either","A1DNJ17PE2RYJZ","either","7","","","","","","","1","0","0","0.3939254097","","0.4","0.6","0.2","0.8","","","","","0.3939254097","0.4193969143","0.1147840357","0.1685050226","","","","","","","72","H","0","img/none_selected.jpg","","238","main_expt"
"639","","bandit","317","1380610","0.0-278.0-0.0","90138706","wem/bandit_either","A1DNJ17PE2RYJZ","either","7","","","","","","","0","0","1","0.379108978","","0.4","0.6","0.2","0.8","","","","","0.379108978","0.4203848948","0.1006463842","0.1606472637","","","","","","","72","H","0","img/none_selected.jpg","","239","main_expt"
"559","","bandit","318","1382689","0.0-279.0-0.0","90138706","wem/bandit_either","A1DNJ17PE2RYJZ","either","7","","","","","","","0","0","1","0.3876209848","","0.4","0.6","0.2","0.8","","","","","0.3876209848","0.4489383263","0.1008771133","0.1512795466","","","","","","","72","H","0","img/none_selected.jpg","","240","main_expt"
"570","","bandit","319","1384778","0.0-280.0-0.0","90138706","wem/bandit_either","A1DNJ17PE2RYJZ","either","7","","","","","","","0","1","0","","0.3839625774","0.4","0.6","0.2","0.8","0.3839625774","0.4636195567","0.09981833296","0.1916219391","","","","","","","","","","","72","H","0","img/none_selected.jpg","","241","main_expt"
"718","","bandit","320","1387017","0.0-281.0-0.0","90138706","wem/bandit_either","A1DNJ17PE2RYJZ","either","7","","","","","","","1","0","0","0.3477958629","","0.4","0.6","0.2","0.8","","","","","0.3477958629","0.4575307695","0.1171772993","0.1641013935","","","","","","","72","H","0","img/none_selected.jpg","","242","main_expt"
"626","","bandit","321","1389161","0.0-282.0-0.0","90138706","wem/bandit_either","A1DNJ17PE2RYJZ","either","7","","","","","","","0","1","0","","0.3500658948","0.4","0.6","0.2","0.8","0.3500658948","0.4449554393","0.1239984651","0.2064320789","","","","","","","","","","","72","H","0","img/none_selected.jpg","","243","main_expt"
"511","","bandit","322","1391193","0.0-283.0-0.0","90138706","wem/bandit_either","A1DNJ17PE2RYJZ","either","7","","","","","","","0","0","1","","0.3452717574","0.4","0.6","0.2","0.8","0.3452717574","0.4525763452","0.1126152289","0.2205496082","","","","","","","","","","","72","H","0","img/none_selected.jpg","","244","main_expt"
"633","","bandit","323","1393345","0.0-284.0-0.0","90138706","wem/bandit_either","A1DNJ17PE2RYJZ","either","7","","","","","","","0","0","1","0.3162288444","","0.4","0.6","0.2","0.8","","","","","0.3162288444","0.4753838692","0.1524829061","0.214276823","","","","","","","72","H","0","img/none_selected.jpg","","245","main_expt"
"570","","bandit","324","1395434","0.0-285.0-0.0","90138706","wem/bandit_either","A1DNJ17PE2RYJZ","either","7","","","","","","","0","0","1","","0.2894596967","0.4","0.6","0.2","0.8","0.2894596967","0.4623654582","0.1921750243","0.2084567316","","","","","","","","","","","72","H","0","img/none_selected.jpg","","246","main_expt"
"1279","","bandit","325","1398232","0.0-286.0-0.0","90138706","wem/bandit_either","A1DNJ17PE2RYJZ","either","7","","","","","","","1","0","0","0.2232303491","","0.4","0.6","0.2","0.8","","","","","0.2642296388","0.4331165165","0.1931065189","0.2232303491","","","","","","","76","L","3","","","247","main_expt"
"658","","bandit","326","1400409","0.0-287.0-0.0","90138706","wem/bandit_either","A1DNJ17PE2RYJZ","either","7","","","","","","","1","0","0","0.2541796534","","0.4","0.6","0.2","0.8","","","","","0.2534255255","0.4401602984","0.2189994516","0.2541796534","","","","","","","76","L","3","","","248","main_expt"
"513","","bandit","327","1402441","0.0-288.0-0.0","90138706","wem/bandit_either","A1DNJ17PE2RYJZ","either","7","","","","","","","0","0","1","","0.232462199","0.4","0.6","0.2","0.8","0.2252980971","0.430892824","0.1989243371","0.232462199","","","","","","","","","","","76","L","3","","","249","main_expt"
"511","","bandit","328","1404473","0.0-289.0-0.0","90138706","wem/bandit_either","A1DNJ17PE2RYJZ","either","7","","","","","","","0","0","1","","0.2877664065","0.4","0.6","0.2","0.8","0.298830738","0.4282509168","0.1635706079","0.2877664065","","","","","","","","","","","76","L","3","","","250","main_expt"
"143","","bandit","329","1406137","0.0-290.0-0.0","90138706","wem/bandit_either","A1DNJ17PE2RYJZ","either","7","","","","","","","0","0","1","0.2947451014","","0.4","0.6","0.2","0.8","","","","","0.3113207693","0.4499649657","0.1738575253","0.2947451014","","","","","","","76","L","3","","","251","main_expt"
"448","","bandit","330","1408104","0.0-291.0-0.0","90138706","wem/bandit_either","A1DNJ17PE2RYJZ","either","7","","","","","","","1","0","0","0.2581410112","","0.4","0.6","0.2","0.8","","","","","0.2952600368","0.458069626","0.1868362494","0.2581410112","","","","","","","76","L","3","","","252","main_expt"
