"rt","responses","trial_type","trial_index","time_elapsed","internal_node_id","subjID","study","MID","cond","drift","key_press","expt_phase","target","like","value","connected","gems","bombs","no_reward","GemPrChosen","BombPrChosen","GainOverPainPr_0","GainOverPainPr_1","GainOverPainPr_2","GainOverPainPr_3","LosePr_0","LosePr_1","LosePr_2","LosePr_3","WinPr_0","WinPr_1","WinPr_2","WinPr_3","Q0","Q1","Q2","gender","age","ethnicity","respCharCode","respKey","respChoiceNum","respChoice","practice","trial_counter","trial_label"
"7958","{""Q0"":""A2KLJKDG90K1PP""}","survey-text","0","7969","0.0-0.0","90777428","wem/bandit_either","A2KLJKDG90K1PP","either","7","","","","","","","","","","","","","","","","","","","","","","","","","","","","","","","","","","","",""
"19792","","text","1","28770","0.0-1.0","90777428","wem/bandit_either","A2KLJKDG90K1PP","either","7","32","","","","","","","","","","","","","","","","","","","","","","","","","","","","","","","","","","",""
"14341","","text","2","43116","0.0-2.0","90777428","wem/bandit_either","A2KLJKDG90K1PP","either","7","32","","","","","","","","","","","","","","","","","","","","","","","","","","","","","","","","","","",""
"81661","","text","3","124779","0.0-3.0","90777428","wem/bandit_either","A2KLJKDG90K1PP","either","7","32","","","","","","","","","","","","","","","","","","","","","","","","","","","","","","","","","","",""
"69914","","text","4","194695","0.0-4.0","90777428","wem/bandit_either","A2KLJKDG90K1PP","either","7","32","","","","","","","","","","","","","","","","","","","","","","","","","","","","","","","","","","",""
"110655","","text","5","305352","0.0-5.0","90777428","wem/bandit_either","A2KLJKDG90K1PP","either","7","32","","","","","","","","","","","","","","","","","","","","","","","","","","","","","","","","","","",""
"18257","","text","6","323613","0.0-6.0","90777428","wem/bandit_either","A2KLJKDG90K1PP","either","7","32","","","","","","","","","","","","","","","","","","","","","","","","","","","","","","","","","","",""
"6695","","text","7","330310","0.0-7.0","90777428","wem/bandit_either","A2KLJKDG90K1PP","either","7","32","","","","","","","","","","","","","","","","","","","","","","","","","","","","","","","","","","",""
"9786","","identification","8","340119","0.0-8.0-0.0","90777428","wem/bandit_either","A2KLJKDG90K1PP","either","7","","identification_pre","the village of Zur","","","","","","","","","","","","","","","","","","","","","","","","","","","","","","","","",""
"5949","","identification","9","347094","0.0-8.0-1.0","90777428","wem/bandit_either","A2KLJKDG90K1PP","either","7","","identification_pre","the village of Nyx","","","","","","","","","","","","","","","","","","","","","","","","","","","","","","","","",""
"9080","","text","10","357178","0.0-9.0","90777428","wem/bandit_either","A2KLJKDG90K1PP","either","7","32","","","","","","","","","","","","","","","","","","","","","","","","","","","","","","","","","","",""
"8704","","text","11","365883","0.0-10.0","90777428","wem/bandit_either","A2KLJKDG90K1PP","either","7","32","","","","","","","","","","","","","","","","","","","","","","","","","","","","","","","","","","",""
"3025","","text","12","368911","0.0-11.0","90777428","wem/bandit_either","A2KLJKDG90K1PP","either","7","32","","","","","","","","","","","","","","","","","","","","","","","","","","","","","","","","","","",""
"4105","","text","13","373018","0.0-12.0","90777428","wem/bandit_either","A2KLJKDG90K1PP","either","7","32","","","","","","","","","","","","","","","","","","","","","","","","","","","","","","","","","","",""
"7547","","bandit","14","382081","0.0-13.0-0.0","90777428","wem/bandit_either","A2KLJKDG90K1PP","either","7","","","","","","","0","0","1","0","0","","","","","0","","","","0","","","","","","","","","","74","J","0","img/none_selected_demo.jpg","true","0",""
"1956","","bandit","15","385981","0.0-14.0-0.0","90777428","wem/bandit_either","A2KLJKDG90K1PP","either","7","","","","","","","0","0","1","0","0","","","","","0","","","","0","","","","","","","","","","75","K","0","img/none_selected_demo.jpg","true","0",""
"16969","","text","16","402953","0.0-15.0","90777428","wem/bandit_either","A2KLJKDG90K1PP","either","7","32","","","","","","","","","","","","","","","","","","","","","","","","","","","","","","","","","","",""
"19483","","text","17","422438","0.0-16.0","90777428","wem/bandit_either","A2KLJKDG90K1PP","either","7","32","","","","","","","","","","","","","","","","","","","","","","","","","","","","","","","","","","",""
"8887","","text","18","431327","0.0-17.0","90777428","wem/bandit_either","A2KLJKDG90K1PP","either","7","32","","","","","","","","","","","","","","","","","","","","","","","","","","","","","","","","","","",""
"5088","","text","19","436417","0.0-18.0","90777428","wem/bandit_either","A2KLJKDG90K1PP","either","7","32","","","","","","","","","","","","","","","","","","","","","","","","","","","","","","","","","","",""
"1175","","bandit","20","439102","0.0-19.0-0.0","90777428","wem/bandit_either","A2KLJKDG90K1PP","either","7","","","","","","","0","1","0","","0.8","0.5","0.5","","","0.8","0.2","","","","","","","","","","","","","74","J","0","img/none_selected_demo.jpg","true","0","80_20_practice"
"1265","","bandit","21","441884","0.0-19.0-1.0","90777428","wem/bandit_either","A2KLJKDG90K1PP","either","7","","","","","","","0","1","0","","0.8","0.5","0.5","","","0.8","0.2","","","","","","","","","","","","","74","J","0","img/none_selected_demo.jpg","true","0","80_20_practice"
"371","","bandit","22","443765","0.0-19.0-2.0","90777428","wem/bandit_either","A2KLJKDG90K1PP","either","7","","","","","","","0","1","0","","0.8","0.5","0.5","","","0.8","0.2","","","","","","","","","","","","","74","J","0","img/none_selected_demo.jpg","true","0","80_20_practice"
"333","","bandit","23","445632","0.0-19.0-3.0","90777428","wem/bandit_either","A2KLJKDG90K1PP","either","7","","","","","","","0","0","1","0.8","","0.5","0.5","","","","","","","0.8","0.2","","","","","","","","","74","J","0","img/none_selected_demo.jpg","true","0","80_20_practice"
"1041","","bandit","24","448182","0.0-19.0-4.0","90777428","wem/bandit_either","A2KLJKDG90K1PP","either","7","","","","","","","1","0","0","0.8","","0.5","0.5","","","","","","","0.8","0.2","","","","","","","","","74","J","0","img/none_selected_demo.jpg","true","0","80_20_practice"
"409","","bandit","25","450099","0.0-19.0-5.0","90777428","wem/bandit_either","A2KLJKDG90K1PP","either","7","","","","","","","0","1","0","","0.8","0.5","0.5","","","0.8","0.2","","","","","","","","","","","","","74","J","0","img/none_selected_demo.jpg","true","0","80_20_practice"
"286","","bandit","26","451897","0.0-19.0-6.0","90777428","wem/bandit_either","A2KLJKDG90K1PP","either","7","","","","","","","1","0","0","0.8","","0.5","0.5","","","","","","","0.8","0.2","","","","","","","","","74","J","0","img/none_selected_demo.jpg","true","0","80_20_practice"
"764","","bandit","27","454175","0.0-19.0-7.0","90777428","wem/bandit_either","A2KLJKDG90K1PP","either","7","","","","","","","1","0","0","0.8","","0.5","0.5","","","","","","","0.8","0.2","","","","","","","","","74","J","0","img/none_selected_demo.jpg","true","0","80_20_practice"
"360","","bandit","28","456059","0.0-19.0-8.0","90777428","wem/bandit_either","A2KLJKDG90K1PP","either","7","","","","","","","0","1","0","","0.8","0.5","0.5","","","0.8","0.2","","","","","","","","","","","","","74","J","0","img/none_selected_demo.jpg","true","0","80_20_practice"
"377","","bandit","29","457978","0.0-19.0-9.0","90777428","wem/bandit_either","A2KLJKDG90K1PP","either","7","","","","","","","1","0","0","0.8","","0.5","0.5","","","","","","","0.8","0.2","","","","","","","","","74","J","0","img/none_selected_demo.jpg","true","0","80_20_practice"
"320","","bandit","30","459819","0.0-19.0-10.0","90777428","wem/bandit_either","A2KLJKDG90K1PP","either","7","","","","","","","0","0","1","0.2","","0.5","0.5","","","","","","","0.8","0.2","","","","","","","","","75","K","1","","true","0","80_20_practice"
"79","","bandit","31","461438","0.0-19.0-11.0","90777428","wem/bandit_either","A2KLJKDG90K1PP","either","7","","","","","","","1","0","0","0.2","","0.5","0.5","","","","","","","0.8","0.2","","","","","","","","","75","K","1","","true","0","80_20_practice"
"2","","bandit","32","462954","0.0-19.0-12.0","90777428","wem/bandit_either","A2KLJKDG90K1PP","either","7","","","","","","","0","0","1","0.2","","0.5","0.5","","","","","","","0.8","0.2","","","","","","","","","75","K","1","","true","0","80_20_practice"
"667","","bandit","33","465200","0.0-19.0-13.0","90777428","wem/bandit_either","A2KLJKDG90K1PP","either","7","","","","","","","0","1","0","","0.2","0.5","0.5","","","0.8","0.2","","","","","","","","","","","","","75","K","1","","true","0","80_20_practice"
"383","","bandit","34","467103","0.0-19.0-14.0","90777428","wem/bandit_either","A2KLJKDG90K1PP","either","7","","","","","","","0","0","1","","0.2","0.5","0.5","","","0.8","0.2","","","","","","","","","","","","","75","K","1","","true","0","80_20_practice"
"552","","bandit","35","469215","0.0-19.0-15.0","90777428","wem/bandit_either","A2KLJKDG90K1PP","either","7","","","","","","","0","1","0","","0.8","0.5","0.5","","","0.8","0.2","","","","","","","","","","","","","74","J","0","img/none_selected_demo.jpg","true","0","80_20_practice"
"717","","bandit","36","471491","0.0-19.0-16.0","90777428","wem/bandit_either","A2KLJKDG90K1PP","either","7","","","","","","","1","0","0","0.8","","0.5","0.5","","","","","","","0.8","0.2","","","","","","","","","74","J","0","img/none_selected_demo.jpg","true","0","80_20_practice"
"565","","bandit","37","473604","0.0-19.0-17.0","90777428","wem/bandit_either","A2KLJKDG90K1PP","either","7","","","","","","","1","0","0","0.8","","0.5","0.5","","","","","","","0.8","0.2","","","","","","","","","74","J","0","img/none_selected_demo.jpg","true","0","80_20_practice"
"272","","bandit","38","475402","0.0-19.0-18.0","90777428","wem/bandit_either","A2KLJKDG90K1PP","either","7","","","","","","","0","0","1","0.8","","0.5","0.5","","","","","","","0.8","0.2","","","","","","","","","74","J","0","img/none_selected_demo.jpg","true","0","80_20_practice"
"103","","bandit","39","477017","0.0-19.0-19.0","90777428","wem/bandit_either","A2KLJKDG90K1PP","either","7","","","","","","","0","1","0","","0.8","0.5","0.5","","","0.8","0.2","","","","","","","","","","","","","74","J","0","img/none_selected_demo.jpg","true","0","80_20_practice"
"3317","","text","40","480338","0.0-20.0","90777428","wem/bandit_either","A2KLJKDG90K1PP","either","7","32","","","","","","","","","","","","","","","","","","","","","","","","","","","","","","","","","","",""
"1381","","bandit","41","483262","0.0-21.0-0.0","90777428","wem/bandit_either","A2KLJKDG90K1PP","either","7","","","","","","","1","0","0","1","0","","","","","0","1","","","1","0","","","","","","","","","74","J","0","img/none_selected_demo.jpg","true","0",""
"13086","","text","42","496351","0.0-22.0","90777428","wem/bandit_either","A2KLJKDG90K1PP","either","7","32","","","","","","","","","","","","","","","","","","","","","","","","","","","","","","","","","","",""
"8792","","text","43","505145","0.0-23.0","90777428","wem/bandit_either","A2KLJKDG90K1PP","either","7","32","","","","","","","","","","","","","","","","","","","","","","","","","","","","","","","","","","",""
"3415","","text","44","508571","0.0-24.0","90777428","wem/bandit_either","A2KLJKDG90K1PP","either","7","32","","","","","","","","","","","","","","","","","","","","","","","","","","","","","","","","","","",""
"4718","","text","45","513293","0.0-25.0","90777428","wem/bandit_either","A2KLJKDG90K1PP","either","7","32","","","","","","","","","","","","","","","","","","","","","","","","","","","","","","","","","","",""
"21857","","text","46","535152","0.0-26.0","90777428","wem/bandit_either","A2KLJKDG90K1PP","either","7","32","","","","","","","","","","","","","","","","","","","","","","","","","","","","","","","","","","",""
"5444","","text","47","540598","0.0-27.0","90777428","wem/bandit_either","A2KLJKDG90K1PP","either","7","32","","","","","","","","","","","","","","","","","","","","","","","","","","","","","","","","","","",""
"7597","","text","48","548198","0.0-28.0","90777428","wem/bandit_either","A2KLJKDG90K1PP","either","7","32","","","","","","","","","","","","","","","","","","","","","","","","","","","","","","","","","","",""
"5569","","text","49","553770","0.0-29.0","90777428","wem/bandit_either","A2KLJKDG90K1PP","either","7","32","","","","","","","","","","","","","","","","","","","","","","","","","","","","","","","","","","",""
"5033","","text","50","558806","0.0-30.0","90777428","wem/bandit_either","A2KLJKDG90K1PP","either","7","32","","","","","","","","","","","","","","","","","","","","","","","","","","","","","","","","","","",""
"2115","","text","51","560923","0.0-31.0","90777428","wem/bandit_either","A2KLJKDG90K1PP","either","7","32","","","","","","","","","","","","","","","","","","","","","","","","","","","","","","","","","","",""
"2037","","text","52","562964","0.0-32.0","90777428","wem/bandit_either","A2KLJKDG90K1PP","either","7","32","","","","","","","","","","","","","","","","","","","","","","","","","","","","","","","","","","",""
"3881","","bandit","53","568390","0.0-33.0-0.0","90777428","wem/bandit_either","A2KLJKDG90K1PP","either","7","","","","","","","0","1","0","","0.8","0.5","0.5","0.5","0.5","0.8","0.2","0.6","0.2","","","","","","","","","","","72","H","0","img/none_selected.jpg","true","0","full_practice"
"1618","","bandit","54","571569","0.0-33.0-1.0","90777428","wem/bandit_either","A2KLJKDG90K1PP","either","7","","","","","","","0","1","0","","0.8","0.5","0.5","0.5","0.5","0.8","0.2","0.6","0.2","","","","","","","","","","","72","H","0","img/none_selected.jpg","true","0","full_practice"
"359","","bandit","55","573438","0.0-33.0-2.0","90777428","wem/bandit_either","A2KLJKDG90K1PP","either","7","","","","","","","0","1","0","","0.8","0.5","0.5","0.5","0.5","0.8","0.2","0.6","0.2","","","","","","","","","","","72","H","0","img/none_selected.jpg","true","0","full_practice"
"356","","bandit","56","575333","0.0-33.0-3.0","90777428","wem/bandit_either","A2KLJKDG90K1PP","either","7","","","","","","","0","0","1","","0.8","0.5","0.5","0.5","0.5","0.8","0.2","0.6","0.2","","","","","","","","","","","72","H","0","img/none_selected.jpg","true","0","full_practice"
"325","","bandit","57","577197","0.0-33.0-4.0","90777428","wem/bandit_either","A2KLJKDG90K1PP","either","7","","","","","","","1","0","0","0.8","","0.5","0.5","0.5","0.5","","","","","0.8","0.2","0.6","0.2","","","","","","","72","H","0","img/none_selected.jpg","true","0","full_practice"
"444","","bandit","58","579179","0.0-33.0-5.0","90777428","wem/bandit_either","A2KLJKDG90K1PP","either","7","","","","","","","1","0","0","0.8","","0.5","0.5","0.5","0.5","","","","","0.8","0.2","0.6","0.2","","","","","","","72","H","0","img/none_selected.jpg","true","0","full_practice"
"462","","bandit","59","581160","0.0-33.0-6.0","90777428","wem/bandit_either","A2KLJKDG90K1PP","either","7","","","","","","","0","1","0","","0.8","0.5","0.5","0.5","0.5","0.8","0.2","0.6","0.2","","","","","","","","","","","72","H","0","img/none_selected.jpg","true","0","full_practice"
"577","","bandit","60","583255","0.0-33.0-7.0","90777428","wem/bandit_either","A2KLJKDG90K1PP","either","7","","","","","","","1","0","0","0.8","","0.5","0.5","0.5","0.5","","","","","0.8","0.2","0.6","0.2","","","","","","","72","H","0","img/none_selected.jpg","true","0","full_practice"
"406","","bandit","61","585542","0.0-33.0-8.0","90777428","wem/bandit_either","A2KLJKDG90K1PP","either","7","","","","","","","1","0","0","0.8","","0.5","0.5","0.5","0.5","","","","","0.8","0.2","0.6","0.2","","","","","","","72","H","0","img/none_selected.jpg","true","0","full_practice"
"357","","bandit","62","587408","0.0-33.0-9.0","90777428","wem/bandit_either","A2KLJKDG90K1PP","either","7","","","","","","","0","1","0","","0.8","0.5","0.5","0.5","0.5","0.8","0.2","0.6","0.2","","","","","","","","","","","72","H","0","img/none_selected.jpg","true","0","full_practice"
"458","","bandit","63","589815","0.0-33.0-10.0","90777428","wem/bandit_either","A2KLJKDG90K1PP","either","7","","","","","","","0","1","0","","0.8","0.5","0.5","0.5","0.5","0.8","0.2","0.6","0.2","","","","","","","","","","","72","H","0","img/none_selected.jpg","true","0","full_practice"
"4675","","bandit","64","596018","0.0-33.0-11.0","90777428","wem/bandit_either","A2KLJKDG90K1PP","either","7","","","","","","","1","0","0","0.8","","0.5","0.5","0.5","0.5","","","","","0.8","0.2","0.6","0.2","","","","","","","72","H","0","img/none_selected.jpg","true","0","full_practice"
"360","","bandit","65","597904","0.0-33.0-12.0","90777428","wem/bandit_either","A2KLJKDG90K1PP","either","7","","","","","","","1","0","0","0.8","","0.5","0.5","0.5","0.5","","","","","0.8","0.2","0.6","0.2","","","","","","","72","H","0","img/none_selected.jpg","true","0","full_practice"
"650","","bandit","66","600062","0.0-33.0-13.0","90777428","wem/bandit_either","A2KLJKDG90K1PP","either","7","","","","","","","0","0","1","0.8","","0.5","0.5","0.5","0.5","","","","","0.8","0.2","0.6","0.2","","","","","","","72","H","0","img/none_selected.jpg","true","0","full_practice"
"367","","bandit","67","601941","0.0-33.0-14.0","90777428","wem/bandit_either","A2KLJKDG90K1PP","either","7","","","","","","","0","1","0","","0.8","0.5","0.5","0.5","0.5","0.8","0.2","0.6","0.2","","","","","","","","","","","72","H","0","img/none_selected.jpg","true","0","full_practice"
"404","","bandit","68","603867","0.0-33.0-15.0","90777428","wem/bandit_either","A2KLJKDG90K1PP","either","7","","","","","","","1","0","0","0.8","","0.5","0.5","0.5","0.5","","","","","0.8","0.2","0.6","0.2","","","","","","","72","H","0","img/none_selected.jpg","true","0","full_practice"
"1417","","bandit","69","606799","0.0-33.0-16.0","90777428","wem/bandit_either","A2KLJKDG90K1PP","either","7","","","","","","","1","0","0","0.8","","0.5","0.5","0.5","0.5","","","","","0.8","0.2","0.6","0.2","","","","","","","72","H","0","img/none_selected.jpg","true","0","full_practice"
"555","","bandit","70","608910","0.0-33.0-17.0","90777428","wem/bandit_either","A2KLJKDG90K1PP","either","7","","","","","","","1","0","0","0.8","","0.5","0.5","0.5","0.5","","","","","0.8","0.2","0.6","0.2","","","","","","","72","H","0","img/none_selected.jpg","true","0","full_practice"
"376","","bandit","71","610804","0.0-33.0-18.0","90777428","wem/bandit_either","A2KLJKDG90K1PP","either","7","","","","","","","0","1","0","","0.8","0.5","0.5","0.5","0.5","0.8","0.2","0.6","0.2","","","","","","","","","","","72","H","0","img/none_selected.jpg","true","0","full_practice"
"382","","bandit","72","612697","0.0-33.0-19.0","90777428","wem/bandit_either","A2KLJKDG90K1PP","either","7","","","","","","","1","0","0","0.8","","0.5","0.5","0.5","0.5","","","","","0.8","0.2","0.6","0.2","","","","","","","72","H","0","img/none_selected.jpg","true","0","full_practice"
"4933","","text","73","617639","0.0-34.0","90777428","wem/bandit_either","A2KLJKDG90K1PP","either","7","32","","","","","","","","","","","","","","","","","","","","","","","","","","","","","","","","","","",""
"12032","","text","74","630677","0.0-35.0","90777428","wem/bandit_either","A2KLJKDG90K1PP","either","7","32","","","","","","","","","","","","","","","","","","","","","","","","","","","","","","","","","","",""
"15343","","text","75","646024","0.0-36.0","90777428","wem/bandit_either","A2KLJKDG90K1PP","either","7","32","","","","","","","","","","","","","","","","","","","","","","","","","","","","","","","","","","",""
"8590","","text","76","654619","0.0-37.0","90777428","wem/bandit_either","A2KLJKDG90K1PP","either","7","32","","","","","","","","","","","","","","","","","","","","","","","","","","","","","","","","","","",""
"8105","","text","77","662730","0.0-38.0","90777428","wem/bandit_either","A2KLJKDG90K1PP","either","7","32","","","","","","","","","","","","","","","","","","","","","","","","","","","","","","","","","","",""
"9708","","text","78","672443","0.0-39.0","90777428","wem/bandit_either","A2KLJKDG90K1PP","either","7","32","","","","","","","","","","","","","","","","","","","","","","","","","","","","","","","","","","",""
"1889","","bandit","79","675849","0.0-40.0-0.0","90777428","wem/bandit_either","A2KLJKDG90K1PP","either","7","","","","","","","0","0","1","0.01738065524","","0.6","0.4","0.8","0.2","","","","","0.01738065524","0.06530018083","0.1952616071","0.1480066451","","","","","","","72","H","0","img/none_selected.jpg","","1","main_expt"
"121","","bandit","80","677487","0.0-41.0-0.0","90777428","wem/bandit_either","A2KLJKDG90K1PP","either","7","","","","","","","0","0","1","","0.0196943787","0.6","0.4","0.8","0.2","0.0196943787","0.1011701763","0.1652234336","0.1053714073","","","","","","","","","","","72","H","0","img/none_selected.jpg","","2","main_expt"
"445","","bandit","81","679444","0.0-42.0-0.0","90777428","wem/bandit_either","A2KLJKDG90K1PP","either","7","","","","","","","0","0","1","0.09486719381","","0.6","0.4","0.8","0.2","","","","","0.01678573497","0.09486719381","0.1347382479","0.1460078221","","","","","","","74","J","1","","","3","main_expt"
"297","","bandit","82","681260","0.0-43.0-0.0","90777428","wem/bandit_either","A2KLJKDG90K1PP","either","7","","","","","","","0","0","1","","0.1684625442","0.6","0.4","0.8","0.2","0.02981965743","0.06705802814","0.1684625442","0.1866138214","","","","","","","","","","","75","K","2","","","4","main_expt"
"66","","bandit","83","682842","0.0-44.0-0.0","90777428","wem/bandit_either","A2KLJKDG90K1PP","either","7","","","","","","","0","0","1","","0.2445348717","0.6","0.4","0.8","0.2","0.02600208211","0.0822298525","0.1792029032","0.2445348717","","","","","","","","","","","76","L","3","","","5","main_expt"
"1584","","bandit","84","686184","0.0-45.0-0.0","90777428","wem/bandit_either","A2KLJKDG90K1PP","either","7","","","","","","","0","0","1","","0.09162209411","0.6","0.4","0.8","0.2","0.02332436933","0.09162209411","0.2153873139","0.2546962146","","","","","","","","","","","74","J","1","","","6","main_expt"
"392","","bandit","85","688086","0.0-46.0-0.0","90777428","wem/bandit_either","A2KLJKDG90K1PP","either","7","","","","","","","1","0","0","0.1757762721","","0.6","0.4","0.8","0.2","","","","","0.02864040813","0.1028820098","0.1757762721","0.2344841702","","","","","","","75","K","2","","","7","main_expt"
"311","","bandit","86","689917","0.0-47.0-0.0","90777428","wem/bandit_either","A2KLJKDG90K1PP","either","7","","","","","","","0","0","1","0.2241229746","","0.6","0.4","0.8","0.2","","","","","0.02951264166","0.1532270122","0.2241229746","0.2473344203","","","","","","","75","K","2","","","8","main_expt"
"313","","bandit","87","691749","0.0-48.0-0.0","90777428","wem/bandit_either","A2KLJKDG90K1PP","either","7","","","","","","","0","0","1","0.2199426203","","0.6","0.4","0.8","0.2","","","","","0.02997011939","0.2131450397","0.2199426203","0.2642160399","","","","","","","75","K","2","","","9","main_expt"
"19","","bandit","88","693280","0.0-49.0-0.0","90777428","wem/bandit_either","A2KLJKDG90K1PP","either","7","","","","","","","0","0","1","","0.2104627424","0.6","0.4","0.8","0.2","0.02489651457","0.2985754635","0.1520686932","0.2104627424","","","","","","","","","","","76","L","3","","","10","main_expt"
"48","","bandit","89","694844","0.0-50.0-0.0","90777428","wem/bandit_either","A2KLJKDG90K1PP","either","7","","","","","","","0","0","1","","0.01651058827","0.6","0.4","0.8","0.2","0.01651058827","0.2924640086","0.2013349999","0.219372878","","","","","","","","","","","72","H","0","img/none_selected.jpg","","11","main_expt"
"448","","bandit","90","696809","0.0-51.0-0.0","90777428","wem/bandit_either","A2KLJKDG90K1PP","either","7","","","","","","","0","0","1","","0.02341729431","0.6","0.4","0.8","0.2","0.02341729431","0.3264291113","0.2156800105","0.2105839871","","","","","","","","","","","72","H","0","img/none_selected.jpg","","12","main_expt"
"688","","bandit","91","699016","0.0-52.0-0.0","90777428","wem/bandit_either","A2KLJKDG90K1PP","either","7","","","","","","","0","1","0","","0.3254913314","0.6","0.4","0.8","0.2","0.0257410372","0.3254913314","0.1833947696","0.2511698571","","","","","","","","","","","74","J","1","","","13","main_expt"
"303","","bandit","92","700840","0.0-53.0-0.0","90777428","wem/bandit_either","A2KLJKDG90K1PP","either","7","","","","","","","0","1","0","","0.3428504842","0.6","0.4","0.8","0.2","0.02570014082","0.3428504842","0.243643366","0.2158977649","","","","","","","","","","","74","J","1","","","14","main_expt"
"298","","bandit","93","702654","0.0-54.0-0.0","90777428","wem/bandit_either","A2KLJKDG90K1PP","either","7","","","","","","","0","1","0","","0.3244047679","0.6","0.4","0.8","0.2","0.04268316416","0.3244047679","0.2265365198","0.2762480727","","","","","","","","","","","74","J","1","","","15","main_expt"
"279","","bandit","94","704447","0.0-55.0-0.0","90777428","wem/bandit_either","A2KLJKDG90K1PP","either","7","","","","","","","1","0","0","0.3025313629","","0.6","0.4","0.8","0.2","","","","","0.04667408308","0.3025313629","0.2484951132","0.3202890724","","","","","","","74","J","1","","","16","main_expt"
"181","","bandit","95","706326","0.0-56.0-0.0","90777428","wem/bandit_either","A2KLJKDG90K1PP","either","7","","","","","","","0","0","1","","0.3291216938","0.6","0.4","0.8","0.2","0.0506688767","0.3291216938","0.2570267238","0.3680552247","","","","","","","","","","","74","J","1","","","17","main_expt"
"675","","bandit","96","708522","0.0-57.0-0.0","90777428","wem/bandit_either","A2KLJKDG90K1PP","either","7","","","","","","","0","0","1","","0.2987881532","0.6","0.4","0.8","0.2","0.02988526167","0.2987881532","0.287418789","0.3968593921","","","","","","","","","","","74","J","1","","","18","main_expt"
"440","","bandit","97","710685","0.0-58.0-0.0","90777428","wem/bandit_either","A2KLJKDG90K1PP","either","7","","","","","","","0","1","0","","0.281207523","0.6","0.4","0.8","0.2","0.03476350355","0.281207523","0.2338710899","0.4192996399","","","","","","","","","","","74","J","1","","","19","main_expt"
"335","","bandit","98","712532","0.0-59.0-0.0","90777428","wem/bandit_either","A2KLJKDG90K1PP","either","7","","","","","","","0","0","1","","0.291129981","0.6","0.4","0.8","0.2","0.0233687216","0.291129981","0.2335293464","0.4362768361","","","","","","","","","","","74","J","1","","","20","main_expt"
"329","","bandit","99","714380","0.0-60.0-0.0","90777428","wem/bandit_either","A2KLJKDG90K1PP","either","7","","","","","","","0","0","1","0.2729578326","","0.6","0.4","0.8","0.2","","","","","0.01272547494","0.2729578326","0.2434826965","0.4599691003","","","","","","","74","J","1","","","21","main_expt"
"351","","bandit","100","716246","0.0-61.0-0.0","90777428","wem/bandit_either","A2KLJKDG90K1PP","either","7","","","","","","","0","0","1","0.2702300591","","0.6","0.4","0.8","0.2","","","","","0.01739491555","0.2805141014","0.2702300591","0.44353765","","","","","","","75","K","2","","","22","main_expt"
"53","","bandit","101","717821","0.0-62.0-0.0","90777428","wem/bandit_either","A2KLJKDG90K1PP","either","7","","","","","","","0","0","1","0.2424740502","","0.6","0.4","0.8","0.2","","","","","0.006692102231","0.3016389313","0.2424740502","0.4105594395","","","","","","","75","K","2","","","23","main_expt"
"101","","bandit","102","719441","0.0-63.0-0.0","90777428","wem/bandit_either","A2KLJKDG90K1PP","either","7","","","","","","","1","0","0","0.4243351486","","0.6","0.4","0.8","0.2","","","","","0.01209419849","0.2475621169","0.1754503809","0.4243351486","","","","","","","76","L","3","","","24","main_expt"
"132","","bandit","103","721085","0.0-64.0-0.0","90777428","wem/bandit_either","A2KLJKDG90K1PP","either","7","","","","","","","0","0","1","","0.4172780312","0.6","0.4","0.8","0.2","0.009734580702","0.2607476102","0.2023019753","0.4172780312","","","","","","","","","","","76","L","3","","","25","main_expt"
"115","","bandit","104","722712","0.0-65.0-0.0","90777428","wem/bandit_either","A2KLJKDG90K1PP","either","7","","","","","","","0","1","0","","0.3981062588","0.6","0.4","0.8","0.2","0.008596148908","0.292589008","0.1887270612","0.3981062588","","","","","","","","","","","76","L","3","","","26","main_expt"
"262","","bandit","105","724492","0.0-66.0-0.0","90777428","wem/bandit_either","A2KLJKDG90K1PP","either","7","","","","","","","1","0","0","0.3889188119","","0.6","0.4","0.8","0.2","","","","","0.01380650739","0.2978950393","0.2526986378","0.3889188119","","","","","","","76","L","3","","","27","main_expt"
"93","","bandit","106","726453","0.0-67.0-0.0","90777428","wem/bandit_either","A2KLJKDG90K1PP","either","7","","","","","","","0","1","0","","0.3699095679","0.6","0.4","0.8","0.2","0.01160852189","0.337392419","0.2536033627","0.3699095679","","","","","","","","","","","76","L","3","","","28","main_expt"
"205","","bandit","107","728170","0.0-68.0-0.0","90777428","wem/bandit_either","A2KLJKDG90K1PP","either","7","","","","","","","0","0","1","","0.4087832773","0.6","0.4","0.8","0.2","0.02858314752","0.3830759015","0.258258936","0.4087832773","","","","","","","","","","","76","L","3","","","29","main_expt"
"1462","","bandit","108","731144","0.0-69.0-0.0","90777428","wem/bandit_either","A2KLJKDG90K1PP","either","7","","","","","","","0","1","0","","0.4162513677","0.6","0.4","0.8","0.2","0.0265596094","0.3778881599","0.3152574144","0.4162513677","","","","","","","","","","","76","L","3","","","30","main_expt"
"1624","","bandit","109","734287","0.0-70.0-0.0","90777428","wem/bandit_either","A2KLJKDG90K1PP","either","7","","","","","","","0","0","1","","0.43337534","0.6","0.4","0.8","0.2","0.02828816112","0.3585458117","0.3508579725","0.43337534","","","","","","","","","","","76","L","3","","","31","main_expt"
"272","","bandit","110","736077","0.0-71.0-0.0","90777428","wem/bandit_either","A2KLJKDG90K1PP","either","7","","","","","","","0","0","1","0.03857304495","","0.6","0.4","0.8","0.2","","","","","0.03857304495","0.3511664436","0.3902021543","0.4399105216","","","","","","","72","H","0","img/none_selected.jpg","","32","main_expt"
"325","","bandit","111","737919","0.0-72.0-0.0","90777428","wem/bandit_either","A2KLJKDG90K1PP","either","7","","","","","","","1","0","0","0.3924960189","","0.6","0.4","0.8","0.2","","","","","0.02642959278","0.3924960189","0.4112626521","0.3859623535","","","","","","","74","J","1","","","33","main_expt"
"335","","bandit","112","739778","0.0-73.0-0.0","90777428","wem/bandit_either","A2KLJKDG90K1PP","either","7","","","","","","","0","1","0","","0.3713907517","0.6","0.4","0.8","0.2","0.06800028167","0.3713907517","0.3912589523","0.4231921331","","","","","","","","","","","74","J","1","","","34","main_expt"
"313","","bandit","113","741604","0.0-74.0-0.0","90777428","wem/bandit_either","A2KLJKDG90K1PP","either","7","","","","","","","0","1","0","","0.3929004689","0.6","0.4","0.8","0.2","0.05710280771","0.3929004689","0.3663646496","0.3950458867","","","","","","","","","","","74","J","1","","","35","main_expt"
"266","","bandit","114","743386","0.0-75.0-0.0","90777428","wem/bandit_either","A2KLJKDG90K1PP","either","7","","","","","","","1","0","0","0.3820467604","","0.6","0.4","0.8","0.2","","","","","0.07756943076","0.3820467604","0.3045225128","0.4005306787","","","","","","","74","J","1","","","36","main_expt"
"370","","bandit","115","745301","0.0-76.0-0.0","90777428","wem/bandit_either","A2KLJKDG90K1PP","either","7","","","","","","","0","0","1","","0.3948022939","0.6","0.4","0.8","0.2","0.06074629621","0.3948022939","0.2806474599","0.3972735937","","","","","","","","","","","74","J","1","","","37","main_expt"
"378","","bandit","116","747189","0.0-77.0-0.0","90777428","wem/bandit_either","A2KLJKDG90K1PP","either","7","","","","","","","1","0","0","0.3558759705","","0.6","0.4","0.8","0.2","","","","","0.07063042774","0.3769579019","0.3558759705","0.38339591","","","","","","","75","K","2","","","38","main_expt"
"282","","bandit","117","748986","0.0-78.0-0.0","90777428","wem/bandit_either","A2KLJKDG90K1PP","either","7","","","","","","","1","0","0","0.3194138052","","0.6","0.4","0.8","0.2","","","","","0.06209293178","0.4030344636","0.3194138052","0.3906354184","","","","","","","75","K","2","","","39","main_expt"
"651","","bandit","118","751157","0.0-79.0-0.0","90777428","wem/bandit_either","A2KLJKDG90K1PP","either","7","","","","","","","0","1","0","","0.3549086085","0.6","0.4","0.8","0.2","0.06952578958","0.3622335218","0.3549086085","0.3623676206","","","","","","","","","","","75","K","2","","","40","main_expt"
"301","","bandit","119","752978","0.0-80.0-0.0","90777428","wem/bandit_either","A2KLJKDG90K1PP","either","7","","","","","","","0","0","1","0.3452113815","","0.6","0.4","0.8","0.2","","","","","0.1291245709","0.3911596719","0.3452113815","0.3873704927","","","","","","","75","K","2","","","41","main_expt"
"302","","bandit","120","754792","0.0-81.0-0.0","90777428","wem/bandit_either","A2KLJKDG90K1PP","either","7","","","","","","","0","1","0","","0.359823116","0.6","0.4","0.8","0.2","0.1174523948","0.3921858285","0.3522960267","0.359823116","","","","","","","","","","","76","L","3","","","42","main_expt"
"235","","bandit","121","756546","0.0-82.0-0.0","90777428","wem/bandit_either","A2KLJKDG90K1PP","either","7","","","","","","","0","0","1","","0.3710191411","0.6","0.4","0.8","0.2","0.1201484523","0.3831213528","0.3093122096","0.3710191411","","","","","","","","","","","76","L","3","","","43","main_expt"
"111","","bandit","122","758187","0.0-83.0-0.0","90777428","wem/bandit_either","A2KLJKDG90K1PP","either","7","","","","","","","0","0","1","0.09958360536","","0.6","0.4","0.8","0.2","","","","","0.09958360536","0.3518708159","0.3026159556","0.3874065465","","","","","","","72","H","0","img/none_selected.jpg","","44","main_expt"
"22","","bandit","123","759724","0.0-84.0-0.0","90777428","wem/bandit_either","A2KLJKDG90K1PP","either","7","","","","","","","0","0","1","","0.3122870636","0.6","0.4","0.8","0.2","0.05173655998","0.3122870636","0.3336294247","0.3851533971","","","","","","","","","","","74","J","1","","","45","main_expt"
"237","","bandit","124","761479","0.0-85.0-0.0","90777428","wem/bandit_either","A2KLJKDG90K1PP","either","7","","","","","","","0","0","1","","0.2635721956","0.6","0.4","0.8","0.2","0.05945041096","0.2635721956","0.3400222736","0.4055883719","","","","","","","","","","","74","J","1","","","46","main_expt"
"509","","bandit","125","763506","0.0-86.0-0.0","90777428","wem/bandit_either","A2KLJKDG90K1PP","either","7","","","","","","","0","0","1","0.328707825","","0.6","0.4","0.8","0.2","","","","","0.04375763727","0.2856785865","0.328707825","0.3671593179","","","","","","","75","K","2","","","47","main_expt"
"235","","bandit","126","765265","0.0-87.0-0.0","90777428","wem/bandit_either","A2KLJKDG90K1PP","either","7","","","","","","","0","0","1","","0.3198203038","0.6","0.4","0.8","0.2","0.0666370861","0.2649087478","0.3307690822","0.3198203038","","","","","","","","","","","76","L","3","","","48","main_expt"
"71","","bandit","127","766848","0.0-88.0-0.0","90777428","wem/bandit_either","A2KLJKDG90K1PP","either","7","","","","","","","0","0","1","0.3111357295","","0.6","0.4","0.8","0.2","","","","","0.08266213623","0.2462979357","0.3438067684","0.3111357295","","","","","","","76","L","3","","","49","main_expt"
"50","","bandit","128","768416","0.0-89.0-0.0","90777428","wem/bandit_either","A2KLJKDG90K1PP","either","7","","","","","","","1","0","0","0.4037002216","","0.6","0.4","0.8","0.2","","","","","0.08795051988","0.2490076798","0.4037002216","0.3196682981","","","","","","","75","K","2","","","50","main_expt"
"342","","bandit","129","770654","0.0-90.0-0.0","90777428","wem/bandit_either","A2KLJKDG90K1PP","either","7","","","","","","","1","0","0","0.3557518394","","0.6","0.4","0.8","0.2","","","","","0.07533366945","0.305209751","0.3557518394","0.3088596379","","","","","","","75","K","2","","","51","main_expt"
"475","","bandit","130","772647","0.0-91.0-0.0","90777428","wem/bandit_either","A2KLJKDG90K1PP","either","7","","","","","","","0","0","1","0.3254324358","","0.6","0.4","0.8","0.2","","","","","0.06506638851","0.3087204988","0.3254324358","0.3060924957","","","","","","","75","K","2","","","52","main_expt"
"381","","bandit","131","774556","0.0-92.0-0.0","90777428","wem/bandit_either","A2KLJKDG90K1PP","either","7","","","","","","","0","0","1","0.2952150256","","0.6","0.4","0.8","0.2","","","","","0.06562792832","0.2984188648","0.2952150256","0.3229319808","","","","","","","75","K","2","","","53","main_expt"
"162","","bandit","132","776240","0.0-93.0-0.0","90777428","wem/bandit_either","A2KLJKDG90K1PP","either","7","","","","","","","0","1","0","","0.3353917468","0.6","0.4","0.8","0.2","0.04630081711","0.3353917468","0.300320608","0.3280138586","","","","","","","","","","","74","J","1","","","54","main_expt"
"297","","bandit","133","778053","0.0-94.0-0.0","90777428","wem/bandit_either","A2KLJKDG90K1PP","either","7","","","","","","","1","0","0","0.3259144651","","0.6","0.4","0.8","0.2","","","","","0.03868373719","0.3259144651","0.2985084879","0.2777260571","","","","","","","74","J","1","","","55","main_expt"
"366","","bandit","134","779939","0.0-95.0-0.0","90777428","wem/bandit_either","A2KLJKDG90K1PP","either","7","","","","","","","0","0","1","","0.3259049121","0.6","0.4","0.8","0.2","0.06235362297","0.3259049121","0.2607009345","0.1791004868","","","","","","","","","","","74","J","1","","","56","main_expt"
"393","","bandit","135","781851","0.0-96.0-0.0","90777428","wem/bandit_either","A2KLJKDG90K1PP","either","7","","","","","","","0","1","0","","0.2182265394","0.6","0.4","0.8","0.2","0.04639461243","0.3687904078","0.2565854794","0.2182265394","","","","","","","","","","","76","L","3","","","57","main_expt"
"315","","bandit","136","783688","0.0-97.0-0.0","90777428","wem/bandit_either","A2KLJKDG90K1PP","either","7","","","","","","","0","0","1","0.2970860181","","0.6","0.4","0.8","0.2","","","","","0.08954448139","0.3422038875","0.319121847","0.2970860181","","","","","","","76","L","3","","","58","main_expt"
"251","","bandit","137","785452","0.0-98.0-0.0","90777428","wem/bandit_either","A2KLJKDG90K1PP","either","7","","","","","","","0","0","1","","0.3771421139","0.6","0.4","0.8","0.2","0.07390342289","0.3771421139","0.3269923399","0.3249685468","","","","","","","","","","","74","J","1","","","59","main_expt"
"302","","bandit","138","787289","0.0-99.0-0.0","90777428","wem/bandit_either","A2KLJKDG90K1PP","either","7","","","","","","","0","0","1","0.05801548519","","0.6","0.4","0.8","0.2","","","","","0.05801548519","0.3620124399","0.3150968823","0.2931470039","","","","","","","72","H","0","img/none_selected.jpg","","60","main_expt"
"21","","bandit","139","788823","0.0-100.0-0.0","90777428","wem/bandit_either","A2KLJKDG90K1PP","either","7","","","","","","","0","0","1","","0.3958116198","0.6","0.4","0.8","0.2","0.07333263924","0.3958116198","0.324539239","0.2646536279","","","","","","","","","","","74","J","1","","","61","main_expt"
"137","","bandit","140","790687","0.0-101.0-0.0","90777428","wem/bandit_either","A2KLJKDG90K1PP","either","7","","","","","","","0","1","0","","0.3066306166","0.6","0.4","0.8","0.2","0.07563430262","0.3615218546","0.3066306166","0.242461968","","","","","","","","","","","75","K","2","","","62","main_expt"
"341","","bandit","141","792551","0.0-102.0-0.0","90777428","wem/bandit_either","A2KLJKDG90K1PP","either","7","","","","","","","1","0","0","0.3068900116","","0.6","0.4","0.8","0.2","","","","","0.06826526778","0.3574266064","0.3068900116","0.2206683029","","","","","","","75","K","2","","","63","main_expt"
"679","","bandit","142","794750","0.0-103.0-0.0","90777428","wem/bandit_either","A2KLJKDG90K1PP","either","7","","","","","","","0","0","1","","0.2936494982","0.6","0.4","0.8","0.2","0.1175271989","0.3541915859","0.2936494982","0.2288959862","","","","","","","","","","","75","K","2","","","64","main_expt"
"203","","bandit","143","796475","0.0-104.0-0.0","90777428","wem/bandit_either","A2KLJKDG90K1PP","either","7","","","","","","","0","0","1","","0.2346523549","0.6","0.4","0.8","0.2","0.1273865191","0.3339820985","0.290236101","0.2346523549","","","","","","","","","","","76","L","3","","","65","main_expt"
"782","","bandit","144","798794","0.0-105.0-0.0","90777428","wem/bandit_either","A2KLJKDG90K1PP","either","7","","","","","","","0","0","1","","0.3195467083","0.6","0.4","0.8","0.2","0.09075088943","0.3195467083","0.2512036594","0.1881688105","","","","","","","","","","","74","J","1","","","66","main_expt"
"76","","bandit","145","800385","0.0-106.0-0.0","90777428","wem/bandit_either","A2KLJKDG90K1PP","either","7","","","","","","","0","0","1","","0.263747572","0.6","0.4","0.8","0.2","0.08077075725","0.3477383846","0.263747572","0.231043846","","","","","","","","","","","75","K","2","","","67","main_expt"
"435","","bandit","146","802339","0.0-107.0-0.0","90777428","wem/bandit_either","A2KLJKDG90K1PP","either","7","","","","","","","0","0","1","","0.2576664243","0.6","0.4","0.8","0.2","0.08810311296","0.3365352069","0.2892519303","0.2576664243","","","","","","","","","","","76","L","3","","","68","main_expt"
"118","","bandit","147","803977","0.0-108.0-0.0","90777428","wem/bandit_either","A2KLJKDG90K1PP","either","7","","","","","","","0","1","0","","0.2183283259","0.6","0.4","0.8","0.2","0.1260156682","0.3148812039","0.2383664846","0.2183283259","","","","","","","","","","","76","L","3","","","69","main_expt"
"305","","bandit","148","806336","0.0-109.0-0.0","90777428","wem/bandit_either","A2KLJKDG90K1PP","either","7","","","","","","","0","0","1","","0.2260484764","0.6","0.4","0.8","0.2","0.08773951932","0.3154014692","0.2497111545","0.2260484764","","","","","","","","","","","76","L","3","","","70","main_expt"
"601","","bandit","149","808470","0.0-110.0-0.0","90777428","wem/bandit_either","A2KLJKDG90K1PP","either","7","","","","","","","0","0","1","","0.2095843002","0.6","0.4","0.8","0.2","0.1154304285","0.219815459","0.2095843002","0.3196469567","","","","","","","","","","","75","K","2","","","71","main_expt"
"68","","bandit","150","810060","0.0-111.0-0.0","90777428","wem/bandit_either","A2KLJKDG90K1PP","either","7","","","","","","","0","0","1","","0.2623730272","0.6","0.4","0.8","0.2","0.10097247","0.2623730272","0.1972488467","0.3644141189","","","","","","","","","","","74","J","1","","","72","main_expt"
"199","","bandit","151","811781","0.0-112.0-0.0","90777428","wem/bandit_either","A2KLJKDG90K1PP","either","7","","","","","","","0","0","1","","0.2639805735","0.6","0.4","0.8","0.2","0.0746930591","0.2639805735","0.15494396","0.4081842109","","","","","","","","","","","74","J","1","","","73","main_expt"
"779","","bandit","152","814073","0.0-113.0-0.0","90777428","wem/bandit_either","A2KLJKDG90K1PP","either","7","","","","","","","0","0","1","0.2770925356","","0.6","0.4","0.8","0.2","","","","","0.1124392477","0.2770925356","0.1324790415","0.4506698749","","","","","","","74","J","1","","","74","main_expt"
"582","","bandit","153","816176","0.0-114.0-0.0","90777428","wem/bandit_either","A2KLJKDG90K1PP","either","7","","","","","","","0","0","1","0.113494578","","0.6","0.4","0.8","0.2","","","","","0.113494578","0.2796652475","0.179195356","0.454520075","","","","","","","72","H","0","img/none_selected.jpg","","75","main_expt"
"288","","bandit","154","817978","0.0-115.0-0.0","90777428","wem/bandit_either","A2KLJKDG90K1PP","either","7","","","","","","","0","0","1","0.1469344428","","0.6","0.4","0.8","0.2","","","","","0.1469344428","0.3153427244","0.215808919","0.466199952","","","","","","","72","H","0","img/none_selected.jpg","","76","main_expt"
"104","","bandit","155","819596","0.0-116.0-0.0","90777428","wem/bandit_either","A2KLJKDG90K1PP","either","7","","","","","","","0","0","1","","0.3676911864","0.6","0.4","0.8","0.2","0.2152215887","0.3676911864","0.2312347408","0.4402141775","","","","","","","","","","","74","J","1","","","77","main_expt"
"308","","bandit","156","821430","0.0-117.0-0.0","90777428","wem/bandit_either","A2KLJKDG90K1PP","either","7","","","","","","","0","0","1","0.3434277392","","0.6","0.4","0.8","0.2","","","","","0.2055177618","0.3434277392","0.2197025874","0.4525957793","","","","","","","74","J","1","","","78","main_expt"
"325","","bandit","157","823275","0.0-118.0-0.0","90777428","wem/bandit_either","A2KLJKDG90K1PP","either","7","","","","","","","0","0","1","0.3758616161","","0.6","0.4","0.8","0.2","","","","","0.222262525","0.3758616161","0.2227420924","0.4630799716","","","","","","","74","J","1","","","79","main_expt"
"365","","bandit","158","825714","0.0-119.0-0.0","90777428","wem/bandit_either","A2KLJKDG90K1PP","either","7","","","","","","","0","0","1","0.2283057493","","0.6","0.4","0.8","0.2","","","","","0.2700860438","0.3862393514","0.2283057493","0.423693353","","","","","","","75","K","2","","","80","main_expt"
"589","","bandit","159","827817","0.0-120.0-0.0","90777428","wem/bandit_either","A2KLJKDG90K1PP","either","7","","","","","","","1","0","0","0.2721525977","","0.6","0.4","0.8","0.2","","","","","0.2642688004","0.3593770893","0.2721525977","0.4319112677","","","","","","","75","K","2","","","81","main_expt"
"596","","bandit","160","829931","0.0-121.0-0.0","90777428","wem/bandit_either","A2KLJKDG90K1PP","either","7","","","","","","","0","0","1","0.2850237184","","0.6","0.4","0.8","0.2","","","","","0.2824164754","0.4035110645","0.2850237184","0.441827487","","","","","","","75","K","2","","","82","main_expt"
"376","","bandit","161","831827","0.0-122.0-0.0","90777428","wem/bandit_either","A2KLJKDG90K1PP","either","7","","","","","","","0","0","1","0.3236436683","","0.6","0.4","0.8","0.2","","","","","0.2819095575","0.3719627038","0.3236436683","0.4288861504","","","","","","","75","K","2","","","83","main_expt"
"455","","bandit","162","833796","0.0-123.0-0.0","90777428","wem/bandit_either","A2KLJKDG90K1PP","either","7","","","","","","","1","0","0","0.3339638593","","0.6","0.4","0.8","0.2","","","","","0.2589745902","0.3349288927","0.3339638593","0.4350385517","","","","","","","75","K","2","","","84","main_expt"
"379","","bandit","163","835697","0.0-124.0-0.0","90777428","wem/bandit_either","A2KLJKDG90K1PP","either","7","","","","","","","1","0","0","0.3795022601","","0.6","0.4","0.8","0.2","","","","","0.3626504113","0.3247899262","0.3795022601","0.4255505645","","","","","","","75","K","2","","","85","main_expt"
"364","","bandit","164","837589","0.0-125.0-0.0","90777428","wem/bandit_either","A2KLJKDG90K1PP","either","7","","","","","","","0","0","1","0.3835523064","","0.6","0.4","0.8","0.2","","","","","0.3598915268","0.3443557019","0.3835523064","0.4330938692","","","","","","","75","K","2","","","86","main_expt"
"302","","bandit","165","839407","0.0-126.0-0.0","90777428","wem/bandit_either","A2KLJKDG90K1PP","either","7","","","","","","","0","0","1","0.3772514457","","0.6","0.4","0.8","0.2","","","","","0.3433052933","0.3648776167","0.3772514457","0.4548398529","","","","","","","75","K","2","","","87","main_expt"
"268","","bandit","166","841189","0.0-127.0-0.0","90777428","wem/bandit_either","A2KLJKDG90K1PP","either","7","","","","","","","0","0","1","0.3766830519","","0.6","0.4","0.8","0.2","","","","","0.4022938878","0.3609631839","0.3766830519","0.4493124031","","","","","","","75","K","2","","","88","main_expt"
"286","","bandit","167","843001","0.0-128.0-0.0","90777428","wem/bandit_either","A2KLJKDG90K1PP","either","7","","","","","","","0","0","1","","0.3636167192","0.6","0.4","0.8","0.2","0.4141493151","0.3636167192","0.3537755119","0.4161110063","","","","","","","","","","","74","J","1","","","89","main_expt"
"266","","bandit","168","845484","0.0-129.0-0.0","90777428","wem/bandit_either","A2KLJKDG90K1PP","either","7","","","","","","","0","0","1","","0.3563441379","0.6","0.4","0.8","0.2","0.4136124289","0.3563441379","0.3014761449","0.405260856","","","","","","","","","","","74","J","1","","","90","main_expt"
"492","","bandit","169","847492","0.0-130.0-0.0","90777428","wem/bandit_either","A2KLJKDG90K1PP","either","7","","","","","","","0","1","0","","0.3827048226","0.6","0.4","0.8","0.2","0.4184852842","0.3389138503","0.2694038268","0.3827048226","","","","","","","","","","","76","L","3","","","91","main_expt"
"555","","bandit","170","849655","0.0-131.0-0.0","90777428","wem/bandit_either","A2KLJKDG90K1PP","either","7","","","","","","","0","1","0","","0.3552182969","0.6","0.4","0.8","0.2","0.4456808576","0.3263360165","0.2651536323","0.3552182969","","","","","","","","","","","76","L","3","","","92","main_expt"
"401","","bandit","171","851577","0.0-132.0-0.0","90777428","wem/bandit_either","A2KLJKDG90K1PP","either","7","","","","","","","0","0","1","","0.3286897504","0.6","0.4","0.8","0.2","0.4355219805","0.2844131911","0.1997208586","0.3286897504","","","","","","","","","","","76","L","3","","","93","main_expt"
"334","","bandit","172","853433","0.0-133.0-0.0","90777428","wem/bandit_either","A2KLJKDG90K1PP","either","7","","","","","","","0","0","1","0.2442555344","","0.6","0.4","0.8","0.2","","","","","0.4609821192","0.2978465223","0.2442555344","0.3422490236","","","","","","","75","K","2","","","94","main_expt"
"47","","bandit","173","855002","0.0-134.0-0.0","90777428","wem/bandit_either","A2KLJKDG90K1PP","either","7","","","","","","","0","0","1","","0.3160161054","0.6","0.4","0.8","0.2","0.4419374505","0.2638723705","0.2638839348","0.3160161054","","","","","","","","","","","76","L","3","","","95","main_expt"
"280","","bandit","174","856810","0.0-135.0-0.0","90777428","wem/bandit_either","A2KLJKDG90K1PP","either","7","","","","","","","0","0","1","0.2265245807","","0.6","0.4","0.8","0.2","","","","","0.39438674","0.2276010735","0.2265245807","0.2945538732","","","","","","","75","K","2","","","96","main_expt"
"313","","bandit","175","858646","0.0-136.0-0.0","90777428","wem/bandit_either","A2KLJKDG90K1PP","either","7","","","","","","","0","0","1","0.2045446072","","0.6","0.4","0.8","0.2","","","","","0.3617668419","0.2045446072","0.1969189177","0.393563827","","","","","","","74","J","1","","","97","main_expt"
"8","","bandit","176","860169","0.0-137.0-0.0","90777428","wem/bandit_either","A2KLJKDG90K1PP","either","7","","","","","","","0","0","1","","0.4046254927","0.6","0.4","0.8","0.2","0.3737913853","0.2436418828","0.1761144245","0.4046254927","","","","","","","","","","","76","L","3","","","98","main_expt"
"119","","bandit","177","861805","0.0-138.0-0.0","90777428","wem/bandit_either","A2KLJKDG90K1PP","either","7","","","","","","","0","0","1","","0.3659012549","0.6","0.4","0.8","0.2","0.4221129479","0.2473144087","0.1211630765","0.3659012549","","","","","","","","","","","76","L","3","","","99","main_expt"
"274","","bandit","178","863604","0.0-139.0-0.0","90777428","wem/bandit_either","A2KLJKDG90K1PP","either","7","","","","","","","0","1","0","","0.400368336","0.6","0.4","0.8","0.2","0.3857893684","0.2707360286","0.1257326749","0.400368336","","","","","","","","","","","76","L","3","","","100","main_expt"
"314","","bandit","179","865442","0.0-140.0-0.0","90777428","wem/bandit_either","A2KLJKDG90K1PP","either","7","","","","","","","0","1","0","","0.4367931528","0.6","0.4","0.8","0.2","0.3635527264","0.3250409822","0.09975532208","0.4367931528","","","","","","","","","","","76","L","3","","","101","main_expt"
"297","","bandit","180","867261","0.0-141.0-0.0","90777428","wem/bandit_either","A2KLJKDG90K1PP","either","7","","","","","","","0","0","1","","0.4371155326","0.6","0.4","0.8","0.2","0.3738375489","0.3088580598","0.1127414424","0.4371155326","","","","","","","","","","","76","L","3","","","102","main_expt"
"408","","bandit","181","869193","0.0-142.0-0.0","90777428","wem/bandit_either","A2KLJKDG90K1PP","either","7","","","","","","","0","0","1","0.1232600734","","0.6","0.4","0.8","0.2","","","","","0.3860163181","0.2901001995","0.1232600734","0.388648264","","","","","","","75","K","2","","","103","main_expt"
"126","","bandit","182","870835","0.0-143.0-0.0","90777428","wem/bandit_either","A2KLJKDG90K1PP","either","7","","","","","","","0","1","0","","0.3718469433","0.6","0.4","0.8","0.2","0.390692362","0.309645936","0.08156843846","0.3718469433","","","","","","","","","","","76","L","3","","","104","main_expt"
"153","","bandit","183","872520","0.0-144.0-0.0","90777428","wem/bandit_either","A2KLJKDG90K1PP","either","7","","","","","","","0","0","1","","0.3920304628","0.6","0.4","0.8","0.2","0.4139082553","0.3386062745","0.08245659199","0.3920304628","","","","","","","","","","","76","L","3","","","105","main_expt"
"218","","bandit","184","874256","0.0-145.0-0.0","90777428","wem/bandit_either","A2KLJKDG90K1PP","either","7","","","","","","","1","0","0","0.3733497125","","0.6","0.4","0.8","0.2","","","","","0.3295275825","0.3827539061","0.1276639339","0.3733497125","","","","","","","76","L","3","","","106","main_expt"
"5","","bandit","185","875789","0.0-146.0-0.0","90777428","wem/bandit_either","A2KLJKDG90K1PP","either","7","","","","","","","0","0","1","","0.3878439861","0.6","0.4","0.8","0.2","0.3499712774","0.3401355396","0.1812689745","0.3878439861","","","","","","","","","","","76","L","3","","","107","main_expt"
"863","","bandit","186","878178","0.0-147.0-0.0","90777428","wem/bandit_either","A2KLJKDG90K1PP","either","7","","","","","","","0","0","1","","0.3529013302","0.6","0.4","0.8","0.2","0.2666891207","0.3258039352","0.2187982558","0.3529013302","","","","","","","","","","","76","L","3","","","108","main_expt"
"292","","bandit","187","879985","0.0-148.0-0.0","90777428","wem/bandit_either","A2KLJKDG90K1PP","either","7","","","","","","","0","0","1","0.3457683734","","0.6","0.4","0.8","0.2","","","","","0.2575067634","0.374919859","0.2201216928","0.3457683734","","","","","","","76","L","3","","","109","main_expt"
"2","","bandit","188","881517","0.0-149.0-0.0","90777428","wem/bandit_either","A2KLJKDG90K1PP","either","7","","","","","","","1","0","0","0.1789817232","","0.6","0.4","0.8","0.2","","","","","0.2664913793","0.3656186065","0.1789817232","0.3316873257","","","","","","","75","K","2","","","110","main_expt"
"221","","bandit","189","883251","0.0-150.0-0.0","90777428","wem/bandit_either","A2KLJKDG90K1PP","either","7","","","","","","","0","0","1","0.2404947452","","0.6","0.4","0.8","0.2","","","","","0.2233446911","0.3649701027","0.2404947452","0.3434945318","","","","","","","75","K","2","","","111","main_expt"
"59","","bandit","190","885398","0.0-151.0-0.0","90777428","wem/bandit_either","A2KLJKDG90K1PP","either","7","","","","","","","0","0","1","0.2959558532","","0.6","0.4","0.8","0.2","","","","","0.2170082082","0.3371716456","0.2959558532","0.2729480053","","","","","","","75","K","2","","","112","main_expt"
"894","","bandit","191","887809","0.0-152.0-0.0","90777428","wem/bandit_either","A2KLJKDG90K1PP","either","7","","","","","","","0","0","1","","0.2966985553","0.6","0.4","0.8","0.2","0.1912277411","0.2587224119","0.2966985553","0.2579672073","","","","","","","","","","","75","K","2","","","113","main_expt"
"396","","bandit","192","889721","0.0-153.0-0.0","90777428","wem/bandit_either","A2KLJKDG90K1PP","either","7","","","","","","","1","0","0","0.2384324947","","0.6","0.4","0.8","0.2","","","","","0.1691995451","0.2384324947","0.3289730608","0.24654084","","","","","","","74","J","1","","","114","main_expt"
"326","","bandit","193","891567","0.0-154.0-0.0","90777428","wem/bandit_either","A2KLJKDG90K1PP","either","7","","","","","","","0","0","1","0.2705755989","","0.6","0.4","0.8","0.2","","","","","0.1263730162","0.2705755989","0.2783705844","0.246649757","","","","","","","74","J","1","","","115","main_expt"
"307","","bandit","194","893405","0.0-155.0-0.0","90777428","wem/bandit_either","A2KLJKDG90K1PP","either","7","","","","","","","0","1","0","","0.2666822","0.6","0.4","0.8","0.2","0.1130092975","0.2666822","0.2990421824","0.2190482835","","","","","","","","","","","74","J","1","","","116","main_expt"
"623","","bandit","195","895552","0.0-156.0-0.0","90777428","wem/bandit_either","A2KLJKDG90K1PP","either","7","","","","","","","0","0","1","0.2664749026","","0.6","0.4","0.8","0.2","","","","","0.1317362661","0.2664749026","0.3214730448","0.1860086181","","","","","","","74","J","1","","","117","main_expt"
"241","","bandit","196","897313","0.0-157.0-0.0","90777428","wem/bandit_either","A2KLJKDG90K1PP","either","7","","","","","","","0","0","1","","0.285497096","0.6","0.4","0.8","0.2","0.08460291254","0.285497096","0.3996160597","0.1765749983","","","","","","","","","","","74","J","1","","","118","main_expt"
"3","","bandit","197","898845","0.0-158.0-0.0","90777428","wem/bandit_either","A2KLJKDG90K1PP","either","7","","","","","","","0","0","1","0.3004427434","","0.6","0.4","0.8","0.2","","","","","0.09168363065","0.3004427434","0.4143362638","0.1840588368","","","","","","","74","J","1","","","119","main_expt"
"298","","bandit","198","900665","0.0-159.0-0.0","90777428","wem/bandit_either","A2KLJKDG90K1PP","either","7","","","","","","","0","0","1","0.1988357929","","0.6","0.4","0.8","0.2","","","","","0.06729372802","0.2419855731","0.372340151","0.1988357929","","","","","","","76","L","3","","","120","main_expt"
"412","","bandit","199","902601","0.0-160.0-0.0","90777428","wem/bandit_either","A2KLJKDG90K1PP","either","7","","","","","","","0","0","1","","0.2315674","0.6","0.4","0.8","0.2","0.08346408207","0.3054132847","0.3910424524","0.2315674","","","","","","","","","","","76","L","3","","","121","main_expt"
"167","","bandit","200","904295","0.0-161.0-0.0","90777428","wem/bandit_either","A2KLJKDG90K1PP","either","7","","","","","","","0","1","0","","0.2041322171","0.6","0.4","0.8","0.2","0.05632743158","0.2473202095","0.3813410711","0.2041322171","","","","","","","","","","","76","L","3","","","122","main_expt"
"259","","bandit","201","906371","0.0-162.0-0.0","90777428","wem/bandit_either","A2KLJKDG90K1PP","either","7","","","","","","","0","0","1","","0.1945268209","0.6","0.4","0.8","0.2","0.05516745574","0.2909195989","0.4247291795","0.1945268209","","","","","","","","","","","76","L","3","","","123","main_expt"
"131","","bandit","202","908025","0.0-163.0-0.0","90777428","wem/bandit_either","A2KLJKDG90K1PP","either","7","","","","","","","0","1","0","","0.2206749142","0.6","0.4","0.8","0.2","0.05528311039","0.3493750294","0.4311179713","0.2206749142","","","","","","","","","","","76","L","3","","","124","main_expt"
"39","","bandit","203","909733","0.0-164.0-0.0","90777428","wem/bandit_either","A2KLJKDG90K1PP","either","7","","","","","","","0","0","1","","0.212012295","0.6","0.4","0.8","0.2","0.07149807259","0.3883668019","0.4085782939","0.212012295","","","","","","","","","","","76","L","3","","","125","main_expt"
"494","","bandit","204","911745","0.0-165.0-0.0","90777428","wem/bandit_either","A2KLJKDG90K1PP","either","7","","","","","","","0","0","1","0.1137803622","","0.6","0.4","0.8","0.2","","","","","0.1137803622","0.3888129637","0.4110861309","0.1656684785","","","","","","","72","H","0","img/none_selected.jpg","","126","main_expt"
"337","","bandit","205","913600","0.0-166.0-0.0","90777428","wem/bandit_either","A2KLJKDG90K1PP","either","7","","","","","","","0","0","1","0.1003054442","","0.6","0.4","0.8","0.2","","","","","0.1003054442","0.3659195129","0.4214671818","0.1685301808","","","","","","","72","H","0","img/none_selected.jpg","","127","main_expt"
"480","","bandit","206","915606","0.0-167.0-0.0","90777428","wem/bandit_either","A2KLJKDG90K1PP","either","7","","","","","","","0","0","1","0.1378169536","","0.6","0.4","0.8","0.2","","","","","0.1378169536","0.3689954399","0.36889317","0.1703551811","","","","","","","72","H","0","img/none_selected.jpg","","128","main_expt"
"400","","bandit","207","917531","0.0-168.0-0.0","90777428","wem/bandit_either","A2KLJKDG90K1PP","either","7","","","","","","","0","0","1","0.3600340942","","0.6","0.4","0.8","0.2","","","","","0.1333081235","0.3600340942","0.3840267129","0.1624753709","","","","","","","74","J","1","","","129","main_expt"
"242","","bandit","208","919302","0.0-169.0-0.0","90777428","wem/bandit_either","A2KLJKDG90K1PP","either","7","","","","","","","0","0","1","","0.3580797835","0.6","0.4","0.8","0.2","0.1682212827","0.3580797835","0.3809677701","0.2335662737","","","","","","","","","","","74","J","1","","","130","main_expt"
"488","","bandit","209","921320","0.0-170.0-0.0","90777428","wem/bandit_either","A2KLJKDG90K1PP","either","7","","","","","","","0","0","1","0.3785893338","","0.6","0.4","0.8","0.2","","","","","0.2193829955","0.3785893338","0.3681933818","0.240441026","","","","","","","74","J","1","","","131","main_expt"
"475","","bandit","210","923316","0.0-171.0-0.0","90777428","wem/bandit_either","A2KLJKDG90K1PP","either","7","","","","","","","0","0","1","0.3664045944","","0.6","0.4","0.8","0.2","","","","","0.2693349046","0.3764735404","0.3664045944","0.2266699971","","","","","","","75","K","2","","","132","main_expt"
"176","","bandit","211","925220","0.0-172.0-0.0","90777428","wem/bandit_either","A2KLJKDG90K1PP","either","7","","","","","","","0","0","1","0.4046437197","","0.6","0.4","0.8","0.2","","","","","0.2576546077","0.3433534211","0.4046437197","0.1994193025","","","","","","","75","K","2","","","133","main_expt"
"363","","bandit","212","927102","0.0-173.0-0.0","90777428","wem/bandit_either","A2KLJKDG90K1PP","either","7","","","","","","","0","1","0","","0.364490756","0.6","0.4","0.8","0.2","0.2412372273","0.3606247271","0.364490756","0.1891464922","","","","","","","","","","","75","K","2","","","134","main_expt"
"338","","bandit","213","928968","0.0-174.0-0.0","90777428","wem/bandit_either","A2KLJKDG90K1PP","either","7","","","","","","","0","0","1","0.311914316","","0.6","0.4","0.8","0.2","","","","","0.2198641054","0.3268624306","0.311914316","0.1614798668","","","","","","","75","K","2","","","135","main_expt"
"821","","bandit","214","931313","0.0-175.0-0.0","90777428","wem/bandit_either","A2KLJKDG90K1PP","either","7","","","","","","","0","0","1","0.2653901568","","0.6","0.4","0.8","0.2","","","","","0.2504132697","0.2854606769","0.2653901568","0.1880386222","","","","","","","75","K","2","","","136","main_expt"
"329","","bandit","215","933159","0.0-176.0-0.0","90777428","wem/bandit_either","A2KLJKDG90K1PP","either","7","","","","","","","0","0","1","","0.2413295316","0.6","0.4","0.8","0.2","0.1912230989","0.3311747399","0.2413295316","0.1961818793","","","","","","","","","","","75","K","2","","","137","main_expt"
"313","","bandit","216","934990","0.0-177.0-0.0","90777428","wem/bandit_either","A2KLJKDG90K1PP","either","7","","","","","","","1","0","0","0.2857678963","","0.6","0.4","0.8","0.2","","","","","0.1576256809","0.2570785188","0.2060295423","0.2857678963","","","","","","","76","L","3","","","138","main_expt"
"394","","bandit","217","936908","0.0-178.0-0.0","90777428","wem/bandit_either","A2KLJKDG90K1PP","either","7","","","","","","","0","0","1","","0.3449131854","0.6","0.4","0.8","0.2","0.1019788138","0.2858060749","0.1809645164","0.3449131854","","","","","","","","","","","76","L","3","","","139","main_expt"
"89","","bandit","218","938521","0.0-179.0-0.0","90777428","wem/bandit_either","A2KLJKDG90K1PP","either","7","","","","","","","0","0","1","0.2537716732","","0.6","0.4","0.8","0.2","","","","","0.07754087054","0.2975559752","0.1843216893","0.2537716732","","","","","","","76","L","3","","","140","main_expt"
"299","","bandit","219","940359","0.0-180.0-0.0","90777428","wem/bandit_either","A2KLJKDG90K1PP","either","7","","","","","","","0","0","1","","0.2858111263","0.6","0.4","0.8","0.2","0.09489610577","0.2802168405","0.1651876155","0.2858111263","","","","","","","","","","","76","L","3","","","141","main_expt"
"110","","bandit","220","941986","0.0-181.0-0.0","90777428","wem/bandit_either","A2KLJKDG90K1PP","either","7","","","","","","","0","0","1","0.2231986748","","0.6","0.4","0.8","0.2","","","","","0.09601428546","0.2231986748","0.1536427928","0.303049367","","","","","","","74","J","1","","","142","main_expt"
"310","","bandit","221","943825","0.0-182.0-0.0","90777428","wem/bandit_either","A2KLJKDG90K1PP","either","7","","","","","","","0","0","1","","0.2032880393","0.6","0.4","0.8","0.2","0.08301142993","0.2032880393","0.1546140226","0.2969419413","","","","","","","","","","","74","J","1","","","143","main_expt"
"2","","bandit","222","945341","0.0-183.0-0.0","90777428","wem/bandit_either","A2KLJKDG90K1PP","either","7","","","","","","","0","0","1","","0.1967741464","0.6","0.4","0.8","0.2","0.09599686985","0.1967741464","0.1746031107","0.3128690494","","","","","","","","","","","74","J","1","","","144","main_expt"
"322","","bandit","223","947194","0.0-184.0-0.0","90777428","wem/bandit_either","A2KLJKDG90K1PP","either","7","","","","","","","0","0","1","","0.07499383622","0.6","0.4","0.8","0.2","0.07499383622","0.2283154954","0.2021387556","0.2991796355","","","","","","","","","","","72","H","0","img/none_selected.jpg","","145","main_expt"
"110","","bandit","224","948822","0.0-185.0-0.0","90777428","wem/bandit_either","A2KLJKDG90K1PP","either","7","","","","","","","0","0","1","","0.2118700154","0.6","0.4","0.8","0.2","0.09566861","0.2118700154","0.2504344391","0.3163763193","","","","","","","","","","","74","J","1","","","146","main_expt"
"322","","bandit","225","950663","0.0-186.0-0.0","90777428","wem/bandit_either","A2KLJKDG90K1PP","either","7","","","","","","","0","0","1","","0.210437557","0.6","0.4","0.8","0.2","0.08578591382","0.210437557","0.2437718569","0.3198025905","","","","","","","","","","","74","J","1","","","147","main_expt"
"83","","bandit","226","952287","0.0-187.0-0.0","90777428","wem/bandit_either","A2KLJKDG90K1PP","either","7","","","","","","","0","0","1","","0.2370661354","0.6","0.4","0.8","0.2","0.1147887709","0.2370661354","0.2446677265","0.2588245921","","","","","","","","","","","74","J","1","","","148","main_expt"
"592","","bandit","227","954407","0.0-188.0-0.0","90777428","wem/bandit_either","A2KLJKDG90K1PP","either","7","","","","","","","1","0","0","0.2911002833","","0.6","0.4","0.8","0.2","","","","","0.1378203382","0.2430363771","0.2911002833","0.248712437","","","","","","","75","K","2","","","149","main_expt"
"317","","bandit","228","956242","0.0-189.0-0.0","90777428","wem/bandit_either","A2KLJKDG90K1PP","either","7","","","","","","","0","1","0","","0.3529655025","0.6","0.4","0.8","0.2","0.1414499273","0.2242182381","0.3529655025","0.179144869","","","","","","","","","","","75","K","2","","","150","main_expt"
"349","","bandit","229","958138","0.0-190.0-0.0","90777428","wem/bandit_either","A2KLJKDG90K1PP","either","7","","","","","","","1","0","0","0.3885741111","","0.6","0.4","0.8","0.2","","","","","0.07852348772","0.1997145133","0.3885741111","0.1545669956","","","","","","","75","K","2","","","151","main_expt"
"291","","bandit","230","959959","0.0-191.0-0.0","90777428","wem/bandit_either","A2KLJKDG90K1PP","either","7","","","","","","","0","0","1","","0.3690499696","0.6","0.4","0.8","0.2","0.08485793113","0.2195927633","0.3690499696","0.1651714415","","","","","","","","","","","75","K","2","","","152","main_expt"
"167","","bandit","231","961654","0.0-192.0-0.0","90777428","wem/bandit_either","A2KLJKDG90K1PP","either","7","","","","","","","0","0","1","","0.3710492515","0.6","0.4","0.8","0.2","0.1083789561","0.2121816628","0.3710492515","0.2396245514","","","","","","","","","","","75","K","2","","","153","main_expt"
"220","","bandit","232","963404","0.0-193.0-0.0","90777428","wem/bandit_either","A2KLJKDG90K1PP","either","7","","","","","","","0","0","1","","0.3483335413","0.6","0.4","0.8","0.2","0.109098481","0.1830588608","0.3483335413","0.2085838567","","","","","","","","","","","75","K","2","","","154","main_expt"
"3","","bandit","233","965568","0.0-194.0-0.0","90777428","wem/bandit_either","A2KLJKDG90K1PP","either","7","","","","","","","0","0","1","0.3343760247","","0.6","0.4","0.8","0.2","","","","","0.1758262092","0.2031423662","0.3343760247","0.1864274254","","","","","","","75","K","2","","","155","main_expt"
"486","","bandit","234","967569","0.0-195.0-0.0","90777428","wem/bandit_either","A2KLJKDG90K1PP","either","7","","","","","","","0","1","0","","0.3742013553","0.6","0.4","0.8","0.2","0.2046597001","0.2022731065","0.3742013553","0.1750870897","","","","","","","","","","","75","K","2","","","156","main_expt"
"386","","bandit","235","969748","0.0-196.0-0.0","90777428","wem/bandit_either","A2KLJKDG90K1PP","either","7","","","","","","","1","0","0","0.3620366094","","0.6","0.4","0.8","0.2","","","","","0.1774751899","0.1826661219","0.3620366094","0.1321985386","","","","","","","75","K","2","","","157","main_expt"
"225","","bandit","236","971501","0.0-197.0-0.0","90777428","wem/bandit_either","A2KLJKDG90K1PP","either","7","","","","","","","1","0","0","0.3671714071","","0.6","0.4","0.8","0.2","","","","","0.1612033886","0.1658993888","0.3671714071","0.1341899746","","","","","","","75","K","2","","","158","main_expt"
"412","","bandit","237","973441","0.0-198.0-0.0","90777428","wem/bandit_either","A2KLJKDG90K1PP","either","7","","","","","","","0","0","1","0.4015988616","","0.6","0.4","0.8","0.2","","","","","0.1586838935","0.1620079643","0.4015988616","0.1567784951","","","","","","","75","K","2","","","159","main_expt"
"337","","bandit","238","975305","0.0-199.0-0.0","90777428","wem/bandit_either","A2KLJKDG90K1PP","either","7","","","","","","","0","0","1","0.4004877553","","0.6","0.4","0.8","0.2","","","","","0.2159944071","0.2453635642","0.4004877553","0.1615549635","","","","","","","75","K","2","","","160","main_expt"
"421","","bandit","239","977256","0.0-200.0-0.0","90777428","wem/bandit_either","A2KLJKDG90K1PP","either","7","","","","","","","0","0","1","0.4095849454","","0.6","0.4","0.8","0.2","","","","","0.2105769377","0.2456373749","0.4095849454","0.1854631015","","","","","","","75","K","2","","","161","main_expt"
"358","","bandit","240","979168","0.0-201.0-0.0","90777428","wem/bandit_either","A2KLJKDG90K1PP","either","7","","","","","","","0","0","1","0.3978002783","","0.6","0.4","0.8","0.2","","","","","0.2006925765","0.2460125232","0.3978002783","0.21229469","","","","","","","75","K","2","","","162","main_expt"
"303","","bandit","241","980992","0.0-202.0-0.0","90777428","wem/bandit_either","A2KLJKDG90K1PP","either","7","","","","","","","0","0","1","0.4180552148","","0.6","0.4","0.8","0.2","","","","","0.2365124807","0.2013568893","0.4180552148","0.162194177","","","","","","","75","K","2","","","163","main_expt"
"348","","bandit","242","982865","0.0-203.0-0.0","90777428","wem/bandit_either","A2KLJKDG90K1PP","either","7","","","","","","","0","0","1","","0.1535707797","0.6","0.4","0.8","0.2","0.2157370886","0.1933595846","0.4407560021","0.1535707797","","","","","","","","","","","76","L","3","","","164","main_expt"
"362","","bandit","243","985186","0.0-204.0-0.0","90777428","wem/bandit_either","A2KLJKDG90K1PP","either","7","","","","","","","0","1","0","","0.2315934193","0.6","0.4","0.8","0.2","0.2166787898","0.167552211","0.4582960521","0.2315934193","","","","","","","","","","","76","L","3","","","165","main_expt"
"271","","bandit","244","986972","0.0-205.0-0.0","90777428","wem/bandit_either","A2KLJKDG90K1PP","either","7","","","","","","","0","0","1","","0.2579087381","0.6","0.4","0.8","0.2","0.1846262972","0.1311237951","0.4337500892","0.2579087381","","","","","","","","","","","76","L","3","","","166","main_expt"
"341","","bandit","245","988828","0.0-206.0-0.0","90777428","wem/bandit_either","A2KLJKDG90K1PP","either","7","","","","","","","0","0","1","","0.2496457694","0.6","0.4","0.8","0.2","0.1888750078","0.1714029316","0.4537582576","0.2496457694","","","","","","","","","","","76","L","3","","","167","main_expt"
"892","","bandit","246","991251","0.0-207.0-0.0","90777428","wem/bandit_either","A2KLJKDG90K1PP","either","7","","","","","","","0","0","1","0.234558796","","0.6","0.4","0.8","0.2","","","","","0.2315683769","0.1494402723","0.4473485534","0.234558796","","","","","","","76","L","3","","","168","main_expt"
"300","","bandit","247","993078","0.0-208.0-0.0","90777428","wem/bandit_either","A2KLJKDG90K1PP","either","7","","","","","","","0","0","1","0.4471591033","","0.6","0.4","0.8","0.2","","","","","0.2018123945","0.1819888556","0.4471591033","0.2458600006","","","","","","","75","K","2","","","169","main_expt"
"318","","bandit","248","994926","0.0-209.0-0.0","90777428","wem/bandit_either","A2KLJKDG90K1PP","either","7","","","","","","","1","0","0","0.2329206984","","0.6","0.4","0.8","0.2","","","","","0.139238222","0.2329206984","0.4581839475","0.2214583157","","","","","","","74","J","1","","","170","main_expt"
"306","","bandit","249","996748","0.0-210.0-0.0","90777428","wem/bandit_either","A2KLJKDG90K1PP","either","7","","","","","","","0","0","1","","0.2000607923","0.6","0.4","0.8","0.2","0.1466511374","0.2000607923","0.4674995421","0.296208115","","","","","","","","","","","74","J","1","","","171","main_expt"
"418","","bandit","250","998698","0.0-211.0-0.0","90777428","wem/bandit_either","A2KLJKDG90K1PP","either","7","","","","","","","0","0","1","","0.2342957318","0.6","0.4","0.8","0.2","0.1348290388","0.2342957318","0.4455620345","0.3062379281","","","","","","","","","","","74","J","1","","","172","main_expt"
"661","","bandit","251","1000894","0.0-212.0-0.0","90777428","wem/bandit_either","A2KLJKDG90K1PP","either","7","","","","","","","1","0","0","0.2189308077","","0.6","0.4","0.8","0.2","","","","","0.1521691919","0.2189308077","0.4471610379","0.2498067723","","","","","","","74","J","1","","","173","main_expt"
"251","","bandit","252","1002677","0.0-213.0-0.0","90777428","wem/bandit_either","A2KLJKDG90K1PP","either","7","","","","","","","0","0","1","","0.2373932689","0.6","0.4","0.8","0.2","0.2191935525","0.2373932689","0.4496576915","0.1803522277","","","","","","","","","","","74","J","1","","","174","main_expt"
"154","","bandit","253","1004385","0.0-214.0-0.0","90777428","wem/bandit_either","A2KLJKDG90K1PP","either","7","","","","","","","0","0","1","","0.2160264752","0.6","0.4","0.8","0.2","0.219961305","0.2160264752","0.4715297358","0.2014319342","","","","","","","","","","","74","J","1","","","175","main_expt"
"610","","bandit","254","1006514","0.0-215.0-0.0","90777428","wem/bandit_either","A2KLJKDG90K1PP","either","7","","","","","","","0","0","1","","0.1990604306","0.6","0.4","0.8","0.2","0.1882485239","0.1990604306","0.477956151","0.2122003168","","","","","","","","","","","74","J","1","","","176","main_expt"
"746","","bandit","255","1008778","0.0-216.0-0.0","90777428","wem/bandit_either","A2KLJKDG90K1PP","either","7","","","","","","","0","0","1","0.1729978196","","0.6","0.4","0.8","0.2","","","","","0.1644902553","0.1729978196","0.4563721206","0.2629069455","","","","","","","74","J","1","","","177","main_expt"
"200","","bandit","256","1010499","0.0-217.0-0.0","90777428","wem/bandit_either","A2KLJKDG90K1PP","either","7","","","","","","","0","1","0","","0.1633080779","0.6","0.4","0.8","0.2","0.1713669852","0.1633080779","0.4409869931","0.2336104206","","","","","","","","","","","74","J","1","","","178","main_expt"
"326","","bandit","257","1012353","0.0-218.0-0.0","90777428","wem/bandit_either","A2KLJKDG90K1PP","either","7","","","","","","","0","1","0","","0.1243251356","0.6","0.4","0.8","0.2","0.2263400462","0.1243251356","0.4243126063","0.1887504226","","","","","","","","","","","74","J","1","","","179","main_expt"
"325","","bandit","258","1014203","0.0-219.0-0.0","90777428","wem/bandit_either","A2KLJKDG90K1PP","either","7","","","","","","","0","0","1","0.1150149055","","0.6","0.4","0.8","0.2","","","","","0.2036870175","0.1150149055","0.4312830743","0.138376641","","","","","","","74","J","1","","","180","main_expt"
"306","","bandit","259","1016029","0.0-220.0-0.0","90777428","wem/bandit_either","A2KLJKDG90K1PP","either","7","","","","","","","1","0","0","0.1407924877","","0.6","0.4","0.8","0.2","","","","","0.1934599198","0.1407924877","0.4433127893","0.1883992559","","","","","","","74","J","1","","","181","main_expt"
"307","","bandit","260","1017856","0.0-221.0-0.0","90777428","wem/bandit_either","A2KLJKDG90K1PP","either","7","","","","","","","0","0","1","0.09672650852","","0.6","0.4","0.8","0.2","","","","","0.2424515525","0.09672650852","0.440136403","0.128889003","","","","","","","74","J","1","","","182","main_expt"
"356","","bandit","261","1019727","0.0-222.0-0.0","90777428","wem/bandit_either","A2KLJKDG90K1PP","either","7","","","","","","","1","0","0","0.09888002855","","0.6","0.4","0.8","0.2","","","","","0.1961777535","0.09888002855","0.4347693449","0.1748769843","","","","","","","74","J","1","","","183","main_expt"
"181","","bandit","262","1021430","0.0-223.0-0.0","90777428","wem/bandit_either","A2KLJKDG90K1PP","either","7","","","","","","","0","0","1","","0.07200145298","0.6","0.4","0.8","0.2","0.1489283113","0.07200145298","0.4277130926","0.1945994373","","","","","","","","","","","74","J","1","","","184","main_expt"
"86","","bandit","263","1023049","0.0-224.0-0.0","90777428","wem/bandit_either","A2KLJKDG90K1PP","either","7","","","","","","","0","0","1","","0.09476413333","0.6","0.4","0.8","0.2","0.1499965078","0.09476413333","0.3956248437","0.1644748654","","","","","","","","","","","74","J","1","","","185","main_expt"
"47","","bandit","264","1024622","0.0-225.0-0.0","90777428","wem/bandit_either","A2KLJKDG90K1PP","either","7","","","","","","","0","0","1","","0.06556422103","0.6","0.4","0.8","0.2","0.2169832988","0.06556422103","0.3748928266","0.1504635592","","","","","","","","","","","74","J","1","","","186","main_expt"
"1044","","bandit","265","1027193","0.0-226.0-0.0","90777428","wem/bandit_either","A2KLJKDG90K1PP","either","7","","","","","","","0","1","0","","0.08901149072","0.6","0.4","0.8","0.2","0.2655186329","0.08901149072","0.3848139325","0.1760039214","","","","","","","","","","","74","J","1","","","187","main_expt"
"810","","bandit","266","1029743","0.0-227.0-0.0","90777428","wem/bandit_either","A2KLJKDG90K1PP","either","7","","","","","","","0","0","1","0.09471428588","","0.6","0.4","0.8","0.2","","","","","0.2738785118","0.09471428588","0.3990176401","0.1203267588","","","","","","","74","J","1","","","188","main_expt"
"993","","bandit","267","1032254","0.0-228.0-0.0","90777428","wem/bandit_either","A2KLJKDG90K1PP","either","7","","","","","","","0","0","1","0.05118235823","","0.6","0.4","0.8","0.2","","","","","0.3041874674","0.05118235823","0.3581396838","0.1171540391","","","","","","","74","J","1","","","189","main_expt"
"1051","","bandit","268","1034823","0.0-229.0-0.0","90777428","wem/bandit_either","A2KLJKDG90K1PP","either","7","","","","","","","0","0","1","","0.2882972244","0.6","0.4","0.8","0.2","0.3229453735","0.05788318751","0.2882972244","0.1535230761","","","","","","","","","","","75","K","2","","","190","main_expt"
"727","","bandit","269","1037067","0.0-230.0-0.0","90777428","wem/bandit_either","A2KLJKDG90K1PP","either","7","","","","","","","0","0","1","0.3145326233","","0.6","0.4","0.8","0.2","","","","","0.3818249757","0.08736915481","0.3145326233","0.1372750947","","","","","","","75","K","2","","","191","main_expt"
"322","","bandit","270","1038926","0.0-231.0-0.0","90777428","wem/bandit_either","A2KLJKDG90K1PP","either","7","","","","","","","1","0","0","0.3270603702","","0.6","0.4","0.8","0.2","","","","","0.4157726243","0.08251019118","0.3270603702","0.1047771501","","","","","","","75","K","2","","","192","main_expt"
"410","","bandit","271","1040853","0.0-232.0-0.0","90777428","wem/bandit_either","A2KLJKDG90K1PP","either","7","","","","","","","1","0","0","0.3604030797","","0.6","0.4","0.8","0.2","","","","","0.4611608212","0.06897628064","0.3604030797","0.1100845432","","","","","","","75","K","2","","","193","main_expt"
"299","","bandit","272","1042679","0.0-233.0-0.0","90777428","wem/bandit_either","A2KLJKDG90K1PP","either","7","","","","","","","0","0","1","0.357423186","","0.6","0.4","0.8","0.2","","","","","0.4508818777","0.06801266305","0.357423186","0.1468163818","","","","","","","75","K","2","","","194","main_expt"
"331","","bandit","273","1044540","0.0-234.0-0.0","90777428","wem/bandit_either","A2KLJKDG90K1PP","either","7","","","","","","","0","0","1","0.3697779856","","0.6","0.4","0.8","0.2","","","","","0.4278921451","0.09923709358","0.3697779856","0.1495594621","","","","","","","75","K","2","","","195","main_expt"
"384","","bandit","274","1046461","0.0-235.0-0.0","90777428","wem/bandit_either","A2KLJKDG90K1PP","either","7","","","","","","","1","0","0","0.3617177512","","0.6","0.4","0.8","0.2","","","","","0.4256293003","0.1103063831","0.3617177512","0.2263220537","","","","","","","75","K","2","","","196","main_expt"
"307","","bandit","275","1048288","0.0-236.0-0.0","90777428","wem/bandit_either","A2KLJKDG90K1PP","either","7","","","","","","","0","0","1","0.3775990084","","0.6","0.4","0.8","0.2","","","","","0.4476975038","0.07377144043","0.3775990084","0.2204718804","","","","","","","75","K","2","","","197","main_expt"
"604","","bandit","276","1050428","0.0-237.0-0.0","90777428","wem/bandit_either","A2KLJKDG90K1PP","either","7","","","","","","","0","1","0","","0.4144042571","0.6","0.4","0.8","0.2","0.4434357272","0.08863448313","0.4144042571","0.2401118457","","","","","","","","","","","75","K","2","","","198","main_expt"
"657","","bandit","277","1052631","0.0-238.0-0.0","90777428","wem/bandit_either","A2KLJKDG90K1PP","either","7","","","","","","","0","1","0","","0.4081775392","0.6","0.4","0.8","0.2","0.4245114622","0.1082179128","0.4081775392","0.2673724497","","","","","","","","","","","75","K","2","","","199","main_expt"
"343","","bandit","278","1054511","0.0-239.0-0.0","90777428","wem/bandit_either","A2KLJKDG90K1PP","either","7","","","","","","","1","0","0","0.4166156547","","0.6","0.4","0.8","0.2","","","","","0.4087100315","0.09350688576","0.4166156547","0.3125307902","","","","","","","75","K","2","","","200","main_expt"
"330","","bandit","279","1056360","0.0-240.0-0.0","90777428","wem/bandit_either","A2KLJKDG90K1PP","either","7","","","","","","","0","0","1","0.4306537176","","0.6","0.4","0.8","0.2","","","","","0.4361521275","0.1036625099","0.4306537176","0.2914574258","","","","","","","75","K","2","","","201","main_expt"
"664","","bandit","280","1058557","0.0-241.0-0.0","90777428","wem/bandit_either","A2KLJKDG90K1PP","either","7","","","","","","","0","1","0","","0.449382563","0.6","0.4","0.8","0.2","0.3332596158","0.1216733889","0.449382563","0.2550600684","","","","","","","","","","","75","K","2","","","202","main_expt"
"695","","bandit","281","1060780","0.0-242.0-0.0","90777428","wem/bandit_either","A2KLJKDG90K1PP","either","7","","","","","","","0","0","1","0.4506576586","","0.6","0.4","0.8","0.2","","","","","0.3581848779","0.120655788","0.4506576586","0.2769745997","","","","","","","75","K","2","","","203","main_expt"
"458","","bandit","282","1062772","0.0-243.0-0.0","90777428","wem/bandit_either","A2KLJKDG90K1PP","either","7","","","","","","","0","0","1","0.454839243","","0.6","0.4","0.8","0.2","","","","","0.3597133043","0.1082970726","0.454839243","0.2752990059","","","","","","","75","K","2","","","204","main_expt"
"943","","bandit","283","1065245","0.0-244.0-0.0","90777428","wem/bandit_either","A2KLJKDG90K1PP","either","7","","","","","","","1","0","0","0.4512889682","","0.6","0.4","0.8","0.2","","","","","0.3630183988","0.09143681274","0.4512889682","0.2901512169","","","","","","","75","K","2","","","205","main_expt"
"434","","bandit","284","1067206","0.0-245.0-0.0","90777428","wem/bandit_either","A2KLJKDG90K1PP","either","7","","","","","","","0","1","0","","0.4591490044","0.6","0.4","0.8","0.2","0.3737494834","0.08377413986","0.4591490044","0.2823763913","","","","","","","","","","","75","K","2","","","206","main_expt"
"532","","bandit","285","1069259","0.0-246.0-0.0","90777428","wem/bandit_either","A2KLJKDG90K1PP","either","7","","","","","","","1","0","0","0.4650593633","","0.6","0.4","0.8","0.2","","","","","0.3668784438","0.1585073664","0.4650593633","0.2708062506","","","","","","","75","K","2","","","207","main_expt"
"325","","bandit","286","1071101","0.0-247.0-0.0","90777428","wem/bandit_either","A2KLJKDG90K1PP","either","7","","","","","","","0","0","1","","0.4641513068","0.6","0.4","0.8","0.2","0.4045351895","0.162299901","0.4641513068","0.2641553663","","","","","","","","","","","75","K","2","","","208","main_expt"
"666","","bandit","287","1073313","0.0-248.0-0.0","90777428","wem/bandit_either","A2KLJKDG90K1PP","either","7","","","","","","","0","0","1","0.4567807332","","0.6","0.4","0.8","0.2","","","","","0.4402386934","0.1542266077","0.4567807332","0.2704675845","","","","","","","75","K","2","","","209","main_expt"
"243","","bandit","288","1075087","0.0-249.0-0.0","90777428","wem/bandit_either","A2KLJKDG90K1PP","either","7","","","","","","","0","1","0","","0.428253188","0.6","0.4","0.8","0.2","0.4483623408","0.1890415559","0.428253188","0.3420868926","","","","","","","","","","","75","K","2","","","210","main_expt"
"39","","bandit","289","1076648","0.0-250.0-0.0","90777428","wem/bandit_either","A2KLJKDG90K1PP","either","7","","","","","","","0","0","1","0.410271385","","0.6","0.4","0.8","0.2","","","","","0.4471415093","0.1818133019","0.410271385","0.3069688952","","","","","","","75","K","2","","","211","main_expt"
"220","","bandit","290","1078428","0.0-251.0-0.0","90777428","wem/bandit_either","A2KLJKDG90K1PP","either","7","","","","","","","1","0","0","0.4065587724","","0.6","0.4","0.8","0.2","","","","","0.4374655127","0.1782747956","0.4065587724","0.3005379093","","","","","","","75","K","2","","","212","main_expt"
"293","","bandit","291","1080247","0.0-252.0-0.0","90777428","wem/bandit_either","A2KLJKDG90K1PP","either","7","","","","","","","0","0","1","0.4007116542","","0.6","0.4","0.8","0.2","","","","","0.4381457257","0.1935195711","0.4007116542","0.213882915","","","","","","","75","K","2","","","213","main_expt"
"618","","bandit","292","1082398","0.0-253.0-0.0","90777428","wem/bandit_either","A2KLJKDG90K1PP","either","7","","","","","","","0","0","1","0.4246209323","","0.6","0.4","0.8","0.2","","","","","0.4643769008","0.2421176173","0.4246209323","0.2138557204","","","","","","","75","K","2","","","214","main_expt"
"532","","bandit","293","1084463","0.0-254.0-0.0","90777428","wem/bandit_either","A2KLJKDG90K1PP","either","7","","","","","","","1","0","0","0.3993057066","","0.6","0.4","0.8","0.2","","","","","0.4328812357","0.2629876012","0.3993057066","0.2142566612","","","","","","","75","K","2","","","215","main_expt"
"604","","bandit","294","1086602","0.0-255.0-0.0","90777428","wem/bandit_either","A2KLJKDG90K1PP","either","7","","","","","","","0","1","0","","0.3987772474","0.6","0.4","0.8","0.2","0.4064507999","0.2977714141","0.3987772474","0.1900351118","","","","","","","","","","","75","K","2","","","216","main_expt"
"654","","bandit","295","1088788","0.0-256.0-0.0","90777428","wem/bandit_either","A2KLJKDG90K1PP","either","7","","","","","","","0","0","1","0.4101433534","","0.6","0.4","0.8","0.2","","","","","0.4197961641","0.3017601552","0.4101433534","0.2185169477","","","","","","","75","K","2","","","217","main_expt"
"748","","bandit","296","1091072","0.0-257.0-0.0","90777428","wem/bandit_either","A2KLJKDG90K1PP","either","7","","","","","","","0","0","1","0.4448029092","","0.6","0.4","0.8","0.2","","","","","0.4167397569","0.2888566207","0.4448029092","0.2240895604","","","","","","","75","K","2","","","218","main_expt"
"748","","bandit","297","1093354","0.0-258.0-0.0","90777428","wem/bandit_either","A2KLJKDG90K1PP","either","7","","","","","","","0","0","1","0.4454766299","","0.6","0.4","0.8","0.2","","","","","0.4250944588","0.2844008008","0.4454766299","0.1990808675","","","","","","","75","K","2","","","219","main_expt"
"757","","bandit","298","1095647","0.0-259.0-0.0","90777428","wem/bandit_either","A2KLJKDG90K1PP","either","7","","","","","","","0","1","0","","0.4610997771","0.6","0.4","0.8","0.2","0.4173336587","0.2225062479","0.4610997771","0.266602996","","","","","","","","","","","75","K","2","","","220","main_expt"
"610","","bandit","299","1097791","0.0-260.0-0.0","90777428","wem/bandit_either","A2KLJKDG90K1PP","either","7","","","","","","","0","0","1","0.4642289789","","0.6","0.4","0.8","0.2","","","","","0.3944711005","0.2409900116","0.4642289789","0.2443661227","","","","","","","75","K","2","","","221","main_expt"
"659","","bandit","300","1099970","0.0-261.0-0.0","90777428","wem/bandit_either","A2KLJKDG90K1PP","either","7","","","","","","","1","0","0","0.4641270597","","0.6","0.4","0.8","0.2","","","","","0.3619306912","0.1989678636","0.4641270597","0.2205922116","","","","","","","75","K","2","","","222","main_expt"
"519","","bandit","301","1102026","0.0-262.0-0.0","90777428","wem/bandit_either","A2KLJKDG90K1PP","either","7","","","","","","","1","0","0","0.4697433819","","0.6","0.4","0.8","0.2","","","","","0.4117842179","0.1902867071","0.4697433819","0.1861223506","","","","","","","75","K","2","","","223","main_expt"
"537","","bandit","302","1104093","0.0-263.0-0.0","90777428","wem/bandit_either","A2KLJKDG90K1PP","either","7","","","","","","","1","0","0","0.460898083","","0.6","0.4","0.8","0.2","","","","","0.3965092367","0.2076415522","0.460898083","0.1668884863","","","","","","","75","K","2","","","224","main_expt"
"1138","","bandit","303","1106761","0.0-264.0-0.0","90777428","wem/bandit_either","A2KLJKDG90K1PP","either","7","","","","","","","1","0","0","0.4394890665","","0.6","0.4","0.8","0.2","","","","","0.4084477862","0.2393469174","0.4394890665","0.1481472712","","","","","","","75","K","2","","","225","main_expt"
"318","","bandit","304","1108598","0.0-265.0-0.0","90777428","wem/bandit_either","A2KLJKDG90K1PP","either","7","","","","","","","0","0","1","0.4520955237","","0.6","0.4","0.8","0.2","","","","","0.4104601526","0.2425440376","0.4520955237","0.1140846591","","","","","","","75","K","2","","","226","main_expt"
"1139","","bandit","305","1111275","0.0-266.0-0.0","90777428","wem/bandit_either","A2KLJKDG90K1PP","either","7","","","","","","","0","0","1","0.4324220164","","0.6","0.4","0.8","0.2","","","","","0.3899733519","0.2365603363","0.4324220164","0.1074218354","","","","","","","75","K","2","","","227","main_expt"
"1049","","bandit","306","1113856","0.0-267.0-0.0","90777428","wem/bandit_either","A2KLJKDG90K1PP","either","7","","","","","","","0","1","0","","0.4220482421","0.6","0.4","0.8","0.2","0.3796730737","0.2127958296","0.4220482421","0.08065165665","","","","","","","","","","","75","K","2","","","228","main_expt"
"493","","bandit","307","1115872","0.0-268.0-0.0","90777428","wem/bandit_either","A2KLJKDG90K1PP","either","7","","","","","","","1","0","0","0.3885749154","","0.6","0.4","0.8","0.2","","","","","0.4046866514","0.2207861463","0.3885749154","0.07774059362","","","","","","","75","K","2","","","229","main_expt"
"319","","bandit","308","1117721","0.0-269.0-0.0","90777428","wem/bandit_either","A2KLJKDG90K1PP","either","7","","","","","","","0","0","1","0.4023755806","","0.6","0.4","0.8","0.2","","","","","0.3988793555","0.2589226453","0.4023755806","0.1109483114","","","","","","","75","K","2","","","230","main_expt"
"386","","bandit","309","1119642","0.0-270.0-0.0","90777428","wem/bandit_either","A2KLJKDG90K1PP","either","7","","","","","","","1","0","0","0.3768725222","","0.6","0.4","0.8","0.2","","","","","0.3981898202","0.2956158432","0.3768725222","0.05902300203","","","","","","","75","K","2","","","231","main_expt"
"445","","bandit","310","1121632","0.0-271.0-0.0","90777428","wem/bandit_either","A2KLJKDG90K1PP","either","7","","","","","","","0","0","1","0.3619917427","","0.6","0.4","0.8","0.2","","","","","0.4411941832","0.3202484073","0.3619917427","0.06675855664","","","","","","","75","K","2","","","232","main_expt"
"612","","bandit","311","1123775","0.0-272.0-0.0","90777428","wem/bandit_either","A2KLJKDG90K1PP","either","7","","","","","","","0","0","1","0.3833578816","","0.6","0.4","0.8","0.2","","","","","0.42967461","0.2933644042","0.3833578816","0.06703699679","","","","","","","75","K","2","","","233","main_expt"
"636","","bandit","312","1125943","0.0-273.0-0.0","90777428","wem/bandit_either","A2KLJKDG90K1PP","either","7","","","","","","","0","0","1","0.05331023031","","0.6","0.4","0.8","0.2","","","","","0.4242798354","0.3106154811","0.3552131768","0.05331023031","","","","","","","76","L","3","","","234","main_expt"
"494","","bandit","313","1127955","0.0-274.0-0.0","90777428","wem/bandit_either","A2KLJKDG90K1PP","either","7","","","","","","","0","0","1","","0.05187545802","0.6","0.4","0.8","0.2","0.4617388459","0.3158990995","0.3135084543","0.05187545802","","","","","","","","","","","76","L","3","","","235","main_expt"
"341","","bandit","314","1129833","0.0-275.0-0.0","90777428","wem/bandit_either","A2KLJKDG90K1PP","either","7","","","","","","","0","0","1","","0.06939909985","0.6","0.4","0.8","0.2","0.4619510484","0.3036927748","0.244945467","0.06939909985","","","","","","","","","","","76","L","3","","","236","main_expt"
"387","","bandit","315","1131737","0.0-276.0-0.0","90777428","wem/bandit_either","A2KLJKDG90K1PP","either","7","","","","","","","0","1","0","","0.3491021326","0.6","0.4","0.8","0.2","0.4482398789","0.3491021326","0.1823839079","0.1210409879","","","","","","","","","","","74","J","1","","","237","main_expt"
"549","","bandit","316","1133825","0.0-277.0-0.0","90777428","wem/bandit_either","A2KLJKDG90K1PP","either","7","","","","","","","0","1","0","","0.3939254097","0.6","0.4","0.8","0.2","0.4193969143","0.3939254097","0.1685050226","0.1147840357","","","","","","","","","","","74","J","1","","","238","main_expt"
"348","","bandit","317","1135706","0.0-278.0-0.0","90777428","wem/bandit_either","A2KLJKDG90K1PP","either","7","","","","","","","0","0","1","","0.379108978","0.6","0.4","0.8","0.2","0.4203848948","0.379108978","0.1606472637","0.1006463842","","","","","","","","","","","74","J","1","","","239","main_expt"
"860","","bandit","318","1138085","0.0-279.0-0.0","90777428","wem/bandit_either","A2KLJKDG90K1PP","either","7","","","","","","","0","1","0","","0.3876209848","0.6","0.4","0.8","0.2","0.4489383263","0.3876209848","0.1512795466","0.1008771133","","","","","","","","","","","74","J","1","","","240","main_expt"
"794","","bandit","319","1140414","0.0-280.0-0.0","90777428","wem/bandit_either","A2KLJKDG90K1PP","either","7","","","","","","","1","0","0","0.3839625774","","0.6","0.4","0.8","0.2","","","","","0.4636195567","0.3839625774","0.1916219391","0.09981833296","","","","","","","74","J","1","","","241","main_expt"
"406","","bandit","320","1142342","0.0-281.0-0.0","90777428","wem/bandit_either","A2KLJKDG90K1PP","either","7","","","","","","","0","0","1","0.3477958629","","0.6","0.4","0.8","0.2","","","","","0.4575307695","0.3477958629","0.1641013935","0.1171772993","","","","","","","74","J","1","","","242","main_expt"
"1322","","bandit","321","1145201","0.0-282.0-0.0","90777428","wem/bandit_either","A2KLJKDG90K1PP","either","7","","","","","","","0","0","1","","0.3500658948","0.6","0.4","0.8","0.2","0.4449554393","0.3500658948","0.2064320789","0.1239984651","","","","","","","","","","","74","J","1","","","243","main_expt"
"386","","bandit","322","1147121","0.0-283.0-0.0","90777428","wem/bandit_either","A2KLJKDG90K1PP","either","7","","","","","","","0","0","1","0.2205496082","","0.6","0.4","0.8","0.2","","","","","0.4525763452","0.3452717574","0.2205496082","0.1126152289","","","","","","","75","K","2","","","244","main_expt"
"346","","bandit","323","1149005","0.0-284.0-0.0","90777428","wem/bandit_either","A2KLJKDG90K1PP","either","7","","","","","","","1","0","0","0.214276823","","0.6","0.4","0.8","0.2","","","","","0.4753838692","0.3162288444","0.214276823","0.1524829061","","","","","","","75","K","2","","","245","main_expt"
"496","","bandit","324","1151037","0.0-285.0-0.0","90777428","wem/bandit_either","A2KLJKDG90K1PP","either","7","","","","","","","1","0","0","0.2084567316","","0.6","0.4","0.8","0.2","","","","","0.4623654582","0.2894596967","0.2084567316","0.1921750243","","","","","","","75","K","2","","","246","main_expt"
"783","","bandit","325","1153352","0.0-286.0-0.0","90777428","wem/bandit_either","A2KLJKDG90K1PP","either","7","","","","","","","0","0","1","0.2232303491","","0.6","0.4","0.8","0.2","","","","","0.4331165165","0.2642296388","0.2232303491","0.1931065189","","","","","","","75","K","2","","","247","main_expt"
"102","","bandit","326","1154978","0.0-287.0-0.0","90777428","wem/bandit_either","A2KLJKDG90K1PP","either","7","","","","","","","1","0","0","0.2541796534","","0.6","0.4","0.8","0.2","","","","","0.4401602984","0.2534255255","0.2541796534","0.2189994516","","","","","","","75","K","2","","","248","main_expt"
"907","","bandit","327","1157419","0.0-288.0-0.0","90777428","wem/bandit_either","A2KLJKDG90K1PP","either","7","","","","","","","0","0","1","0.232462199","","0.6","0.4","0.8","0.2","","","","","0.430892824","0.2252980971","0.232462199","0.1989243371","","","","","","","75","K","2","","","249","main_expt"
"478","","bandit","328","1159430","0.0-289.0-0.0","90777428","wem/bandit_either","A2KLJKDG90K1PP","either","7","","","","","","","0","0","1","0.2877664065","","0.6","0.4","0.8","0.2","","","","","0.4282509168","0.298830738","0.2877664065","0.1635706079","","","","","","","75","K","2","","","250","main_expt"
"579","","bandit","329","1161534","0.0-290.0-0.0","90777428","wem/bandit_either","A2KLJKDG90K1PP","either","7","","","","","","","0","0","1","0.2947451014","","0.6","0.4","0.8","0.2","","","","","0.4499649657","0.3113207693","0.2947451014","0.1738575253","","","","","","","75","K","2","","","251","main_expt"
"408","","bandit","330","1163480","0.0-291.0-0.0","90777428","wem/bandit_either","A2KLJKDG90K1PP","either","7","","","","","","","1","0","0","0.2952600368","","0.6","0.4","0.8","0.2","","","","","0.458069626","0.2952600368","0.2581410112","0.1868362494","","","","","","","74","J","1","","","252","main_expt"
"497","","bandit","331","1165515","0.0-292.0-0.0","90777428","wem/bandit_either","A2KLJKDG90K1PP","either","7","","","","","","","0","1","0","","0.2837805879","0.6","0.4","0.8","0.2","0.4419078322","0.2837805879","0.2526573277","0.1888839862","","","","","","","","","","","74","J","1","","","253","main_expt"
"733","","bandit","332","1167779","0.0-293.0-0.0","90777428","wem/bandit_either","A2KLJKDG90K1PP","either","7","","","","","","","0","1","0","","0.2664224025","0.6","0.4","0.8","0.2","0.4374591364","0.2664224025","0.2625272406","0.1763585164","","","","","","","","","","","74","J","1","","","254","main_expt"
"800","","bandit","333","1170104","0.0-294.0-0.0","90777428","wem/bandit_either","A2KLJKDG90K1PP","either","7","","","","","","","0","0","1","","0.2691363883","0.6","0.4","0.8","0.2","0.4296106105","0.2691363883","0.2433387163","0.2068017429","","","","","","","","","","","74","J","1","","","255","main_expt"
