"rt","responses","trial_type","trial_index","time_elapsed","internal_node_id","subjID","study","MID","cond","drift","key_press","expt_phase","target","like","value","connected","respCharCode","respKey","respChoiceNum","respChoice","gems","bombs","no_reward","GemPrChosen","BombPrChosen","practice","trial_counter","WinPr_0","LosePr_0","trial_label","GainOverPainPr_0","LosePr_1","GainOverPainPr_1","WinPr_1","WinPr_2","GainOverPainPr_2","WinPr_3","GainOverPainPr_3","LosePr_2","LosePr_3","Q0","Q1","Q2","gender","age","ethnicity"
"4608","{""Q0"":""A1RJ2LORL5PJHS""}","survey-text","0","4617","0.0-0.0","91251041","wem/bandit_either","A1RJ2LORL5PJHS","either","5","","","","","","","","","","","","","","","","","","","","","","","","","","","","","","","","","","","",""
"19609","","text","1","25229","0.0-1.0","91251041","wem/bandit_either","A1RJ2LORL5PJHS","either","5","32","","","","","","","","","","","","","","","","","","","","","","","","","","","","","","","","","","",""
"9213","","text","2","34444","0.0-2.0","91251041","wem/bandit_either","A1RJ2LORL5PJHS","either","5","32","","","","","","","","","","","","","","","","","","","","","","","","","","","","","","","","","","",""
"39741","","text","3","74186","0.0-3.0","91251041","wem/bandit_either","A1RJ2LORL5PJHS","either","5","32","","","","","","","","","","","","","","","","","","","","","","","","","","","","","","","","","","",""
"20560","","text","4","94748","0.0-4.0","91251041","wem/bandit_either","A1RJ2LORL5PJHS","either","5","32","","","","","","","","","","","","","","","","","","","","","","","","","","","","","","","","","","",""
"16542","","text","5","111291","0.0-5.0","91251041","wem/bandit_either","A1RJ2LORL5PJHS","either","5","32","","","","","","","","","","","","","","","","","","","","","","","","","","","","","","","","","","",""
"8207","","text","6","119499","0.0-6.0","91251041","wem/bandit_either","A1RJ2LORL5PJHS","either","5","32","","","","","","","","","","","","","","","","","","","","","","","","","","","","","","","","","","",""
"8287","","text","7","127787","0.0-7.0","91251041","wem/bandit_either","A1RJ2LORL5PJHS","either","5","32","","","","","","","","","","","","","","","","","","","","","","","","","","","","","","","","","","",""
"18863","","identification","8","146671","0.0-8.0-0.0","91251041","wem/bandit_either","A1RJ2LORL5PJHS","either","5","","identification_pre","the village of Zur","6","6","6","","","","","","","","","","","","","","","","","","","","","","","","","","","","","",""
"8620","","identification","9","156322","0.0-8.0-1.0","91251041","wem/bandit_either","A1RJ2LORL5PJHS","either","5","","identification_pre","the village of Nyx","0","0","0","","","","","","","","","","","","","","","","","","","","","","","","","","","","","",""
"10318","","text","10","167643","0.0-9.0","91251041","wem/bandit_either","A1RJ2LORL5PJHS","either","5","32","","","","","","","","","","","","","","","","","","","","","","","","","","","","","","","","","","",""
"2558","","text","11","170202","0.0-10.0","91251041","wem/bandit_either","A1RJ2LORL5PJHS","either","5","32","","","","","","","","","","","","","","","","","","","","","","","","","","","","","","","","","","",""
"2799","","text","12","173003","0.0-11.0","91251041","wem/bandit_either","A1RJ2LORL5PJHS","either","5","32","","","","","","","","","","","","","","","","","","","","","","","","","","","","","","","","","","",""
"3408","","text","13","176412","0.0-12.0","91251041","wem/bandit_either","A1RJ2LORL5PJHS","either","5","32","","","","","","","","","","","","","","","","","","","","","","","","","","","","","","","","","","",""
"2877","","bandit","14","180797","0.0-13.0-0.0","91251041","wem/bandit_either","A1RJ2LORL5PJHS","either","5","","","","","","","74","J","0","img/none_selected_demo.jpg","0","0","1","0","0","true","0","0","0","","","","","","","","","","","","","","","","",""
"1212","","bandit","15","183527","0.0-14.0-0.0","91251041","wem/bandit_either","A1RJ2LORL5PJHS","either","5","","","","","","","75","K","0","img/none_selected_demo.jpg","0","0","1","0","0","true","0","0","0","","","","","","","","","","","","","","","","",""
"39923","","text","16","223452","0.0-15.0","91251041","wem/bandit_either","A1RJ2LORL5PJHS","either","5","32","","","","","","","","","","","","","","","","","","","","","","","","","","","","","","","","","","",""
"40637","","text","17","264091","0.0-16.0","91251041","wem/bandit_either","A1RJ2LORL5PJHS","either","5","32","","","","","","","","","","","","","","","","","","","","","","","","","","","","","","","","","","",""
"24190","","text","18","288283","0.0-17.0","91251041","wem/bandit_either","A1RJ2LORL5PJHS","either","5","32","","","","","","","","","","","","","","","","","","","","","","","","","","","","","","","","","","",""
"12686","","text","19","300971","0.0-18.0","91251041","wem/bandit_either","A1RJ2LORL5PJHS","either","5","32","","","","","","","","","","","","","","","","","","","","","","","","","","","","","","","","","","",""
"1996","","bandit","20","304480","0.0-19.0-0.0","91251041","wem/bandit_either","A1RJ2LORL5PJHS","either","5","","","","","","","74","J","0","img/none_selected_demo.jpg","0","1","0","","0.8","true","0","","0.8","80_20_practice","0.5","0.2","0.5","","","","","","","","","","","","",""
"1222","","bandit","21","307208","0.0-19.0-1.0","91251041","wem/bandit_either","A1RJ2LORL5PJHS","either","5","","","","","","","75","K","1","","0","0","1","0.2","","true","0","0.8","","80_20_practice","0.5","","0.5","0.2","","","","","","","","","","","",""
"1087","","bandit","22","309800","0.0-19.0-2.0","91251041","wem/bandit_either","A1RJ2LORL5PJHS","either","5","","","","","","","75","K","1","","0","0","1","0.2","","true","0","0.8","","80_20_practice","0.5","","0.5","0.2","","","","","","","","","","","",""
"638","","bandit","23","311946","0.0-19.0-3.0","91251041","wem/bandit_either","A1RJ2LORL5PJHS","either","5","","","","","","","74","J","0","img/none_selected_demo.jpg","1","0","0","0.8","","true","0","0.8","","80_20_practice","0.5","","0.5","0.2","","","","","","","","","","","",""
"1069","","bandit","24","314522","0.0-19.0-4.0","91251041","wem/bandit_either","A1RJ2LORL5PJHS","either","5","","","","","","","74","J","0","img/none_selected_demo.jpg","0","1","0","","0.8","true","0","","0.8","80_20_practice","0.5","0.2","0.5","","","","","","","","","","","","",""
"509","","bandit","25","316535","0.0-19.0-5.0","91251041","wem/bandit_either","A1RJ2LORL5PJHS","either","5","","","","","","","74","J","0","img/none_selected_demo.jpg","0","1","0","","0.8","true","0","","0.8","80_20_practice","0.5","0.2","0.5","","","","","","","","","","","","",""
"240","","bandit","26","318291","0.0-19.0-6.0","91251041","wem/bandit_either","A1RJ2LORL5PJHS","either","5","","","","","","","75","K","1","","0","0","1","","0.2","true","0","","0.8","80_20_practice","0.5","0.2","0.5","","","","","","","","","","","","",""
"388","","bandit","27","320185","0.0-19.0-7.0","91251041","wem/bandit_either","A1RJ2LORL5PJHS","either","5","","","","","","","75","K","1","","0","0","1","0.2","","true","0","0.8","","80_20_practice","0.5","","0.5","0.2","","","","","","","","","","","",""
"398","","bandit","28","322088","0.0-19.0-8.0","91251041","wem/bandit_either","A1RJ2LORL5PJHS","either","5","","","","","","","74","J","0","img/none_selected_demo.jpg","0","1","0","","0.8","true","0","","0.8","80_20_practice","0.5","0.2","0.5","","","","","","","","","","","","",""
"367","","bandit","29","323960","0.0-19.0-9.0","91251041","wem/bandit_either","A1RJ2LORL5PJHS","either","5","","","","","","","75","K","1","","0","1","0","","0.2","true","0","","0.8","80_20_practice","0.5","0.2","0.5","","","","","","","","","","","","",""
"1774","","bandit","30","327240","0.0-19.0-10.0","91251041","wem/bandit_either","A1RJ2LORL5PJHS","either","5","","","","","","","74","J","0","img/none_selected_demo.jpg","1","0","0","0.8","","true","0","0.8","","80_20_practice","0.5","","0.5","0.2","","","","","","","","","","","",""
"1983","","bandit","31","330727","0.0-19.0-11.0","91251041","wem/bandit_either","A1RJ2LORL5PJHS","either","5","","","","","","","74","J","0","img/none_selected_demo.jpg","0","0","1","","0.8","true","0","","0.8","80_20_practice","0.5","0.2","0.5","","","","","","","","","","","","",""
"2207","","bandit","32","334440","0.0-19.0-12.0","91251041","wem/bandit_either","A1RJ2LORL5PJHS","either","5","","","","","","","75","K","1","","1","0","0","0.2","","true","0","0.8","","80_20_practice","0.5","","0.5","0.2","","","","","","","","","","","",""
"3902","","bandit","33","339848","0.0-19.0-13.0","91251041","wem/bandit_either","A1RJ2LORL5PJHS","either","5","","","","","","","74","J","0","img/none_selected_demo.jpg","0","1","0","","0.8","true","0","","0.8","80_20_practice","0.5","0.2","0.5","","","","","","","","","","","","",""
"1198","","bandit","34","342554","0.0-19.0-14.0","91251041","wem/bandit_either","A1RJ2LORL5PJHS","either","5","","","","","","","74","J","0","img/none_selected_demo.jpg","0","1","0","","0.8","true","0","","0.8","80_20_practice","0.5","0.2","0.5","","","","","","","","","","","","",""
"716","","bandit","35","344775","0.0-19.0-15.0","91251041","wem/bandit_either","A1RJ2LORL5PJHS","either","5","","","","","","","74","J","0","img/none_selected_demo.jpg","0","1","0","","0.8","true","0","","0.8","80_20_practice","0.5","0.2","0.5","","","","","","","","","","","","",""
"382","","bandit","36","346665","0.0-19.0-16.0","91251041","wem/bandit_either","A1RJ2LORL5PJHS","either","5","","","","","","","75","K","1","","0","0","1","0.2","","true","0","0.8","","80_20_practice","0.5","","0.5","0.2","","","","","","","","","","","",""
"8956","","bandit","37","357127","0.0-19.0-17.0","91251041","wem/bandit_either","A1RJ2LORL5PJHS","either","5","","","","","","","74","J","0","img/none_selected_demo.jpg","0","1","0","","0.8","true","0","","0.8","80_20_practice","0.5","0.2","0.5","","","","","","","","","","","","",""
"1360","","bandit","38","359992","0.0-19.0-18.0","91251041","wem/bandit_either","A1RJ2LORL5PJHS","either","5","","","","","","","75","K","1","","0","0","1","","0.2","true","0","","0.8","80_20_practice","0.5","0.2","0.5","","","","","","","","","","","","",""
"62","","bandit","39","361560","0.0-19.0-19.0","91251041","wem/bandit_either","A1RJ2LORL5PJHS","either","5","","","","","","","74","J","0","img/none_selected_demo.jpg","1","0","0","0.8","","true","0","0.8","","80_20_practice","0.5","","0.5","0.2","","","","","","","","","","","",""
"6816","","text","40","368377","0.0-20.0","91251041","wem/bandit_either","A1RJ2LORL5PJHS","either","5","32","","","","","","","","","","","","","","","","","","","","","","","","","","","","","","","","","","",""
"2142","","bandit","41","372025","0.0-21.0-0.0","91251041","wem/bandit_either","A1RJ2LORL5PJHS","either","5","","","","","","","74","J","0","img/none_selected_demo.jpg","1","0","0","1","0","true","0","1","0","","","1","","0","","","","","","","","","","","",""
"5934","","text","42","377961","0.0-22.0","91251041","wem/bandit_either","A1RJ2LORL5PJHS","either","5","32","","","","","","","","","","","","","","","","","","","","","","","","","","","","","","","","","","",""
"10735","","text","43","388697","0.0-23.0","91251041","wem/bandit_either","A1RJ2LORL5PJHS","either","5","32","","","","","","","","","","","","","","","","","","","","","","","","","","","","","","","","","","",""
"14047","","text","44","402745","0.0-24.0","91251041","wem/bandit_either","A1RJ2LORL5PJHS","either","5","32","","","","","","","","","","","","","","","","","","","","","","","","","","","","","","","","","","",""
"5101","","text","45","407849","0.0-25.0","91251041","wem/bandit_either","A1RJ2LORL5PJHS","either","5","32","","","","","","","","","","","","","","","","","","","","","","","","","","","","","","","","","","",""
"10784","","text","46","418635","0.0-26.0","91251041","wem/bandit_either","A1RJ2LORL5PJHS","either","5","32","","","","","","","","","","","","","","","","","","","","","","","","","","","","","","","","","","",""
"19533","","text","47","438170","0.0-27.0","91251041","wem/bandit_either","A1RJ2LORL5PJHS","either","5","32","","","","","","","","","","","","","","","","","","","","","","","","","","","","","","","","","","",""
"5038","","text","48","443210","0.0-28.0","91251041","wem/bandit_either","A1RJ2LORL5PJHS","either","5","32","","","","","","","","","","","","","","","","","","","","","","","","","","","","","","","","","","",""
"4159","","text","49","447369","0.0-29.0","91251041","wem/bandit_either","A1RJ2LORL5PJHS","either","5","32","","","","","","","","","","","","","","","","","","","","","","","","","","","","","","","","","","",""
"2862","","text","50","450234","0.0-30.0","91251041","wem/bandit_either","A1RJ2LORL5PJHS","either","5","32","","","","","","","","","","","","","","","","","","","","","","","","","","","","","","","","","","",""
"1582","","text","51","451817","0.0-31.0","91251041","wem/bandit_either","A1RJ2LORL5PJHS","either","5","32","","","","","","","","","","","","","","","","","","","","","","","","","","","","","","","","","","",""
"6462","","text","52","458282","0.0-32.0","91251041","wem/bandit_either","A1RJ2LORL5PJHS","either","5","32","","","","","","","","","","","","","","","","","","","","","","","","","","","","","","","","","","",""
"653","","bandit","53","460440","0.0-33.0-0.0","91251041","wem/bandit_either","A1RJ2LORL5PJHS","either","5","","","","","","","72","H","0","img/none_selected.jpg","1","0","0","0.8","","true","0","0.8","","full_practice","0.5","","0.5","0.2","0.6","0.5","0.2","0.5","","","","","","","",""
"2670","","bandit","54","464616","0.0-33.0-1.0","91251041","wem/bandit_either","A1RJ2LORL5PJHS","either","5","","","","","","","74","J","1","","0","0","1","0.2","","true","0","0.8","","full_practice","0.5","","0.5","0.2","0.6","0.5","0.2","0.5","","","","","","","",""
"1519","","bandit","55","467640","0.0-33.0-2.0","91251041","wem/bandit_either","A1RJ2LORL5PJHS","either","5","","","","","","","75","K","2","","0","1","0","","0.6","true","0","","0.8","full_practice","0.5","0.2","0.5","","","0.5","","0.5","0.6","0.2","","","","","",""
"989","","bandit","56","470135","0.0-33.0-3.0","91251041","wem/bandit_either","A1RJ2LORL5PJHS","either","5","","","","","","","76","L","3","","0","0","1","","0.2","true","0","","0.8","full_practice","0.5","0.2","0.5","","","0.5","","0.5","0.6","0.2","","","","","",""
"3296","","bandit","57","474937","0.0-33.0-4.0","91251041","wem/bandit_either","A1RJ2LORL5PJHS","either","5","","","","","","","72","H","0","img/none_selected.jpg","0","1","0","","0.8","true","0","","0.8","full_practice","0.5","0.2","0.5","","","0.5","","0.5","0.6","0.2","","","","","",""
"1997","","bandit","58","478439","0.0-33.0-5.0","91251041","wem/bandit_either","A1RJ2LORL5PJHS","either","5","","","","","","","74","J","1","","0","0","1","","0.2","true","0","","0.8","full_practice","0.5","0.2","0.5","","","0.5","","0.5","0.6","0.2","","","","","",""
"909","","bandit","59","480855","0.0-33.0-6.0","91251041","wem/bandit_either","A1RJ2LORL5PJHS","either","5","","","","","","","75","K","2","","0","0","1","0.6","","true","0","0.8","","full_practice","0.5","","0.5","0.2","0.6","0.5","0.2","0.5","","","","","","","",""
"1501","","bandit","60","483864","0.0-33.0-7.0","91251041","wem/bandit_either","A1RJ2LORL5PJHS","either","5","","","","","","","76","L","3","","0","0","1","0.2","","true","0","0.8","","full_practice","0.5","","0.5","0.2","0.6","0.5","0.2","0.5","","","","","","","",""
"1326","","bandit","61","486695","0.0-33.0-8.0","91251041","wem/bandit_either","A1RJ2LORL5PJHS","either","5","","","","","","","72","H","0","img/none_selected.jpg","0","1","0","","0.8","true","0","","0.8","full_practice","0.5","0.2","0.5","","","0.5","","0.5","0.6","0.2","","","","","",""
"1326","","bandit","62","489527","0.0-33.0-9.0","91251041","wem/bandit_either","A1RJ2LORL5PJHS","either","5","","","","","","","74","J","1","","0","0","1","0.2","","true","0","0.8","","full_practice","0.5","","0.5","0.2","0.6","0.5","0.2","0.5","","","","","","","",""
"795","","bandit","63","491831","0.0-33.0-10.0","91251041","wem/bandit_either","A1RJ2LORL5PJHS","either","5","","","","","","","75","K","2","","1","0","0","0.6","","true","0","0.8","","full_practice","0.5","","0.5","0.2","0.6","0.5","0.2","0.5","","","","","","","",""
"2733","","bandit","64","496079","0.0-33.0-11.0","91251041","wem/bandit_either","A1RJ2LORL5PJHS","either","5","","","","","","","76","L","3","","0","0","1","","0.2","true","0","","0.8","full_practice","0.5","0.2","0.5","","","0.5","","0.5","0.6","0.2","","","","","",""
"902","","bandit","65","498487","0.0-33.0-12.0","91251041","wem/bandit_either","A1RJ2LORL5PJHS","either","5","","","","","","","72","H","0","img/none_selected.jpg","1","0","0","0.8","","true","0","0.8","","full_practice","0.5","","0.5","0.2","0.6","0.5","0.2","0.5","","","","","","","",""
"1517","","bandit","66","501511","0.0-33.0-13.0","91251041","wem/bandit_either","A1RJ2LORL5PJHS","either","5","","","","","","","74","J","1","","1","0","0","0.2","","true","0","0.8","","full_practice","0.5","","0.5","0.2","0.6","0.5","0.2","0.5","","","","","","","",""
"799","","bandit","67","503815","0.0-33.0-14.0","91251041","wem/bandit_either","A1RJ2LORL5PJHS","either","5","","","","","","","75","K","2","","0","0","1","","0.6","true","0","","0.8","full_practice","0.5","0.2","0.5","","","0.5","","0.5","0.6","0.2","","","","","",""
"958","","bandit","68","506279","0.0-33.0-15.0","91251041","wem/bandit_either","A1RJ2LORL5PJHS","either","5","","","","","","","76","L","3","","1","0","0","0.2","","true","0","0.8","","full_practice","0.5","","0.5","0.2","0.6","0.5","0.2","0.5","","","","","","","",""
"1358","","bandit","69","509144","0.0-33.0-16.0","91251041","wem/bandit_either","A1RJ2LORL5PJHS","either","5","","","","","","","72","H","0","img/none_selected.jpg","0","0","1","0.8","","true","0","0.8","","full_practice","0.5","","0.5","0.2","0.6","0.5","0.2","0.5","","","","","","","",""
"1262","","bandit","70","511912","0.0-33.0-17.0","91251041","wem/bandit_either","A1RJ2LORL5PJHS","either","5","","","","","","","74","J","1","","0","0","1","","0.2","true","0","","0.8","full_practice","0.5","0.2","0.5","","","0.5","","0.5","0.6","0.2","","","","","",""
"892","","bandit","71","514311","0.0-33.0-18.0","91251041","wem/bandit_either","A1RJ2LORL5PJHS","either","5","","","","","","","75","K","2","","0","1","0","","0.6","true","0","","0.8","full_practice","0.5","0.2","0.5","","","0.5","","0.5","0.6","0.2","","","","","",""
"1389","","bandit","72","517207","0.0-33.0-19.0","91251041","wem/bandit_either","A1RJ2LORL5PJHS","either","5","","","","","","","76","L","3","","0","0","1","0.2","","true","0","0.8","","full_practice","0.5","","0.5","0.2","0.6","0.5","0.2","0.5","","","","","","","",""
"46221","","text","73","563433","0.0-34.0","91251041","wem/bandit_either","A1RJ2LORL5PJHS","either","5","32","","","","","","","","","","","","","","","","","","","","","","","","","","","","","","","","","","",""
"31701","","text","74","596137","0.0-35.0","91251041","wem/bandit_either","A1RJ2LORL5PJHS","either","5","32","","","","","","","","","","","","","","","","","","","","","","","","","","","","","","","","","","",""
"16991","","text","75","613130","0.0-36.0","91251041","wem/bandit_either","A1RJ2LORL5PJHS","either","5","32","","","","","","","","","","","","","","","","","","","","","","","","","","","","","","","","","","",""
"3948","","text","76","617081","0.0-37.0","91251041","wem/bandit_either","A1RJ2LORL5PJHS","either","5","32","","","","","","","","","","","","","","","","","","","","","","","","","","","","","","","","","","",""
"4429","","text","77","621512","0.0-38.0","91251041","wem/bandit_either","A1RJ2LORL5PJHS","either","5","32","","","","","","","","","","","","","","","","","","","","","","","","","","","","","","","","","","",""
"9822","","text","78","631337","0.0-39.0","91251041","wem/bandit_either","A1RJ2LORL5PJHS","either","5","32","","","","","","","","","","","","","","","","","","","","","","","","","","","","","","","","","","",""
"733","","bandit","79","633574","0.0-40.0-0.0","91251041","wem/bandit_either","A1RJ2LORL5PJHS","either","5","","","","","","","72","H","0","img/none_selected.jpg","0","1","0","","0.3340388524","","1","","0.3340388524","main_expt","0.6","0.4265570961","0.8","","","0.2","","0.4","0.3897275569","0.1165465043","","","","","",""
"1437","","bandit","80","636519","0.0-41.0-0.0","91251041","wem/bandit_either","A1RJ2LORL5PJHS","either","5","","","","","","","74","J","1","","1","0","0","0.4177099958","","","2","0.3223834482","","main_expt","0.6","","0.8","0.4177099958","0.3911966266","0.2","0.08371899021","0.4","","","","","","","",""
"1599","","bandit","81","639622","0.0-42.0-0.0","91251041","wem/bandit_either","A1RJ2LORL5PJHS","either","5","","","","","","","75","K","2","","0","0","1","0.4074861021","","","3","0.3585509001","","main_expt","0.6","","0.8","0.4192185534","0.4074861021","0.2","0.04339790364","0.4","","","","","","","",""
"447","","bandit","82","641575","0.0-43.0-0.0","91251041","wem/bandit_either","A1RJ2LORL5PJHS","either","5","","","","","","","76","L","3","","0","0","1","0.04073472785","","","4","0.3416436242","","main_expt","0.6","","0.8","0.4241610434","0.3965638453","0.2","0.04073472785","0.4","","","","","","","",""
"781","","bandit","83","643864","0.0-44.0-0.0","91251041","wem/bandit_either","A1RJ2LORL5PJHS","either","5","","","","","","","72","H","0","img/none_selected.jpg","1","0","0","0.3444758892","","","5","0.3444758892","","main_expt","0.6","","0.8","0.4284837315","0.3688269119","0.2","0.04731773769","0.4","","","","","","","",""
"1274","","bandit","84","646647","0.0-45.0-0.0","91251041","wem/bandit_either","A1RJ2LORL5PJHS","either","5","","","","","","","74","J","1","","1","0","0","0.4328708062","","","6","0.3574177426","","main_expt","0.6","","0.8","0.4328708062","0.3865867917","0.2","0.05617088868","0.4","","","","","","","",""
"876","","bandit","85","649033","0.0-46.0-0.0","91251041","wem/bandit_either","A1RJ2LORL5PJHS","either","5","","","","","","","75","K","2","","0","0","1","","0.4294719924","","7","","0.3634052143","main_expt","0.6","0.4176545671","0.8","","","0.2","","0.4","0.4294719924","0.05606577856","","","","","",""
"428","","bandit","86","650967","0.0-47.0-0.0","91251041","wem/bandit_either","A1RJ2LORL5PJHS","either","5","","","","","","","76","L","3","","0","0","1","","0.09244853328","","8","","0.3675420607","main_expt","0.6","0.4022395488","0.8","","","0.2","","0.4","0.4210378118","0.09244853328","","","","","",""
"573","","bandit","87","653047","0.0-48.0-0.0","91251041","wem/bandit_either","A1RJ2LORL5PJHS","either","5","","","","","","","74","J","1","","1","0","0","0.3929004949","","","9","0.3921196104","","main_expt","0.6","","0.8","0.3929004949","0.4502112583","0.2","0.1271341085","0.4","","","","","","","",""
"989","","bandit","88","655544","0.0-49.0-0.0","91251041","wem/bandit_either","A1RJ2LORL5PJHS","either","5","","","","","","","74","J","1","","1","0","0","0.3863711448","","","10","0.4026182126","","main_expt","0.6","","0.8","0.3863711448","0.4452653155","0.2","0.1370717255","0.4","","","","","","","",""
"636","","bandit","89","657698","0.0-50.0-0.0","91251041","wem/bandit_either","A1RJ2LORL5PJHS","either","5","","","","","","","74","J","1","","1","0","0","0.4205849279","","","11","0.3543069494","","main_expt","0.6","","0.8","0.4205849279","0.4352349267","0.2","0.1275050207","0.4","","","","","","","",""
"754","","bandit","90","659959","0.0-51.0-0.0","91251041","wem/bandit_either","A1RJ2LORL5PJHS","either","5","","","","","","","74","J","1","","0","0","1","","0.4525069231","","12","","0.3504097904","main_expt","0.6","0.4525069231","0.8","","","0.2","","0.4","0.4029030639","0.122317004","","","","","",""
"862","","bandit","91","662328","0.0-52.0-0.0","91251041","wem/bandit_either","A1RJ2LORL5PJHS","either","5","","","","","","","74","J","1","","0","0","1","","0.4485799753","","13","","0.2787441393","main_expt","0.6","0.4485799753","0.8","","","0.2","","0.4","0.4198147105","0.1251711411","","","","","",""
"43","","bandit","92","663879","0.0-53.0-0.0","91251041","wem/bandit_either","A1RJ2LORL5PJHS","either","5","","","","","","","72","H","0","img/none_selected.jpg","0","0","1","","0.2723245106","","14","","0.2723245106","main_expt","0.6","0.4504049656","0.8","","","0.2","","0.4","0.3761312174","0.1380641988","","","","","",""
"366","","bandit","93","665751","0.0-54.0-0.0","91251041","wem/bandit_either","A1RJ2LORL5PJHS","either","5","","","","","","","76","L","3","","0","0","1","","0.2010812313","","15","","0.3687644442","main_expt","0.6","0.4281165459","0.8","","","0.2","","0.4","0.4017507227","0.2010812313","","","","","",""
"827","","bandit","94","668094","0.0-55.0-0.0","91251041","wem/bandit_either","A1RJ2LORL5PJHS","either","5","","","","","","","75","K","2","","0","0","1","","0.3859888637","","16","","0.3992289848","main_expt","0.6","0.4035101098","0.8","","","0.2","","0.4","0.3859888637","0.1747275657","","","","","",""
"342","","bandit","95","669942","0.0-56.0-0.0","91251041","wem/bandit_either","A1RJ2LORL5PJHS","either","5","","","","","","","74","J","1","","1","0","0","0.4063691663","","","17","0.4067061876","","main_expt","0.6","","0.8","0.4063691663","0.3706978481","0.2","0.1816524112","0.4","","","","","","","",""
"1117","","bandit","96","672565","0.0-57.0-0.0","91251041","wem/bandit_either","A1RJ2LORL5PJHS","either","5","","","","","","","74","J","1","","0","0","1","0.4201618032","","","18","0.3969002131","","main_expt","0.6","","0.8","0.4201618032","0.3323991027","0.2","0.1700798448","0.4","","","","","","","",""
"526","","bandit","97","674599","0.0-58.0-0.0","91251041","wem/bandit_either","A1RJ2LORL5PJHS","either","5","","","","","","","74","J","1","","0","1","0","","0.3868389751","","19","","0.3930099592","main_expt","0.6","0.3868389751","0.8","","","0.2","","0.4","0.3301718366","0.1998500639","","","","","",""
"1039","","bandit","98","677142","0.0-59.0-0.0","91251041","wem/bandit_either","A1RJ2LORL5PJHS","either","5","","","","","","","72","H","0","img/none_selected.jpg","1","0","0","0.3791602553","","","20","0.3791602553","","main_expt","0.6","","0.8","0.3868875991","0.3714618997","0.2","0.2418808817","0.4","","","","","","","",""
"1406","","bandit","99","680055","0.0-60.0-0.0","91251041","wem/bandit_either","A1RJ2LORL5PJHS","either","5","","","","","","","72","H","0","img/none_selected.jpg","0","1","0","","0.4127515201","","21","","0.4127515201","main_expt","0.6","0.4253770554","0.8","","","0.2","","0.4","0.3621694591","0.2293341009","","","","","",""
"460","","bandit","100","682032","0.0-61.0-0.0","91251041","wem/bandit_either","A1RJ2LORL5PJHS","either","5","","","","","","","76","L","3","","0","0","1","","0.2074184163","","22","","0.4164833055","main_expt","0.6","0.4285762007","0.8","","","0.2","","0.4","0.3648829928","0.2074184163","","","","","",""
"243","","bandit","101","683783","0.0-62.0-0.0","91251041","wem/bandit_either","A1RJ2LORL5PJHS","either","5","","","","","","","75","K","2","","0","0","1","0.2856994719","","","23","0.4143027846","","main_expt","0.6","","0.8","0.4082522222","0.2856994719","0.2","0.1832507358","0.4","","","","","","","",""
"379","","bandit","102","685671","0.0-63.0-0.0","91251041","wem/bandit_either","A1RJ2LORL5PJHS","either","5","","","","","","","72","H","0","img/none_selected.jpg","1","0","0","0.3649270698","","","24","0.3649270698","","main_expt","0.6","","0.8","0.4027270218","0.3152516524","0.2","0.1469425149","0.4","","","","","","","",""
"1436","","bandit","103","688615","0.0-64.0-0.0","91251041","wem/bandit_either","A1RJ2LORL5PJHS","either","5","","","","","","","72","H","0","img/none_selected.jpg","0","0","1","0.392676409","","","25","0.392676409","","main_expt","0.6","","0.8","0.4100212433","0.2778145345","0.2","0.102794739","0.4","","","","","","","",""
"204","","bandit","104","690326","0.0-65.0-0.0","91251041","wem/bandit_either","A1RJ2LORL5PJHS","either","5","","","","","","","74","J","1","","0","0","1","0.4190791169","","","26","0.4031565401","","main_expt","0.6","","0.8","0.4190791169","0.3170506137","0.2","0.1173732637","0.4","","","","","","","",""
"525","","bandit","105","692359","0.0-66.0-0.0","91251041","wem/bandit_either","A1RJ2LORL5PJHS","either","5","","","","","","","76","L","3","","0","1","0","","0.08835016803","","27","","0.4245959001","main_expt","0.6","0.4527212376","0.8","","","0.2","","0.4","0.3223143746","0.08835016803","","","","","",""
"750","","bandit","106","694615","0.0-67.0-0.0","91251041","wem/bandit_either","A1RJ2LORL5PJHS","either","5","","","","","","","75","K","2","","0","0","1","","0.3234472479","","28","","0.4232885055","main_expt","0.6","0.4480998813","0.8","","","0.2","","0.4","0.3234472479","0.1134440288","","","","","",""
"1518","","bandit","107","697638","0.0-68.0-0.0","91251041","wem/bandit_either","A1RJ2LORL5PJHS","either","5","","","","","","","74","J","1","","0","0","1","0.4628669208","","","29","0.4495512981","","main_expt","0.6","","0.8","0.4628669208","0.2881425904","0.2","0.1982905849","0.4","","","","","","","",""
"558","","bandit","108","699702","0.0-69.0-0.0","91251041","wem/bandit_either","A1RJ2LORL5PJHS","either","5","","","","","","","72","H","0","img/none_selected.jpg","0","0","1","","0.4485299892","","30","","0.4485299892","main_expt","0.6","0.4565655028","0.8","","","0.2","","0.4","0.2326555855","0.2366655967","","","","","",""
"430","","bandit","109","701638","0.0-70.0-0.0","91251041","wem/bandit_either","A1RJ2LORL5PJHS","either","5","","","","","","","76","L","3","","0","0","1","0.1622470467","","","31","0.4599237238","","main_expt","0.6","","0.8","0.4686031056","0.2364604256","0.2","0.1622470467","0.4","","","","","","","",""
"719","","bandit","110","703862","0.0-71.0-0.0","91251041","wem/bandit_either","A1RJ2LORL5PJHS","either","5","","","","","","","75","K","2","","0","0","1","","0.2451982598","","32","","0.4508116693","main_expt","0.6","0.4659582456","0.8","","","0.2","","0.4","0.2451982598","0.1771911602","","","","","",""
"412","","bandit","111","705783","0.0-72.0-0.0","91251041","wem/bandit_either","A1RJ2LORL5PJHS","either","5","","","","","","","72","H","0","img/none_selected.jpg","0","0","1","","0.45101727","","33","","0.45101727","main_expt","0.6","0.4810757035","0.8","","","0.2","","0.4","0.2360369815","0.1622836308","","","","","",""
"684","","bandit","112","707975","0.0-73.0-0.0","91251041","wem/bandit_either","A1RJ2LORL5PJHS","either","5","","","","","","","74","J","1","","0","0","1","0.4842727378","","","34","0.4340174653","","main_expt","0.6","","0.8","0.4842727378","0.2317763892","0.2","0.1655985557","0.4","","","","","","","",""
"702","","bandit","113","710190","0.0-74.0-0.0","91251041","wem/bandit_either","A1RJ2LORL5PJHS","either","5","","","","","","","76","L","3","","0","0","1","","0.1492797185","","35","","0.4040147441","main_expt","0.6","0.4745470136","0.8","","","0.2","","0.4","0.2527891731","0.1492797185","","","","","",""
"774","","bandit","114","712469","0.0-75.0-0.0","91251041","wem/bandit_either","A1RJ2LORL5PJHS","either","5","","","","","","","72","H","0","img/none_selected.jpg","0","1","0","","0.4268829696","","36","","0.4268829696","main_expt","0.6","0.4440965139","0.8","","","0.2","","0.4","0.2641283143","0.1504543003","","","","","",""
"763","","bandit","115","714743","0.0-76.0-0.0","91251041","wem/bandit_either","A1RJ2LORL5PJHS","either","5","","","","","","","74","J","1","","0","0","1","","0.4544425755","","37","","0.4562327564","main_expt","0.6","0.4544425755","0.8","","","0.2","","0.4","0.2309310423","0.1064249526","","","","","",""
"524","","bandit","116","716774","0.0-77.0-0.0","91251041","wem/bandit_either","A1RJ2LORL5PJHS","either","5","","","","","","","75","K","2","","0","0","1","","0.2093170459","","38","","0.4481627861","main_expt","0.6","0.4700138218","0.8","","","0.2","","0.4","0.2093170459","0.1346530267","","","","","",""
"509","","bandit","117","718792","0.0-78.0-0.0","91251041","wem/bandit_either","A1RJ2LORL5PJHS","either","5","","","","","","","74","J","1","","0","0","1","0.466948448","","","39","0.4475890948","","main_expt","0.6","","0.8","0.466948448","0.1398625959","0.2","0.1303494481","0.4","","","","","","","",""
"58","","bandit","118","720358","0.0-79.0-0.0","91251041","wem/bandit_either","A1RJ2LORL5PJHS","either","5","","","","","","","72","H","0","img/none_selected.jpg","0","0","1","0.4501575696","","","40","0.4501575696","","main_expt","0.6","","0.8","0.4679256248","0.09690087606","0.2","0.1492074344","0.4","","","","","","","",""
"61","","bandit","119","721926","0.0-80.0-0.0","91251041","wem/bandit_either","A1RJ2LORL5PJHS","either","5","","","","","","","76","L","3","","1","0","0","0.1370672299","","","41","0.4121884666","","main_expt","0.6","","0.8","0.445537573","0.1129569356","0.2","0.1370672299","0.4","","","","","","","",""
"733","","bandit","120","724166","0.0-81.0-0.0","91251041","wem/bandit_either","A1RJ2LORL5PJHS","either","5","","","","","","","76","L","3","","0","0","1","0.08144147181","","","42","0.4379939247","","main_expt","0.6","","0.8","0.4521531226","0.1227033228","0.2","0.08144147181","0.4","","","","","","","",""
"670","","bandit","121","726342","0.0-82.0-0.0","91251041","wem/bandit_either","A1RJ2LORL5PJHS","either","5","","","","","","","76","L","3","","0","1","0","","0.06793865388","","43","","0.4271747655","main_expt","0.6","0.4695072217","0.8","","","0.2","","0.4","0.08393287497","0.06793865388","","","","","",""
"382","","bandit","122","728231","0.0-83.0-0.0","91251041","wem/bandit_either","A1RJ2LORL5PJHS","either","5","","","","","","","75","K","2","","0","0","1","","0.06260074275","","44","","0.4480494518","main_expt","0.6","0.4807409838","0.8","","","0.2","","0.4","0.06260074275","0.05295344446","","","","","",""
"445","","bandit","123","730183","0.0-84.0-0.0","91251041","wem/bandit_either","A1RJ2LORL5PJHS","either","5","","","","","","","74","J","1","","1","0","0","0.4507048108","","","45","0.4269729589","","main_expt","0.6","","0.8","0.4507048108","0.08062123592","0.2","0.02744239742","0.4","","","","","","","",""
"541","","bandit","124","732230","0.0-85.0-0.0","91251041","wem/bandit_either","A1RJ2LORL5PJHS","either","5","","","","","","","74","J","1","","0","0","1","0.4382321206","","","46","0.4475746277","","main_expt","0.6","","0.8","0.4382321206","0.1110847749","0.2","0.02347437243","0.4","","","","","","","",""
"397","","bandit","125","734134","0.0-86.0-0.0","91251041","wem/bandit_either","A1RJ2LORL5PJHS","either","5","","","","","","","76","L","3","","0","0","1","0.02418160198","","","47","0.4295618238","","main_expt","0.6","","0.8","0.4393937913","0.05346849493","0.2","0.02418160198","0.4","","","","","","","",""
"174","","bandit","126","735814","0.0-87.0-0.0","91251041","wem/bandit_either","A1RJ2LORL5PJHS","either","5","","","","","","","72","H","0","img/none_selected.jpg","1","0","0","0.4431907244","","","48","0.4431907244","","main_expt","0.6","","0.8","0.440318131","0.04499733497","0.2","0.01182676654","0.4","","","","","","","",""
"555","","bandit","127","737883","0.0-88.0-0.0","91251041","wem/bandit_either","A1RJ2LORL5PJHS","either","5","","","","","","","72","H","0","img/none_selected.jpg","1","0","0","0.4187732916","","","49","0.4187732916","","main_expt","0.6","","0.8","0.4362102412","0.07378534534","0.2","0.0186287842","0.4","","","","","","","",""
"696","","bandit","128","740098","0.0-89.0-0.0","91251041","wem/bandit_either","A1RJ2LORL5PJHS","either","5","","","","","","","72","H","0","img/none_selected.jpg","1","0","0","0.356579213","","","50","0.356579213","","main_expt","0.6","","0.8","0.44488671","0.06168845619","0.2","0.02550629551","0.4","","","","","","","",""
"913","","bandit","129","742517","0.0-90.0-0.0","91251041","wem/bandit_either","A1RJ2LORL5PJHS","either","5","","","","","","","72","H","0","img/none_selected.jpg","1","0","0","0.2629404955","","","51","0.2629404955","","main_expt","0.6","","0.8","0.4633405548","0.1062028567","0.2","0.04366809707","0.4","","","","","","","",""
"1500","","bandit","130","745526","0.0-91.0-0.0","91251041","wem/bandit_either","A1RJ2LORL5PJHS","either","5","","","","","","","72","H","0","img/none_selected.jpg","1","0","0","0.2919747068","","","52","0.2919747068","","main_expt","0.6","","0.8","0.4528043762","0.1379608546","0.2","0.04357168116","0.4","","","","","","","",""
"1261","","bandit","131","748292","0.0-92.0-0.0","91251041","wem/bandit_either","A1RJ2LORL5PJHS","either","5","","","","","","","72","H","0","img/none_selected.jpg","0","0","1","0.3809901122","","","53","0.3809901122","","main_expt","0.6","","0.8","0.4390431751","0.1356826849","0.2","0.03899227154","0.4","","","","","","","",""
"446","","bandit","132","750246","0.0-93.0-0.0","91251041","wem/bandit_either","A1RJ2LORL5PJHS","either","5","","","","","","","74","J","1","","0","0","1","0.4549270822","","","54","0.3452518694","","main_expt","0.6","","0.8","0.4549270822","0.1038772241","0.2","0.04009146386","0.4","","","","","","","",""
"1","","bandit","133","751752","0.0-94.0-0.0","91251041","wem/bandit_either","A1RJ2LORL5PJHS","either","5","","","","","","","76","L","3","","0","0","1","0.0155768565","","","55","0.3263112327","","main_expt","0.6","","0.8","0.4710341864","0.1689791829","0.2","0.0155768565","0.4","","","","","","","",""
"427","","bandit","134","753700","0.0-95.0-0.0","91251041","wem/bandit_either","A1RJ2LORL5PJHS","either","5","","","","","","","75","K","2","","0","0","1","","0.1108888145","","56","","0.3308963945","main_expt","0.6","0.4745834276","0.8","","","0.2","","0.4","0.1108888145","0.02112461672","","","","","",""
"284","","bandit","135","755497","0.0-96.0-0.0","91251041","wem/bandit_either","A1RJ2LORL5PJHS","either","5","","","","","","","72","H","0","img/none_selected.jpg","0","0","1","","0.3150326571","","57","","0.3150326571","main_expt","0.6","0.489318572","0.8","","","0.2","","0.4","0.1206542402","0.0126553198","","","","","",""
"567","","bandit","136","757573","0.0-97.0-0.0","91251041","wem/bandit_either","A1RJ2LORL5PJHS","either","5","","","","","","","74","J","1","","1","0","0","0.480037986","","","58","0.3049116772","","main_expt","0.6","","0.8","0.480037986","0.09707343937","0.2","0.01131359515","0.4","","","","","","","",""
"542","","bandit","137","759621","0.0-98.0-0.0","91251041","wem/bandit_either","A1RJ2LORL5PJHS","either","5","","","","","","","74","J","1","","1","0","0","0.4593461039","","","59","0.3050987947","","main_expt","0.6","","0.8","0.4593461039","0.1044384952","0.2","0.01030075821","0.4","","","","","","","",""
"429","","bandit","138","761557","0.0-99.0-0.0","91251041","wem/bandit_either","A1RJ2LORL5PJHS","either","5","","","","","","","74","J","1","","1","0","0","0.446051488","","","60","0.3274009355","","main_expt","0.6","","0.8","0.446051488","0.08890369623","0.2","0.005868957973","0.4","","","","","","","",""
"492","","bandit","139","763557","0.0-100.0-0.0","91251041","wem/bandit_either","A1RJ2LORL5PJHS","either","5","","","","","","","74","J","1","","0","0","1","0.4391285327","","","61","0.3428943983","","main_expt","0.6","","0.8","0.4391285327","0.08921221942","0.2","0.004361943215","0.4","","","","","","","",""
"716","","bandit","140","765780","0.0-101.0-0.0","91251041","wem/bandit_either","A1RJ2LORL5PJHS","either","5","","","","","","","72","H","0","img/none_selected.jpg","0","0","1","0.3549763931","","","62","0.3549763931","","main_expt","0.6","","0.8","0.4063883723","0.09812025034","0.2","0.005208412743","0.4","","","","","","","",""
"78","","bandit","141","767366","0.0-102.0-0.0","91251041","wem/bandit_either","A1RJ2LORL5PJHS","either","5","","","","","","","75","K","2","","0","0","1","0.09006279409","","","63","0.3496678451","","main_expt","0.6","","0.8","0.4330387396","0.09006279409","0.2","0.006461011255","0.4","","","","","","","",""
"444","","bandit","142","769317","0.0-103.0-0.0","91251041","wem/bandit_either","A1RJ2LORL5PJHS","either","5","","","","","","","76","L","3","","0","0","1","","0.01267926231","","64","","0.3188537263","main_expt","0.6","0.4207902426","0.8","","","0.2","","0.4","0.1118976224","0.01267926231","","","","","",""
"108","","bandit","143","770934","0.0-104.0-0.0","91251041","wem/bandit_either","A1RJ2LORL5PJHS","either","5","","","","","","","72","H","0","img/none_selected.jpg","0","0","1","0.3191795336","","","65","0.3191795336","","main_expt","0.6","","0.8","0.3719582347","0.1053817613","0.2","0.009732787917","0.4","","","","","","","",""
"283","","bandit","144","772724","0.0-105.0-0.0","91251041","wem/bandit_either","A1RJ2LORL5PJHS","either","5","","","","","","","74","J","1","","0","0","1","0.3748569955","","","66","0.268616347","","main_expt","0.6","","0.8","0.3748569955","0.1307356695","0.2","0.01092542651","0.4","","","","","","","",""
"13","","bandit","145","774245","0.0-106.0-0.0","91251041","wem/bandit_either","A1RJ2LORL5PJHS","either","5","","","","","","","75","K","2","","0","1","0","","0.1418436428","","67","","0.259194563","main_expt","0.6","0.335252031","0.8","","","0.2","","0.4","0.1418436428","0.02125534741","","","","","",""
"398","","bandit","146","776149","0.0-107.0-0.0","91251041","wem/bandit_either","A1RJ2LORL5PJHS","either","5","","","","","","","76","L","3","","0","0","1","0.02360283027","","","68","0.2281204868","","main_expt","0.6","","0.8","0.3199157278","0.1459089566","0.2","0.02360283027","0.4","","","","","","","",""
"429","","bandit","147","778095","0.0-108.0-0.0","91251041","wem/bandit_either","A1RJ2LORL5PJHS","either","5","","","","","","","72","H","0","img/none_selected.jpg","0","0","1","0.2195844169","","","69","0.2195844169","","main_expt","0.6","","0.8","0.3068525281","0.1809721424","0.2","0.02539305756","0.4","","","","","","","",""
"369","","bandit","148","779974","0.0-109.0-0.0","91251041","wem/bandit_either","A1RJ2LORL5PJHS","either","5","","","","","","","74","J","1","","1","0","0","0.3181076016","","","70","0.1883338509","","main_expt","0.6","","0.8","0.3181076016","0.1784068974","0.2","0.05014388586","0.4","","","","","","","",""
"394","","bandit","149","781876","0.0-110.0-0.0","91251041","wem/bandit_either","A1RJ2LORL5PJHS","either","5","","","","","","","74","J","1","","0","0","1","0.2926426422","","","71","0.1639708178","","main_expt","0.6","","0.8","0.2926426422","0.1973023396","0.2","0.04209054697","0.4","","","","","","","",""
"414","","bandit","150","783797","0.0-111.0-0.0","91251041","wem/bandit_either","A1RJ2LORL5PJHS","either","5","","","","","","","75","K","2","","0","0","1","","0.2436342847","","72","","0.1312842785","main_expt","0.6","0.2380263643","0.8","","","0.2","","0.4","0.2436342847","0.05611199342","","","","","",""
"234","","bandit","151","785540","0.0-112.0-0.0","91251041","wem/bandit_either","A1RJ2LORL5PJHS","either","5","","","","","","","74","J","1","","0","0","1","","0.2407197948","","73","","0.1805041857","main_expt","0.6","0.2407197948","0.8","","","0.2","","0.4","0.1992173182","0.05293238473","","","","","",""
"221","","bandit","152","787269","0.0-113.0-0.0","91251041","wem/bandit_either","A1RJ2LORL5PJHS","either","5","","","","","","","72","H","0","img/none_selected.jpg","0","0","1","","0.1739557812","","74","","0.1739557812","main_expt","0.6","0.2317468449","0.8","","","0.2","","0.4","0.2347098304","0.0318456884","","","","","",""
"445","","bandit","153","789221","0.0-114.0-0.0","91251041","wem/bandit_either","A1RJ2LORL5PJHS","either","5","","","","","","","76","L","3","","0","0","1","","0.03873230677","","75","","0.2434916027","main_expt","0.6","0.2545997551","0.8","","","0.2","","0.4","0.2641442137","0.03873230677","","","","","",""
"333","","bandit","154","791061","0.0-115.0-0.0","91251041","wem/bandit_either","A1RJ2LORL5PJHS","either","5","","","","","","","75","K","2","","0","0","1","","0.3192644053","","76","","0.2438468568","main_expt","0.6","0.2890845388","0.8","","","0.2","","0.4","0.3192644053","0.03304947682","","","","","",""
"138","","bandit","155","792708","0.0-116.0-0.0","91251041","wem/bandit_either","A1RJ2LORL5PJHS","either","5","","","","","","","72","H","0","img/none_selected.jpg","0","0","1","0.2425324642","","","77","0.2425324642","","main_expt","0.6","","0.8","0.2386362654","0.3351132613","0.2","0.02607887458","0.4","","","","","","","",""
"317","","bandit","156","794532","0.0-117.0-0.0","91251041","wem/bandit_either","A1RJ2LORL5PJHS","either","5","","","","","","","74","J","1","","0","0","1","0.2673679704","","","78","0.205588479","","main_expt","0.6","","0.8","0.2673679704","0.3086784207","0.2","0.02492981692","0.4","","","","","","","",""
"458","","bandit","157","796501","0.0-118.0-0.0","91251041","wem/bandit_either","A1RJ2LORL5PJHS","either","5","","","","","","","76","L","3","","0","0","1","","0.01824110002","","79","","0.213062191","main_expt","0.6","0.2813811921","0.8","","","0.2","","0.4","0.3076482073","0.01824110002","","","","","",""
"412","","bandit","158","798423","0.0-119.0-0.0","91251041","wem/bandit_either","A1RJ2LORL5PJHS","either","5","","","","","","","74","J","1","","0","0","1","0.2419447949","","","80","0.1852926048","","main_expt","0.6","","0.8","0.2419447949","0.3605025214","0.2","0.0202176162","0.4","","","","","","","",""
"376","","bandit","159","800309","0.0-120.0-0.0","91251041","wem/bandit_either","A1RJ2LORL5PJHS","either","5","","","","","","","74","J","1","","0","0","1","","0.323481111","","81","","0.2332942271","main_expt","0.6","0.323481111","0.8","","","0.2","","0.4","0.3286166321","0.0252752587","","","","","",""
"13","","bandit","160","801831","0.0-121.0-0.0","91251041","wem/bandit_either","A1RJ2LORL5PJHS","either","5","","","","","","","75","K","2","","0","0","1","","0.3459677762","","82","","0.2087797338","main_expt","0.6","0.3097244961","0.8","","","0.2","","0.4","0.3459677762","0.05668457717","","","","","",""
"362","","bandit","161","803703","0.0-122.0-0.0","91251041","wem/bandit_either","A1RJ2LORL5PJHS","either","5","","","","","","","75","K","2","","0","0","1","","0.3092751195","","83","","0.2049979043","main_expt","0.6","0.2787498647","0.8","","","0.2","","0.4","0.3092751195","0.07760530004","","","","","",""
"250","","bandit","162","805462","0.0-123.0-0.0","91251041","wem/bandit_either","A1RJ2LORL5PJHS","either","5","","","","","","","72","H","0","img/none_selected.jpg","0","0","1","0.2151780091","","","84","0.2151780091","","main_expt","0.6","","0.8","0.2589524449","0.3044630387","0.2","0.03696005566","0.4","","","","","","","",""
"427","","bandit","163","807398","0.0-124.0-0.0","91251041","wem/bandit_either","A1RJ2LORL5PJHS","either","5","","","","","","","76","L","3","","0","0","1","","0.04177257934","","85","","0.1497615914","main_expt","0.6","0.2769318636","0.8","","","0.2","","0.4","0.2812480587","0.04177257934","","","","","",""
"154","","bandit","164","809063","0.0-125.0-0.0","91251041","wem/bandit_either","A1RJ2LORL5PJHS","either","5","","","","","","","74","J","1","","0","0","1","0.2849222391","","","86","0.1223687677","","main_expt","0.6","","0.8","0.2849222391","0.2506532223","0.2","0.0385770192","0.4","","","","","","","",""
"380","","bandit","165","810951","0.0-126.0-0.0","91251041","wem/bandit_either","A1RJ2LORL5PJHS","either","5","","","","","","","72","H","0","img/none_selected.jpg","0","0","1","0.1472857413","","","87","0.1472857413","","main_expt","0.6","","0.8","0.3131087309","0.2269900387","0.2","0.03720252147","0.4","","","","","","","",""
"410","","bandit","166","812869","0.0-127.0-0.0","91251041","wem/bandit_either","A1RJ2LORL5PJHS","either","5","","","","","","","75","K","2","","0","0","1","","0.1504729919","","88","","0.1252586248","main_expt","0.6","0.3038587512","0.8","","","0.2","","0.4","0.1504729919","0.06746059371","","","","","",""
"412","","bandit","167","814796","0.0-128.0-0.0","91251041","wem/bandit_either","A1RJ2LORL5PJHS","either","5","","","","","","","74","J","1","","1","0","0","0.3308022157","","","89","0.1194927994","","main_expt","0.6","","0.8","0.3308022157","0.1382070302","0.2","0.04069757945","0.4","","","","","","","",""
"517","","bandit","168","816821","0.0-129.0-0.0","91251041","wem/bandit_either","A1RJ2LORL5PJHS","either","5","","","","","","","74","J","1","","0","0","1","","0.3574922351","","90","","0.1589750007","main_expt","0.6","0.3574922351","0.8","","","0.2","","0.4","0.1364765349","0.07325379503","","","","","",""
"780","","bandit","169","819112","0.0-130.0-0.0","91251041","wem/bandit_either","A1RJ2LORL5PJHS","either","5","","","","","","","74","J","1","","0","0","1","0.3729517688","","","91","0.1859960426","","main_expt","0.6","","0.8","0.3729517688","0.09318196272","0.2","0.06877471811","0.4","","","","","","","",""
"200","","bandit","170","820822","0.0-131.0-0.0","91251041","wem/bandit_either","A1RJ2LORL5PJHS","either","5","","","","","","","72","H","0","img/none_selected.jpg","0","0","1","0.192419488","","","92","0.192419488","","main_expt","0.6","","0.8","0.398352994","0.06946097624","0.2","0.04115987362","0.4","","","","","","","",""
"1852","","bandit","171","824181","0.0-132.0-0.0","91251041","wem/bandit_either","A1RJ2LORL5PJHS","either","5","","","","","","","76","L","3","","0","0","1","0.07078892783","","","93","0.1716033463","","main_expt","0.6","","0.8","0.4135860398","0.08102832817","0.2","0.07078892783","0.4","","","","","","","",""
"797","","bandit","172","826497","0.0-133.0-0.0","91251041","wem/bandit_either","A1RJ2LORL5PJHS","either","5","","","","","","","74","J","1","","0","0","1","0.3786880174","","","94","0.1935897604","","main_expt","0.6","","0.8","0.3786880174","0.1271360848","0.2","0.05572868433","0.4","","","","","","","",""
"768","","bandit","173","828772","0.0-134.0-0.0","91251041","wem/bandit_either","A1RJ2LORL5PJHS","either","5","","","","","","","75","K","2","","0","0","1","","0.1097592989","","95","","0.2193228015","main_expt","0.6","0.3823424718","0.8","","","0.2","","0.4","0.1097592989","0.05056929995","","","","","",""
"543","","bandit","174","830823","0.0-135.0-0.0","91251041","wem/bandit_either","A1RJ2LORL5PJHS","either","5","","","","","","","72","H","0","img/none_selected.jpg","1","0","0","0.3262643469","","","96","0.3262643469","","main_expt","0.6","","0.8","0.3642725552","0.1085490834","0.2","0.04159874267","0.4","","","","","","","",""
"809","","bandit","175","833141","0.0-136.0-0.0","91251041","wem/bandit_either","A1RJ2LORL5PJHS","either","5","","","","","","","72","H","0","img/none_selected.jpg","0","1","0","","0.3207405496","","97","","0.3207405496","main_expt","0.6","0.3197717944","0.8","","","0.2","","0.4","0.1049812554","0.03654451862","","","","","",""
"587","","bandit","176","835239","0.0-137.0-0.0","91251041","wem/bandit_either","A1RJ2LORL5PJHS","either","5","","","","","","","72","H","0","img/none_selected.jpg","0","0","1","","0.3712856991","","98","","0.3712856991","main_expt","0.6","0.2514424369","0.8","","","0.2","","0.4","0.08177978443","0.04190300095","","","","","",""
"459","","bandit","177","837206","0.0-138.0-0.0","91251041","wem/bandit_either","A1RJ2LORL5PJHS","either","5","","","","","","","74","J","1","","1","0","0","0.2926772137","","","99","0.3740145378","","main_expt","0.6","","0.8","0.2926772137","0.07574087804","0.2","0.08742990617","0.4","","","","","","","",""
"3819","","bandit","178","842534","0.0-139.0-0.0","91251041","wem/bandit_either","A1RJ2LORL5PJHS","either","5","","","","","","","76","L","3","","0","0","1","","0.08966523481","","100","","0.3776295542","main_expt","0.6","0.234485335","0.8","","","0.2","","0.4","0.07829319678","0.08966523481","","","","","",""
"443","","bandit","179","844486","0.0-140.0-0.0","91251041","wem/bandit_either","A1RJ2LORL5PJHS","either","5","","","","","","","74","J","1","","1","0","0","0.250352175","","","101","0.3592666398","","main_expt","0.6","","0.8","0.250352175","0.07919243683","0.2","0.07849065771","0.4","","","","","","","",""
"923","","bandit","180","846918","0.0-141.0-0.0","91251041","wem/bandit_either","A1RJ2LORL5PJHS","either","5","","","","","","","74","J","1","","0","0","1","0.2139972863","","","102","0.3412191773","","main_expt","0.6","","0.8","0.2139972863","0.1052753188","0.2","0.1054267613","0.4","","","","","","","",""
"1067","","bandit","181","849493","0.0-142.0-0.0","91251041","wem/bandit_either","A1RJ2LORL5PJHS","either","5","","","","","","","75","K","2","","0","0","1","0.1248526142","","","103","0.3133100433","","main_expt","0.6","","0.8","0.20092706","0.1248526142","0.2","0.1120981937","0.4","","","","","","","",""
"781","","bandit","182","851781","0.0-143.0-0.0","91251041","wem/bandit_either","A1RJ2LORL5PJHS","either","5","","","","","","","72","H","0","img/none_selected.jpg","0","0","1","","0.3219148419","","104","","0.3219148419","main_expt","0.6","0.2305366804","0.8","","","0.2","","0.4","0.142969925","0.1034740879","","","","","",""
"1788","","bandit","183","855077","0.0-144.0-0.0","91251041","wem/bandit_either","A1RJ2LORL5PJHS","either","5","","","","","","","76","L","3","","0","0","1","","0.07597240327","","105","","0.3300892518","main_expt","0.6","0.2102135581","0.8","","","0.2","","0.4","0.13947254","0.07597240327","","","","","",""
"2203","","bandit","184","858789","0.0-145.0-0.0","91251041","wem/bandit_either","A1RJ2LORL5PJHS","either","5","","","","","","","74","J","1","","0","0","1","0.2219457329","","","106","0.3401839058","","main_expt","0.6","","0.8","0.2219457329","0.1329526997","0.2","0.1124257427","0.4","","","","","","","",""
"492","","bandit","185","860802","0.0-146.0-0.0","91251041","wem/bandit_either","A1RJ2LORL5PJHS","either","5","","","","","","","72","H","0","img/none_selected.jpg","0","0","1","0.3784706915","","","107","0.3784706915","","main_expt","0.6","","0.8","0.3048423019","0.1727290233","0.2","0.1133168519","0.4","","","","","","","",""
"768","","bandit","186","863077","0.0-147.0-0.0","91251041","wem/bandit_either","A1RJ2LORL5PJHS","either","5","","","","","","","75","K","2","","0","0","1","","0.1864487031","","108","","0.3945753887","main_expt","0.6","0.258150515","0.8","","","0.2","","0.4","0.1864487031","0.1752395656","","","","","",""
"1948","","bandit","187","866532","0.0-148.0-0.0","91251041","wem/bandit_either","A1RJ2LORL5PJHS","either","5","","","","","","","76","L","3","","0","0","1","","0.1862973424","","109","","0.356827327","main_expt","0.6","0.1859129148","0.8","","","0.2","","0.4","0.2463216238","0.1862973424","","","","","",""
"747","","bandit","188","868795","0.0-149.0-0.0","91251041","wem/bandit_either","A1RJ2LORL5PJHS","either","5","","","","","","","74","J","1","","0","0","1","0.1371624404","","","110","0.2344179837","","main_expt","0.6","","0.8","0.1371624404","0.2431522628","0.2","0.2015845776","0.4","","","","","","","",""
"1477","","bandit","189","871781","0.0-150.0-0.0","91251041","wem/bandit_either","A1RJ2LORL5PJHS","either","5","","","","","","","74","J","1","","0","0","1","0.1258232978","","","111","0.2644823096","","main_expt","0.6","","0.8","0.1258232978","0.1757476643","0.2","0.2003651753","0.4","","","","","","","",""
"505","","bandit","190","873798","0.0-151.0-0.0","91251041","wem/bandit_either","A1RJ2LORL5PJHS","either","5","","","","","","","72","H","0","img/none_selected.jpg","0","0","1","0.28311182","","","112","0.28311182","","main_expt","0.6","","0.8","0.1529967373","0.2451518953","0.2","0.21392293","0.4","","","","","","","",""
"4392","","bandit","191","879700","0.0-152.0-0.0","91251041","wem/bandit_either","A1RJ2LORL5PJHS","either","5","","","","","","","76","L","3","","0","0","1","0.1606798039","","","113","0.2413269532","","main_expt","0.6","","0.8","0.148248117","0.2407836715","0.2","0.1606798039","0.4","","","","","","","",""
"411","","bandit","192","881620","0.0-153.0-0.0","91251041","wem/bandit_either","A1RJ2LORL5PJHS","either","5","","","","","","","72","H","0","img/none_selected.jpg","1","0","0","0.3100969134","","","114","0.3100969134","","main_expt","0.6","","0.8","0.1562208239","0.3099317417","0.2","0.2095980235","0.4","","","","","","","",""
"92","","bandit","193","883221","0.0-154.0-0.0","91251041","wem/bandit_either","A1RJ2LORL5PJHS","either","5","","","","","","","72","H","0","img/none_selected.jpg","0","0","1","","0.329842252","","115","","0.329842252","main_expt","0.6","0.2138032898","0.8","","","0.2","","0.4","0.3180754701","0.2550279667","","","","","",""
"3290","","bandit","194","888021","0.0-155.0-0.0","91251041","wem/bandit_either","A1RJ2LORL5PJHS","either","5","","","","","","","72","H","0","img/none_selected.jpg","0","0","1","0.3223706096","","","116","0.3223706096","","main_expt","0.6","","0.8","0.2331260325","0.2919742107","0.2","0.2471764387","0.4","","","","","","","",""
"1722","","bandit","195","891252","0.0-156.0-0.0","91251041","wem/bandit_either","A1RJ2LORL5PJHS","either","5","","","","","","","74","J","1","","0","0","1","0.1826309729","","","117","0.3098408215","","main_expt","0.6","","0.8","0.1826309729","0.2799774295","0.2","0.2730878341","0.4","","","","","","","",""
"652","","bandit","196","893411","0.0-157.0-0.0","91251041","wem/bandit_either","A1RJ2LORL5PJHS","either","5","","","","","","","75","K","2","","0","0","1","0.2646714695","","","118","0.2974554567","","main_expt","0.6","","0.8","0.1511269107","0.2646714695","0.2","0.2071462199","0.4","","","","","","","",""
"477","","bandit","197","895400","0.0-158.0-0.0","91251041","wem/bandit_either","A1RJ2LORL5PJHS","either","5","","","","","","","76","L","3","","0","0","1","0.2275232499","","","119","0.3598468986","","main_expt","0.6","","0.8","0.1559979654","0.3179839519","0.2","0.2275232499","0.4","","","","","","","",""
"457","","bandit","198","897365","0.0-159.0-0.0","91251041","wem/bandit_either","A1RJ2LORL5PJHS","either","5","","","","","","","72","H","0","img/none_selected.jpg","0","0","1","0.2984373086","","","120","0.2984373086","","main_expt","0.6","","0.8","0.1463004055","0.3302262658","0.2","0.2767559596","0.4","","","","","","","",""
"666","","bandit","199","899542","0.0-160.0-0.0","91251041","wem/bandit_either","A1RJ2LORL5PJHS","either","5","","","","","","","75","K","2","","0","0","1","","0.3500549905","","121","","0.2973090059","main_expt","0.6","0.1418195479","0.8","","","0.2","","0.4","0.3500549905","0.3448590315","","","","","",""
"410","","bandit","200","901462","0.0-161.0-0.0","91251041","wem/bandit_either","A1RJ2LORL5PJHS","either","5","","","","","","","74","J","1","","0","0","1","0.1270782113","","","122","0.3382791822","","main_expt","0.6","","0.8","0.1270782113","0.2686616284","0.2","0.3593301016","0.4","","","","","","","",""
"791","","bandit","201","903763","0.0-162.0-0.0","91251041","wem/bandit_either","A1RJ2LORL5PJHS","either","5","","","","","","","76","L","3","","0","0","1","","0.3680529171","","123","","0.3154347028","main_expt","0.6","0.1207154071","0.8","","","0.2","","0.4","0.2277230314","0.3680529171","","","","","",""
"795","","bandit","202","906068","0.0-163.0-0.0","91251041","wem/bandit_either","A1RJ2LORL5PJHS","either","5","","","","","","","72","H","0","img/none_selected.jpg","0","0","1","0.2966737815","","","124","0.2966737815","","main_expt","0.6","","0.8","0.1229329119","0.3287090939","0.2","0.3476523483","0.4","","","","","","","",""
"491","","bandit","203","908068","0.0-164.0-0.0","91251041","wem/bandit_either","A1RJ2LORL5PJHS","either","5","","","","","","","76","L","3","","0","1","0","","0.3564603465","","125","","0.3094831126","main_expt","0.6","0.09241122996","0.8","","","0.2","","0.4","0.3687339586","0.3564603465","","","","","",""
"459","","bandit","204","910036","0.0-165.0-0.0","91251041","wem/bandit_either","A1RJ2LORL5PJHS","either","5","","","","","","","76","L","3","","0","0","1","","0.3550684458","","126","","0.2488993205","main_expt","0.6","0.08418962236","0.8","","","0.2","","0.4","0.3836195774","0.3550684458","","","","","",""
"426","","bandit","205","911971","0.0-166.0-0.0","91251041","wem/bandit_either","A1RJ2LORL5PJHS","either","5","","","","","","","72","H","0","img/none_selected.jpg","0","0","1","0.1953487027","","","127","0.1953487027","","main_expt","0.6","","0.8","0.154715772","0.3617365958","0.2","0.3235559827","0.4","","","","","","","",""
"492","","bandit","206","913971","0.0-167.0-0.0","91251041","wem/bandit_either","A1RJ2LORL5PJHS","either","5","","","","","","","75","K","2","","1","0","0","0.3235283493","","","128","0.2171889907","","main_expt","0.6","","0.8","0.1556709078","0.3235283493","0.2","0.312087491","0.4","","","","","","","",""
"444","","bandit","207","915924","0.0-168.0-0.0","91251041","wem/bandit_either","A1RJ2LORL5PJHS","either","5","","","","","","","75","K","2","","0","0","1","0.3453830546","","","129","0.2467699801","","main_expt","0.6","","0.8","0.1214200615","0.3453830546","0.2","0.2843272188","0.4","","","","","","","",""
"396","","bandit","208","917828","0.0-169.0-0.0","91251041","wem/bandit_either","A1RJ2LORL5PJHS","either","5","","","","","","","74","J","1","","0","0","1","0.1377283829","","","130","0.2814443482","","main_expt","0.6","","0.8","0.1377283829","0.3242747857","0.2","0.2128416856","0.4","","","","","","","",""
"427","","bandit","209","919764","0.0-170.0-0.0","91251041","wem/bandit_either","A1RJ2LORL5PJHS","either","5","","","","","","","72","H","0","img/none_selected.jpg","1","0","0","0.2834176508","","","131","0.2834176508","","main_expt","0.6","","0.8","0.1397421628","0.3417201858","0.2","0.2403879813","0.4","","","","","","","",""
"681","","bandit","210","921956","0.0-171.0-0.0","91251041","wem/bandit_either","A1RJ2LORL5PJHS","either","5","","","","","","","72","H","0","img/none_selected.jpg","0","0","1","","0.2429908031","","132","","0.2429908031","main_expt","0.6","0.1061875113","0.8","","","0.2","","0.4","0.3498614837","0.2811421594","","","","","",""
"460","","bandit","211","923925","0.0-172.0-0.0","91251041","wem/bandit_either","A1RJ2LORL5PJHS","either","5","","","","","","","76","L","3","","0","0","1","0.3002858371","","","133","0.3053559495","","main_expt","0.6","","0.8","0.07774811701","0.3134828643","0.2","0.3002858371","0.4","","","","","","","",""
"363","","bandit","212","925799","0.0-173.0-0.0","91251041","wem/bandit_either","A1RJ2LORL5PJHS","either","5","","","","","","","74","J","1","","0","0","1","0.08211281178","","","134","0.2693478067","","main_expt","0.6","","0.8","0.08211281178","0.3554593188","0.2","0.277406375","0.4","","","","","","","",""
"423","","bandit","213","927735","0.0-174.0-0.0","91251041","wem/bandit_either","A1RJ2LORL5PJHS","either","5","","","","","","","75","K","2","","0","1","0","","0.3150900126","","135","","0.3369166079","main_expt","0.6","0.1123817552","0.8","","","0.2","","0.4","0.3150900126","0.2897147582","","","","","",""
"506","","bandit","214","929749","0.0-175.0-0.0","91251041","wem/bandit_either","A1RJ2LORL5PJHS","either","5","","","","","","","72","H","0","img/none_selected.jpg","0","0","1","0.268603144","","","136","0.268603144","","main_expt","0.6","","0.8","0.1478339482","0.3199395785","0.2","0.3590576628","0.4","","","","","","","",""
"472","","bandit","215","931733","0.0-176.0-0.0","91251041","wem/bandit_either","A1RJ2LORL5PJHS","either","5","","","","","","","75","K","2","","0","0","1","0.33362357","","","137","0.2373427956","","main_expt","0.6","","0.8","0.1374936615","0.33362357","0.2","0.3822427384","0.4","","","","","","","",""
"378","","bandit","216","933620","0.0-177.0-0.0","91251041","wem/bandit_either","A1RJ2LORL5PJHS","either","5","","","","","","","76","L","3","","0","1","0","","0.3410071165","","138","","0.2206869265","main_expt","0.6","0.159761955","0.8","","","0.2","","0.4","0.3611324022","0.3410071165","","","","","",""
"540","","bandit","217","935668","0.0-178.0-0.0","91251041","wem/bandit_either","A1RJ2LORL5PJHS","either","5","","","","","","","72","H","0","img/none_selected.jpg","0","0","1","","0.2177966349","","139","","0.2177966349","main_expt","0.6","0.1363721132","0.8","","","0.2","","0.4","0.3504145086","0.3738014659","","","","","",""
"1756","","bandit","218","938934","0.0-179.0-0.0","91251041","wem/bandit_either","A1RJ2LORL5PJHS","either","5","","","","","","","72","H","0","img/none_selected.jpg","0","1","0","","0.2387685432","","140","","0.2387685432","main_expt","0.6","0.1031445192","0.8","","","0.2","","0.4","0.309774603","0.422575493","","","","","",""
"1191","","bandit","219","942121","0.0-180.0-0.0","91251041","wem/bandit_either","A1RJ2LORL5PJHS","either","5","","","","","","","75","K","2","","0","0","1","","0.3506531288","","141","","0.2575087366","main_expt","0.6","0.09805286369","0.8","","","0.2","","0.4","0.3506531288","0.4439129864","","","","","",""
"1369","","bandit","220","944997","0.0-181.0-0.0","91251041","wem/bandit_either","A1RJ2LORL5PJHS","either","5","","","","","","","76","L","3","","0","1","0","","0.4323802182","","142","","0.2392038972","main_expt","0.6","0.1149002948","0.8","","","0.2","","0.4","0.2965027242","0.4323802182","","","","","",""
"1191","","bandit","221","947699","0.0-182.0-0.0","91251041","wem/bandit_either","A1RJ2LORL5PJHS","either","5","","","","","","","75","K","2","","0","0","1","","0.2087517366","","143","","0.2216470548","main_expt","0.6","0.1209542099","0.8","","","0.2","","0.4","0.2087517366","0.4358412593","","","","","",""
"877","","bandit","222","950099","0.0-183.0-0.0","91251041","wem/bandit_either","A1RJ2LORL5PJHS","either","5","","","","","","","74","J","1","","0","0","1","0.1202521083","","","144","0.2224896139","","main_expt","0.6","","0.8","0.1202521083","0.2313605626","0.2","0.4407373256","0.4","","","","","","","",""
"846","","bandit","223","952452","0.0-184.0-0.0","91251041","wem/bandit_either","A1RJ2LORL5PJHS","either","5","","","","","","","72","H","0","img/none_selected.jpg","0","0","1","0.1925605464","","","145","0.1925605464","","main_expt","0.6","","0.8","0.1619743669","0.1785565547","0.2","0.4661091035","0.4","","","","","","","",""
"861","","bandit","224","954822","0.0-185.0-0.0","91251041","wem/bandit_either","A1RJ2LORL5PJHS","either","5","","","","","","","76","L","3","","0","1","0","","0.4637097668","","146","","0.2069800611","main_expt","0.6","0.1664631043","0.8","","","0.2","","0.4","0.1770660648","0.4637097668","","","","","",""
"475","","bandit","225","956805","0.0-186.0-0.0","91251041","wem/bandit_either","A1RJ2LORL5PJHS","either","5","","","","","","","75","K","2","","0","0","1","","0.1063371611","","147","","0.2489662189","main_expt","0.6","0.1669241763","0.8","","","0.2","","0.4","0.1063371611","0.4700491642","","","","","",""
"444","","bandit","226","958756","0.0-187.0-0.0","91251041","wem/bandit_either","A1RJ2LORL5PJHS","either","5","","","","","","","74","J","1","","1","0","0","0.1581456949","","","148","0.1946464158","","main_expt","0.6","","0.8","0.1581456949","0.1216370817","0.2","0.4648109734","0.4","","","","","","","",""
"1259","","bandit","227","961537","0.0-188.0-0.0","91251041","wem/bandit_either","A1RJ2LORL5PJHS","either","5","","","","","","","74","J","1","","0","0","1","","0.1698392466","","149","","0.1826562491","main_expt","0.6","0.1698392466","0.8","","","0.2","","0.4","0.1024256959","0.4635511513","","","","","",""
"757","","bandit","228","963804","0.0-189.0-0.0","91251041","wem/bandit_either","A1RJ2LORL5PJHS","either","5","","","","","","","72","H","0","img/none_selected.jpg","0","0","1","","0.1750473563","","150","","0.1750473563","main_expt","0.6","0.2140114634","0.8","","","0.2","","0.4","0.1371094633","0.4445017148","","","","","",""
"1314","","bandit","229","966629","0.0-190.0-0.0","91251041","wem/bandit_either","A1RJ2LORL5PJHS","either","5","","","","","","","76","L","3","","1","0","0","0.4434799742","","","151","0.1109536645","","main_expt","0.6","","0.8","0.2392960001","0.1702433702","0.2","0.4434799742","0.4","","","","","","","",""
"2812","","bandit","230","970948","0.0-191.0-0.0","91251041","wem/bandit_either","A1RJ2LORL5PJHS","either","5","","","","","","","76","L","3","","0","0","1","","0.4451665291","","152","","0.1143086707","main_expt","0.6","0.2095863317","0.8","","","0.2","","0.4","0.1860489046","0.4451665291","","","","","",""
"1914","","bandit","231","974373","0.0-192.0-0.0","91251041","wem/bandit_either","A1RJ2LORL5PJHS","either","5","","","","","","","76","L","3","","0","1","0","","0.4401532833","","153","","0.1236290712","main_expt","0.6","0.2543258611","0.8","","","0.2","","0.4","0.2117094388","0.4401532833","","","","","",""
"761","","bandit","232","976644","0.0-193.0-0.0","91251041","wem/bandit_either","A1RJ2LORL5PJHS","either","5","","","","","","","72","H","0","img/none_selected.jpg","0","0","1","0.1600695342","","","154","0.1600695342","","main_expt","0.6","","0.8","0.2602259906","0.2072389033","0.2","0.4516855879","0.4","","","","","","","",""
"1596","","bandit","233","979749","0.0-194.0-0.0","91251041","wem/bandit_either","A1RJ2LORL5PJHS","either","5","","","","","","","75","K","2","","0","0","1","","0.1986333914","","155","","0.1770288166","main_expt","0.6","0.2750581274","0.8","","","0.2","","0.4","0.1986333914","0.4480264808","","","","","",""
"1019","","bandit","234","982276","0.0-195.0-0.0","91251041","wem/bandit_either","A1RJ2LORL5PJHS","either","5","","","","","","","74","J","1","","0","0","1","0.2438045727","","","156","0.1761817894","","main_expt","0.6","","0.8","0.2438045727","0.2054640346","0.2","0.4260414265","0.4","","","","","","","",""
"924","","bandit","235","984710","0.0-196.0-0.0","91251041","wem/bandit_either","A1RJ2LORL5PJHS","either","5","","","","","","","72","H","0","img/none_selected.jpg","0","0","1","","0.1998830888","","157","","0.1998830888","main_expt","0.6","0.2857025143","0.8","","","0.2","","0.4","0.1810715383","0.4365201507","","","","","",""
"890","","bandit","236","987108","0.0-197.0-0.0","91251041","wem/bandit_either","A1RJ2LORL5PJHS","either","5","","","","","","","76","L","3","","0","0","1","","0.4076244479","","158","","0.2150354531","main_expt","0.6","0.2887719476","0.8","","","0.2","","0.4","0.2118906364","0.4076244479","","","","","",""
"844","","bandit","237","989461","0.0-198.0-0.0","91251041","wem/bandit_either","A1RJ2LORL5PJHS","either","5","","","","","","","75","K","2","","1","0","0","0.2293976715","","","159","0.2221069796","","main_expt","0.6","","0.8","0.2859462397","0.2293976715","0.2","0.403953851","0.4","","","","","","","",""
"428","","bandit","238","991402","0.0-199.0-0.0","91251041","wem/bandit_either","A1RJ2LORL5PJHS","either","5","","","","","","","75","K","2","","0","0","1","","0.2186051381","","160","","0.2627335039","main_expt","0.6","0.207432816","0.8","","","0.2","","0.4","0.2186051381","0.4282135537","","","","","",""
"420","","bandit","239","993333","0.0-200.0-0.0","91251041","wem/bandit_either","A1RJ2LORL5PJHS","either","5","","","","","","","74","J","1","","0","0","1","0.1611694724","","","161","0.2922457848","","main_expt","0.6","","0.8","0.1611694724","0.2175927206","0.2","0.4479073124","0.4","","","","","","","",""
"363","","bandit","240","995204","0.0-201.0-0.0","91251041","wem/bandit_either","A1RJ2LORL5PJHS","either","5","","","","","","","72","H","0","img/none_selected.jpg","0","0","1","0.3040212123","","","162","0.3040212123","","main_expt","0.6","","0.8","0.14378348","0.2370404117","0.2","0.4456201243","0.4","","","","","","","",""
"652","","bandit","241","997364","0.0-202.0-0.0","91251041","wem/bandit_either","A1RJ2LORL5PJHS","either","5","","","","","","","75","K","2","","0","1","0","","0.2778780432","","163","","0.2933359027","main_expt","0.6","0.1707099899","0.8","","","0.2","","0.4","0.2778780432","0.4384930657","","","","","",""
"426","","bandit","242","999300","0.0-203.0-0.0","91251041","wem/bandit_either","A1RJ2LORL5PJHS","either","5","","","","","","","76","L","3","","0","1","0","","0.4231568034","","164","","0.2388203062","main_expt","0.6","0.1933693166","0.8","","","0.2","","0.4","0.2643388611","0.4231568034","","","","","",""
"346","","bandit","243","1001156","0.0-204.0-0.0","91251041","wem/bandit_either","A1RJ2LORL5PJHS","either","5","","","","","","","72","H","0","img/none_selected.jpg","0","0","1","","0.2646204916","","165","","0.2646204916","main_expt","0.6","0.2406324952","0.8","","","0.2","","0.4","0.1967204453","0.4412535734","","","","","",""
"461","","bandit","244","1003124","0.0-205.0-0.0","91251041","wem/bandit_either","A1RJ2LORL5PJHS","either","5","","","","","","","74","J","1","","0","0","1","0.2650462377","","","166","0.2591758032","","main_expt","0.6","","0.8","0.2650462377","0.1567937345","0.2","0.438364003","0.4","","","","","","","",""
"427","","bandit","245","1005059","0.0-206.0-0.0","91251041","wem/bandit_either","A1RJ2LORL5PJHS","either","5","","","","","","","75","K","2","","0","1","0","","0.1201482918","","167","","0.1955934818","main_expt","0.6","0.245875583","0.8","","","0.2","","0.4","0.1201482918","0.4290991351","","","","","",""
"445","","bandit","246","1007013","0.0-207.0-0.0","91251041","wem/bandit_either","A1RJ2LORL5PJHS","either","5","","","","","","","76","L","3","","0","0","1","","0.4510860662","","168","","0.2090603634","main_expt","0.6","0.257303599","0.8","","","0.2","","0.4","0.0936051119","0.4510860662","","","","","",""
"361","","bandit","247","1008887","0.0-208.0-0.0","91251041","wem/bandit_either","A1RJ2LORL5PJHS","either","5","","","","","","","72","H","0","img/none_selected.jpg","0","1","0","","0.2678479696","","169","","0.2678479696","main_expt","0.6","0.2993732043","0.8","","","0.2","","0.4","0.08775096918","0.4491424364","","","","","",""
"666","","bandit","248","1011061","0.0-209.0-0.0","91251041","wem/bandit_either","A1RJ2LORL5PJHS","either","5","","","","","","","76","L","3","","0","1","0","","0.4332244901","","170","","0.2532125956","main_expt","0.6","0.3388977639","0.8","","","0.2","","0.4","0.06743429675","0.4332244901","","","","","",""
"423","","bandit","249","1013000","0.0-210.0-0.0","91251041","wem/bandit_either","A1RJ2LORL5PJHS","either","5","","","","","","","74","J","1","","0","0","1","0.2947926635","","","171","0.2568627054","","main_expt","0.6","","0.8","0.2947926635","0.05979118822","0.2","0.4405036994","0.4","","","","","","","",""
"581","","bandit","250","1015100","0.0-211.0-0.0","91251041","wem/bandit_either","A1RJ2LORL5PJHS","either","5","","","","","","","75","K","2","","0","0","1","","0.03200499914","","172","","0.2451563353","main_expt","0.6","0.2892529657","0.8","","","0.2","","0.4","0.03200499914","0.4358521759","","","","","",""
"261","","bandit","251","1016867","0.0-212.0-0.0","91251041","wem/bandit_either","A1RJ2LORL5PJHS","either","5","","","","","","","72","H","0","img/none_selected.jpg","0","0","1","0.3003395367","","","173","0.3003395367","","main_expt","0.6","","0.8","0.2571917514","0.04613358223","0.2","0.4471617722","0.4","","","","","","","",""
"380","","bandit","252","1018756","0.0-213.0-0.0","91251041","wem/bandit_either","A1RJ2LORL5PJHS","either","5","","","","","","","76","L","3","","1","0","0","0.4560251174","","","174","0.2545998681","","main_expt","0.6","","0.8","0.244173221","0.05969677181","0.2","0.4560251174","0.4","","","","","","","",""
"361","","bandit","253","1020630","0.0-214.0-0.0","91251041","wem/bandit_either","A1RJ2LORL5PJHS","either","5","","","","","","","76","L","3","","0","0","1","","0.4379349024","","175","","0.3383135611","main_expt","0.6","0.2038098688","0.8","","","0.2","","0.4","0.05930066603","0.4379349024","","","","","",""
"154","","bandit","254","1022291","0.0-215.0-0.0","91251041","wem/bandit_either","A1RJ2LORL5PJHS","either","5","","","","","","","74","J","1","","0","0","1","0.2053823003","","","176","0.3880627729","","main_expt","0.6","","0.8","0.2053823003","0.08110879181","0.2","0.4328841116","0.4","","","","","","","",""
"460","","bandit","255","1024260","0.0-216.0-0.0","91251041","wem/bandit_either","A1RJ2LORL5PJHS","either","5","","","","","","","76","L","3","","0","1","0","","0.3965365967","","177","","0.3920994557","main_expt","0.6","0.2193083282","0.8","","","0.2","","0.4","0.07611568943","0.3965365967","","","","","",""
"347","","bandit","256","1026116","0.0-217.0-0.0","91251041","wem/bandit_either","A1RJ2LORL5PJHS","either","5","","","","","","","75","K","2","","0","0","1","","0.1220467165","","178","","0.3882277994","main_expt","0.6","0.1904263594","0.8","","","0.2","","0.4","0.1220467165","0.3899234309","","","","","",""
"26","","bandit","257","1027652","0.0-218.0-0.0","91251041","wem/bandit_either","A1RJ2LORL5PJHS","either","5","","","","","","","72","H","0","img/none_selected.jpg","0","0","1","","0.3939691408","","179","","0.3939691408","main_expt","0.6","0.2212788648","0.8","","","0.2","","0.4","0.1698853315","0.4238443777","","","","","",""
"968","","bandit","258","1030132","0.0-219.0-0.0","91251041","wem/bandit_either","A1RJ2LORL5PJHS","either","5","","","","","","","74","J","1","","1","0","0","0.2640717145","","","180","0.4074656662","","main_expt","0.6","","0.8","0.2640717145","0.1374762061","0.2","0.4487400994","0.4","","","","","","","",""
"410","","bandit","259","1032052","0.0-220.0-0.0","91251041","wem/bandit_either","A1RJ2LORL5PJHS","either","5","","","","","","","74","J","1","","0","0","1","0.2426483564","","","181","0.3724421945","","main_expt","0.6","","0.8","0.2426483564","0.09961924189","0.2","0.4314573438","0.4","","","","","","","",""
"1195","","bandit","260","1034756","0.0-221.0-0.0","91251041","wem/bandit_either","A1RJ2LORL5PJHS","either","5","","","","","","","75","K","2","","0","0","1","","0.1391043194","","182","","0.2998177931","main_expt","0.6","0.2001563476","0.8","","","0.2","","0.4","0.1391043194","0.4458059303","","","","","",""
"824","","bandit","261","1037102","0.0-222.0-0.0","91251041","wem/bandit_either","A1RJ2LORL5PJHS","either","5","","","","","","","76","L","3","","0","0","1","","0.4485460149","","183","","0.3629728763","main_expt","0.6","0.2167094124","0.8","","","0.2","","0.4","0.1336424596","0.4485460149","","","","","",""
"479","","bandit","262","1039103","0.0-223.0-0.0","91251041","wem/bandit_either","A1RJ2LORL5PJHS","either","5","","","","","","","72","H","0","img/none_selected.jpg","1","0","0","0.3763603645","","","184","0.3763603645","","main_expt","0.6","","0.8","0.2402813617","0.115911235","0.2","0.4078350507","0.4","","","","","","","",""
"849","","bandit","263","1041461","0.0-224.0-0.0","91251041","wem/bandit_either","A1RJ2LORL5PJHS","either","5","","","","","","","72","H","0","img/none_selected.jpg","0","0","1","","0.3472982705","","185","","0.3472982705","main_expt","0.6","0.2745112141","0.8","","","0.2","","0.4","0.1394203739","0.3805788675","","","","","",""
"200","","bandit","264","1043173","0.0-225.0-0.0","91251041","wem/bandit_either","A1RJ2LORL5PJHS","either","5","","","","","","","74","J","1","","1","0","0","0.2774566956","","","186","0.3095995051","","main_expt","0.6","","0.8","0.2774566956","0.1557479742","0.2","0.4236809331","0.4","","","","","","","",""
"506","","bandit","265","1045201","0.0-226.0-0.0","91251041","wem/bandit_either","A1RJ2LORL5PJHS","either","5","","","","","","","74","J","1","","0","0","1","","0.2876011691","","187","","0.2567332284","main_expt","0.6","0.2876011691","0.8","","","0.2","","0.4","0.1823611596","0.4058627081","","","","","",""
"108","","bandit","266","1046822","0.0-227.0-0.0","91251041","wem/bandit_either","A1RJ2LORL5PJHS","either","5","","","","","","","75","K","2","","0","1","0","","0.1854179297","","188","","0.2555256861","main_expt","0.6","0.2947112378","0.8","","","0.2","","0.4","0.1854179297","0.3913346521","","","","","",""
"791","","bandit","267","1049125","0.0-228.0-0.0","91251041","wem/bandit_either","A1RJ2LORL5PJHS","either","5","","","","","","","76","L","3","","1","0","0","0.3760164219","","","189","0.2009875262","","main_expt","0.6","","0.8","0.2581494","0.1875645599","0.2","0.3760164219","0.4","","","","","","","",""
"407","","bandit","268","1051044","0.0-229.0-0.0","91251041","wem/bandit_either","A1RJ2LORL5PJHS","either","5","","","","","","","76","L","3","","0","1","0","","0.3327352817","","190","","0.2055488595","main_expt","0.6","0.1756323468","0.8","","","0.2","","0.4","0.2018323604","0.3327352817","","","","","",""
"586","","bandit","269","1053140","0.0-230.0-0.0","91251041","wem/bandit_either","A1RJ2LORL5PJHS","either","5","","","","","","","72","H","0","img/none_selected.jpg","0","0","1","0.1506387864","","","191","0.1506387864","","main_expt","0.6","","0.8","0.2521570866","0.221094727","0.2","0.3015177445","0.4","","","","","","","",""
"329","","bandit","270","1054980","0.0-231.0-0.0","91251041","wem/bandit_either","A1RJ2LORL5PJHS","either","5","","","","","","","74","J","1","","0","0","1","0.2964739449","","","192","0.2027442266","","main_expt","0.6","","0.8","0.2964739449","0.2320570195","0.2","0.2773298268","0.4","","","","","","","",""
"342","","bandit","271","1056837","0.0-232.0-0.0","91251041","wem/bandit_either","A1RJ2LORL5PJHS","either","5","","","","","","","76","L","3","","0","1","0","","0.2836613797","","193","","0.1969137872","main_expt","0.6","0.2612966838","0.8","","","0.2","","0.4","0.2948950962","0.2836613797","","","","","",""
"423","","bandit","272","1058771","0.0-233.0-0.0","91251041","wem/bandit_either","A1RJ2LORL5PJHS","either","5","","","","","","","75","K","2","","0","0","1","","0.2602906927","","194","","0.2114994946","main_expt","0.6","0.3292914436","0.8","","","0.2","","0.4","0.2602906927","0.2799350415","","","","","",""
"377","","bandit","273","1060661","0.0-234.0-0.0","91251041","wem/bandit_either","A1RJ2LORL5PJHS","either","5","","","","","","","76","L","3","","0","0","1","0.2068597772","","","195","0.2467939011","","main_expt","0.6","","0.8","0.4070308407","0.1771499101","0.2","0.2068597772","0.4","","","","","","","",""
"585","","bandit","274","1062756","0.0-235.0-0.0","91251041","wem/bandit_either","A1RJ2LORL5PJHS","either","5","","","","","","","72","H","0","img/none_selected.jpg","0","0","1","0.2731811988","","","196","0.2731811988","","main_expt","0.6","","0.8","0.3494820729","0.1746274925","0.2","0.2679469531","0.4","","","","","","","",""
"425","","bandit","275","1064691","0.0-236.0-0.0","91251041","wem/bandit_either","A1RJ2LORL5PJHS","either","5","","","","","","","74","J","1","","0","0","1","0.3571939809","","","197","0.2512114903","","main_expt","0.6","","0.8","0.3571939809","0.193224684","0.2","0.2448078588","0.4","","","","","","","",""
"779","","bandit","276","1066981","0.0-237.0-0.0","91251041","wem/bandit_either","A1RJ2LORL5PJHS","either","5","","","","","","","75","K","2","","0","0","1","","0.1771509929","","198","","0.190651112","main_expt","0.6","0.382430028","0.8","","","0.2","","0.4","0.1771509929","0.2433987968","","","","","",""
"455","","bandit","277","1068949","0.0-238.0-0.0","91251041","wem/bandit_either","A1RJ2LORL5PJHS","either","5","","","","","","","76","L","3","","0","1","0","","0.2653624242","","199","","0.1701189695","main_expt","0.6","0.3353474301","0.8","","","0.2","","0.4","0.2466668772","0.2653624242","","","","","",""
"491","","bandit","278","1070950","0.0-239.0-0.0","91251041","wem/bandit_either","A1RJ2LORL5PJHS","either","5","","","","","","","75","K","2","","0","0","1","","0.2477816141","","200","","0.1656975488","main_expt","0.6","0.3321976498","0.8","","","0.2","","0.4","0.2477816141","0.2551376492","","","","","",""
"393","","bandit","279","1072852","0.0-240.0-0.0","91251041","wem/bandit_either","A1RJ2LORL5PJHS","either","5","","","","","","","76","L","3","","1","0","0","0.2660639347","","","201","0.1647298582","","main_expt","0.6","","0.8","0.3218117355","0.2744817861","0.2","0.2660639347","0.4","","","","","","","",""
"600","","bandit","280","1074964","0.0-241.0-0.0","91251041","wem/bandit_either","A1RJ2LORL5PJHS","either","5","","","","","","","76","L","3","","0","0","1","0.2220900594","","","202","0.1242041815","","main_expt","0.6","","0.8","0.2949214693","0.3043062986","0.2","0.2220900594","0.4","","","","","","","",""
"1194","","bandit","281","1077667","0.0-242.0-0.0","91251041","wem/bandit_either","A1RJ2LORL5PJHS","either","5","","","","","","","72","H","0","img/none_selected.jpg","0","0","1","","0.1684487429","","203","","0.1684487429","main_expt","0.6","0.300077299","0.8","","","0.2","","0.4","0.272185569","0.1543353204","","","","","",""
"6475","","bandit","282","1085652","0.0-243.0-0.0","91251041","wem/bandit_either","A1RJ2LORL5PJHS","either","5","","","","","","","72","H","0","img/none_selected.jpg","0","0","1","","0.1666409686","","204","","0.1666409686","main_expt","0.6","0.2866085977","0.8","","","0.2","","0.4","0.2610767704","0.1605482003","","","","","",""
"347","","bandit","283","1087508","0.0-244.0-0.0","91251041","wem/bandit_either","A1RJ2LORL5PJHS","either","5","","","","","","","74","J","1","","1","0","0","0.2695546272","","","205","0.2197286508","","main_expt","0.6","","0.8","0.2695546272","0.2832615928","0.2","0.1406914754","0.4","","","","","","","",""
"348","","bandit","284","1089363","0.0-245.0-0.0","91251041","wem/bandit_either","A1RJ2LORL5PJHS","either","5","","","","","","","74","J","1","","0","0","1","0.2622178416","","","206","0.2754509052","","main_expt","0.6","","0.8","0.2622178416","0.300913322","0.2","0.1138947463","0.4","","","","","","","",""
"507","","bandit","285","1091393","0.0-246.0-0.0","91251041","wem/bandit_either","A1RJ2LORL5PJHS","either","5","","","","","","","75","K","2","","0","1","0","","0.3260258847","","207","","0.2664869377","main_expt","0.6","0.2498186578","0.8","","","0.2","","0.4","0.3260258847","0.1096702189","","","","","",""
"383","","bandit","286","1093283","0.0-247.0-0.0","91251041","wem/bandit_either","A1RJ2LORL5PJHS","either","5","","","","","","","76","L","3","","0","0","1","","0.09922356593","","208","","0.2686565688","main_expt","0.6","0.2335358635","0.8","","","0.2","","0.4","0.3173829003","0.09922356593","","","","","",""
"443","","bandit","287","1095236","0.0-248.0-0.0","91251041","wem/bandit_either","A1RJ2LORL5PJHS","either","5","","","","","","","72","H","0","img/none_selected.jpg","1","0","0","0.2380255957","","","209","0.2380255957","","main_expt","0.6","","0.8","0.2638942681","0.3153846937","0.2","0.101567507","0.4","","","","","","","",""
"417","","bandit","288","1097161","0.0-249.0-0.0","91251041","wem/bandit_either","A1RJ2LORL5PJHS","either","5","","","","","","","72","H","0","img/none_selected.jpg","1","0","0","0.2507768727","","","210","0.2507768727","","main_expt","0.6","","0.8","0.2526926237","0.3010876552","0.2","0.08675379402","0.4","","","","","","","",""
"614","","bandit","289","1099284","0.0-250.0-0.0","91251041","wem/bandit_either","A1RJ2LORL5PJHS","either","5","","","","","","","72","H","0","img/none_selected.jpg","0","0","1","0.2685142319","","","211","0.2685142319","","main_expt","0.6","","0.8","0.2740367769","0.2864900033","0.2","0.07512021269","0.4","","","","","","","",""
"154","","bandit","290","1100947","0.0-251.0-0.0","91251041","wem/bandit_either","A1RJ2LORL5PJHS","either","5","","","","","","","74","J","1","","0","0","1","0.2440836191","","","212","0.260511483","","main_expt","0.6","","0.8","0.2440836191","0.3163372434","0.2","0.08144254236","0.4","","","","","","","",""
"105","","bandit","291","1102563","0.0-252.0-0.0","91251041","wem/bandit_either","A1RJ2LORL5PJHS","either","5","","","","","","","75","K","2","","1","0","0","0.2701305136","","","213","0.2579605047","","main_expt","0.6","","0.8","0.2341903104","0.2701305136","0.2","0.06585574052","0.4","","","","","","","",""
"489","","bandit","292","1104561","0.0-253.0-0.0","91251041","wem/bandit_either","A1RJ2LORL5PJHS","either","5","","","","","","","75","K","2","","0","0","1","","0.302599165","","214","","0.2470456849","main_expt","0.6","0.2097526345","0.8","","","0.2","","0.4","0.302599165","0.08686614453","","","","","",""
"1610","","bandit","293","1107683","0.0-254.0-0.0","91251041","wem/bandit_either","A1RJ2LORL5PJHS","either","5","","","","","","","76","L","3","","0","0","1","","0.1068548489","","215","","0.3285383036","main_expt","0.6","0.1796882487","0.8","","","0.2","","0.4","0.2968005471","0.1068548489","","","","","",""
"474","","bandit","294","1109666","0.0-255.0-0.0","91251041","wem/bandit_either","A1RJ2LORL5PJHS","either","5","","","","","","","75","K","2","","0","0","1","","0.2835536598","","216","","0.3780044773","main_expt","0.6","0.2237900511","0.8","","","0.2","","0.4","0.2835536598","0.1211736082","","","","","",""
"140","","bandit","295","1111316","0.0-256.0-0.0","91251041","wem/bandit_either","A1RJ2LORL5PJHS","either","5","","","","","","","76","L","3","","0","0","1","","0.09343701815","","217","","0.3939228946","main_expt","0.6","0.2265358539","0.8","","","0.2","","0.4","0.2520762718","0.09343701815","","","","","",""
"1434","","bandit","296","1114258","0.0-257.0-0.0","91251041","wem/bandit_either","A1RJ2LORL5PJHS","either","5","","","","","","","74","J","1","","1","0","0","0.2364013437","","","218","0.3198270803","","main_expt","0.6","","0.8","0.2364013437","0.2562699476","0.2","0.1001055386","0.4","","","","","","","",""
"428","","bandit","297","1116200","0.0-258.0-0.0","91251041","wem/bandit_either","A1RJ2LORL5PJHS","either","5","","","","","","","74","J","1","","0","0","1","0.2810560361","","","219","0.3502502288","","main_expt","0.6","","0.8","0.2810560361","0.3002431464","0.2","0.09524874014","0.4","","","","","","","",""
"286","","bandit","298","1117996","0.0-259.0-0.0","91251041","wem/bandit_either","A1RJ2LORL5PJHS","either","5","","","","","","","75","K","2","","0","1","0","","0.3365413303","","220","","0.3402456168","main_expt","0.6","0.3027429446","0.8","","","0.2","","0.4","0.3365413303","0.1304899995","","","","","",""
"974","","bandit","299","1120482","0.0-260.0-0.0","91251041","wem/bandit_either","A1RJ2LORL5PJHS","either","5","","","","","","","76","L","3","","0","0","1","","0.1272814923","","221","","0.3770059732","main_expt","0.6","0.3132134988","0.8","","","0.2","","0.4","0.2946103072","0.1272814923","","","","","",""
"459","","bandit","300","1122452","0.0-261.0-0.0","91251041","wem/bandit_either","A1RJ2LORL5PJHS","either","5","","","","","","","72","H","0","img/none_selected.jpg","0","0","1","0.3864421123","","","222","0.3864421123","","main_expt","0.6","","0.8","0.2424821827","0.3267284332","0.2","0.1654407056","0.4","","","","","","","",""
"3975","","bandit","301","1127938","0.0-262.0-0.0","91251041","wem/bandit_either","A1RJ2LORL5PJHS","either","5","","","","","","","74","J","1","","0","0","1","0.2595367495","","","223","0.4205211408","","main_expt","0.6","","0.8","0.2595367495","0.3175152631","0.2","0.1788325852","0.4","","","","","","","",""
"699","","bandit","302","1130146","0.0-263.0-0.0","91251041","wem/bandit_either","A1RJ2LORL5PJHS","either","5","","","","","","","75","K","2","","0","0","1","","0.3192400935","","224","","0.4131889957","main_expt","0.6","0.328819141","0.8","","","0.2","","0.4","0.3192400935","0.1736623033","","","","","",""
"316","","bandit","303","1131970","0.0-264.0-0.0","91251041","wem/bandit_either","A1RJ2LORL5PJHS","either","5","","","","","","","72","H","0","img/none_selected.jpg","0","1","0","","0.4001513574","","225","","0.4001513574","main_expt","0.6","0.356121412","0.8","","","0.2","","0.4","0.3096750449","0.1721911447","","","","","",""
"55","","bandit","304","1133538","0.0-265.0-0.0","91251041","wem/bandit_either","A1RJ2LORL5PJHS","either","5","","","","","","","76","L","3","","0","0","1","","0.2133818582","","226","","0.3963688582","main_expt","0.6","0.3394019192","0.8","","","0.2","","0.4","0.3142833063","0.2133818582","","","","","",""
"55","","bandit","305","1135105","0.0-266.0-0.0","91251041","wem/bandit_either","A1RJ2LORL5PJHS","either","5","","","","","","","74","J","1","","0","0","1","0.2860553004","","","227","0.3979714495","","main_expt","0.6","","0.8","0.2860553004","0.3096885674","0.2","0.2620007467","0.4","","","","","","","",""
"567","","bandit","306","1137191","0.0-267.0-0.0","91251041","wem/bandit_either","A1RJ2LORL5PJHS","either","5","","","","","","","75","K","2","","0","1","0","","0.3048295172","","228","","0.3811043637","main_expt","0.6","0.2967856672","0.8","","","0.2","","0.4","0.3048295172","0.2961930455","","","","","",""
"611","","bandit","307","1139313","0.0-268.0-0.0","91251041","wem/bandit_either","A1RJ2LORL5PJHS","either","5","","","","","","","72","H","0","img/none_selected.jpg","0","1","0","","0.3488149186","","229","","0.3488149186","main_expt","0.6","0.2857745529","0.8","","","0.2","","0.4","0.2553920021","0.3081123415","","","","","",""
"555","","bandit","308","1141378","0.0-269.0-0.0","91251041","wem/bandit_either","A1RJ2LORL5PJHS","either","5","","","","","","","74","J","1","","0","0","1","0.2589404948","","","230","0.2883621188","","main_expt","0.6","","0.8","0.2589404948","0.2783794412","0.2","0.3027177586","0.4","","","","","","","",""
"1004","","bandit","309","1143890","0.0-270.0-0.0","91251041","wem/bandit_either","A1RJ2LORL5PJHS","either","5","","","","","","","76","L","3","","0","0","1","0.2495346478","","","231","0.2444465504","","main_expt","0.6","","0.8","0.2628441024","0.2735536708","0.2","0.2495346478","0.4","","","","","","","",""
"969","","bandit","310","1146370","0.0-271.0-0.0","91251041","wem/bandit_either","A1RJ2LORL5PJHS","either","5","","","","","","","74","J","1","","0","0","1","0.276537748","","","232","0.2996930955","","main_expt","0.6","","0.8","0.276537748","0.2262440502","0.2","0.2185872191","0.4","","","","","","","",""
"553","","bandit","311","1148434","0.0-272.0-0.0","91251041","wem/bandit_either","A1RJ2LORL5PJHS","either","5","","","","","","","72","H","0","img/none_selected.jpg","0","0","1","0.3103031796","","","233","0.3103031796","","main_expt","0.6","","0.8","0.2485723575","0.2171974885","0.2","0.1874863907","0.4","","","","","","","",""
"711","","bandit","312","1150658","0.0-273.0-0.0","91251041","wem/bandit_either","A1RJ2LORL5PJHS","either","5","","","","","","","75","K","2","","0","0","1","","0.2951485073","","234","","0.2971988612","main_expt","0.6","0.2172766866","0.8","","","0.2","","0.4","0.2951485073","0.2165838284","","","","","",""
"667","","bandit","313","1152834","0.0-274.0-0.0","91251041","wem/bandit_either","A1RJ2LORL5PJHS","either","5","","","","","","","76","L","3","","0","0","1","0.1791302586","","","235","0.3266576642","","main_expt","0.6","","0.8","0.221542824","0.3135740045","0.2","0.1791302586","0.4","","","","","","","",""
"508","","bandit","314","1154850","0.0-275.0-0.0","91251041","wem/bandit_either","A1RJ2LORL5PJHS","either","5","","","","","","","72","H","0","img/none_selected.jpg","0","1","0","","0.3596878827","","236","","0.3596878827","main_expt","0.6","0.2200573756","0.8","","","0.2","","0.4","0.2945285262","0.2463713802","","","","","",""
"742","","bandit","315","1157106","0.0-276.0-0.0","91251041","wem/bandit_either","A1RJ2LORL5PJHS","either","5","","","","","","","74","J","1","","0","0","1","0.2146478317","","","237","0.3951370387","","main_expt","0.6","","0.8","0.2146478317","0.2797454337","0.2","0.2204623923","0.4","","","","","","","",""
"647","","bandit","316","1159267","0.0-277.0-0.0","91251041","wem/bandit_either","A1RJ2LORL5PJHS","either","5","","","","","","","75","K","2","","0","0","1","","0.266453507","","238","","0.3863552979","main_expt","0.6","0.2237656472","0.8","","","0.2","","0.4","0.266453507","0.2316256556","","","","","",""
"922","","bandit","317","1161698","0.0-278.0-0.0","91251041","wem/bandit_either","A1RJ2LORL5PJHS","either","5","","","","","","","76","L","3","","0","0","1","","0.2406304147","","239","","0.3962704677","main_expt","0.6","0.2302611888","0.8","","","0.2","","0.4","0.310831157","0.2406304147","","","","","",""
"906","","bandit","318","1164114","0.0-279.0-0.0","91251041","wem/bandit_either","A1RJ2LORL5PJHS","either","5","","","","","","","72","H","0","img/none_selected.jpg","0","0","1","0.3926977495","","","240","0.3926977495","","main_expt","0.6","","0.8","0.2253069634","0.331950591","0.2","0.2624476398","0.4","","","","","","","",""
"1430","","bandit","319","1167058","0.0-280.0-0.0","91251041","wem/bandit_either","A1RJ2LORL5PJHS","either","5","","","","","","","74","J","1","","0","0","1","0.2523404353","","","241","0.3381110468","","main_expt","0.6","","0.8","0.2523404353","0.3223776605","0.2","0.2627099727","0.4","","","","","","","",""
"437","","bandit","320","1169010","0.0-281.0-0.0","91251041","wem/bandit_either","A1RJ2LORL5PJHS","either","5","","","","","","","75","K","2","","1","0","0","0.3389272588","","","242","0.3213381148","","main_expt","0.6","","0.8","0.238450381","0.3389272588","0.2","0.2262339403","0.4","","","","","","","",""
"330","","bandit","321","1170850","0.0-282.0-0.0","91251041","wem/bandit_either","A1RJ2LORL5PJHS","either","5","","","","","","","75","K","2","","0","0","1","","0.4023830898","","243","","0.3395415742","main_expt","0.6","0.2476478509","0.8","","","0.2","","0.4","0.4023830898","0.2511573395","","","","","",""
"423","","bandit","322","1172787","0.0-283.0-0.0","91251041","wem/bandit_either","A1RJ2LORL5PJHS","either","5","","","","","","","76","L","3","","0","0","1","","0.3112309098","","244","","0.3077285799","main_expt","0.6","0.2603762171","0.8","","","0.2","","0.4","0.4072225753","0.3112309098","","","","","",""
"1623","","bandit","323","1175921","0.0-284.0-0.0","91251041","wem/bandit_either","A1RJ2LORL5PJHS","either","5","","","","","","","74","J","1","","1","0","0","0.2778117757","","","245","0.269997398","","main_expt","0.6","","0.8","0.2778117757","0.4047901721","0.2","0.3169667097","0.4","","","","","","","",""
"364","","bandit","324","1177794","0.0-285.0-0.0","91251041","wem/bandit_either","A1RJ2LORL5PJHS","either","5","","","","","","","74","J","1","","0","0","1","0.2571702875","","","246","0.2896792764","","main_expt","0.6","","0.8","0.2571702875","0.4245844383","0.2","0.3774934029","0.4","","","","","","","",""
"869","","bandit","325","1180178","0.0-286.0-0.0","91251041","wem/bandit_either","A1RJ2LORL5PJHS","either","5","","","","","","","72","H","0","img/none_selected.jpg","0","0","1","","0.3079745892","","247","","0.3079745892","main_expt","0.6","0.2790325972","0.8","","","0.2","","0.4","0.4425022826","0.3592590195","","","","","",""
"122","","bandit","326","1181809","0.0-287.0-0.0","91251041","wem/bandit_either","A1RJ2LORL5PJHS","either","5","","","","","","","75","K","2","","0","0","1","","0.4454461089","","248","","0.2306801962","main_expt","0.6","0.2665328125","0.8","","","0.2","","0.4","0.4454461089","0.3659800935","","","","","",""
"121","","bandit","327","1183443","0.0-288.0-0.0","91251041","wem/bandit_either","A1RJ2LORL5PJHS","either","5","","","","","","","76","L","3","","0","0","1","","0.3940863056","","249","","0.2363838343","main_expt","0.6","0.2666328085","0.8","","","0.2","","0.4","0.4565985803","0.3940863056","","","","","",""
"151","","bandit","328","1185106","0.0-289.0-0.0","91251041","wem/bandit_either","A1RJ2LORL5PJHS","either","5","","","","","","","74","J","1","","0","0","1","0.2637425143","","","250","0.2865845142","","main_expt","0.6","","0.8","0.2637425143","0.4666950096","0.2","0.3652193683","0.4","","","","","","","",""
"233","","bandit","329","1186850","0.0-290.0-0.0","91251041","wem/bandit_either","A1RJ2LORL5PJHS","either","5","","","","","","","72","H","0","img/none_selected.jpg","0","0","1","","0.3527425442","","251","","0.3527425442","main_expt","0.6","0.3041279159","0.8","","","0.2","","0.4","0.4491167865","0.3118516898","","","","","",""
"389","","bandit","330","1188753","0.0-291.0-0.0","91251041","wem/bandit_either","A1RJ2LORL5PJHS","either","5","","","","","","","75","K","2","","0","0","1","","0.4512042396","","252","","0.3236638898","main_expt","0.6","0.3054217384","0.8","","","0.2","","0.4","0.4512042396","0.3291033061","","","","","",""
"343","","bandit","331","1190610","0.0-292.0-0.0","91251041","wem/bandit_either","A1RJ2LORL5PJHS","either","5","","","","","","","74","J","1","","0","0","1","0.3241125582","","","253","0.2905162115","","main_expt","0.6","","0.8","0.3241125582","0.4572977034","0.2","0.35413613","0.4","","","","","","","",""
