"rt","responses","trial_type","trial_index","time_elapsed","internal_node_id","subjID","study","MID","cond","drift","key_press","expt_phase","target","like","value","connected","respCharCode","respKey","respChoiceNum","respChoice","gems","bombs","no_reward","GemPrChosen","BombPrChosen","practice","trial_counter","WinPr_0","LosePr_0","trial_label","GainOverPainPr_0","LosePr_1","GainOverPainPr_1","WinPr_1","WinPr_2","GainOverPainPr_2","WinPr_3","GainOverPainPr_3","LosePr_2","LosePr_3","Q0","Q1","Q2","gender","age","ethnicity"
"5867","{""Q0"":""A16UAN46CNIRHY""}","survey-text","0","5877","0.0-0.0","91446342","wem/bandit_either","A16UAN46CNIRHY","either","1","","","","","","","","","","","","","","","","","","","","","","","","","","","","","","","","","","","",""
"18335","","text","1","25217","0.0-1.0","91446342","wem/bandit_either","A16UAN46CNIRHY","either","1","32","","","","","","","","","","","","","","","","","","","","","","","","","","","","","","","","","","",""
"9849","","text","2","35068","0.0-2.0","91446342","wem/bandit_either","A16UAN46CNIRHY","either","1","32","","","","","","","","","","","","","","","","","","","","","","","","","","","","","","","","","","",""
"31644","","text","3","66712","0.0-3.0","91446342","wem/bandit_either","A16UAN46CNIRHY","either","1","32","","","","","","","","","","","","","","","","","","","","","","","","","","","","","","","","","","",""
"17472","","text","4","84186","0.0-4.0","91446342","wem/bandit_either","A16UAN46CNIRHY","either","1","32","","","","","","","","","","","","","","","","","","","","","","","","","","","","","","","","","","",""
"21691","","text","5","105878","0.0-5.0","91446342","wem/bandit_either","A16UAN46CNIRHY","either","1","32","","","","","","","","","","","","","","","","","","","","","","","","","","","","","","","","","","",""
"8441","","text","6","114320","0.0-6.0","91446342","wem/bandit_either","A16UAN46CNIRHY","either","1","32","","","","","","","","","","","","","","","","","","","","","","","","","","","","","","","","","","",""
"6640","","text","7","120962","0.0-7.0","91446342","wem/bandit_either","A16UAN46CNIRHY","either","1","32","","","","","","","","","","","","","","","","","","","","","","","","","","","","","","","","","","",""
"8151","","identification","8","129131","0.0-8.0-0.0","91446342","wem/bandit_either","A16UAN46CNIRHY","either","1","","identification_pre","the village of Zur","6","6","6","","","","","","","","","","","","","","","","","","","","","","","","","","","","","",""
"7558","","identification","9","137700","0.0-8.0-1.0","91446342","wem/bandit_either","A16UAN46CNIRHY","either","1","","identification_pre","the village of Nyx","0","0","0","","","","","","","","","","","","","","","","","","","","","","","","","","","","","",""
"5480","","text","10","144183","0.0-9.0","91446342","wem/bandit_either","A16UAN46CNIRHY","either","1","32","","","","","","","","","","","","","","","","","","","","","","","","","","","","","","","","","","",""
"4687","","text","11","148871","0.0-10.0","91446342","wem/bandit_either","A16UAN46CNIRHY","either","1","32","","","","","","","","","","","","","","","","","","","","","","","","","","","","","","","","","","",""
"4376","","text","12","153248","0.0-11.0","91446342","wem/bandit_either","A16UAN46CNIRHY","either","1","32","","","","","","","","","","","","","","","","","","","","","","","","","","","","","","","","","","",""
"8581","","text","13","161831","0.0-12.0","91446342","wem/bandit_either","A16UAN46CNIRHY","either","1","32","","","","","","","","","","","","","","","","","","","","","","","","","","","","","","","","","","",""
"2624","","bandit","14","165962","0.0-13.0-0.0","91446342","wem/bandit_either","A16UAN46CNIRHY","either","1","","","","","","","74","J","0","img/none_selected_demo.jpg","0","0","1","0","0","true","0","0","0","","","","","","","","","","","","","","","","",""
"1637","","bandit","15","169106","0.0-14.0-0.0","91446342","wem/bandit_either","A16UAN46CNIRHY","either","1","","","","","","","75","K","0","img/none_selected_demo.jpg","0","0","1","0","0","true","0","0","0","","","","","","","","","","","","","","","","",""
"12468","","text","16","181576","0.0-15.0","91446342","wem/bandit_either","A16UAN46CNIRHY","either","1","32","","","","","","","","","","","","","","","","","","","","","","","","","","","","","","","","","","",""
"9460","","text","17","191037","0.0-16.0","91446342","wem/bandit_either","A16UAN46CNIRHY","either","1","32","","","","","","","","","","","","","","","","","","","","","","","","","","","","","","","","","","",""
"8561","","text","18","199599","0.0-17.0","91446342","wem/bandit_either","A16UAN46CNIRHY","either","1","32","","","","","","","","","","","","","","","","","","","","","","","","","","","","","","","","","","",""
"2753","","text","19","202352","0.0-18.0","91446342","wem/bandit_either","A16UAN46CNIRHY","either","1","32","","","","","","","","","","","","","","","","","","","","","","","","","","","","","","","","","","",""
"1874","","bandit","20","205732","0.0-19.0-0.0","91446342","wem/bandit_either","A16UAN46CNIRHY","either","1","","","","","","","74","J","0","img/none_selected_demo.jpg","0","1","0","","0.8","true","0","","0.8","80_20_practice","0.5","0.2","0.5","","","","","","","","","","","","",""
"1132","","bandit","21","208373","0.0-19.0-1.0","91446342","wem/bandit_either","A16UAN46CNIRHY","either","1","","","","","","","75","K","1","","1","0","0","0.2","","true","0","0.8","","80_20_practice","0.5","","0.5","0.2","","","","","","","","","","","",""
"710","","bandit","22","210588","0.0-19.0-2.0","91446342","wem/bandit_either","A16UAN46CNIRHY","either","1","","","","","","","75","K","1","","0","0","1","","0.2","true","0","","0.8","80_20_practice","0.5","0.2","0.5","","","","","","","","","","","","",""
"836","","bandit","23","212930","0.0-19.0-3.0","91446342","wem/bandit_either","A16UAN46CNIRHY","either","1","","","","","","","74","J","0","img/none_selected_demo.jpg","1","0","0","0.8","","true","0","0.8","","80_20_practice","0.5","","0.5","0.2","","","","","","","","","","","",""
"681","","bandit","24","215116","0.0-19.0-4.0","91446342","wem/bandit_either","A16UAN46CNIRHY","either","1","","","","","","","74","J","0","img/none_selected_demo.jpg","0","0","1","0.8","","true","0","0.8","","80_20_practice","0.5","","0.5","0.2","","","","","","","","","","","",""
"895","","bandit","25","217517","0.0-19.0-5.0","91446342","wem/bandit_either","A16UAN46CNIRHY","either","1","","","","","","","75","K","1","","0","0","1","0.2","","true","0","0.8","","80_20_practice","0.5","","0.5","0.2","","","","","","","","","","","",""
"732","","bandit","26","219755","0.0-19.0-6.0","91446342","wem/bandit_either","A16UAN46CNIRHY","either","1","","","","","","","74","J","0","img/none_selected_demo.jpg","0","1","0","","0.8","true","0","","0.8","80_20_practice","0.5","0.2","0.5","","","","","","","","","","","","",""
"943","","bandit","27","222204","0.0-19.0-7.0","91446342","wem/bandit_either","A16UAN46CNIRHY","either","1","","","","","","","74","J","0","img/none_selected_demo.jpg","1","0","0","0.8","","true","0","0.8","","80_20_practice","0.5","","0.5","0.2","","","","","","","","","","","",""
"1211","","bandit","28","224920","0.0-19.0-8.0","91446342","wem/bandit_either","A16UAN46CNIRHY","either","1","","","","","","","75","K","1","","0","0","1","","0.2","true","0","","0.8","80_20_practice","0.5","0.2","0.5","","","","","","","","","","","","",""
"644","","bandit","29","227072","0.0-19.0-9.0","91446342","wem/bandit_either","A16UAN46CNIRHY","either","1","","","","","","","75","K","1","","1","0","0","0.2","","true","0","0.8","","80_20_practice","0.5","","0.5","0.2","","","","","","","","","","","",""
"779","","bandit","30","229359","0.0-19.0-10.0","91446342","wem/bandit_either","A16UAN46CNIRHY","either","1","","","","","","","75","K","1","","0","0","1","0.2","","true","0","0.8","","80_20_practice","0.5","","0.5","0.2","","","","","","","","","","","",""
"556","","bandit","31","231422","0.0-19.0-11.0","91446342","wem/bandit_either","A16UAN46CNIRHY","either","1","","","","","","","74","J","0","img/none_selected_demo.jpg","0","1","0","","0.8","true","0","","0.8","80_20_practice","0.5","0.2","0.5","","","","","","","","","","","","",""
"632","","bandit","32","233559","0.0-19.0-12.0","91446342","wem/bandit_either","A16UAN46CNIRHY","either","1","","","","","","","74","J","0","img/none_selected_demo.jpg","1","0","0","0.8","","true","0","0.8","","80_20_practice","0.5","","0.5","0.2","","","","","","","","","","","",""
"567","","bandit","33","235634","0.0-19.0-13.0","91446342","wem/bandit_either","A16UAN46CNIRHY","either","1","","","","","","","74","J","0","img/none_selected_demo.jpg","0","1","0","","0.8","true","0","","0.8","80_20_practice","0.5","0.2","0.5","","","","","","","","","","","","",""
"744","","bandit","34","237887","0.0-19.0-14.0","91446342","wem/bandit_either","A16UAN46CNIRHY","either","1","","","","","","","74","J","0","img/none_selected_demo.jpg","0","0","1","","0.8","true","0","","0.8","80_20_practice","0.5","0.2","0.5","","","","","","","","","","","","",""
"759","","bandit","35","240153","0.0-19.0-15.0","91446342","wem/bandit_either","A16UAN46CNIRHY","either","1","","","","","","","74","J","0","img/none_selected_demo.jpg","0","1","0","","0.8","true","0","","0.8","80_20_practice","0.5","0.2","0.5","","","","","","","","","","","","",""
"812","","bandit","36","242473","0.0-19.0-16.0","91446342","wem/bandit_either","A16UAN46CNIRHY","either","1","","","","","","","74","J","0","img/none_selected_demo.jpg","1","0","0","0.8","","true","0","0.8","","80_20_practice","0.5","","0.5","0.2","","","","","","","","","","","",""
"914","","bandit","37","244895","0.0-19.0-17.0","91446342","wem/bandit_either","A16UAN46CNIRHY","either","1","","","","","","","75","K","1","","0","0","1","0.2","","true","0","0.8","","80_20_practice","0.5","","0.5","0.2","","","","","","","","","","","",""
"650","","bandit","38","247052","0.0-19.0-18.0","91446342","wem/bandit_either","A16UAN46CNIRHY","either","1","","","","","","","75","K","1","","0","0","1","","0.2","true","0","","0.8","80_20_practice","0.5","0.2","0.5","","","","","","","","","","","","",""
"558","","bandit","39","249114","0.0-19.0-19.0","91446342","wem/bandit_either","A16UAN46CNIRHY","either","1","","","","","","","75","K","1","","0","0","1","","0.2","true","0","","0.8","80_20_practice","0.5","0.2","0.5","","","","","","","","","","","","",""
"4176","","text","40","253327","0.0-20.0","91446342","wem/bandit_either","A16UAN46CNIRHY","either","1","32","","","","","","","","","","","","","","","","","","","","","","","","","","","","","","","","","","",""
"694","","bandit","41","255528","0.0-21.0-0.0","91446342","wem/bandit_either","A16UAN46CNIRHY","either","1","","","","","","","74","J","0","img/none_selected_demo.jpg","1","0","0","1","0","true","0","1","0","","","1","","0","","","","","","","","","","","",""
"7640","","text","42","263172","0.0-22.0","91446342","wem/bandit_either","A16UAN46CNIRHY","either","1","32","","","","","","","","","","","","","","","","","","","","","","","","","","","","","","","","","","",""
"3770","","text","43","266944","0.0-23.0","91446342","wem/bandit_either","A16UAN46CNIRHY","either","1","32","","","","","","","","","","","","","","","","","","","","","","","","","","","","","","","","","","",""
"5517","","text","44","272462","0.0-24.0","91446342","wem/bandit_either","A16UAN46CNIRHY","either","1","32","","","","","","","","","","","","","","","","","","","","","","","","","","","","","","","","","","",""
"4881","","text","45","277345","0.0-25.0","91446342","wem/bandit_either","A16UAN46CNIRHY","either","1","32","","","","","","","","","","","","","","","","","","","","","","","","","","","","","","","","","","",""
"30554","","text","46","307901","0.0-26.0","91446342","wem/bandit_either","A16UAN46CNIRHY","either","1","32","","","","","","","","","","","","","","","","","","","","","","","","","","","","","","","","","","",""
"5140","","text","47","313043","0.0-27.0","91446342","wem/bandit_either","A16UAN46CNIRHY","either","1","32","","","","","","","","","","","","","","","","","","","","","","","","","","","","","","","","","","",""
"7632","","text","48","320677","0.0-28.0","91446342","wem/bandit_either","A16UAN46CNIRHY","either","1","32","","","","","","","","","","","","","","","","","","","","","","","","","","","","","","","","","","",""
"4755","","text","49","325434","0.0-29.0","91446342","wem/bandit_either","A16UAN46CNIRHY","either","1","32","","","","","","","","","","","","","","","","","","","","","","","","","","","","","","","","","","",""
"4037","","text","50","329472","0.0-30.0","91446342","wem/bandit_either","A16UAN46CNIRHY","either","1","32","","","","","","","","","","","","","","","","","","","","","","","","","","","","","","","","","","",""
"2088","","text","51","331563","0.0-31.0","91446342","wem/bandit_either","A16UAN46CNIRHY","either","1","32","","","","","","","","","","","","","","","","","","","","","","","","","","","","","","","","","","",""
"4023","","text","52","335588","0.0-32.0","91446342","wem/bandit_either","A16UAN46CNIRHY","either","1","32","","","","","","","","","","","","","","","","","","","","","","","","","","","","","","","","","","",""
"774","","bandit","53","337869","0.0-33.0-0.0","91446342","wem/bandit_either","A16UAN46CNIRHY","either","1","","","","","","","72","H","0","img/none_selected.jpg","1","0","0","0.8","","true","0","0.8","","full_practice","0.5","","0.5","0.2","0.6","0.5","0.2","0.5","","","","","","","",""
"956","","bandit","54","340335","0.0-33.0-1.0","91446342","wem/bandit_either","A16UAN46CNIRHY","either","1","","","","","","","74","J","1","","0","0","1","","0.2","true","0","","0.8","full_practice","0.5","0.2","0.5","","","0.5","","0.5","0.6","0.2","","","","","",""
"857","","bandit","55","342700","0.0-33.0-2.0","91446342","wem/bandit_either","A16UAN46CNIRHY","either","1","","","","","","","74","J","1","","0","0","1","0.2","","true","0","0.8","","full_practice","0.5","","0.5","0.2","0.6","0.5","0.2","0.5","","","","","","","",""
"2189","","bandit","56","346396","0.0-33.0-3.0","91446342","wem/bandit_either","A16UAN46CNIRHY","either","1","","","","","","","75","K","2","","0","0","1","0.6","","true","0","0.8","","full_practice","0.5","","0.5","0.2","0.6","0.5","0.2","0.5","","","","","","","",""
"347","","bandit","57","348252","0.0-33.0-4.0","91446342","wem/bandit_either","A16UAN46CNIRHY","either","1","","","","","","","76","L","3","","0","0","1","","0.2","true","0","","0.8","full_practice","0.5","0.2","0.5","","","0.5","","0.5","0.6","0.2","","","","","",""
"414","","bandit","58","350175","0.0-33.0-5.0","91446342","wem/bandit_either","A16UAN46CNIRHY","either","1","","","","","","","72","H","0","img/none_selected.jpg","0","1","0","","0.8","true","0","","0.8","full_practice","0.5","0.2","0.5","","","0.5","","0.5","0.6","0.2","","","","","",""
"431","","bandit","59","352112","0.0-33.0-6.0","91446342","wem/bandit_either","A16UAN46CNIRHY","either","1","","","","","","","72","H","0","img/none_selected.jpg","1","0","0","0.8","","true","0","0.8","","full_practice","0.5","","0.5","0.2","0.6","0.5","0.2","0.5","","","","","","","",""
"321","","bandit","60","353939","0.0-33.0-7.0","91446342","wem/bandit_either","A16UAN46CNIRHY","either","1","","","","","","","72","H","0","img/none_selected.jpg","0","1","0","","0.8","true","0","","0.8","full_practice","0.5","0.2","0.5","","","0.5","","0.5","0.6","0.2","","","","","",""
"372","","bandit","61","355819","0.0-33.0-8.0","91446342","wem/bandit_either","A16UAN46CNIRHY","either","1","","","","","","","72","H","0","img/none_selected.jpg","1","0","0","0.8","","true","0","0.8","","full_practice","0.5","","0.5","0.2","0.6","0.5","0.2","0.5","","","","","","","",""
"477","","bandit","62","357807","0.0-33.0-9.0","91446342","wem/bandit_either","A16UAN46CNIRHY","either","1","","","","","","","72","H","0","img/none_selected.jpg","0","0","1","0.8","","true","0","0.8","","full_practice","0.5","","0.5","0.2","0.6","0.5","0.2","0.5","","","","","","","",""
"344","","bandit","63","359659","0.0-33.0-10.0","91446342","wem/bandit_either","A16UAN46CNIRHY","either","1","","","","","","","75","K","2","","0","1","0","","0.6","true","0","","0.8","full_practice","0.5","0.2","0.5","","","0.5","","0.5","0.6","0.2","","","","","",""
"393","","bandit","64","361562","0.0-33.0-11.0","91446342","wem/bandit_either","A16UAN46CNIRHY","either","1","","","","","","","75","K","2","","0","1","0","","0.6","true","0","","0.8","full_practice","0.5","0.2","0.5","","","0.5","","0.5","0.6","0.2","","","","","",""
"369","","bandit","65","363439","0.0-33.0-12.0","91446342","wem/bandit_either","A16UAN46CNIRHY","either","1","","","","","","","75","K","2","","0","1","0","","0.6","true","0","","0.8","full_practice","0.5","0.2","0.5","","","0.5","","0.5","0.6","0.2","","","","","",""
"419","","bandit","66","365369","0.0-33.0-13.0","91446342","wem/bandit_either","A16UAN46CNIRHY","either","1","","","","","","","75","K","2","","1","0","0","0.6","","true","0","0.8","","full_practice","0.5","","0.5","0.2","0.6","0.5","0.2","0.5","","","","","","","",""
"327","","bandit","67","367206","0.0-33.0-14.0","91446342","wem/bandit_either","A16UAN46CNIRHY","either","1","","","","","","","75","K","2","","1","0","0","0.6","","true","0","0.8","","full_practice","0.5","","0.5","0.2","0.6","0.5","0.2","0.5","","","","","","","",""
"233","","bandit","68","368949","0.0-33.0-15.0","91446342","wem/bandit_either","A16UAN46CNIRHY","either","1","","","","","","","75","K","2","","0","0","1","0.6","","true","0","0.8","","full_practice","0.5","","0.5","0.2","0.6","0.5","0.2","0.5","","","","","","","",""
"328","","bandit","69","370786","0.0-33.0-16.0","91446342","wem/bandit_either","A16UAN46CNIRHY","either","1","","","","","","","74","J","1","","0","0","1","0.2","","true","0","0.8","","full_practice","0.5","","0.5","0.2","0.6","0.5","0.2","0.5","","","","","","","",""
"281","","bandit","70","372575","0.0-33.0-17.0","91446342","wem/bandit_either","A16UAN46CNIRHY","either","1","","","","","","","76","L","3","","0","0","1","","0.2","true","0","","0.8","full_practice","0.5","0.2","0.5","","","0.5","","0.5","0.6","0.2","","","","","",""
"237","","bandit","71","374321","0.0-33.0-18.0","91446342","wem/bandit_either","A16UAN46CNIRHY","either","1","","","","","","","74","J","1","","0","0","1","0.2","","true","0","0.8","","full_practice","0.5","","0.5","0.2","0.6","0.5","0.2","0.5","","","","","","","",""
"481","","bandit","72","376313","0.0-33.0-19.0","91446342","wem/bandit_either","A16UAN46CNIRHY","either","1","","","","","","","75","K","2","","1","0","0","0.6","","true","0","0.8","","full_practice","0.5","","0.5","0.2","0.6","0.5","0.2","0.5","","","","","","","",""
"3418","","text","73","379740","0.0-34.0","91446342","wem/bandit_either","A16UAN46CNIRHY","either","1","32","","","","","","","","","","","","","","","","","","","","","","","","","","","","","","","","","","",""
"14053","","text","74","394796","0.0-35.0","91446342","wem/bandit_either","A16UAN46CNIRHY","either","1","32","","","","","","","","","","","","","","","","","","","","","","","","","","","","","","","","","","",""
"7457","","text","75","402255","0.0-36.0","91446342","wem/bandit_either","A16UAN46CNIRHY","either","1","32","","","","","","","","","","","","","","","","","","","","","","","","","","","","","","","","","","",""
"2903","","text","76","405161","0.0-37.0","91446342","wem/bandit_either","A16UAN46CNIRHY","either","1","32","","","","","","","","","","","","","","","","","","","","","","","","","","","","","","","","","","",""
"2321","","text","77","407485","0.0-38.0","91446342","wem/bandit_either","A16UAN46CNIRHY","either","1","32","","","","","","","","","","","","","","","","","","","","","","","","","","","","","","","","","","",""
"2779","","text","78","410268","0.0-39.0","91446342","wem/bandit_either","A16UAN46CNIRHY","either","1","32","","","","","","","","","","","","","","","","","","","","","","","","","","","","","","","","","","",""
"1041","","bandit","79","412816","0.0-40.0-0.0","91446342","wem/bandit_either","A16UAN46CNIRHY","either","1","","","","","","","72","H","0","img/none_selected.jpg","0","0","1","","0.0798457429","","1","","0.0798457429","main_expt","0.2","0.3592836462","0.8","","","0.4","","0.6","0.4269289603","0.02943109976","","","","","",""
"315","","bandit","80","414637","0.0-41.0-0.0","91446342","wem/bandit_either","A16UAN46CNIRHY","either","1","","","","","","","74","J","1","","0","0","1","0.3454903542","","","2","0.07621336767","","main_expt","0.2","","0.8","0.3454903542","0.4660243271","0.4","0.06336112212","0.6","","","","","","","",""
"223","","bandit","81","416367","0.0-42.0-0.0","91446342","wem/bandit_either","A16UAN46CNIRHY","either","1","","","","","","","75","K","2","","0","0","1","","0.4738503749","","3","","0.07476295528","main_expt","0.2","0.2941512374","0.8","","","0.4","","0.6","0.4738503749","0.07335687118","","","","","",""
"159","","bandit","82","418036","0.0-43.0-0.0","91446342","wem/bandit_either","A16UAN46CNIRHY","either","1","","","","","","","76","L","3","","0","0","1","","0.06156305515","","4","","0.06526985361","main_expt","0.2","0.2851241965","0.8","","","0.4","","0.6","0.4618500418","0.06156305515","","","","","",""
"101","","bandit","83","419645","0.0-44.0-0.0","91446342","wem/bandit_either","A16UAN46CNIRHY","either","1","","","","","","","75","K","2","","0","0","1","0.4488935273","","","5","0.05487735528","","main_expt","0.2","","0.8","0.3172925843","0.4488935273","0.4","0.08141194251","0.6","","","","","","","",""
"136","","bandit","84","421292","0.0-45.0-0.0","91446342","wem/bandit_either","A16UAN46CNIRHY","either","1","","","","","","","72","H","0","img/none_selected.jpg","0","0","1","","0.04340015571","","6","","0.04340015571","main_expt","0.2","0.3319153021","0.8","","","0.4","","0.6","0.4437832297","0.1104821702","","","","","",""
"59","","bandit","85","422858","0.0-46.0-0.0","91446342","wem/bandit_either","A16UAN46CNIRHY","either","1","","","","","","","74","J","1","","0","0","1","0.3553039772","","","7","0.04575060371","","main_expt","0.2","","0.8","0.3553039772","0.4310077805","0.4","0.1191408541","0.6","","","","","","","",""
"104","","bandit","86","424470","0.0-47.0-0.0","91446342","wem/bandit_either","A16UAN46CNIRHY","either","1","","","","","","","76","L","3","","1","0","0","0.1517570037","","","8","0.06112087539","","main_expt","0.2","","0.8","0.3868093767","0.4480386191","0.4","0.1517570037","0.6","","","","","","","",""
"243","","bandit","87","426223","0.0-48.0-0.0","91446342","wem/bandit_either","A16UAN46CNIRHY","either","1","","","","","","","76","L","3","","0","1","0","","0.1738087075","","9","","0.07854191076","main_expt","0.2","0.3754406694","0.8","","","0.4","","0.6","0.4460224538","0.1738087075","","","","","",""
"222","","bandit","88","427954","0.0-49.0-0.0","91446342","wem/bandit_either","A16UAN46CNIRHY","either","1","","","","","","","76","L","3","","0","0","1","","0.2033535465","","10","","0.06865483858","main_expt","0.2","0.3537433427","0.8","","","0.4","","0.6","0.3954493452","0.2033535465","","","","","",""
"186","","bandit","89","429648","0.0-50.0-0.0","91446342","wem/bandit_either","A16UAN46CNIRHY","either","1","","","","","","","76","L","3","","0","1","0","","0.1751631116","","11","","0.05083805298","main_expt","0.2","0.3793358735","0.8","","","0.4","","0.6","0.4064238371","0.1751631116","","","","","",""
"179","","bandit","90","431338","0.0-51.0-0.0","91446342","wem/bandit_either","A16UAN46CNIRHY","either","1","","","","","","","76","L","3","","0","1","0","","0.1787487179","","12","","0.1038792476","main_expt","0.2","0.3800428212","0.8","","","0.4","","0.6","0.3800839449","0.1787487179","","","","","",""
"191","","bandit","91","433039","0.0-52.0-0.0","91446342","wem/bandit_either","A16UAN46CNIRHY","either","1","","","","","","","76","L","3","","0","0","1","0.1794712961","","","13","0.1197284353","","main_expt","0.2","","0.8","0.3647981021","0.3866628193","0.4","0.1794712961","0.6","","","","","","","",""
"280","","bandit","92","434829","0.0-53.0-0.0","91446342","wem/bandit_either","A16UAN46CNIRHY","either","1","","","","","","","76","L","3","","0","0","1","","0.2482140722","","14","","0.135681701","main_expt","0.2","0.3646471907","0.8","","","0.4","","0.6","0.326509825","0.2482140722","","","","","",""
"213","","bandit","93","436552","0.0-54.0-0.0","91446342","wem/bandit_either","A16UAN46CNIRHY","either","1","","","","","","","75","K","2","","0","0","1","","0.2428529647","","15","","0.125153919","main_expt","0.2","0.3549291363","0.8","","","0.4","","0.6","0.2428529647","0.2859415589","","","","","",""
"93","","bandit","94","438154","0.0-55.0-0.0","91446342","wem/bandit_either","A16UAN46CNIRHY","either","1","","","","","","","74","J","1","","0","0","1","","0.3727350689","","16","","0.1096891688","main_expt","0.2","0.3727350689","0.8","","","0.4","","0.6","0.2332962783","0.26587149","","","","","",""
"277","","bandit","95","439943","0.0-56.0-0.0","91446342","wem/bandit_either","A16UAN46CNIRHY","either","1","","","","","","","72","H","0","img/none_selected.jpg","0","0","1","0.1051581447","","","17","0.1051581447","","main_expt","0.2","","0.8","0.3112083829","0.2271032234","0.4","0.2776265896","0.6","","","","","","","",""
"665","","bandit","96","442118","0.0-57.0-0.0","91446342","wem/bandit_either","A16UAN46CNIRHY","either","1","","","","","","","76","L","3","","1","0","0","0.3223387563","","","18","0.1437943492","","main_expt","0.2","","0.8","0.2403081055","0.1701710303","0.4","0.3223387563","0.6","","","","","","","",""
"295","","bandit","97","443924","0.0-58.0-0.0","91446342","wem/bandit_either","A16UAN46CNIRHY","either","1","","","","","","","76","L","3","","0","1","0","","0.3192918255","","19","","0.1405615485","main_expt","0.2","0.2377482675","0.8","","","0.4","","0.6","0.2070198111","0.3192918255","","","","","",""
"370","","bandit","98","445806","0.0-59.0-0.0","91446342","wem/bandit_either","A16UAN46CNIRHY","either","1","","","","","","","76","L","3","","0","0","1","0.2739159796","","","20","0.1063334751","","main_expt","0.2","","0.8","0.2607530295","0.2412547966","0.4","0.2739159796","0.6","","","","","","","",""
"332","","bandit","99","447648","0.0-60.0-0.0","91446342","wem/bandit_either","A16UAN46CNIRHY","either","1","","","","","","","76","L","3","","0","0","1","0.2454385858","","","21","0.07848250716","","main_expt","0.2","","0.8","0.2919400674","0.2184758186","0.4","0.2454385858","0.6","","","","","","","",""
"305","","bandit","100","449465","0.0-61.0-0.0","91446342","wem/bandit_either","A16UAN46CNIRHY","either","1","","","","","","","74","J","1","","0","0","1","0.2995681058","","","22","0.1005082742","","main_expt","0.2","","0.8","0.2995681058","0.1849325376","0.4","0.2340842041","0.6","","","","","","","",""
"162","","bandit","101","451138","0.0-62.0-0.0","91446342","wem/bandit_either","A16UAN46CNIRHY","either","1","","","","","","","75","K","2","","0","1","0","","0.1521197653","","23","","0.0792694407","main_expt","0.2","0.292554742","0.8","","","0.4","","0.6","0.1521197653","0.1840173947","","","","","",""
"285","","bandit","102","452931","0.0-63.0-0.0","91446342","wem/bandit_either","A16UAN46CNIRHY","either","1","","","","","","","75","K","2","","0","1","0","","0.1759403195","","24","","0.07358699385","main_expt","0.2","0.3616894364","0.8","","","0.4","","0.6","0.1759403195","0.1745529383","","","","","",""
"320","","bandit","103","454759","0.0-64.0-0.0","91446342","wem/bandit_either","A16UAN46CNIRHY","either","1","","","","","","","75","K","2","","0","1","0","","0.09479311865","","25","","0.142208116","main_expt","0.2","0.3575757263","0.8","","","0.4","","0.6","0.09479311865","0.1756582033","","","","","",""
"336","","bandit","104","456604","0.0-65.0-0.0","91446342","wem/bandit_either","A16UAN46CNIRHY","either","1","","","","","","","75","K","2","","0","0","1","","0.08156123497","","26","","0.1245113583","main_expt","0.2","0.3635346368","0.8","","","0.4","","0.6","0.08156123497","0.2086365416","","","","","",""
"332","","bandit","105","458447","0.0-66.0-0.0","91446342","wem/bandit_either","A16UAN46CNIRHY","either","1","","","","","","","75","K","2","","0","0","1","","0.1102307873","","27","","0.118364605","main_expt","0.2","0.4109801844","0.8","","","0.4","","0.6","0.1102307873","0.2139763749","","","","","",""
"203","","bandit","106","460158","0.0-67.0-0.0","91446342","wem/bandit_either","A16UAN46CNIRHY","either","1","","","","","","","76","L","3","","0","1","0","","0.1613483267","","28","","0.1105930361","main_expt","0.2","0.3772962545","0.8","","","0.4","","0.6","0.08274430796","0.1613483267","","","","","",""
"276","","bandit","107","461942","0.0-68.0-0.0","91446342","wem/bandit_either","A16UAN46CNIRHY","either","1","","","","","","","76","L","3","","0","0","1","0.1712488152","","","29","0.1118713044","","main_expt","0.2","","0.8","0.3875745016","0.1086911099","0.4","0.1712488152","0.6","","","","","","","",""
"290","","bandit","108","463743","0.0-69.0-0.0","91446342","wem/bandit_either","A16UAN46CNIRHY","either","1","","","","","","","76","L","3","","1","0","0","0.1675524316","","","30","0.1914750456","","main_expt","0.2","","0.8","0.3780019893","0.1116575632","0.4","0.1675524316","0.6","","","","","","","",""
"296","","bandit","109","465549","0.0-70.0-0.0","91446342","wem/bandit_either","A16UAN46CNIRHY","either","1","","","","","","","76","L","3","","0","0","1","","0.140325158","","31","","0.2367730164","main_expt","0.2","0.416860241","0.8","","","0.4","","0.6","0.07828091442","0.140325158","","","","","",""
"139","","bandit","110","467198","0.0-71.0-0.0","91446342","wem/bandit_either","A16UAN46CNIRHY","either","1","","","","","","","75","K","2","","0","0","1","0.07550395781","","","32","0.2109574779","","main_expt","0.2","","0.8","0.4242573056","0.07550395781","0.4","0.1553940025","0.6","","","","","","","",""
"265","","bandit","111","468974","0.0-72.0-0.0","91446342","wem/bandit_either","A16UAN46CNIRHY","either","1","","","","","","","74","J","1","","0","1","0","","0.4185546122","","33","","0.2005542758","main_expt","0.2","0.4185546122","0.8","","","0.4","","0.6","0.1445529326","0.1925614924","","","","","",""
"257","","bandit","112","470741","0.0-73.0-0.0","91446342","wem/bandit_either","A16UAN46CNIRHY","either","1","","","","","","","74","J","1","","1","0","0","0.4268308419","","","34","0.180377021","","main_expt","0.2","","0.8","0.4268308419","0.1091775744","0.4","0.2150530123","0.6","","","","","","","",""
"279","","bandit","113","472529","0.0-74.0-0.0","91446342","wem/bandit_either","A16UAN46CNIRHY","either","1","","","","","","","74","J","1","","0","0","1","0.4265642185","","","35","0.2111187229","","main_expt","0.2","","0.8","0.4265642185","0.1297995116","0.4","0.2688968874","0.6","","","","","","","",""
"251","","bandit","114","474292","0.0-75.0-0.0","91446342","wem/bandit_either","A16UAN46CNIRHY","either","1","","","","","","","74","J","1","","0","0","1","0.4066287969","","","36","0.2119332756","","main_expt","0.2","","0.8","0.4066287969","0.09468550628","0.4","0.2977459964","0.6","","","","","","","",""
"312","","bandit","115","476129","0.0-76.0-0.0","91446342","wem/bandit_either","A16UAN46CNIRHY","either","1","","","","","","","74","J","1","","1","0","0","0.4611471687","","","37","0.2256131965","","main_expt","0.2","","0.8","0.4611471687","0.09396978408","0.4","0.2684429955","0.6","","","","","","","",""
"226","","bandit","116","477867","0.0-77.0-0.0","91446342","wem/bandit_either","A16UAN46CNIRHY","either","1","","","","","","","74","J","1","","1","0","0","0.4482708269","","","38","0.1975147253","","main_expt","0.2","","0.8","0.4482708269","0.1062257399","0.4","0.2490186117","0.6","","","","","","","",""
"191","","bandit","117","479568","0.0-78.0-0.0","91446342","wem/bandit_either","A16UAN46CNIRHY","either","1","","","","","","","74","J","1","","0","0","1","","0.4402774387","","39","","0.1595648847","main_expt","0.2","0.4402774387","0.8","","","0.4","","0.6","0.09676453159","0.2548033483","","","","","",""
"209","","bandit","118","481286","0.0-79.0-0.0","91446342","wem/bandit_either","A16UAN46CNIRHY","either","1","","","","","","","74","J","1","","0","0","1","0.4385128538","","","40","0.1626610004","","main_expt","0.2","","0.8","0.4385128538","0.08197179495","0.4","0.2688720753","0.6","","","","","","","",""
"209","","bandit","119","483004","0.0-80.0-0.0","91446342","wem/bandit_either","A16UAN46CNIRHY","either","1","","","","","","","72","H","0","img/none_selected.jpg","0","0","1","","0.1982402655","","41","","0.1982402655","main_expt","0.2","0.4380640779","0.8","","","0.4","","0.6","0.14416382","0.297778532","","","","","",""
"234","","bandit","120","484750","0.0-81.0-0.0","91446342","wem/bandit_either","A16UAN46CNIRHY","either","1","","","","","","","72","H","0","img/none_selected.jpg","0","0","1","","0.1863610343","","42","","0.1863610343","main_expt","0.2","0.4265224768","0.8","","","0.4","","0.6","0.1070927036","0.2449207522","","","","","",""
"212","","bandit","121","486473","0.0-82.0-0.0","91446342","wem/bandit_either","A16UAN46CNIRHY","either","1","","","","","","","74","J","1","","1","0","0","0.435880106","","","43","0.2418389683","","main_expt","0.2","","0.8","0.435880106","0.1214526226","0.4","0.2457567503","0.6","","","","","","","",""
"285","","bandit","122","488270","0.0-83.0-0.0","91446342","wem/bandit_either","A16UAN46CNIRHY","either","1","","","","","","","74","J","1","","0","0","1","","0.4450576882","","44","","0.1943491227","main_expt","0.2","0.4450576882","0.8","","","0.4","","0.6","0.1450738833","0.2432732657","","","","","",""
"229","","bandit","123","490009","0.0-84.0-0.0","91446342","wem/bandit_either","A16UAN46CNIRHY","either","1","","","","","","","74","J","1","","0","0","1","0.4382030275","","","45","0.1543250971","","main_expt","0.2","","0.8","0.4382030275","0.09632230927","0.4","0.2656772236","0.6","","","","","","","",""
"337","","bandit","124","491858","0.0-85.0-0.0","91446342","wem/bandit_either","A16UAN46CNIRHY","either","1","","","","","","","74","J","1","","0","0","1","0.4412369426","","","46","0.09719433791","","main_expt","0.2","","0.8","0.4412369426","0.103211431","0.4","0.2432112423","0.6","","","","","","","",""
"370","","bandit","125","493738","0.0-86.0-0.0","91446342","wem/bandit_either","A16UAN46CNIRHY","either","1","","","","","","","72","H","0","img/none_selected.jpg","0","0","1","","0.1228880329","","47","","0.1228880329","main_expt","0.2","0.4588863431","0.8","","","0.4","","0.6","0.09916324924","0.2992745976","","","","","",""
"267","","bandit","126","495517","0.0-87.0-0.0","91446342","wem/bandit_either","A16UAN46CNIRHY","either","1","","","","","","","75","K","2","","0","0","1","","0.1090242341","","48","","0.1068532567","main_expt","0.2","0.4408788818","0.8","","","0.4","","0.6","0.1090242341","0.2594611615","","","","","",""
"308","","bandit","127","497337","0.0-88.0-0.0","91446342","wem/bandit_either","A16UAN46CNIRHY","either","1","","","","","","","76","L","3","","0","0","1","0.2767916858","","","49","0.1044048509","","main_expt","0.2","","0.8","0.4232064109","0.1265186769","0.4","0.2767916858","0.6","","","","","","","",""
"473","","bandit","128","499321","0.0-89.0-0.0","91446342","wem/bandit_either","A16UAN46CNIRHY","either","1","","","","","","","72","H","0","img/none_selected.jpg","0","0","1","0.1072026782","","","50","0.1072026782","","main_expt","0.2","","0.8","0.4210883962","0.1397440907","0.4","0.2762534014","0.6","","","","","","","",""
"311","","bandit","129","501141","0.0-90.0-0.0","91446342","wem/bandit_either","A16UAN46CNIRHY","either","1","","","","","","","74","J","1","","0","0","1","0.4225635581","","","51","0.1287882573","","main_expt","0.2","","0.8","0.4225635581","0.153600331","0.4","0.3379376541","0.6","","","","","","","",""
"290","","bandit","130","502943","0.0-91.0-0.0","91446342","wem/bandit_either","A16UAN46CNIRHY","either","1","","","","","","","74","J","1","","1","0","0","0.4146237098","","","52","0.1298059469","","main_expt","0.2","","0.8","0.4146237098","0.1718407591","0.4","0.3395267946","0.6","","","","","","","",""
"368","","bandit","131","504822","0.0-92.0-0.0","91446342","wem/bandit_either","A16UAN46CNIRHY","either","1","","","","","","","74","J","1","","1","0","0","0.3763623321","","","53","0.07423060895","","main_expt","0.2","","0.8","0.3763623321","0.1945727614","0.4","0.29674647","0.6","","","","","","","",""
"418","","bandit","132","506753","0.0-93.0-0.0","91446342","wem/bandit_either","A16UAN46CNIRHY","either","1","","","","","","","74","J","1","","1","0","0","0.3289081181","","","54","0.08562383645","","main_expt","0.2","","0.8","0.3289081181","0.2450542523","0.4","0.3372955831","0.6","","","","","","","",""
"263","","bandit","133","508527","0.0-94.0-0.0","91446342","wem/bandit_either","A16UAN46CNIRHY","either","1","","","","","","","74","J","1","","1","0","0","0.3025984711","","","55","0.0757818623","","main_expt","0.2","","0.8","0.3025984711","0.2547241938","0.4","0.3506099842","0.6","","","","","","","",""
"295","","bandit","134","510333","0.0-95.0-0.0","91446342","wem/bandit_either","A16UAN46CNIRHY","either","1","","","","","","","74","J","1","","1","0","0","0.2921333137","","","56","0.09897923035","","main_expt","0.2","","0.8","0.2921333137","0.2595112895","0.4","0.3418029788","0.6","","","","","","","",""
"244","","bandit","135","512090","0.0-96.0-0.0","91446342","wem/bandit_either","A16UAN46CNIRHY","either","1","","","","","","","74","J","1","","0","0","1","0.3317177772","","","57","0.1160875525","","main_expt","0.2","","0.8","0.3317177772","0.2610276213","0.4","0.3162475816","0.6","","","","","","","",""
"489","","bandit","136","514091","0.0-97.0-0.0","91446342","wem/bandit_either","A16UAN46CNIRHY","either","1","","","","","","","72","H","0","img/none_selected.jpg","0","0","1","","0.1134641846","","58","","0.1134641846","main_expt","0.2","0.3240244649","0.8","","","0.4","","0.6","0.2354201416","0.3269881105","","","","","",""
"2","","bandit","137","515604","0.0-98.0-0.0","91446342","wem/bandit_either","A16UAN46CNIRHY","either","1","","","","","","","74","J","1","","0","0","1","0.2988076671","","","59","0.1177083384","","main_expt","0.2","","0.8","0.2988076671","0.2346370837","0.4","0.2901324944","0.6","","","","","","","",""
"412","","bandit","138","517528","0.0-99.0-0.0","91446342","wem/bandit_either","A16UAN46CNIRHY","either","1","","","","","","","74","J","1","","1","0","0","0.3096792726","","","60","0.1125723432","","main_expt","0.2","","0.8","0.3096792726","0.2315637733","0.4","0.289588464","0.6","","","","","","","",""
"338","","bandit","139","519376","0.0-100.0-0.0","91446342","wem/bandit_either","A16UAN46CNIRHY","either","1","","","","","","","74","J","1","","0","0","1","0.2821336973","","","61","0.09911093426","","main_expt","0.2","","0.8","0.2821336973","0.2599537756","0.4","0.2782845563","0.6","","","","","","","",""
"278","","bandit","140","521165","0.0-101.0-0.0","91446342","wem/bandit_either","A16UAN46CNIRHY","either","1","","","","","","","74","J","1","","0","1","0","","0.2414244345","","62","","0.09440438105","main_expt","0.2","0.2414244345","0.8","","","0.4","","0.6","0.2594941563","0.3165490401","","","","","",""
"306","","bandit","141","522983","0.0-102.0-0.0","91446342","wem/bandit_either","A16UAN46CNIRHY","either","1","","","","","","","74","J","1","","0","0","1","0.213639373","","","63","0.1015409351","","main_expt","0.2","","0.8","0.213639373","0.2660839385","0.4","0.3034564924","0.6","","","","","","","",""
"293","","bandit","142","524786","0.0-103.0-0.0","91446342","wem/bandit_either","A16UAN46CNIRHY","either","1","","","","","","","74","J","1","","0","0","1","","0.1876308072","","64","","0.07049798599","main_expt","0.2","0.1876308072","0.8","","","0.4","","0.6","0.2426585031","0.2506654962","","","","","",""
"427","","bandit","143","526723","0.0-104.0-0.0","91446342","wem/bandit_either","A16UAN46CNIRHY","either","1","","","","","","","74","J","1","","0","0","1","","0.1841803182","","65","","0.05735603507","main_expt","0.2","0.1841803182","0.8","","","0.4","","0.6","0.2581047566","0.253414466","","","","","",""
"332","","bandit","144","528566","0.0-105.0-0.0","91446342","wem/bandit_either","A16UAN46CNIRHY","either","1","","","","","","","74","J","1","","0","0","1","0.187417598","","","66","0.0621258055","","main_expt","0.2","","0.8","0.187417598","0.2872127433","0.4","0.2836500186","0.6","","","","","","","",""
"209","","bandit","145","530285","0.0-106.0-0.0","91446342","wem/bandit_either","A16UAN46CNIRHY","either","1","","","","","","","76","L","3","","0","0","1","0.3217852231","","","67","0.06966106928","","main_expt","0.2","","0.8","0.1395950637","0.3232337643","0.4","0.3217852231","0.6","","","","","","","",""
"252","","bandit","146","532050","0.0-107.0-0.0","91446342","wem/bandit_either","A16UAN46CNIRHY","either","1","","","","","","","72","H","0","img/none_selected.jpg","0","0","1","","0.09965709916","","68","","0.09965709916","main_expt","0.2","0.1363519197","0.8","","","0.4","","0.6","0.3376006622","0.3574581916","","","","","",""
"260","","bandit","147","533818","0.0-108.0-0.0","91446342","wem/bandit_either","A16UAN46CNIRHY","either","1","","","","","","","72","H","0","img/none_selected.jpg","0","0","1","","0.1428217854","","69","","0.1428217854","main_expt","0.2","0.1117144852","0.8","","","0.4","","0.6","0.2917609244","0.3884563005","","","","","",""
"262","","bandit","148","535592","0.0-109.0-0.0","91446342","wem/bandit_either","A16UAN46CNIRHY","either","1","","","","","","","75","K","2","","0","0","1","","0.2218665627","","70","","0.1866845388","main_expt","0.2","0.09667493602","0.8","","","0.4","","0.6","0.2218665627","0.3920047773","","","","","",""
"314","","bandit","149","537417","0.0-110.0-0.0","91446342","wem/bandit_either","A16UAN46CNIRHY","either","1","","","","","","","75","K","2","","0","0","1","","0.2409383839","","71","","0.1702545286","main_expt","0.2","0.09186933139","0.8","","","0.4","","0.6","0.2409383839","0.4066376731","","","","","",""
"273","","bandit","150","539201","0.0-111.0-0.0","91446342","wem/bandit_either","A16UAN46CNIRHY","either","1","","","","","","","74","J","1","","0","0","1","0.09472009463","","","72","0.1836279043","","main_expt","0.2","","0.8","0.09472009463","0.1920783453","0.4","0.3443789926","0.6","","","","","","","",""
"274","","bandit","151","540985","0.0-112.0-0.0","91446342","wem/bandit_either","A16UAN46CNIRHY","either","1","","","","","","","74","J","1","","0","0","1","0.1167805336","","","73","0.1644348242","","main_expt","0.2","","0.8","0.1167805336","0.1905254877","0.4","0.3227553012","0.6","","","","","","","",""
"291","","bandit","152","542787","0.0-113.0-0.0","91446342","wem/bandit_either","A16UAN46CNIRHY","either","1","","","","","","","72","H","0","img/none_selected.jpg","0","0","1","","0.1833421201","","74","","0.1833421201","main_expt","0.2","0.1465151254","0.8","","","0.4","","0.6","0.184198213","0.3336652139","","","","","",""
"308","","bandit","153","544606","0.0-114.0-0.0","91446342","wem/bandit_either","A16UAN46CNIRHY","either","1","","","","","","","72","H","0","img/none_selected.jpg","0","0","1","","0.1519653276","","75","","0.1519653276","main_expt","0.2","0.123285719","0.8","","","0.4","","0.6","0.1881920243","0.2890150868","","","","","",""
"330","","bandit","154","546449","0.0-115.0-0.0","91446342","wem/bandit_either","A16UAN46CNIRHY","either","1","","","","","","","72","H","0","img/none_selected.jpg","0","0","1","","0.1506622639","","76","","0.1506622639","main_expt","0.2","0.1392606081","0.8","","","0.4","","0.6","0.1988930589","0.2673490463","","","","","",""
"308","","bandit","155","548267","0.0-116.0-0.0","91446342","wem/bandit_either","A16UAN46CNIRHY","either","1","","","","","","","76","L","3","","0","0","1","","0.2858541315","","77","","0.1860897766","main_expt","0.2","0.099337717","0.8","","","0.4","","0.6","0.2255968657","0.2858541315","","","","","",""
"272","","bandit","156","550051","0.0-117.0-0.0","91446342","wem/bandit_either","A16UAN46CNIRHY","either","1","","","","","","","76","L","3","","0","0","1","","0.2639968829","","78","","0.1618556875","main_expt","0.2","0.09666605973","0.8","","","0.4","","0.6","0.1917014014","0.2639968829","","","","","",""
"111","","bandit","157","551673","0.0-118.0-0.0","91446342","wem/bandit_either","A16UAN46CNIRHY","either","1","","","","","","","75","K","2","","0","0","1","0.2092129429","","","79","0.1976853889","","main_expt","0.2","","0.8","0.09639353985","0.2092129429","0.4","0.2304888896","0.6","","","","","","","",""
"301","","bandit","158","553483","0.0-119.0-0.0","91446342","wem/bandit_either","A16UAN46CNIRHY","either","1","","","","","","","75","K","2","","0","0","1","","0.1974306726","","80","","0.2198838985","main_expt","0.2","0.09566996791","0.8","","","0.4","","0.6","0.1974306726","0.1991809665","","","","","",""
"223","","bandit","159","555218","0.0-120.0-0.0","91446342","wem/bandit_either","A16UAN46CNIRHY","either","1","","","","","","","75","K","2","","0","0","1","","0.1414754506","","81","","0.2167005254","main_expt","0.2","0.07958501382","0.8","","","0.4","","0.6","0.1414754506","0.1627434897","","","","","",""
"185","","bandit","160","556914","0.0-121.0-0.0","91446342","wem/bandit_either","A16UAN46CNIRHY","either","1","","","","","","","74","J","1","","1","0","0","0.08833774835","","","82","0.2527486409","","main_expt","0.2","","0.8","0.08833774835","0.1422587364","0.4","0.1624637972","0.6","","","","","","","",""
"181","","bandit","161","558608","0.0-122.0-0.0","91446342","wem/bandit_either","A16UAN46CNIRHY","either","1","","","","","","","74","J","1","","0","0","1","0.09109006352","","","83","0.2569721607","","main_expt","0.2","","0.8","0.09109006352","0.1079415531","0.4","0.1900332","0.6","","","","","","","",""
"320","","bandit","162","560438","0.0-123.0-0.0","91446342","wem/bandit_either","A16UAN46CNIRHY","either","1","","","","","","","74","J","1","","0","0","1","0.05321730921","","","84","0.2535394321","","main_expt","0.2","","0.8","0.05321730921","0.07696487024","0.4","0.1705646391","0.6","","","","","","","",""
"626","","bandit","163","562575","0.0-124.0-0.0","91446342","wem/bandit_either","A16UAN46CNIRHY","either","1","","","","","","","74","J","1","","0","0","1","0.03321009489","","","85","0.2255799186","","main_expt","0.2","","0.8","0.03321009489","0.08313016423","0.4","0.2053302659","0.6","","","","","","","",""
"652","","bandit","164","564738","0.0-125.0-0.0","91446342","wem/bandit_either","A16UAN46CNIRHY","either","1","","","","","","","74","J","1","","0","0","1","0.04864990798","","","86","0.2197080914","","main_expt","0.2","","0.8","0.04864990798","0.102083396","0.4","0.2128685413","0.6","","","","","","","",""
"562","","bandit","165","566810","0.0-126.0-0.0","91446342","wem/bandit_either","A16UAN46CNIRHY","either","1","","","","","","","74","J","1","","0","0","1","0.07919268752","","","87","0.2230338057","","main_expt","0.2","","0.8","0.07919268752","0.09067070718","0.4","0.213778815","0.6","","","","","","","",""
"506","","bandit","166","568826","0.0-127.0-0.0","91446342","wem/bandit_either","A16UAN46CNIRHY","either","1","","","","","","","74","J","1","","0","0","1","","0.05835116993","","88","","0.2484269739","main_expt","0.2","0.05835116993","0.8","","","0.4","","0.6","0.1421970704","0.2102340809","","","","","",""
"344","","bandit","167","570685","0.0-128.0-0.0","91446342","wem/bandit_either","A16UAN46CNIRHY","either","1","","","","","","","72","H","0","img/none_selected.jpg","0","0","1","","0.2733562597","","89","","0.2733562597","main_expt","0.2","0.05115519592","0.8","","","0.4","","0.6","0.219142046","0.1809358483","","","","","",""
"318","","bandit","168","572514","0.0-129.0-0.0","91446342","wem/bandit_either","A16UAN46CNIRHY","either","1","","","","","","","72","H","0","img/none_selected.jpg","0","0","1","","0.2973868449","","90","","0.2973868449","main_expt","0.2","0.07819273649","0.8","","","0.4","","0.6","0.2806923657","0.1293356972","","","","","",""
"493","","bandit","169","574520","0.0-130.0-0.0","91446342","wem/bandit_either","A16UAN46CNIRHY","either","1","","","","","","","72","H","0","img/none_selected.jpg","0","0","1","","0.3067689268","","91","","0.3067689268","main_expt","0.2","0.05564661524","0.8","","","0.4","","0.6","0.2819660137","0.1136224352","","","","","",""
"414","","bandit","170","576445","0.0-131.0-0.0","91446342","wem/bandit_either","A16UAN46CNIRHY","either","1","","","","","","","72","H","0","img/none_selected.jpg","0","1","0","","0.2719776188","","92","","0.2719776188","main_expt","0.2","0.05914103421","0.8","","","0.4","","0.6","0.3370305887","0.07539152519","","","","","",""
"640","","bandit","171","578598","0.0-132.0-0.0","91446342","wem/bandit_either","A16UAN46CNIRHY","either","1","","","","","","","72","H","0","img/none_selected.jpg","0","0","1","0.3081791896","","","93","0.3081791896","","main_expt","0.2","","0.8","0.03944324463","0.3722719914","0.4","0.08243558305","0.6","","","","","","","",""
"354","","bandit","172","580463","0.0-133.0-0.0","91446342","wem/bandit_either","A16UAN46CNIRHY","either","1","","","","","","","72","H","0","img/none_selected.jpg","0","0","1","","0.356667856","","94","","0.356667856","main_expt","0.2","0.05023017475","0.8","","","0.4","","0.6","0.3840030774","0.09807673793","","","","","",""
"257","","bandit","173","582230","0.0-134.0-0.0","91446342","wem/bandit_either","A16UAN46CNIRHY","either","1","","","","","","","75","K","2","","0","0","1","0.4050844552","","","95","0.3300765204","","main_expt","0.2","","0.8","0.07311956304","0.4050844552","0.4","0.09746204728","0.6","","","","","","","",""
"283","","bandit","174","584025","0.0-135.0-0.0","91446342","wem/bandit_either","A16UAN46CNIRHY","either","1","","","","","","","75","K","2","","1","0","0","0.4081076376","","","96","0.3642735905","","main_expt","0.2","","0.8","0.09573717159","0.4081076376","0.4","0.08559835745","0.6","","","","","","","",""
"389","","bandit","175","585925","0.0-136.0-0.0","91446342","wem/bandit_either","A16UAN46CNIRHY","either","1","","","","","","","75","K","2","","0","0","1","0.4142780263","","","97","0.3885664579","","main_expt","0.2","","0.8","0.1235519285","0.4142780263","0.4","0.0732645996","0.6","","","","","","","",""
"626","","bandit","176","588065","0.0-137.0-0.0","91446342","wem/bandit_either","A16UAN46CNIRHY","either","1","","","","","","","75","K","2","","0","0","1","","0.4131193208","","98","","0.4162912028","main_expt","0.2","0.1274282425","0.8","","","0.4","","0.6","0.4131193208","0.05343209845","","","","","",""
"402","","bandit","177","589977","0.0-138.0-0.0","91446342","wem/bandit_either","A16UAN46CNIRHY","either","1","","","","","","","75","K","2","","0","0","1","","0.428944851","","99","","0.4074153657","main_expt","0.2","0.1457321849","0.8","","","0.4","","0.6","0.428944851","0.05144299931","","","","","",""
"306","","bandit","178","591794","0.0-139.0-0.0","91446342","wem/bandit_either","A16UAN46CNIRHY","either","1","","","","","","","75","K","2","","0","1","0","","0.4279797645","","100","","0.3349137267","main_expt","0.2","0.1492128348","0.8","","","0.4","","0.6","0.4279797645","0.03934302155","","","","","",""
"426","","bandit","179","593732","0.0-140.0-0.0","91446342","wem/bandit_either","A16UAN46CNIRHY","either","1","","","","","","","75","K","2","","0","0","1","","0.4189249443","","101","","0.2732947861","main_expt","0.2","0.125019219","0.8","","","0.4","","0.6","0.4189249443","0.05783306622","","","","","",""
"257","","bandit","180","595498","0.0-141.0-0.0","91446342","wem/bandit_either","A16UAN46CNIRHY","either","1","","","","","","","75","K","2","","0","0","1","0.4279241466","","","102","0.2584454073","","main_expt","0.2","","0.8","0.1008510245","0.4279241466","0.4","0.06484492547","0.6","","","","","","","",""
"208","","bandit","181","597219","0.0-142.0-0.0","91446342","wem/bandit_either","A16UAN46CNIRHY","either","1","","","","","","","72","H","0","img/none_selected.jpg","0","0","1","0.2143891894","","","103","0.2143891894","","main_expt","0.2","","0.8","0.1087281004","0.419390052","0.4","0.0701259157","0.6","","","","","","","",""
"332","","bandit","182","599062","0.0-143.0-0.0","91446342","wem/bandit_either","A16UAN46CNIRHY","either","1","","","","","","","72","H","0","img/none_selected.jpg","0","0","1","0.1354346047","","","104","0.1354346047","","main_expt","0.2","","0.8","0.143855427","0.3761202226","0.4","0.06922647753","0.6","","","","","","","",""
"477","","bandit","183","601051","0.0-144.0-0.0","91446342","wem/bandit_either","A16UAN46CNIRHY","either","1","","","","","","","72","H","0","img/none_selected.jpg","0","0","1","0.1615963473","","","105","0.1615963473","","main_expt","0.2","","0.8","0.1606853024","0.4229881466","0.4","0.07802312096","0.6","","","","","","","",""
"465","","bandit","184","603029","0.0-145.0-0.0","91446342","wem/bandit_either","A16UAN46CNIRHY","either","1","","","","","","","72","H","0","img/none_selected.jpg","0","0","1","","0.1738621023","","106","","0.1738621023","main_expt","0.2","0.1612939645","0.8","","","0.4","","0.6","0.4110558218","0.08930313369","","","","","",""
"312","","bandit","185","604854","0.0-146.0-0.0","91446342","wem/bandit_either","A16UAN46CNIRHY","either","1","","","","","","","76","L","3","","0","0","1","","0.1397733654","","107","","0.1799671425","main_expt","0.2","0.1778053335","0.8","","","0.4","","0.6","0.4176599015","0.1397733654","","","","","",""
"291","","bandit","186","606657","0.0-147.0-0.0","91446342","wem/bandit_either","A16UAN46CNIRHY","either","1","","","","","","","76","L","3","","0","0","1","0.1505899732","","","108","0.1844274074","","main_expt","0.2","","0.8","0.1826465361","0.4210396584","0.4","0.1505899732","0.6","","","","","","","",""
"382","","bandit","187","608549","0.0-148.0-0.0","91446342","wem/bandit_either","A16UAN46CNIRHY","either","1","","","","","","","76","L","3","","0","1","0","","0.1162436109","","109","","0.1702708828","main_expt","0.2","0.1737022726","0.8","","","0.4","","0.6","0.4328015469","0.1162436109","","","","","",""
"688","","bandit","188","610750","0.0-149.0-0.0","91446342","wem/bandit_either","A16UAN46CNIRHY","either","1","","","","","","","76","L","3","","0","0","1","0.08267976014","","","110","0.1964407335","","main_expt","0.2","","0.8","0.1658344406","0.4495585744","0.4","0.08267976014","0.6","","","","","","","",""
"569","","bandit","189","612830","0.0-150.0-0.0","91446342","wem/bandit_either","A16UAN46CNIRHY","either","1","","","","","","","76","L","3","","0","0","1","","0.09389793805","","111","","0.1777579569","main_expt","0.2","0.240619448","0.8","","","0.4","","0.6","0.4237631325","0.09389793805","","","","","",""
"441","","bandit","190","614784","0.0-151.0-0.0","91446342","wem/bandit_either","A16UAN46CNIRHY","either","1","","","","","","","75","K","2","","0","1","0","","0.4521571561","","112","","0.1395994444","main_expt","0.2","0.1927397719","0.8","","","0.4","","0.6","0.4521571561","0.07903418564","","","","","",""
"365","","bandit","191","616661","0.0-152.0-0.0","91446342","wem/bandit_either","A16UAN46CNIRHY","either","1","","","","","","","75","K","2","","0","0","1","0.4350762846","","","113","0.1205999431","","main_expt","0.2","","0.8","0.234725565","0.4350762846","0.4","0.05501139052","0.6","","","","","","","",""
"298","","bandit","192","618473","0.0-153.0-0.0","91446342","wem/bandit_either","A16UAN46CNIRHY","either","1","","","","","","","75","K","2","","0","1","0","","0.4315824664","","114","","0.09123355482","main_expt","0.2","0.1950215869","0.8","","","0.4","","0.6","0.4315824664","0.07627702456","","","","","",""
"473","","bandit","193","620458","0.0-154.0-0.0","91446342","wem/bandit_either","A16UAN46CNIRHY","either","1","","","","","","","75","K","2","","0","0","1","0.4127349624","","","115","0.09554471192","","main_expt","0.2","","0.8","0.2575833325","0.4127349624","0.4","0.03985247356","0.6","","","","","","","",""
"442","","bandit","194","622413","0.0-155.0-0.0","91446342","wem/bandit_either","A16UAN46CNIRHY","either","1","","","","","","","75","K","2","","0","1","0","","0.4468356006","","116","","0.1942182492","main_expt","0.2","0.2296468005","0.8","","","0.4","","0.6","0.4468356006","0.0683792979","","","","","",""
"508","","bandit","195","624430","0.0-156.0-0.0","91446342","wem/bandit_either","A16UAN46CNIRHY","either","1","","","","","","","75","K","2","","0","1","0","","0.4458703805","","117","","0.2208250117","main_expt","0.2","0.2816483341","0.8","","","0.4","","0.6","0.4458703805","0.03956212276","","","","","",""
"597","","bandit","196","626539","0.0-157.0-0.0","91446342","wem/bandit_either","A16UAN46CNIRHY","either","1","","","","","","","75","K","2","","0","1","0","","0.4500370674","","118","","0.1687975443","main_expt","0.2","0.2626769985","0.8","","","0.4","","0.6","0.4500370674","0.04459229253","","","","","",""
"697","","bandit","197","628748","0.0-158.0-0.0","91446342","wem/bandit_either","A16UAN46CNIRHY","either","1","","","","","","","75","K","2","","0","0","1","","0.4704359259","","119","","0.1546105485","main_expt","0.2","0.2418090277","0.8","","","0.4","","0.6","0.4704359259","0.03386957434","","","","","",""
"1198","","bandit","198","631460","0.0-159.0-0.0","91446342","wem/bandit_either","A16UAN46CNIRHY","either","1","","","","","","","74","J","1","","1","0","0","0.2603236095","","","120","0.143668411","","main_expt","0.2","","0.8","0.2603236095","0.4578798539","0.4","0.03305427522","0.6","","","","","","","",""
"418","","bandit","199","633389","0.0-160.0-0.0","91446342","wem/bandit_either","A16UAN46CNIRHY","either","1","","","","","","","74","J","1","","0","0","1","0.2381785671","","","121","0.1098317425","","main_expt","0.2","","0.8","0.2381785671","0.4591190262","0.4","0.03146098963","0.6","","","","","","","",""
"441","","bandit","200","635340","0.0-161.0-0.0","91446342","wem/bandit_either","A16UAN46CNIRHY","either","1","","","","","","","74","J","1","","0","0","1","0.2388462554","","","122","0.1097832873","","main_expt","0.2","","0.8","0.2388462554","0.4643737298","0.4","0.02311797033","0.6","","","","","","","",""
"576","","bandit","201","637429","0.0-162.0-0.0","91446342","wem/bandit_either","A16UAN46CNIRHY","either","1","","","","","","","74","J","1","","1","0","0","0.2079929623","","","123","0.1145900252","","main_expt","0.2","","0.8","0.2079929623","0.451586091","0.4","0.0171261738","0.6","","","","","","","",""
"535","","bandit","202","639476","0.0-163.0-0.0","91446342","wem/bandit_either","A16UAN46CNIRHY","either","1","","","","","","","74","J","1","","0","0","1","0.2148400852","","","124","0.1137783892","","main_expt","0.2","","0.8","0.2148400852","0.4456906556","0.4","0.03468299263","0.6","","","","","","","",""
"442","","bandit","203","641432","0.0-164.0-0.0","91446342","wem/bandit_either","A16UAN46CNIRHY","either","1","","","","","","","74","J","1","","1","0","0","0.2185056602","","","125","0.145605256","","main_expt","0.2","","0.8","0.2185056602","0.4240876494","0.4","0.02544516396","0.6","","","","","","","",""
"412","","bandit","204","643355","0.0-165.0-0.0","91446342","wem/bandit_either","A16UAN46CNIRHY","either","1","","","","","","","74","J","1","","0","0","1","","0.2152323899","","126","","0.1443839055","main_expt","0.2","0.2152323899","0.8","","","0.4","","0.6","0.4008501573","0.03059506073","","","","","",""
"410","","bandit","205","645277","0.0-166.0-0.0","91446342","wem/bandit_either","A16UAN46CNIRHY","either","1","","","","","","","75","K","2","","0","0","1","","0.4066073101","","127","","0.1434222382","main_expt","0.2","0.1699446714","0.8","","","0.4","","0.6","0.4066073101","0.0339638967","","","","","",""
"344","","bandit","206","647133","0.0-167.0-0.0","91446342","wem/bandit_either","A16UAN46CNIRHY","either","1","","","","","","","74","J","1","","0","0","1","0.1299446217","","","128","0.1412168693","","main_expt","0.2","","0.8","0.1299446217","0.4270302575","0.4","0.02632978063","0.6","","","","","","","",""
"404","","bandit","207","649051","0.0-168.0-0.0","91446342","wem/bandit_either","A16UAN46CNIRHY","either","1","","","","","","","74","J","1","","0","0","1","0.1299487573","","","129","0.1086871361","","main_expt","0.2","","0.8","0.1299487573","0.4401824822","0.4","0.02640977482","0.6","","","","","","","",""
"344","","bandit","208","650907","0.0-169.0-0.0","91446342","wem/bandit_either","A16UAN46CNIRHY","either","1","","","","","","","72","H","0","img/none_selected.jpg","0","0","1","","0.1672766288","","130","","0.1672766288","main_expt","0.2","0.1172580566","0.8","","","0.4","","0.6","0.4160959849","0.03646961518","","","","","",""
"314","","bandit","209","652733","0.0-170.0-0.0","91446342","wem/bandit_either","A16UAN46CNIRHY","either","1","","","","","","","74","J","1","","0","0","1","0.1289979545","","","131","0.157110596","","main_expt","0.2","","0.8","0.1289979545","0.4374535298","0.4","0.02171712127","0.6","","","","","","","",""
"431","","bandit","210","654681","0.0-171.0-0.0","91446342","wem/bandit_either","A16UAN46CNIRHY","either","1","","","","","","","74","J","1","","0","0","1","0.1243754988","","","132","0.1338697581","","main_expt","0.2","","0.8","0.1243754988","0.4382483821","0.4","0.01004766493","0.6","","","","","","","",""
"511","","bandit","211","656707","0.0-172.0-0.0","91446342","wem/bandit_either","A16UAN46CNIRHY","either","1","","","","","","","74","J","1","","0","0","1","0.1189203389","","","133","0.1101669797","","main_expt","0.2","","0.8","0.1189203389","0.3913946914","0.4","0.005153708139","0.6","","","","","","","",""
"246","","bandit","212","658466","0.0-173.0-0.0","91446342","wem/bandit_either","A16UAN46CNIRHY","either","1","","","","","","","72","H","0","img/none_selected.jpg","0","0","1","","0.060775537","","134","","0.060775537","main_expt","0.2","0.07075860378","0.8","","","0.4","","0.6","0.4280120537","0.01308543257","","","","","",""
"532","","bandit","213","660514","0.0-174.0-0.0","91446342","wem/bandit_either","A16UAN46CNIRHY","either","1","","","","","","","72","H","0","img/none_selected.jpg","0","0","1","","0.0714416082","","135","","0.0714416082","main_expt","0.2","0.1073185777","0.8","","","0.4","","0.6","0.4385213509","0.02634180281","","","","","",""
"511","","bandit","214","662540","0.0-175.0-0.0","91446342","wem/bandit_either","A16UAN46CNIRHY","either","1","","","","","","","72","H","0","img/none_selected.jpg","1","0","0","0.1115096907","","","136","0.1115096907","","main_expt","0.2","","0.8","0.1001442491","0.4605212521","0.4","0.04122629063","0.6","","","","","","","",""
"793","","bandit","215","664847","0.0-176.0-0.0","91446342","wem/bandit_either","A16UAN46CNIRHY","either","1","","","","","","","72","H","0","img/none_selected.jpg","0","0","1","0.1307091067","","","137","0.1307091067","","main_expt","0.2","","0.8","0.1736681681","0.4729500637","0.4","0.05517648788","0.6","","","","","","","",""
"359","","bandit","216","666718","0.0-177.0-0.0","91446342","wem/bandit_either","A16UAN46CNIRHY","either","1","","","","","","","72","H","0","img/none_selected.jpg","0","0","1","","0.1289533412","","138","","0.1289533412","main_expt","0.2","0.1839908368","0.8","","","0.4","","0.6","0.4705425907","0.05929415862","","","","","",""
"396","","bandit","217","668636","0.0-178.0-0.0","91446342","wem/bandit_either","A16UAN46CNIRHY","either","1","","","","","","","72","H","0","img/none_selected.jpg","0","0","1","0.1215972271","","","139","0.1215972271","","main_expt","0.2","","0.8","0.1500833973","0.465423541","0.4","0.05470710098","0.6","","","","","","","",""
"655","","bandit","218","670806","0.0-179.0-0.0","91446342","wem/bandit_either","A16UAN46CNIRHY","either","1","","","","","","","72","H","0","img/none_selected.jpg","0","0","1","","0.1158179575","","140","","0.1158179575","main_expt","0.2","0.1718879457","0.8","","","0.4","","0.6","0.4486857012","0.06062538604","","","","","",""
"1657","","bandit","219","673974","0.0-180.0-0.0","91446342","wem/bandit_either","A16UAN46CNIRHY","either","1","","","","","","","72","H","0","img/none_selected.jpg","0","0","1","","0.08691297649","","141","","0.08691297649","main_expt","0.2","0.2025036279","0.8","","","0.4","","0.6","0.4053061298","0.05819772386","","","","","",""
"462","","bandit","220","675951","0.0-181.0-0.0","91446342","wem/bandit_either","A16UAN46CNIRHY","either","1","","","","","","","72","H","0","img/none_selected.jpg","0","0","1","","0.1425267255","","142","","0.1425267255","main_expt","0.2","0.1872564568","0.8","","","0.4","","0.6","0.3989731656","0.05329701838","","","","","",""
"329","","bandit","221","677791","0.0-182.0-0.0","91446342","wem/bandit_either","A16UAN46CNIRHY","either","1","","","","","","","75","K","2","","0","0","1","","0.3783570596","","143","","0.1425141192","main_expt","0.2","0.1676641842","0.8","","","0.4","","0.6","0.3783570596","0.06209903385","","","","","",""
"431","","bandit","222","679738","0.0-183.0-0.0","91446342","wem/bandit_either","A16UAN46CNIRHY","either","1","","","","","","","76","L","3","","0","0","1","0.06954729647","","","144","0.1362652721","","main_expt","0.2","","0.8","0.1502987652","0.3485663762","0.4","0.06954729647","0.6","","","","","","","",""
"386","","bandit","223","681639","0.0-184.0-0.0","91446342","wem/bandit_either","A16UAN46CNIRHY","either","1","","","","","","","74","J","1","","0","0","1","0.1050568962","","","145","0.1335650053","","main_expt","0.2","","0.8","0.1050568962","0.3534190037","0.4","0.062760129","0.6","","","","","","","",""
"7238","","bandit","224","690389","0.0-185.0-0.0","91446342","wem/bandit_either","A16UAN46CNIRHY","either","1","","","","","","","74","J","1","","0","0","1","0.1266784727","","","146","0.1392461982","","main_expt","0.2","","0.8","0.1266784727","0.342282706","0.4","0.05014677947","0.6","","","","","","","",""
"398","","bandit","225","692302","0.0-186.0-0.0","91446342","wem/bandit_either","A16UAN46CNIRHY","either","1","","","","","","","75","K","2","","0","0","1","0.3497384939","","","147","0.1060810453","","main_expt","0.2","","0.8","0.1121887101","0.3497384939","0.4","0.04801868921","0.6","","","","","","","",""
"300","","bandit","226","694116","0.0-187.0-0.0","91446342","wem/bandit_either","A16UAN46CNIRHY","either","1","","","","","","","76","L","3","","0","0","1","0.05298179562","","","148","0.1076054289","","main_expt","0.2","","0.8","0.1050077765","0.3507348305","0.4","0.05298179562","0.6","","","","","","","",""
"274","","bandit","227","695903","0.0-188.0-0.0","91446342","wem/bandit_either","A16UAN46CNIRHY","either","1","","","","","","","72","H","0","img/none_selected.jpg","0","1","0","","0.09143227578","","149","","0.09143227578","main_expt","0.2","0.08725679698","0.8","","","0.4","","0.6","0.306786392","0.05271587927","","","","","",""
"603","","bandit","228","698020","0.0-189.0-0.0","91446342","wem/bandit_either","A16UAN46CNIRHY","either","1","","","","","","","72","H","0","img/none_selected.jpg","0","0","1","0.08361181256","","","150","0.08361181256","","main_expt","0.2","","0.8","0.04813781364","0.3289077467","0.4","0.06153260368","0.6","","","","","","","",""
"638","","bandit","229","700172","0.0-190.0-0.0","91446342","wem/bandit_either","A16UAN46CNIRHY","either","1","","","","","","","72","H","0","img/none_selected.jpg","0","0","1","","0.1038450747","","151","","0.1038450747","main_expt","0.2","0.04690393958","0.8","","","0.4","","0.6","0.2844912386","0.07716317934","","","","","",""
"894","","bandit","230","702577","0.0-191.0-0.0","91446342","wem/bandit_either","A16UAN46CNIRHY","either","1","","","","","","","72","H","0","img/none_selected.jpg","0","0","1","","0.1311897928","","152","","0.1311897928","main_expt","0.2","0.05051779207","0.8","","","0.4","","0.6","0.3221551402","0.08370894892","","","","","",""
"789","","bandit","231","704878","0.0-192.0-0.0","91446342","wem/bandit_either","A16UAN46CNIRHY","either","1","","","","","","","72","H","0","img/none_selected.jpg","0","0","1","","0.1106636196","","153","","0.1106636196","main_expt","0.2","0.0417019452","0.8","","","0.4","","0.6","0.288581716","0.06235129306","","","","","",""
"573","","bandit","232","706965","0.0-193.0-0.0","91446342","wem/bandit_either","A16UAN46CNIRHY","either","1","","","","","","","72","H","0","img/none_selected.jpg","0","0","1","","0.08044616817","","154","","0.08044616817","main_expt","0.2","0.04565059468","0.8","","","0.4","","0.6","0.3674714493","0.08808261531","","","","","",""
"64","","bandit","233","708544","0.0-194.0-0.0","91446342","wem/bandit_either","A16UAN46CNIRHY","either","1","","","","","","","74","J","1","","0","0","1","","0.0249337719","","155","","0.09849608375","main_expt","0.2","0.0249337719","0.8","","","0.4","","0.6","0.3836765626","0.08415746701","","","","","",""
"211","","bandit","234","710270","0.0-195.0-0.0","91446342","wem/bandit_either","A16UAN46CNIRHY","either","1","","","","","","","74","J","1","","0","0","1","","0.0207568711","","156","","0.0679626842","main_expt","0.2","0.0207568711","0.8","","","0.4","","0.6","0.3499766022","0.1363215429","","","","","",""
"292","","bandit","235","712074","0.0-196.0-0.0","91446342","wem/bandit_either","A16UAN46CNIRHY","either","1","","","","","","","74","J","1","","0","0","1","0.01044871803","","","157","0.06316877849","","main_expt","0.2","","0.8","0.01044871803","0.3083455354","0.4","0.176329139","0.6","","","","","","","",""
"326","","bandit","236","713912","0.0-197.0-0.0","91446342","wem/bandit_either","A16UAN46CNIRHY","either","1","","","","","","","74","J","1","","0","0","1","0.008486032171","","","158","0.06381796224","","main_expt","0.2","","0.8","0.008486032171","0.2780985587","0.4","0.2239815039","0.6","","","","","","","",""
"265","","bandit","237","715693","0.0-198.0-0.0","91446342","wem/bandit_either","A16UAN46CNIRHY","either","1","","","","","","","75","K","2","","1","0","0","0.2721424699","","","159","0.09986374221","","main_expt","0.2","","0.8","0.006770001311","0.2721424699","0.4","0.1754735631","0.6","","","","","","","",""
"417","","bandit","238","717623","0.0-199.0-0.0","91446342","wem/bandit_either","A16UAN46CNIRHY","either","1","","","","","","","75","K","2","","0","1","0","","0.3005636977","","160","","0.08334790929","main_expt","0.2","0.005009972043","0.8","","","0.4","","0.6","0.3005636977","0.1820859676","","","","","",""
"319","","bandit","239","719456","0.0-200.0-0.0","91446342","wem/bandit_either","A16UAN46CNIRHY","either","1","","","","","","","75","K","2","","0","0","1","","0.2481613967","","161","","0.1094566723","main_expt","0.2","0.003825417776","0.8","","","0.4","","0.6","0.2481613967","0.1771527669","","","","","",""
"291","","bandit","240","721258","0.0-201.0-0.0","91446342","wem/bandit_either","A16UAN46CNIRHY","either","1","","","","","","","75","K","2","","0","0","1","0.2040880477","","","162","0.1287108975","","main_expt","0.2","","0.8","0.006458278423","0.2040880477","0.4","0.209245514","0.6","","","","","","","",""
"676","","bandit","241","723451","0.0-202.0-0.0","91446342","wem/bandit_either","A16UAN46CNIRHY","either","1","","","","","","","75","K","2","","0","1","0","","0.256608811","","163","","0.1811808859","main_expt","0.2","0.01344146107","0.8","","","0.4","","0.6","0.256608811","0.1864252411","","","","","",""
"484","","bandit","242","725449","0.0-203.0-0.0","91446342","wem/bandit_either","A16UAN46CNIRHY","either","1","","","","","","","75","K","2","","0","1","0","","0.2798468236","","164","","0.1374611454","main_expt","0.2","0.004940614731","0.8","","","0.4","","0.6","0.2798468236","0.1662237337","","","","","",""
"537","","bandit","243","727500","0.0-204.0-0.0","91446342","wem/bandit_either","A16UAN46CNIRHY","either","1","","","","","","","75","K","2","","0","0","1","0.2689568899","","","165","0.1640313333","","main_expt","0.2","","0.8","0.007349038951","0.2689568899","0.4","0.1375661656","0.6","","","","","","","",""
"485","","bandit","244","729497","0.0-205.0-0.0","91446342","wem/bandit_either","A16UAN46CNIRHY","either","1","","","","","","","75","K","2","","0","0","1","0.2786045926","","","166","0.20052236","","main_expt","0.2","","0.8","0.005679103294","0.2786045926","0.4","0.1416727521","0.6","","","","","","","",""
"347","","bandit","245","731357","0.0-206.0-0.0","91446342","wem/bandit_either","A16UAN46CNIRHY","either","1","","","","","","","75","K","2","","0","0","1","0.2507583434","","","167","0.1945206589","","main_expt","0.2","","0.8","0.004037182679","0.2507583434","0.4","0.1497541138","0.6","","","","","","","",""
"279","","bandit","246","733148","0.0-207.0-0.0","91446342","wem/bandit_either","A16UAN46CNIRHY","either","1","","","","","","","75","K","2","","0","0","1","","0.1827624484","","168","","0.1902154162","main_expt","0.2","0.007111326723","0.8","","","0.4","","0.6","0.1827624484","0.1761460581","","","","","",""
"270","","bandit","247","734932","0.0-208.0-0.0","91446342","wem/bandit_either","A16UAN46CNIRHY","either","1","","","","","","","75","K","2","","0","0","1","0.1558723634","","","169","0.1931964682","","main_expt","0.2","","0.8","0.01708305062","0.1558723634","0.4","0.2248215173","0.6","","","","","","","",""
"399","","bandit","248","736843","0.0-209.0-0.0","91446342","wem/bandit_either","A16UAN46CNIRHY","either","1","","","","","","","75","K","2","","0","1","0","","0.1757164868","","170","","0.236179436","main_expt","0.2","0.02105388628","0.8","","","0.4","","0.6","0.1757164868","0.2503105048","","","","","",""
"369","","bandit","249","738726","0.0-210.0-0.0","91446342","wem/bandit_either","A16UAN46CNIRHY","either","1","","","","","","","75","K","2","","0","1","0","","0.1985597056","","171","","0.2229285478","main_expt","0.2","0.01477187034","0.8","","","0.4","","0.6","0.1985597056","0.2515708499","","","","","",""
"537","","bandit","250","740778","0.0-211.0-0.0","91446342","wem/bandit_either","A16UAN46CNIRHY","either","1","","","","","","","75","K","2","","0","0","1","","0.1725269859","","172","","0.1805811295","main_expt","0.2","0.00639283578","0.8","","","0.4","","0.6","0.1725269859","0.2601117771","","","","","",""
"453","","bandit","251","742745","0.0-212.0-0.0","91446342","wem/bandit_either","A16UAN46CNIRHY","either","1","","","","","","","75","K","2","","0","0","1","","0.1955807132","","173","","0.2203049146","main_expt","0.2","0.008503536177","0.8","","","0.4","","0.6","0.1955807132","0.2277859889","","","","","",""
"451","","bandit","252","744709","0.0-213.0-0.0","91446342","wem/bandit_either","A16UAN46CNIRHY","either","1","","","","","","","75","K","2","","1","0","0","0.1712969398","","","174","0.2079245196","","main_expt","0.2","","0.8","0.01512836446","0.1712969398","0.4","0.204090619","0.6","","","","","","","",""
"456","","bandit","253","746678","0.0-214.0-0.0","91446342","wem/bandit_either","A16UAN46CNIRHY","either","1","","","","","","","75","K","2","","1","0","0","0.2145566876","","","175","0.1904909119","","main_expt","0.2","","0.8","0.034550241","0.2145566876","0.4","0.2264282848","0.6","","","","","","","",""
"410","","bandit","254","748601","0.0-215.0-0.0","91446342","wem/bandit_either","A16UAN46CNIRHY","either","1","","","","","","","75","K","2","","0","0","1","","0.1987050603","","176","","0.1611975006","main_expt","0.2","0.01969997198","0.8","","","0.4","","0.6","0.1987050603","0.2263436383","","","","","",""
"752","","bandit","255","750865","0.0-216.0-0.0","91446342","wem/bandit_either","A16UAN46CNIRHY","either","1","","","","","","","75","K","2","","1","0","0","0.2161967517","","","177","0.1747210449","","main_expt","0.2","","0.8","0.02558747067","0.2161967517","0.4","0.2449632337","0.6","","","","","","","",""
"742","","bandit","256","753120","0.0-217.0-0.0","91446342","wem/bandit_either","A16UAN46CNIRHY","either","1","","","","","","","75","K","2","","0","0","1","","0.1790488899","","178","","0.1667690144","main_expt","0.2","0.02865462312","0.8","","","0.4","","0.6","0.1790488899","0.1923885174","","","","","",""
"1939","","bandit","257","756572","0.0-218.0-0.0","91446342","wem/bandit_either","A16UAN46CNIRHY","either","1","","","","","","","75","K","2","","0","0","1","0.1254539317","","","179","0.248539666","","main_expt","0.2","","0.8","0.05873937836","0.1254539317","0.4","0.1791230597","0.6","","","","","","","",""
"432","","bandit","258","758518","0.0-219.0-0.0","91446342","wem/bandit_either","A16UAN46CNIRHY","either","1","","","","","","","76","L","3","","1","0","0","0.1641305094","","","180","0.2393284063","","main_expt","0.2","","0.8","0.04996702027","0.1761702366","0.4","0.1641305094","0.6","","","","","","","",""
"477","","bandit","259","760506","0.0-220.0-0.0","91446342","wem/bandit_either","A16UAN46CNIRHY","either","1","","","","","","","76","L","3","","0","0","1","0.1567194189","","","181","0.2450765022","","main_expt","0.2","","0.8","0.06192223509","0.2307221343","0.4","0.1567194189","0.6","","","","","","","",""
"445","","bandit","260","762464","0.0-221.0-0.0","91446342","wem/bandit_either","A16UAN46CNIRHY","either","1","","","","","","","76","L","3","","0","0","1","0.1805899487","","","182","0.2898963007","","main_expt","0.2","","0.8","0.07865608963","0.1656926355","0.4","0.1805899487","0.6","","","","","","","",""
"702","","bandit","261","764679","0.0-222.0-0.0","91446342","wem/bandit_either","A16UAN46CNIRHY","either","1","","","","","","","76","L","3","","0","0","1","0.1381226487","","","183","0.337419987","","main_expt","0.2","","0.8","0.0695036973","0.1997223474","0.4","0.1381226487","0.6","","","","","","","",""
"355","","bandit","262","766546","0.0-223.0-0.0","91446342","wem/bandit_either","A16UAN46CNIRHY","either","1","","","","","","","76","L","3","","0","0","1","0.1157029232","","","184","0.3334404967","","main_expt","0.2","","0.8","0.09883674892","0.1936006223","0.4","0.1157029232","0.6","","","","","","","",""
"400","","bandit","263","768463","0.0-224.0-0.0","91446342","wem/bandit_either","A16UAN46CNIRHY","either","1","","","","","","","76","L","3","","0","0","1","0.09007466759","","","185","0.3049781316","","main_expt","0.2","","0.8","0.1344132801","0.1794548994","0.4","0.09007466759","0.6","","","","","","","",""
"342","","bandit","264","770319","0.0-225.0-0.0","91446342","wem/bandit_either","A16UAN46CNIRHY","either","1","","","","","","","75","K","2","","0","0","1","0.1679588243","","","186","0.322039184","","main_expt","0.2","","0.8","0.1194183803","0.1679588243","0.4","0.07784091677","0.6","","","","","","","",""
"506","","bandit","265","772338","0.0-226.0-0.0","91446342","wem/bandit_either","A16UAN46CNIRHY","either","1","","","","","","","74","J","1","","0","0","1","0.1456002269","","","187","0.2898485093","","main_expt","0.2","","0.8","0.1456002269","0.1692259204","0.4","0.1332261693","0.6","","","","","","","",""
"616","","bandit","266","774467","0.0-227.0-0.0","91446342","wem/bandit_either","A16UAN46CNIRHY","either","1","","","","","","","74","J","1","","0","0","1","0.1008589119","","","188","0.3046836684","","main_expt","0.2","","0.8","0.1008589119","0.1796926114","0.4","0.1302169342","0.6","","","","","","","",""
"380","","bandit","267","776362","0.0-228.0-0.0","91446342","wem/bandit_either","A16UAN46CNIRHY","either","1","","","","","","","72","H","0","img/none_selected.jpg","0","0","1","","0.3437642557","","189","","0.3437642557","main_expt","0.2","0.09109327247","0.8","","","0.4","","0.6","0.1463090895","0.1459867673","","","","","",""
"639","","bandit","268","778514","0.0-229.0-0.0","91446342","wem/bandit_either","A16UAN46CNIRHY","either","1","","","","","","","72","H","0","img/none_selected.jpg","0","1","0","","0.3685715368","","190","","0.3685715368","main_expt","0.2","0.133333279","0.8","","","0.4","","0.6","0.1670442817","0.1930387326","","","","","",""
"636","","bandit","269","780665","0.0-230.0-0.0","91446342","wem/bandit_either","A16UAN46CNIRHY","either","1","","","","","","","72","H","0","img/none_selected.jpg","0","0","1","","0.4063368095","","191","","0.4063368095","main_expt","0.2","0.1253338948","0.8","","","0.4","","0.6","0.2148667481","0.1447045196","","","","","",""
"494","","bandit","270","782671","0.0-231.0-0.0","91446342","wem/bandit_either","A16UAN46CNIRHY","either","1","","","","","","","72","H","0","img/none_selected.jpg","0","1","0","","0.4194789623","","192","","0.4194789623","main_expt","0.2","0.1371372983","0.8","","","0.4","","0.6","0.1891029698","0.1521301445","","","","","",""
"665","","bandit","271","784850","0.0-232.0-0.0","91446342","wem/bandit_either","A16UAN46CNIRHY","either","1","","","","","","","72","H","0","img/none_selected.jpg","0","1","0","","0.3914453041","","193","","0.3914453041","main_expt","0.2","0.1269519223","0.8","","","0.4","","0.6","0.1818436489","0.1216552598","","","","","",""
"633","","bandit","272","786996","0.0-233.0-0.0","91446342","wem/bandit_either","A16UAN46CNIRHY","either","1","","","","","","","72","H","0","img/none_selected.jpg","0","0","1","","0.3988429791","","194","","0.3988429791","main_expt","0.2","0.1253972088","0.8","","","0.4","","0.6","0.2036833838","0.07681554104","","","","","",""
"591","","bandit","273","789101","0.0-234.0-0.0","91446342","wem/bandit_either","A16UAN46CNIRHY","either","1","","","","","","","72","H","0","img/none_selected.jpg","0","0","1","","0.4212514022","","195","","0.4212514022","main_expt","0.2","0.1231557279","0.8","","","0.4","","0.6","0.2189502041","0.07468822185","","","","","",""
"550","","bandit","274","791163","0.0-235.0-0.0","91446342","wem/bandit_either","A16UAN46CNIRHY","either","1","","","","","","","72","H","0","img/none_selected.jpg","0","1","0","","0.4128950903","","196","","0.4128950903","main_expt","0.2","0.2304226507","0.8","","","0.4","","0.6","0.2011136523","0.07634526252","","","","","",""
"684","","bandit","275","793362","0.0-236.0-0.0","91446342","wem/bandit_either","A16UAN46CNIRHY","either","1","","","","","","","72","H","0","img/none_selected.jpg","1","0","0","0.3979973083","","","197","0.3979973083","","main_expt","0.2","","0.8","0.3102822931","0.2295646827","0.4","0.06680697181","0.6","","","","","","","",""
"719","","bandit","276","795593","0.0-237.0-0.0","91446342","wem/bandit_either","A16UAN46CNIRHY","either","1","","","","","","","72","H","0","img/none_selected.jpg","0","1","0","","0.3153467244","","198","","0.3153467244","main_expt","0.2","0.3222054514","0.8","","","0.4","","0.6","0.2570874699","0.05107679344","","","","","",""
"444","","bandit","277","797551","0.0-238.0-0.0","91446342","wem/bandit_either","A16UAN46CNIRHY","either","1","","","","","","","72","H","0","img/none_selected.jpg","0","1","0","","0.3121882746","","199","","0.3121882746","main_expt","0.2","0.3416159467","0.8","","","0.4","","0.6","0.2215013189","0.06140804873","","","","","",""
"587","","bandit","278","799651","0.0-239.0-0.0","91446342","wem/bandit_either","A16UAN46CNIRHY","either","1","","","","","","","72","H","0","img/none_selected.jpg","0","0","1","","0.3789620948","","200","","0.3789620948","main_expt","0.2","0.3826655938","0.8","","","0.4","","0.6","0.1681318695","0.05697288244","","","","","",""
"571","","bandit","279","801736","0.0-240.0-0.0","91446342","wem/bandit_either","A16UAN46CNIRHY","either","1","","","","","","","74","J","1","","0","0","1","0.4117435103","","","201","0.3575696279","","main_expt","0.2","","0.8","0.4117435103","0.1787039029","0.4","0.04802221103","0.6","","","","","","","",""
"349","","bandit","280","803600","0.0-241.0-0.0","91446342","wem/bandit_either","A16UAN46CNIRHY","either","1","","","","","","","72","H","0","img/none_selected.jpg","0","1","0","","0.3937046418","","202","","0.3937046418","main_expt","0.2","0.4023622846","0.8","","","0.4","","0.6","0.2180442152","0.04583536071","","","","","",""
"315","","bandit","281","805427","0.0-242.0-0.0","91446342","wem/bandit_either","A16UAN46CNIRHY","either","1","","","","","","","72","H","0","img/none_selected.jpg","0","1","0","","0.3901943722","","203","","0.3901943722","main_expt","0.2","0.4225273878","0.8","","","0.4","","0.6","0.262784421","0.03655969434","","","","","",""
"298","","bandit","282","807237","0.0-243.0-0.0","91446342","wem/bandit_either","A16UAN46CNIRHY","either","1","","","","","","","72","H","0","img/none_selected.jpg","0","1","0","","0.4099131859","","204","","0.4099131859","main_expt","0.2","0.4151046429","0.8","","","0.4","","0.6","0.2843732649","0.05773518339","","","","","",""
"436","","bandit","283","809188","0.0-244.0-0.0","91446342","wem/bandit_either","A16UAN46CNIRHY","either","1","","","","","","","72","H","0","img/none_selected.jpg","0","0","1","","0.4238238901","","205","","0.4238238901","main_expt","0.2","0.4288165897","0.8","","","0.4","","0.6","0.2549063301","0.06616346658","","","","","",""
"1569","","bandit","284","812270","0.0-245.0-0.0","91446342","wem/bandit_either","A16UAN46CNIRHY","either","1","","","","","","","72","H","0","img/none_selected.jpg","0","1","0","","0.4139837541","","206","","0.4139837541","main_expt","0.2","0.436745712","0.8","","","0.4","","0.6","0.2982701688","0.09055598832","","","","","",""
"667","","bandit","285","814451","0.0-246.0-0.0","91446342","wem/bandit_either","A16UAN46CNIRHY","either","1","","","","","","","72","H","0","img/none_selected.jpg","0","1","0","","0.3544894801","","207","","0.3544894801","main_expt","0.2","0.4484652972","0.8","","","0.4","","0.6","0.3423773839","0.07583085731","","","","","",""
"826","","bandit","286","816791","0.0-247.0-0.0","91446342","wem/bandit_either","A16UAN46CNIRHY","either","1","","","","","","","72","H","0","img/none_selected.jpg","0","0","1","0.3703609936","","","208","0.3703609936","","main_expt","0.2","","0.8","0.4516947584","0.3321535101","0.4","0.09768014643","0.6","","","","","","","",""
"1804","","bandit","287","820110","0.0-248.0-0.0","91446342","wem/bandit_either","A16UAN46CNIRHY","either","1","","","","","","","72","H","0","img/none_selected.jpg","1","0","0","0.3590511704","","","209","0.3590511704","","main_expt","0.2","","0.8","0.4590139285","0.3467721984","0.4","0.08389795445","0.6","","","","","","","",""
"932","","bandit","288","822555","0.0-249.0-0.0","91446342","wem/bandit_either","A16UAN46CNIRHY","either","1","","","","","","","72","H","0","img/none_selected.jpg","0","1","0","","0.3781523972","","210","","0.3781523972","main_expt","0.2","0.4378910613","0.8","","","0.4","","0.6","0.3513447539","0.07846525543","","","","","",""
"597","","bandit","289","824665","0.0-250.0-0.0","91446342","wem/bandit_either","A16UAN46CNIRHY","either","1","","","","","","","72","H","0","img/none_selected.jpg","0","0","1","","0.3895188655","","211","","0.3895188655","main_expt","0.2","0.4139384991","0.8","","","0.4","","0.6","0.4003692624","0.05906932722","","","","","",""
"87","","bandit","290","826266","0.0-251.0-0.0","91446342","wem/bandit_either","A16UAN46CNIRHY","either","1","","","","","","","72","H","0","img/none_selected.jpg","0","0","1","","0.4075098947","","212","","0.4075098947","main_expt","0.2","0.3659234609","0.8","","","0.4","","0.6","0.3949660502","0.04754192311","","","","","",""
"720","","bandit","291","828501","0.0-252.0-0.0","91446342","wem/bandit_either","A16UAN46CNIRHY","either","1","","","","","","","72","H","0","img/none_selected.jpg","0","0","1","","0.4191075236","","213","","0.4191075236","main_expt","0.2","0.3180572988","0.8","","","0.4","","0.6","0.4233479157","0.05481920189","","","","","",""
"868","","bandit","292","830883","0.0-253.0-0.0","91446342","wem/bandit_either","A16UAN46CNIRHY","either","1","","","","","","","72","H","0","img/none_selected.jpg","0","0","1","","0.3799529118","","214","","0.3799529118","main_expt","0.2","0.2611162072","0.8","","","0.4","","0.6","0.4182751871","0.07954578011","","","","","",""
"538","","bandit","293","832934","0.0-254.0-0.0","91446342","wem/bandit_either","A16UAN46CNIRHY","either","1","","","","","","","74","J","1","","1","0","0","0.2331309726","","","215","0.3924699069","","main_expt","0.2","","0.8","0.2331309726","0.3745823719","0.4","0.1078137614","0.6","","","","","","","",""
"335","","bandit","294","834782","0.0-255.0-0.0","91446342","wem/bandit_either","A16UAN46CNIRHY","either","1","","","","","","","74","J","1","","0","0","1","0.2428402293","","","216","0.3556657658","","main_expt","0.2","","0.8","0.2428402293","0.3809837923","0.4","0.1269525553","0.6","","","","","","","",""
"338","","bandit","295","836633","0.0-256.0-0.0","91446342","wem/bandit_either","A16UAN46CNIRHY","either","1","","","","","","","74","J","1","","0","0","1","0.2317762644","","","217","0.3870416945","","main_expt","0.2","","0.8","0.2317762644","0.4144294186","0.4","0.1849794572","0.6","","","","","","","",""
"317","","bandit","296","838463","0.0-257.0-0.0","91446342","wem/bandit_either","A16UAN46CNIRHY","either","1","","","","","","","74","J","1","","0","0","1","0.204309912","","","218","0.3944581396","","main_expt","0.2","","0.8","0.204309912","0.4090742927","0.4","0.1903787706","0.6","","","","","","","",""
"269","","bandit","297","840246","0.0-258.0-0.0","91446342","wem/bandit_either","A16UAN46CNIRHY","either","1","","","","","","","74","J","1","","1","0","0","0.1685596251","","","219","0.4256173987","","main_expt","0.2","","0.8","0.1685596251","0.3869695378","0.4","0.1768508397","0.6","","","","","","","",""
"271","","bandit","298","842029","0.0-259.0-0.0","91446342","wem/bandit_either","A16UAN46CNIRHY","either","1","","","","","","","74","J","1","","0","0","1","","0.2488487331","","220","","0.4240862242","main_expt","0.2","0.2488487331","0.8","","","0.4","","0.6","0.3814250035","0.2176561852","","","","","",""
"53","","bandit","299","843595","0.0-260.0-0.0","91446342","wem/bandit_either","A16UAN46CNIRHY","either","1","","","","","","","75","K","2","","0","1","0","","0.3560431311","","221","","0.4364702466","main_expt","0.2","0.2789816034","0.8","","","0.4","","0.6","0.3560431311","0.2075488201","","","","","",""
"264","","bandit","300","845373","0.0-261.0-0.0","91446342","wem/bandit_either","A16UAN46CNIRHY","either","1","","","","","","","75","K","2","","1","0","0","0.3424215647","","","222","0.4512924842","","main_expt","0.2","","0.8","0.242729834","0.3424215647","0.4","0.2260831429","0.6","","","","","","","",""
"235","","bandit","301","847122","0.0-262.0-0.0","91446342","wem/bandit_either","A16UAN46CNIRHY","either","1","","","","","","","75","K","2","","0","0","1","0.3118962833","","","223","0.4649948574","","main_expt","0.2","","0.8","0.196538567","0.3118962833","0.4","0.2512075751","0.6","","","","","","","",""
"138","","bandit","302","848773","0.0-263.0-0.0","91446342","wem/bandit_either","A16UAN46CNIRHY","either","1","","","","","","","74","J","1","","0","0","1","0.2189223785","","","224","0.4692106987","","main_expt","0.2","","0.8","0.2189223785","0.261290028","0.4","0.3072691987","0.6","","","","","","","",""
"135","","bandit","303","850422","0.0-264.0-0.0","91446342","wem/bandit_either","A16UAN46CNIRHY","either","1","","","","","","","74","J","1","","1","0","0","0.2131207899","","","225","0.4772226815","","main_expt","0.2","","0.8","0.2131207899","0.2748104332","0.4","0.3358063032","0.6","","","","","","","",""
"333","","bandit","304","852269","0.0-265.0-0.0","91446342","wem/bandit_either","A16UAN46CNIRHY","either","1","","","","","","","74","J","1","","0","0","1","0.187439681","","","226","0.4828013869","","main_expt","0.2","","0.8","0.187439681","0.2112523614","0.4","0.2994610032","0.6","","","","","","","",""
"175","","bandit","305","853960","0.0-266.0-0.0","91446342","wem/bandit_either","A16UAN46CNIRHY","either","1","","","","","","","75","K","2","","0","0","1","0.1879164098","","","227","0.4805292857","","main_expt","0.2","","0.8","0.1522087394","0.1879164098","0.4","0.2719992041","0.6","","","","","","","",""
"328","","bandit","306","855800","0.0-267.0-0.0","91446342","wem/bandit_either","A16UAN46CNIRHY","either","1","","","","","","","76","L","3","","0","0","1","0.2601066631","","","228","0.4770879938","","main_expt","0.2","","0.8","0.1975586059","0.1857646906","0.4","0.2601066631","0.6","","","","","","","",""
"185","","bandit","307","857501","0.0-268.0-0.0","91446342","wem/bandit_either","A16UAN46CNIRHY","either","1","","","","","","","75","K","2","","0","0","1","0.1608888173","","","229","0.4830225504","","main_expt","0.2","","0.8","0.2280604414","0.1608888173","0.4","0.2333982712","0.6","","","","","","","",""
"314","","bandit","308","859331","0.0-269.0-0.0","91446342","wem/bandit_either","A16UAN46CNIRHY","either","1","","","","","","","75","K","2","","0","0","1","0.1139945837","","","230","0.4827210916","","main_expt","0.2","","0.8","0.2120359748","0.1139945837","0.4","0.2179366985","0.6","","","","","","","",""
"245","","bandit","309","861091","0.0-270.0-0.0","91446342","wem/bandit_either","A16UAN46CNIRHY","either","1","","","","","","","74","J","1","","0","0","1","0.2260377558","","","231","0.4764813513","","main_expt","0.2","","0.8","0.2260377558","0.1071229599","0.4","0.210335649","0.6","","","","","","","",""
"303","","bandit","310","862909","0.0-271.0-0.0","91446342","wem/bandit_either","A16UAN46CNIRHY","either","1","","","","","","","74","J","1","","0","1","0","","0.2810037348","","232","","0.4794978353","main_expt","0.2","0.2810037348","0.8","","","0.4","","0.6","0.1250262501","0.2154905401","","","","","",""
"318","","bandit","311","864741","0.0-272.0-0.0","91446342","wem/bandit_either","A16UAN46CNIRHY","either","1","","","","","","","74","J","1","","1","0","0","0.3371590923","","","233","0.4717583679","","main_expt","0.2","","0.8","0.3371590923","0.1262657767","0.4","0.2199054097","0.6","","","","","","","",""
"337","","bandit","312","866594","0.0-273.0-0.0","91446342","wem/bandit_either","A16UAN46CNIRHY","either","1","","","","","","","74","J","1","","1","0","0","0.2614597929","","","234","0.4801470087","","main_expt","0.2","","0.8","0.2614597929","0.1436583916","0.4","0.2116885818","0.6","","","","","","","",""
"385","","bandit","313","868493","0.0-274.0-0.0","91446342","wem/bandit_either","A16UAN46CNIRHY","either","1","","","","","","","74","J","1","","0","0","1","","0.2855471023","","235","","0.4698449305","main_expt","0.2","0.2855471023","0.8","","","0.4","","0.6","0.1776605917","0.2037112673","","","","","",""
"494","","bandit","314","870502","0.0-275.0-0.0","91446342","wem/bandit_either","A16UAN46CNIRHY","either","1","","","","","","","74","J","1","","0","0","1","","0.2806831757","","236","","0.4750890902","main_expt","0.2","0.2806831757","0.8","","","0.4","","0.6","0.2039581082","0.2295670059","","","","","",""
"697","","bandit","315","872713","0.0-276.0-0.0","91446342","wem/bandit_either","A16UAN46CNIRHY","either","1","","","","","","","74","J","1","","0","0","1","","0.3314479917","","237","","0.490873849","main_expt","0.2","0.3314479917","0.8","","","0.4","","0.6","0.1898025468","0.2602584061","","","","","",""
"379","","bandit","316","874608","0.0-277.0-0.0","91446342","wem/bandit_either","A16UAN46CNIRHY","either","1","","","","","","","74","J","1","","0","1","0","","0.3495093658","","238","","0.4658125052","main_expt","0.2","0.3495093658","0.8","","","0.4","","0.6","0.20274426","0.2505035884","","","","","",""
"513","","bandit","317","876635","0.0-278.0-0.0","91446342","wem/bandit_either","A16UAN46CNIRHY","either","1","","","","","","","75","K","2","","0","0","1","","0.2051086292","","239","","0.4717810478","main_expt","0.2","0.3413466471","0.8","","","0.4","","0.6","0.2051086292","0.209031891","","","","","",""
"103","","bandit","318","878254","0.0-279.0-0.0","91446342","wem/bandit_either","A16UAN46CNIRHY","either","1","","","","","","","74","J","1","","1","0","0","0.3848911707","","","240","0.4751676635","","main_expt","0.2","","0.8","0.3848911707","0.1823871945","0.4","0.2203826704","0.6","","","","","","","",""
"262","","bandit","319","880031","0.0-280.0-0.0","91446342","wem/bandit_either","A16UAN46CNIRHY","either","1","","","","","","","74","J","1","","1","0","0","0.3352713547","","","241","0.4782176083","","main_expt","0.2","","0.8","0.3352713547","0.2206124516","0.4","0.2502218434","0.6","","","","","","","",""
"187","","bandit","320","881732","0.0-281.0-0.0","91446342","wem/bandit_either","A16UAN46CNIRHY","either","1","","","","","","","74","J","1","","0","0","1","0.3898112853","","","242","0.4842593171","","main_expt","0.2","","0.8","0.3898112853","0.1822231347","0.4","0.2465850657","0.6","","","","","","","",""
"56","","bandit","321","883304","0.0-282.0-0.0","91446342","wem/bandit_either","A16UAN46CNIRHY","either","1","","","","","","","75","K","2","","0","0","1","","0.1782216913","","243","","0.4877308522","main_expt","0.2","0.3746092993","0.8","","","0.4","","0.6","0.1782216913","0.2768687636","","","","","",""
"314","","bandit","322","885132","0.0-283.0-0.0","91446342","wem/bandit_either","A16UAN46CNIRHY","either","1","","","","","","","75","K","2","","0","0","1","0.1683297066","","","244","0.4867000748","","main_expt","0.2","","0.8","0.3551642001","0.1683297066","0.4","0.3318130554","0.6","","","","","","","",""
"15","","bandit","323","886663","0.0-284.0-0.0","91446342","wem/bandit_either","A16UAN46CNIRHY","either","1","","","","","","","75","K","2","","0","0","1","0.2394915997","","","245","0.4779689664","","main_expt","0.2","","0.8","0.3556023966","0.2394915997","0.4","0.3549389872","0.6","","","","","","","",""
"265","","bandit","324","888444","0.0-285.0-0.0","91446342","wem/bandit_either","A16UAN46CNIRHY","either","1","","","","","","","74","J","1","","0","1","0","","0.3265039954","","246","","0.4691428495","main_expt","0.2","0.3265039954","0.8","","","0.4","","0.6","0.2279590519","0.333301522","","","","","",""
"263","","bandit","325","890222","0.0-286.0-0.0","91446342","wem/bandit_either","A16UAN46CNIRHY","either","1","","","","","","","74","J","1","","0","0","1","0.2868106963","","","247","0.4726686318","","main_expt","0.2","","0.8","0.2868106963","0.2464238951","0.4","0.3514606933","0.6","","","","","","","",""
"191","","bandit","326","891929","0.0-287.0-0.0","91446342","wem/bandit_either","A16UAN46CNIRHY","either","1","","","","","","","74","J","1","","0","0","1","0.3185934195","","","248","0.4803067915","","main_expt","0.2","","0.8","0.3185934195","0.2743013104","0.4","0.3714826816","0.6","","","","","","","",""
"177","","bandit","327","893621","0.0-288.0-0.0","91446342","wem/bandit_either","A16UAN46CNIRHY","either","1","","","","","","","74","J","1","","0","0","1","0.358181829","","","249","0.4711679289","","main_expt","0.2","","0.8","0.358181829","0.265015958","0.4","0.386783615","0.6","","","","","","","",""
"267","","bandit","328","895404","0.0-289.0-0.0","91446342","wem/bandit_either","A16UAN46CNIRHY","either","1","","","","","","","74","J","1","","0","0","1","","0.3548152509","","250","","0.4353456883","main_expt","0.2","0.3548152509","0.8","","","0.4","","0.6","0.2414596854","0.401921917","","","","","",""
"277","","bandit","329","897199","0.0-290.0-0.0","91446342","wem/bandit_either","A16UAN46CNIRHY","either","1","","","","","","","72","H","0","img/none_selected.jpg","0","1","0","","0.4224206017","","251","","0.4224206017","main_expt","0.2","0.3481631732","0.8","","","0.4","","0.6","0.2747351927","0.4214807698","","","","","",""
"266","","bandit","330","898982","0.0-291.0-0.0","91446342","wem/bandit_either","A16UAN46CNIRHY","either","1","","","","","","","72","H","0","img/none_selected.jpg","0","1","0","","0.4171240554","","252","","0.4171240554","main_expt","0.2","0.3357984296","0.8","","","0.4","","0.6","0.2814651432","0.3562017588","","","","","",""
"448","","bandit","331","900945","0.0-292.0-0.0","91446342","wem/bandit_either","A16UAN46CNIRHY","either","1","","","","","","","72","H","0","img/none_selected.jpg","0","0","1","","0.4255780754","","253","","0.4255780754","main_expt","0.2","0.2585495719","0.8","","","0.4","","0.6","0.2185424791","0.2749590952","","","","","",""
