"rt","responses","trial_type","trial_index","time_elapsed","internal_node_id","subjID","study","MID","cond","drift","key_press","expt_phase","target","like","value","connected","gems","bombs","no_reward","GemPrChosen","BombPrChosen","GainOverPainPr_0","GainOverPainPr_1","GainOverPainPr_2","GainOverPainPr_3","LosePr_0","LosePr_1","LosePr_2","LosePr_3","WinPr_0","WinPr_1","WinPr_2","WinPr_3","Q0","Q1","Q2","gender","age","ethnicity","respCharCode","respKey","respChoiceNum","respChoice","practice","trial_counter","trial_label"
"2562","{""Q0"":""A2VXIWQ7WRR962""}","survey-text","0","2566","0.0-0.0","91933452","wem/bandit_either","A2VXIWQ7WRR962","either","5","","","","","","","","","","","","","","","","","","","","","","","","","","","","","","","","","","","",""
"9335","","text","1","12903","0.0-1.0","91933452","wem/bandit_either","A2VXIWQ7WRR962","either","5","32","","","","","","","","","","","","","","","","","","","","","","","","","","","","","","","","","","",""
"7207","","text","2","20111","0.0-2.0","91933452","wem/bandit_either","A2VXIWQ7WRR962","either","5","32","","","","","","","","","","","","","","","","","","","","","","","","","","","","","","","","","","",""
"7495","","text","3","27606","0.0-3.0","91933452","wem/bandit_either","A2VXIWQ7WRR962","either","5","32","","","","","","","","","","","","","","","","","","","","","","","","","","","","","","","","","","",""
"5544","","text","4","33152","0.0-4.0","91933452","wem/bandit_either","A2VXIWQ7WRR962","either","5","32","","","","","","","","","","","","","","","","","","","","","","","","","","","","","","","","","","",""
"8598","","text","5","41751","0.0-5.0","91933452","wem/bandit_either","A2VXIWQ7WRR962","either","5","32","","","","","","","","","","","","","","","","","","","","","","","","","","","","","","","","","","",""
"2705","","text","6","44456","0.0-6.0","91933452","wem/bandit_either","A2VXIWQ7WRR962","either","5","32","","","","","","","","","","","","","","","","","","","","","","","","","","","","","","","","","","",""
"9159","","text","7","53616","0.0-7.0","91933452","wem/bandit_either","A2VXIWQ7WRR962","either","5","32","","","","","","","","","","","","","","","","","","","","","","","","","","","","","","","","","","",""
"7450","","identification","8","61079","0.0-8.0-0.0","91933452","wem/bandit_either","A2VXIWQ7WRR962","either","5","","identification_pre","the village of Zur","","","","","","","","","","","","","","","","","","","","","","","","","","","","","","","","",""
"7820","","identification","9","69913","0.0-8.0-1.0","91933452","wem/bandit_either","A2VXIWQ7WRR962","either","5","","identification_pre","the village of Nyx","","","","","","","","","","","","","","","","","","","","","","","","","","","","","","","","",""
"10174","","text","10","81098","0.0-9.0","91933452","wem/bandit_either","A2VXIWQ7WRR962","either","5","32","","","","","","","","","","","","","","","","","","","","","","","","","","","","","","","","","","",""
"4031","","text","11","85130","0.0-10.0","91933452","wem/bandit_either","A2VXIWQ7WRR962","either","5","32","","","","","","","","","","","","","","","","","","","","","","","","","","","","","","","","","","",""
"2407","","text","12","87538","0.0-11.0","91933452","wem/bandit_either","A2VXIWQ7WRR962","either","5","32","","","","","","","","","","","","","","","","","","","","","","","","","","","","","","","","","","",""
"3079","","text","13","90617","0.0-12.0","91933452","wem/bandit_either","A2VXIWQ7WRR962","either","5","32","","","","","","","","","","","","","","","","","","","","","","","","","","","","","","","","","","",""
"2726","","bandit","14","94857","0.0-13.0-0.0","91933452","wem/bandit_either","A2VXIWQ7WRR962","either","5","","","","","","","0","0","1","0","0","","","","","0","","","","0","","","","","","","","","","74","J","0","img/none_selected_demo.jpg","true","0",""
"1193","","bandit","15","97552","0.0-14.0-0.0","91933452","wem/bandit_either","A2VXIWQ7WRR962","either","5","","","","","","","0","0","1","0","0","","","","","0","","","","0","","","","","","","","","","75","K","0","img/none_selected_demo.jpg","true","0",""
"4988","","text","16","102542","0.0-15.0","91933452","wem/bandit_either","A2VXIWQ7WRR962","either","5","32","","","","","","","","","","","","","","","","","","","","","","","","","","","","","","","","","","",""
"4530","","text","17","107073","0.0-16.0","91933452","wem/bandit_either","A2VXIWQ7WRR962","either","5","32","","","","","","","","","","","","","","","","","","","","","","","","","","","","","","","","","","",""
"6528","","text","18","113601","0.0-17.0","91933452","wem/bandit_either","A2VXIWQ7WRR962","either","5","32","","","","","","","","","","","","","","","","","","","","","","","","","","","","","","","","","","",""
"6448","","text","19","120050","0.0-18.0","91933452","wem/bandit_either","A2VXIWQ7WRR962","either","5","32","","","","","","","","","","","","","","","","","","","","","","","","","","","","","","","","","","",""
"1394","","bandit","20","122949","0.0-19.0-0.0","91933452","wem/bandit_either","A2VXIWQ7WRR962","either","5","","","","","","","0","0","1","0.2","","0.5","0.5","","","","","","","0.8","0.2","","","","","","","","","75","K","1","","true","0","80_20_practice"
"345","","bandit","21","124802","0.0-19.0-1.0","91933452","wem/bandit_either","A2VXIWQ7WRR962","either","5","","","","","","","0","0","1","0.8","","0.5","0.5","","","","","","","0.8","0.2","","","","","","","","","74","J","0","img/none_selected_demo.jpg","true","0","80_20_practice"
"370","","bandit","22","126676","0.0-19.0-2.0","91933452","wem/bandit_either","A2VXIWQ7WRR962","either","5","","","","","","","0","1","0","","0.8","0.5","0.5","","","0.8","0.2","","","","","","","","","","","","","74","J","0","img/none_selected_demo.jpg","true","0","80_20_practice"
"503","","bandit","23","128684","0.0-19.0-3.0","91933452","wem/bandit_either","A2VXIWQ7WRR962","either","5","","","","","","","0","0","1","","0.2","0.5","0.5","","","0.8","0.2","","","","","","","","","","","","","75","K","1","","true","0","80_20_practice"
"279","","bandit","24","130470","0.0-19.0-4.0","91933452","wem/bandit_either","A2VXIWQ7WRR962","either","5","","","","","","","0","0","1","0.2","","0.5","0.5","","","","","","","0.8","0.2","","","","","","","","","75","K","1","","true","0","80_20_practice"
"257","","bandit","25","132236","0.0-19.0-5.0","91933452","wem/bandit_either","A2VXIWQ7WRR962","either","5","","","","","","","1","0","0","0.2","","0.5","0.5","","","","","","","0.8","0.2","","","","","","","","","75","K","1","","true","0","80_20_practice"
"480","","bandit","26","134225","0.0-19.0-6.0","91933452","wem/bandit_either","A2VXIWQ7WRR962","either","5","","","","","","","0","1","0","","0.2","0.5","0.5","","","0.8","0.2","","","","","","","","","","","","","75","K","1","","true","0","80_20_practice"
"324","","bandit","27","136053","0.0-19.0-7.0","91933452","wem/bandit_either","A2VXIWQ7WRR962","either","5","","","","","","","0","0","1","","0.8","0.5","0.5","","","0.8","0.2","","","","","","","","","","","","","74","J","0","img/none_selected_demo.jpg","true","0","80_20_practice"
"335","","bandit","28","137892","0.0-19.0-8.0","91933452","wem/bandit_either","A2VXIWQ7WRR962","either","5","","","","","","","1","0","0","0.8","","0.5","0.5","","","","","","","0.8","0.2","","","","","","","","","74","J","0","img/none_selected_demo.jpg","true","0","80_20_practice"
"399","","bandit","29","139796","0.0-19.0-9.0","91933452","wem/bandit_either","A2VXIWQ7WRR962","either","5","","","","","","","0","1","0","","0.8","0.5","0.5","","","0.8","0.2","","","","","","","","","","","","","74","J","0","img/none_selected_demo.jpg","true","0","80_20_practice"
"273","","bandit","30","141580","0.0-19.0-10.0","91933452","wem/bandit_either","A2VXIWQ7WRR962","either","5","","","","","","","0","1","0","","0.8","0.5","0.5","","","0.8","0.2","","","","","","","","","","","","","74","J","0","img/none_selected_demo.jpg","true","0","80_20_practice"
"216","","bandit","31","143300","0.0-19.0-11.0","91933452","wem/bandit_either","A2VXIWQ7WRR962","either","5","","","","","","","0","0","1","0.2","","0.5","0.5","","","","","","","0.8","0.2","","","","","","","","","75","K","1","","true","0","80_20_practice"
"80","","bandit","32","144891","0.0-19.0-12.0","91933452","wem/bandit_either","A2VXIWQ7WRR962","either","5","","","","","","","0","0","1","0.2","","0.5","0.5","","","","","","","0.8","0.2","","","","","","","","","75","K","1","","true","0","80_20_practice"
"138","","bandit","33","146533","0.0-19.0-13.0","91933452","wem/bandit_either","A2VXIWQ7WRR962","either","5","","","","","","","1","0","0","0.2","","0.5","0.5","","","","","","","0.8","0.2","","","","","","","","","75","K","1","","true","0","80_20_practice"
"86","","bandit","34","148124","0.0-19.0-14.0","91933452","wem/bandit_either","A2VXIWQ7WRR962","either","5","","","","","","","0","0","1","","0.2","0.5","0.5","","","0.8","0.2","","","","","","","","","","","","","75","K","1","","true","0","80_20_practice"
"23","","bandit","35","149655","0.0-19.0-15.0","91933452","wem/bandit_either","A2VXIWQ7WRR962","either","5","","","","","","","0","0","1","","0.2","0.5","0.5","","","0.8","0.2","","","","","","","","","","","","","75","K","1","","true","0","80_20_practice"
"146","","bandit","36","151309","0.0-19.0-16.0","91933452","wem/bandit_either","A2VXIWQ7WRR962","either","5","","","","","","","0","0","1","","0.2","0.5","0.5","","","0.8","0.2","","","","","","","","","","","","","75","K","1","","true","0","80_20_practice"
"150","","bandit","37","152969","0.0-19.0-17.0","91933452","wem/bandit_either","A2VXIWQ7WRR962","either","5","","","","","","","1","0","0","0.2","","0.5","0.5","","","","","","","0.8","0.2","","","","","","","","","75","K","1","","true","0","80_20_practice"
"61","","bandit","38","154532","0.0-19.0-18.0","91933452","wem/bandit_either","A2VXIWQ7WRR962","either","5","","","","","","","0","0","1","","0.2","0.5","0.5","","","0.8","0.2","","","","","","","","","","","","","75","K","1","","true","0","80_20_practice"
"231","","bandit","39","156284","0.0-19.0-19.0","91933452","wem/bandit_either","A2VXIWQ7WRR962","either","5","","","","","","","0","0","1","","0.2","0.5","0.5","","","0.8","0.2","","","","","","","","","","","","","75","K","1","","true","0","80_20_practice"
"2497","","text","40","158782","0.0-20.0","91933452","wem/bandit_either","A2VXIWQ7WRR962","either","5","32","","","","","","","","","","","","","","","","","","","","","","","","","","","","","","","","","","",""
"918","","bandit","41","161210","0.0-21.0-0.0","91933452","wem/bandit_either","A2VXIWQ7WRR962","either","5","","","","","","","0","1","0","0","1","","","","","0","1","","","1","0","","","","","","","","","75","K","1","","true","0",""
"5622","","text","42","166832","0.0-22.0","91933452","wem/bandit_either","A2VXIWQ7WRR962","either","5","32","","","","","","","","","","","","","","","","","","","","","","","","","","","","","","","","","","",""
"3045","","text","43","169878","0.0-23.0","91933452","wem/bandit_either","A2VXIWQ7WRR962","either","5","32","","","","","","","","","","","","","","","","","","","","","","","","","","","","","","","","","","",""
"1094","","text","44","170974","0.0-24.0","91933452","wem/bandit_either","A2VXIWQ7WRR962","either","5","32","","","","","","","","","","","","","","","","","","","","","","","","","","","","","","","","","","",""
"878","","text","45","171854","0.0-25.0","91933452","wem/bandit_either","A2VXIWQ7WRR962","either","5","32","","","","","","","","","","","","","","","","","","","","","","","","","","","","","","","","","","",""
"8447","","text","46","180303","0.0-26.0","91933452","wem/bandit_either","A2VXIWQ7WRR962","either","5","32","","","","","","","","","","","","","","","","","","","","","","","","","","","","","","","","","","",""
"1976","","text","47","182281","0.0-27.0","91933452","wem/bandit_either","A2VXIWQ7WRR962","either","5","32","","","","","","","","","","","","","","","","","","","","","","","","","","","","","","","","","","",""
"1459","","text","48","183740","0.0-28.0","91933452","wem/bandit_either","A2VXIWQ7WRR962","either","5","32","","","","","","","","","","","","","","","","","","","","","","","","","","","","","","","","","","",""
"615","","text","49","184356","0.0-29.0","91933452","wem/bandit_either","A2VXIWQ7WRR962","either","5","32","","","","","","","","","","","","","","","","","","","","","","","","","","","","","","","","","","",""
"894","","text","50","185252","0.0-30.0","91933452","wem/bandit_either","A2VXIWQ7WRR962","either","5","32","","","","","","","","","","","","","","","","","","","","","","","","","","","","","","","","","","",""
"2646","","text","51","187900","0.0-31.0","91933452","wem/bandit_either","A2VXIWQ7WRR962","either","5","32","","","","","","","","","","","","","","","","","","","","","","","","","","","","","","","","","","",""
"1470","","text","52","189371","0.0-32.0","91933452","wem/bandit_either","A2VXIWQ7WRR962","either","5","32","","","","","","","","","","","","","","","","","","","","","","","","","","","","","","","","","","",""
"3510","","bandit","53","194390","0.0-33.0-0.0","91933452","wem/bandit_either","A2VXIWQ7WRR962","either","5","","","","","","","0","0","1","","0.2","0.5","0.5","0.5","0.5","0.8","0.2","0.6","0.2","","","","","","","","","","","76","L","3","","true","0","full_practice"
"867","","bandit","54","196762","0.0-33.0-1.0","91933452","wem/bandit_either","A2VXIWQ7WRR962","either","5","","","","","","","1","0","0","0.8","","0.5","0.5","0.5","0.5","","","","","0.8","0.2","0.6","0.2","","","","","","","72","H","0","img/none_selected.jpg","true","0","full_practice"
"49","","bandit","55","198313","0.0-33.0-2.0","91933452","wem/bandit_either","A2VXIWQ7WRR962","either","5","","","","","","","1","0","0","0.2","","0.5","0.5","0.5","0.5","","","","","0.8","0.2","0.6","0.2","","","","","","","74","J","1","","true","0","full_practice"
"255","","bandit","56","200081","0.0-33.0-3.0","91933452","wem/bandit_either","A2VXIWQ7WRR962","either","5","","","","","","","0","1","0","","0.6","0.5","0.5","0.5","0.5","0.8","0.2","0.6","0.2","","","","","","","","","","","75","K","2","","true","0","full_practice"
"298","","bandit","57","201894","0.0-33.0-4.0","91933452","wem/bandit_either","A2VXIWQ7WRR962","either","5","","","","","","","0","0","1","","0.2","0.5","0.5","0.5","0.5","0.8","0.2","0.6","0.2","","","","","","","","","","","76","L","3","","true","0","full_practice"
"1463","","bandit","58","204870","0.0-33.0-5.0","91933452","wem/bandit_either","A2VXIWQ7WRR962","either","5","","","","","","","1","0","0","0.8","","0.5","0.5","0.5","0.5","","","","","0.8","0.2","0.6","0.2","","","","","","","72","H","0","img/none_selected.jpg","true","0","full_practice"
"445","","bandit","59","206818","0.0-33.0-6.0","91933452","wem/bandit_either","A2VXIWQ7WRR962","either","5","","","","","","","0","0","1","","0.2","0.5","0.5","0.5","0.5","0.8","0.2","0.6","0.2","","","","","","","","","","","74","J","1","","true","0","full_practice"
"31","","bandit","60","208354","0.0-33.0-7.0","91933452","wem/bandit_either","A2VXIWQ7WRR962","either","5","","","","","","","0","0","1","0.6","","0.5","0.5","0.5","0.5","","","","","0.8","0.2","0.6","0.2","","","","","","","75","K","2","","true","0","full_practice"
"694","","bandit","61","210562","0.0-33.0-8.0","91933452","wem/bandit_either","A2VXIWQ7WRR962","either","5","","","","","","","0","0","1","","0.2","0.5","0.5","0.5","0.5","0.8","0.2","0.6","0.2","","","","","","","","","","","76","L","3","","true","0","full_practice"
"519","","bandit","62","212586","0.0-33.0-9.0","91933452","wem/bandit_either","A2VXIWQ7WRR962","either","5","","","","","","","0","1","0","","0.8","0.5","0.5","0.5","0.5","0.8","0.2","0.6","0.2","","","","","","","","","","","72","H","0","img/none_selected.jpg","true","0","full_practice"
"270","","bandit","63","214366","0.0-33.0-10.0","91933452","wem/bandit_either","A2VXIWQ7WRR962","either","5","","","","","","","0","0","1","","0.2","0.5","0.5","0.5","0.5","0.8","0.2","0.6","0.2","","","","","","","","","","","74","J","1","","true","0","full_practice"
"286","","bandit","64","216163","0.0-33.0-11.0","91933452","wem/bandit_either","A2VXIWQ7WRR962","either","5","","","","","","","0","0","1","","0.2","0.5","0.5","0.5","0.5","0.8","0.2","0.6","0.2","","","","","","","","","","","74","J","1","","true","0","full_practice"
"22","","bandit","65","217689","0.0-33.0-12.0","91933452","wem/bandit_either","A2VXIWQ7WRR962","either","5","","","","","","","0","0","1","","0.2","0.5","0.5","0.5","0.5","0.8","0.2","0.6","0.2","","","","","","","","","","","74","J","1","","true","0","full_practice"
"206","","bandit","66","219402","0.0-33.0-13.0","91933452","wem/bandit_either","A2VXIWQ7WRR962","either","5","","","","","","","0","0","1","","0.2","0.5","0.5","0.5","0.5","0.8","0.2","0.6","0.2","","","","","","","","","","","74","J","1","","true","0","full_practice"
"334","","bandit","67","221252","0.0-33.0-14.0","91933452","wem/bandit_either","A2VXIWQ7WRR962","either","5","","","","","","","1","0","0","0.6","","0.5","0.5","0.5","0.5","","","","","0.8","0.2","0.6","0.2","","","","","","","75","K","2","","true","0","full_practice"
"197","","bandit","68","222954","0.0-33.0-15.0","91933452","wem/bandit_either","A2VXIWQ7WRR962","either","5","","","","","","","0","1","0","","0.8","0.5","0.5","0.5","0.5","0.8","0.2","0.6","0.2","","","","","","","","","","","72","H","0","img/none_selected.jpg","true","0","full_practice"
"638","","bandit","69","225104","0.0-33.0-16.0","91933452","wem/bandit_either","A2VXIWQ7WRR962","either","5","","","","","","","0","0","1","","0.2","0.5","0.5","0.5","0.5","0.8","0.2","0.6","0.2","","","","","","","","","","","76","L","3","","true","0","full_practice"
"160","","bandit","70","226773","0.0-33.0-17.0","91933452","wem/bandit_either","A2VXIWQ7WRR962","either","5","","","","","","","0","0","1","","0.6","0.5","0.5","0.5","0.5","0.8","0.2","0.6","0.2","","","","","","","","","","","75","K","2","","true","0","full_practice"
"276","","bandit","71","228555","0.0-33.0-18.0","91933452","wem/bandit_either","A2VXIWQ7WRR962","either","5","","","","","","","0","0","1","","0.2","0.5","0.5","0.5","0.5","0.8","0.2","0.6","0.2","","","","","","","","","","","74","J","1","","true","0","full_practice"
"94","","bandit","72","230154","0.0-33.0-19.0","91933452","wem/bandit_either","A2VXIWQ7WRR962","either","5","","","","","","","1","0","0","0.8","","0.5","0.5","0.5","0.5","","","","","0.8","0.2","0.6","0.2","","","","","","","72","H","0","img/none_selected.jpg","true","0","full_practice"
"1684","","text","73","231844","0.0-34.0","91933452","wem/bandit_either","A2VXIWQ7WRR962","either","5","32","","","","","","","","","","","","","","","","","","","","","","","","","","","","","","","","","","",""
"5062","","text","74","237916","0.0-35.0","91933452","wem/bandit_either","A2VXIWQ7WRR962","either","5","32","","","","","","","","","","","","","","","","","","","","","","","","","","","","","","","","","","",""
"4785","","text","75","242703","0.0-36.0","91933452","wem/bandit_either","A2VXIWQ7WRR962","either","5","32","","","","","","","","","","","","","","","","","","","","","","","","","","","","","","","","","","",""
"5111","","text","76","247815","0.0-37.0","91933452","wem/bandit_either","A2VXIWQ7WRR962","either","5","32","","","","","","","","","","","","","","","","","","","","","","","","","","","","","","","","","","",""
"2813","","text","77","250630","0.0-38.0","91933452","wem/bandit_either","A2VXIWQ7WRR962","either","5","32","","","","","","","","","","","","","","","","","","","","","","","","","","","","","","","","","","",""
"549","","text","78","251189","0.0-39.0","91933452","wem/bandit_either","A2VXIWQ7WRR962","either","5","32","","","","","","","","","","","","","","","","","","","","","","","","","","","","","","","","","","",""
"2161","","bandit","79","254854","0.0-40.0-0.0","91933452","wem/bandit_either","A2VXIWQ7WRR962","either","5","","","","","","","0","0","1","0.4265570961","","0.6","0.8","0.4","0.2","","","","","0.4265570961","0.3340388524","0.1165465043","0.3897275569","","","","","","","72","H","0","img/none_selected.jpg","","1","main_expt"
"22","","bandit","80","256381","0.0-41.0-0.0","91933452","wem/bandit_either","A2VXIWQ7WRR962","either","5","","","","","","","0","0","1","0.3223834482","","0.6","0.8","0.4","0.2","","","","","0.4177099958","0.3223834482","0.08371899021","0.3911966266","","","","","","","74","J","1","","","2","main_expt"
"62","","bandit","81","257955","0.0-42.0-0.0","91933452","wem/bandit_either","A2VXIWQ7WRR962","either","5","","","","","","","0","0","1","","0.04339790364","0.6","0.8","0.4","0.2","0.4192185534","0.3585509001","0.04339790364","0.4074861021","","","","","","","","","","","75","K","2","","","3","main_expt"
"1","","bandit","82","259462","0.0-43.0-0.0","91933452","wem/bandit_either","A2VXIWQ7WRR962","either","5","","","","","","","0","0","1","","0.3965638453","0.6","0.8","0.4","0.2","0.4241610434","0.3416436242","0.04073472785","0.3965638453","","","","","","","","","","","76","L","3","","","4","main_expt"
"349","","bandit","83","261317","0.0-44.0-0.0","91933452","wem/bandit_either","A2VXIWQ7WRR962","either","5","","","","","","","0","1","0","","0.4284837315","0.6","0.8","0.4","0.2","0.4284837315","0.3444758892","0.04731773769","0.3688269119","","","","","","","","","","","72","H","0","img/none_selected.jpg","","5","main_expt"
"142","","bandit","84","262965","0.0-45.0-0.0","91933452","wem/bandit_either","A2VXIWQ7WRR962","either","5","","","","","","","0","0","1","0.4328708062","","0.6","0.8","0.4","0.2","","","","","0.4328708062","0.3574177426","0.05617088868","0.3865867917","","","","","","","72","H","0","img/none_selected.jpg","","6","main_expt"
"70","","bandit","85","264541","0.0-46.0-0.0","91933452","wem/bandit_either","A2VXIWQ7WRR962","either","5","","","","","","","0","0","1","0.4176545671","","0.6","0.8","0.4","0.2","","","","","0.4176545671","0.3634052143","0.05606577856","0.4294719924","","","","","","","72","H","0","img/none_selected.jpg","","7","main_expt"
"126","","bandit","86","266172","0.0-47.0-0.0","91933452","wem/bandit_either","A2VXIWQ7WRR962","either","5","","","","","","","1","0","0","0.3675420607","","0.6","0.8","0.4","0.2","","","","","0.4022395488","0.3675420607","0.09244853328","0.4210378118","","","","","","","74","J","1","","","8","main_expt"
"175","","bandit","87","267852","0.0-48.0-0.0","91933452","wem/bandit_either","A2VXIWQ7WRR962","either","5","","","","","","","0","0","1","","0.3929004949","0.6","0.8","0.4","0.2","0.3929004949","0.3921196104","0.1271341085","0.4502112583","","","","","","","","","","","72","H","0","img/none_selected.jpg","","9","main_expt"
"61","","bandit","88","269430","0.0-49.0-0.0","91933452","wem/bandit_either","A2VXIWQ7WRR962","either","5","","","","","","","1","0","0","0.4026182126","","0.6","0.8","0.4","0.2","","","","","0.3863711448","0.4026182126","0.1370717255","0.4452653155","","","","","","","74","J","1","","","10","main_expt"
"14","","bandit","89","270949","0.0-50.0-0.0","91933452","wem/bandit_either","A2VXIWQ7WRR962","either","5","","","","","","","0","0","1","0.1275050207","","0.6","0.8","0.4","0.2","","","","","0.4205849279","0.3543069494","0.1275050207","0.4352349267","","","","","","","75","K","2","","","11","main_expt"
"127","","bandit","90","272581","0.0-51.0-0.0","91933452","wem/bandit_either","A2VXIWQ7WRR962","either","5","","","","","","","0","0","1","0.3504097904","","0.6","0.8","0.4","0.2","","","","","0.4525069231","0.3504097904","0.122317004","0.4029030639","","","","","","","74","J","1","","","12","main_expt"
"30","","bandit","91","274117","0.0-52.0-0.0","91933452","wem/bandit_either","A2VXIWQ7WRR962","either","5","","","","","","","0","0","1","0.2787441393","","0.6","0.8","0.4","0.2","","","","","0.4485799753","0.2787441393","0.1251711411","0.4198147105","","","","","","","74","J","1","","","13","main_expt"
"238","","bandit","92","275870","0.0-53.0-0.0","91933452","wem/bandit_either","A2VXIWQ7WRR962","either","5","","","","","","","1","0","0","0.4504049656","","0.6","0.8","0.4","0.2","","","","","0.4504049656","0.2723245106","0.1380641988","0.3761312174","","","","","","","72","H","0","img/none_selected.jpg","","14","main_expt"
"223","","bandit","93","277601","0.0-54.0-0.0","91933452","wem/bandit_either","A2VXIWQ7WRR962","either","5","","","","","","","1","0","0","0.3687644442","","0.6","0.8","0.4","0.2","","","","","0.4281165459","0.3687644442","0.2010812313","0.4017507227","","","","","","","74","J","1","","","15","main_expt"
"106","","bandit","94","279214","0.0-55.0-0.0","91933452","wem/bandit_either","A2VXIWQ7WRR962","either","5","","","","","","","0","0","1","0.3992289848","","0.6","0.8","0.4","0.2","","","","","0.4035101098","0.3992289848","0.1747275657","0.3859888637","","","","","","","74","J","1","","","16","main_expt"
"86","","bandit","95","280812","0.0-56.0-0.0","91933452","wem/bandit_either","A2VXIWQ7WRR962","either","5","","","","","","","0","1","0","","0.3706978481","0.6","0.8","0.4","0.2","0.4063691663","0.4067061876","0.1816524112","0.3706978481","","","","","","","","","","","76","L","3","","","17","main_expt"
"86","","bandit","96","282405","0.0-57.0-0.0","91933452","wem/bandit_either","A2VXIWQ7WRR962","either","5","","","","","","","0","0","1","","0.1700798448","0.6","0.8","0.4","0.2","0.4201618032","0.3969002131","0.1700798448","0.3323991027","","","","","","","","","","","75","K","2","","","18","main_expt"
"149","","bandit","97","284060","0.0-58.0-0.0","91933452","wem/bandit_either","A2VXIWQ7WRR962","either","5","","","","","","","0","0","1","0.3930099592","","0.6","0.8","0.4","0.2","","","","","0.3868389751","0.3930099592","0.1998500639","0.3301718366","","","","","","","74","J","1","","","19","main_expt"
"135","","bandit","98","285709","0.0-59.0-0.0","91933452","wem/bandit_either","A2VXIWQ7WRR962","either","5","","","","","","","0","0","1","0.3868875991","","0.6","0.8","0.4","0.2","","","","","0.3868875991","0.3791602553","0.2418808817","0.3714618997","","","","","","","72","H","0","img/none_selected.jpg","","20","main_expt"
"190","","bandit","99","287405","0.0-60.0-0.0","91933452","wem/bandit_either","A2VXIWQ7WRR962","either","5","","","","","","","1","0","0","0.4127515201","","0.6","0.8","0.4","0.2","","","","","0.4253770554","0.4127515201","0.2293341009","0.3621694591","","","","","","","74","J","1","","","21","main_expt"
"46","","bandit","100","288956","0.0-61.0-0.0","91933452","wem/bandit_either","A2VXIWQ7WRR962","either","5","","","","","","","0","1","0","","0.4285762007","0.6","0.8","0.4","0.2","0.4285762007","0.4164833055","0.2074184163","0.3648829928","","","","","","","","","","","72","H","0","img/none_selected.jpg","","22","main_expt"
"94","","bandit","101","290556","0.0-62.0-0.0","91933452","wem/bandit_either","A2VXIWQ7WRR962","either","5","","","","","","","1","0","0","0.4143027846","","0.6","0.8","0.4","0.2","","","","","0.4082522222","0.4143027846","0.1832507358","0.2856994719","","","","","","","74","J","1","","","23","main_expt"
"30","","bandit","102","292094","0.0-63.0-0.0","91933452","wem/bandit_either","A2VXIWQ7WRR962","either","5","","","","","","","1","0","0","0.3649270698","","0.6","0.8","0.4","0.2","","","","","0.4027270218","0.3649270698","0.1469425149","0.3152516524","","","","","","","74","J","1","","","24","main_expt"
"6","","bandit","103","293608","0.0-64.0-0.0","91933452","wem/bandit_either","A2VXIWQ7WRR962","either","5","","","","","","","0","0","1","0.392676409","","0.6","0.8","0.4","0.2","","","","","0.4100212433","0.392676409","0.102794739","0.2778145345","","","","","","","74","J","1","","","25","main_expt"
"190","","bandit","104","295309","0.0-65.0-0.0","91933452","wem/bandit_either","A2VXIWQ7WRR962","either","5","","","","","","","1","0","0","0.4031565401","","0.6","0.8","0.4","0.2","","","","","0.4190791169","0.4031565401","0.1173732637","0.3170506137","","","","","","","74","J","1","","","26","main_expt"
"55","","bandit","105","296871","0.0-66.0-0.0","91933452","wem/bandit_either","A2VXIWQ7WRR962","either","5","","","","","","","1","0","0","0.4245959001","","0.6","0.8","0.4","0.2","","","","","0.4527212376","0.4245959001","0.08835016803","0.3223143746","","","","","","","74","J","1","","","27","main_expt"
"143","","bandit","106","298517","0.0-67.0-0.0","91933452","wem/bandit_either","A2VXIWQ7WRR962","either","5","","","","","","","0","0","1","0.4232885055","","0.6","0.8","0.4","0.2","","","","","0.4480998813","0.4232885055","0.1134440288","0.3234472479","","","","","","","74","J","1","","","28","main_expt"
"223","","bandit","107","300253","0.0-68.0-0.0","91933452","wem/bandit_either","A2VXIWQ7WRR962","either","5","","","","","","","1","0","0","0.4495512981","","0.6","0.8","0.4","0.2","","","","","0.4628669208","0.4495512981","0.1982905849","0.2881425904","","","","","","","74","J","1","","","29","main_expt"
"101","","bandit","108","301861","0.0-69.0-0.0","91933452","wem/bandit_either","A2VXIWQ7WRR962","either","5","","","","","","","0","0","1","0.4485299892","","0.6","0.8","0.4","0.2","","","","","0.4565655028","0.4485299892","0.2366655967","0.2326555855","","","","","","","74","J","1","","","30","main_expt"
"178","","bandit","109","303574","0.0-70.0-0.0","91933452","wem/bandit_either","A2VXIWQ7WRR962","either","5","","","","","","","0","0","1","","0.4599237238","0.6","0.8","0.4","0.2","0.4686031056","0.4599237238","0.1622470467","0.2364604256","","","","","","","","","","","74","J","1","","","31","main_expt"
"179","","bandit","110","305266","0.0-71.0-0.0","91933452","wem/bandit_either","A2VXIWQ7WRR962","either","5","","","","","","","0","0","1","0.4508116693","","0.6","0.8","0.4","0.2","","","","","0.4659582456","0.4508116693","0.1771911602","0.2451982598","","","","","","","74","J","1","","","32","main_expt"
"154","","bandit","111","306923","0.0-72.0-0.0","91933452","wem/bandit_either","A2VXIWQ7WRR962","either","5","","","","","","","1","0","0","0.4810757035","","0.6","0.8","0.4","0.2","","","","","0.4810757035","0.45101727","0.1622836308","0.2360369815","","","","","","","72","H","0","img/none_selected.jpg","","33","main_expt"
"2","","bandit","112","308431","0.0-73.0-0.0","91933452","wem/bandit_either","A2VXIWQ7WRR962","either","5","","","","","","","0","0","1","0.4340174653","","0.6","0.8","0.4","0.2","","","","","0.4842727378","0.4340174653","0.1655985557","0.2317763892","","","","","","","74","J","1","","","34","main_expt"
"73","","bandit","113","310010","0.0-74.0-0.0","91933452","wem/bandit_either","A2VXIWQ7WRR962","either","5","","","","","","","0","0","1","","0.4745470136","0.6","0.8","0.4","0.2","0.4745470136","0.4040147441","0.1492797185","0.2527891731","","","","","","","","","","","72","H","0","img/none_selected.jpg","","35","main_expt"
"6","","bandit","114","311522","0.0-75.0-0.0","91933452","wem/bandit_either","A2VXIWQ7WRR962","either","5","","","","","","","0","0","1","0.4440965139","","0.6","0.8","0.4","0.2","","","","","0.4440965139","0.4268829696","0.1504543003","0.2641283143","","","","","","","72","H","0","img/none_selected.jpg","","36","main_expt"
"78","","bandit","115","313107","0.0-76.0-0.0","91933452","wem/bandit_either","A2VXIWQ7WRR962","either","5","","","","","","","0","0","1","","0.1064249526","0.6","0.8","0.4","0.2","0.4544425755","0.4562327564","0.1064249526","0.2309310423","","","","","","","","","","","75","K","2","","","37","main_expt"
"29","","bandit","116","314643","0.0-77.0-0.0","91933452","wem/bandit_either","A2VXIWQ7WRR962","either","5","","","","","","","0","0","1","0.4481627861","","0.6","0.8","0.4","0.2","","","","","0.4700138218","0.4481627861","0.1346530267","0.2093170459","","","","","","","74","J","1","","","38","main_expt"
"38","","bandit","117","316187","0.0-78.0-0.0","91933452","wem/bandit_either","A2VXIWQ7WRR962","either","5","","","","","","","0","0","1","0.466948448","","0.6","0.8","0.4","0.2","","","","","0.466948448","0.4475890948","0.1303494481","0.1398625959","","","","","","","72","H","0","img/none_selected.jpg","","39","main_expt"
"14","","bandit","118","317707","0.0-79.0-0.0","91933452","wem/bandit_either","A2VXIWQ7WRR962","either","5","","","","","","","0","0","1","0.4679256248","","0.6","0.8","0.4","0.2","","","","","0.4679256248","0.4501575696","0.1492074344","0.09690087606","","","","","","","72","H","0","img/none_selected.jpg","","40","main_expt"
"342","","bandit","119","319555","0.0-80.0-0.0","91933452","wem/bandit_either","A2VXIWQ7WRR962","either","5","","","","","","","0","0","1","0.445537573","","0.6","0.8","0.4","0.2","","","","","0.445537573","0.4121884666","0.1370672299","0.1129569356","","","","","","","72","H","0","img/none_selected.jpg","","41","main_expt"
"206","","bandit","120","321269","0.0-81.0-0.0","91933452","wem/bandit_either","A2VXIWQ7WRR962","either","5","","","","","","","0","0","1","","0.1227033228","0.6","0.8","0.4","0.2","0.4521531226","0.4379939247","0.08144147181","0.1227033228","","","","","","","","","","","76","L","3","","","42","main_expt"
"3827","","bandit","121","326602","0.0-82.0-0.0","91933452","wem/bandit_either","A2VXIWQ7WRR962","either","5","","","","","","","0","0","1","","0.4695072217","0.6","0.8","0.4","0.2","0.4695072217","0.4271747655","0.06793865388","0.08393287497","","","","","","","","","","","72","H","0","img/none_selected.jpg","","43","main_expt"
"703","","bandit","122","328829","0.0-83.0-0.0","91933452","wem/bandit_either","A2VXIWQ7WRR962","either","5","","","","","","","0","0","1","0.4480494518","","0.6","0.8","0.4","0.2","","","","","0.4807409838","0.4480494518","0.05295344446","0.06260074275","","","","","","","74","J","1","","","44","main_expt"
"295","","bandit","123","330632","0.0-84.0-0.0","91933452","wem/bandit_either","A2VXIWQ7WRR962","either","5","","","","","","","0","0","1","0.02744239742","","0.6","0.8","0.4","0.2","","","","","0.4507048108","0.4269729589","0.02744239742","0.08062123592","","","","","","","75","K","2","","","45","main_expt"
"8","","bandit","124","332146","0.0-85.0-0.0","91933452","wem/bandit_either","A2VXIWQ7WRR962","either","5","","","","","","","0","0","1","0.02347437243","","0.6","0.8","0.4","0.2","","","","","0.4382321206","0.4475746277","0.02347437243","0.1110847749","","","","","","","75","K","2","","","46","main_expt"
"21","","bandit","125","333676","0.0-86.0-0.0","91933452","wem/bandit_either","A2VXIWQ7WRR962","either","5","","","","","","","0","0","1","0.02418160198","","0.6","0.8","0.4","0.2","","","","","0.4393937913","0.4295618238","0.02418160198","0.05346849493","","","","","","","75","K","2","","","47","main_expt"
"124","","bandit","126","335310","0.0-87.0-0.0","91933452","wem/bandit_either","A2VXIWQ7WRR962","either","5","","","","","","","0","0","1","","0.01182676654","0.6","0.8","0.4","0.2","0.440318131","0.4431907244","0.01182676654","0.04499733497","","","","","","","","","","","75","K","2","","","48","main_expt"
"266","","bandit","127","337083","0.0-88.0-0.0","91933452","wem/bandit_either","A2VXIWQ7WRR962","either","5","","","","","","","0","0","1","","0.07378534534","0.6","0.8","0.4","0.2","0.4362102412","0.4187732916","0.0186287842","0.07378534534","","","","","","","","","","","76","L","3","","","49","main_expt"
"150","","bandit","128","338739","0.0-89.0-0.0","91933452","wem/bandit_either","A2VXIWQ7WRR962","either","5","","","","","","","0","0","1","","0.06168845619","0.6","0.8","0.4","0.2","0.44488671","0.356579213","0.02550629551","0.06168845619","","","","","","","","","","","76","L","3","","","50","main_expt"
"111","","bandit","129","340364","0.0-90.0-0.0","91933452","wem/bandit_either","A2VXIWQ7WRR962","either","5","","","","","","","0","0","1","","0.1062028567","0.6","0.8","0.4","0.2","0.4633405548","0.2629404955","0.04366809707","0.1062028567","","","","","","","","","","","76","L","3","","","51","main_expt"
"80","","bandit","130","341955","0.0-91.0-0.0","91933452","wem/bandit_either","A2VXIWQ7WRR962","either","5","","","","","","","0","0","1","","0.1379608546","0.6","0.8","0.4","0.2","0.4528043762","0.2919747068","0.04357168116","0.1379608546","","","","","","","","","","","76","L","3","","","52","main_expt"
"126","","bandit","131","343587","0.0-92.0-0.0","91933452","wem/bandit_either","A2VXIWQ7WRR962","either","5","","","","","","","0","0","1","","0.4390431751","0.6","0.8","0.4","0.2","0.4390431751","0.3809901122","0.03899227154","0.1356826849","","","","","","","","","","","72","H","0","img/none_selected.jpg","","53","main_expt"
"157","","bandit","132","345254","0.0-93.0-0.0","91933452","wem/bandit_either","A2VXIWQ7WRR962","either","5","","","","","","","0","0","1","0.4549270822","","0.6","0.8","0.4","0.2","","","","","0.4549270822","0.3452518694","0.04009146386","0.1038772241","","","","","","","72","H","0","img/none_selected.jpg","","54","main_expt"
"57","","bandit","133","346819","0.0-94.0-0.0","91933452","wem/bandit_either","A2VXIWQ7WRR962","either","5","","","","","","","1","0","0","0.4710341864","","0.6","0.8","0.4","0.2","","","","","0.4710341864","0.3263112327","0.0155768565","0.1689791829","","","","","","","72","H","0","img/none_selected.jpg","","55","main_expt"
"115","","bandit","134","348458","0.0-95.0-0.0","91933452","wem/bandit_either","A2VXIWQ7WRR962","either","5","","","","","","","1","0","0","0.4745834276","","0.6","0.8","0.4","0.2","","","","","0.4745834276","0.3308963945","0.02112461672","0.1108888145","","","","","","","72","H","0","img/none_selected.jpg","","56","main_expt"
"226","","bandit","135","350187","0.0-96.0-0.0","91933452","wem/bandit_either","A2VXIWQ7WRR962","either","5","","","","","","","1","0","0","0.489318572","","0.6","0.8","0.4","0.2","","","","","0.489318572","0.3150326571","0.0126553198","0.1206542402","","","","","","","72","H","0","img/none_selected.jpg","","57","main_expt"
"103","","bandit","136","351803","0.0-97.0-0.0","91933452","wem/bandit_either","A2VXIWQ7WRR962","either","5","","","","","","","0","1","0","","0.480037986","0.6","0.8","0.4","0.2","0.480037986","0.3049116772","0.01131359515","0.09707343937","","","","","","","","","","","72","H","0","img/none_selected.jpg","","58","main_expt"
"20","","bandit","137","353332","0.0-98.0-0.0","91933452","wem/bandit_either","A2VXIWQ7WRR962","either","5","","","","","","","0","0","1","","0.4593461039","0.6","0.8","0.4","0.2","0.4593461039","0.3050987947","0.01030075821","0.1044384952","","","","","","","","","","","72","H","0","img/none_selected.jpg","","59","main_expt"
"84","","bandit","138","354923","0.0-99.0-0.0","91933452","wem/bandit_either","A2VXIWQ7WRR962","either","5","","","","","","","1","0","0","0.446051488","","0.6","0.8","0.4","0.2","","","","","0.446051488","0.3274009355","0.005868957973","0.08890369623","","","","","","","72","H","0","img/none_selected.jpg","","60","main_expt"
"229","","bandit","139","356658","0.0-100.0-0.0","91933452","wem/bandit_either","A2VXIWQ7WRR962","either","5","","","","","","","0","1","0","","0.4391285327","0.6","0.8","0.4","0.2","0.4391285327","0.3428943983","0.004361943215","0.08921221942","","","","","","","","","","","72","H","0","img/none_selected.jpg","","61","main_expt"
"62","","bandit","140","358226","0.0-101.0-0.0","91933452","wem/bandit_either","A2VXIWQ7WRR962","either","5","","","","","","","0","0","1","0.4063883723","","0.6","0.8","0.4","0.2","","","","","0.4063883723","0.3549763931","0.005208412743","0.09812025034","","","","","","","72","H","0","img/none_selected.jpg","","62","main_expt"
"85","","bandit","141","359819","0.0-102.0-0.0","91933452","wem/bandit_either","A2VXIWQ7WRR962","either","5","","","","","","","0","0","1","0.4330387396","","0.6","0.8","0.4","0.2","","","","","0.4330387396","0.3496678451","0.006461011255","0.09006279409","","","","","","","72","H","0","img/none_selected.jpg","","63","main_expt"
"81","","bandit","142","361420","0.0-103.0-0.0","91933452","wem/bandit_either","A2VXIWQ7WRR962","either","5","","","","","","","0","0","1","0.4207902426","","0.6","0.8","0.4","0.2","","","","","0.4207902426","0.3188537263","0.01267926231","0.1118976224","","","","","","","72","H","0","img/none_selected.jpg","","64","main_expt"
"269","","bandit","143","363195","0.0-104.0-0.0","91933452","wem/bandit_either","A2VXIWQ7WRR962","either","5","","","","","","","1","0","0","0.3191795336","","0.6","0.8","0.4","0.2","","","","","0.3719582347","0.3191795336","0.009732787917","0.1053817613","","","","","","","74","J","1","","","65","main_expt"
"13","","bandit","144","364694","0.0-105.0-0.0","91933452","wem/bandit_either","A2VXIWQ7WRR962","either","5","","","","","","","1","0","0","0.268616347","","0.6","0.8","0.4","0.2","","","","","0.3748569955","0.268616347","0.01092542651","0.1307356695","","","","","","","74","J","1","","","66","main_expt"
"78","","bandit","145","366278","0.0-106.0-0.0","91933452","wem/bandit_either","A2VXIWQ7WRR962","either","5","","","","","","","0","0","1","0.259194563","","0.6","0.8","0.4","0.2","","","","","0.335252031","0.259194563","0.02125534741","0.1418436428","","","","","","","74","J","1","","","67","main_expt"
"492","","bandit","146","368278","0.0-107.0-0.0","91933452","wem/bandit_either","A2VXIWQ7WRR962","either","5","","","","","","","0","0","1","0.2281204868","","0.6","0.8","0.4","0.2","","","","","0.3199157278","0.2281204868","0.02360283027","0.1459089566","","","","","","","74","J","1","","","68","main_expt"
"21","","bandit","147","369806","0.0-108.0-0.0","91933452","wem/bandit_either","A2VXIWQ7WRR962","either","5","","","","","","","0","1","0","","0.2195844169","0.6","0.8","0.4","0.2","0.3068525281","0.2195844169","0.02539305756","0.1809721424","","","","","","","","","","","74","J","1","","","69","main_expt"
"132","","bandit","148","371446","0.0-109.0-0.0","91933452","wem/bandit_either","A2VXIWQ7WRR962","either","5","","","","","","","0","0","1","","0.05014388586","0.6","0.8","0.4","0.2","0.3181076016","0.1883338509","0.05014388586","0.1784068974","","","","","","","","","","","75","K","2","","","70","main_expt"
"29","","bandit","149","372981","0.0-110.0-0.0","91933452","wem/bandit_either","A2VXIWQ7WRR962","either","5","","","","","","","0","0","1","","0.1973023396","0.6","0.8","0.4","0.2","0.2926426422","0.1639708178","0.04209054697","0.1973023396","","","","","","","","","","","76","L","3","","","71","main_expt"
"214","","bandit","150","374702","0.0-111.0-0.0","91933452","wem/bandit_either","A2VXIWQ7WRR962","either","5","","","","","","","0","0","1","0.2380263643","","0.6","0.8","0.4","0.2","","","","","0.2380263643","0.1312842785","0.05611199342","0.2436342847","","","","","","","72","H","0","img/none_selected.jpg","","72","main_expt"
"156","","bandit","151","376365","0.0-112.0-0.0","91933452","wem/bandit_either","A2VXIWQ7WRR962","either","5","","","","","","","0","0","1","0.1805041857","","0.6","0.8","0.4","0.2","","","","","0.2407197948","0.1805041857","0.05293238473","0.1992173182","","","","","","","74","J","1","","","73","main_expt"
"38","","bandit","152","377916","0.0-113.0-0.0","91933452","wem/bandit_either","A2VXIWQ7WRR962","either","5","","","","","","","0","0","1","0.1739557812","","0.6","0.8","0.4","0.2","","","","","0.2317468449","0.1739557812","0.0318456884","0.2347098304","","","","","","","74","J","1","","","74","main_expt"
"244","","bandit","153","379663","0.0-114.0-0.0","91933452","wem/bandit_either","A2VXIWQ7WRR962","either","5","","","","","","","0","1","0","","0.2434916027","0.6","0.8","0.4","0.2","0.2545997551","0.2434916027","0.03873230677","0.2641442137","","","","","","","","","","","74","J","1","","","75","main_expt"
"44","","bandit","154","381214","0.0-115.0-0.0","91933452","wem/bandit_either","A2VXIWQ7WRR962","either","5","","","","","","","0","1","0","","0.2890845388","0.6","0.8","0.4","0.2","0.2890845388","0.2438468568","0.03304947682","0.3192644053","","","","","","","","","","","72","H","0","img/none_selected.jpg","","76","main_expt"
"172","","bandit","155","382894","0.0-116.0-0.0","91933452","wem/bandit_either","A2VXIWQ7WRR962","either","5","","","","","","","1","0","0","0.2386362654","","0.6","0.8","0.4","0.2","","","","","0.2386362654","0.2425324642","0.02607887458","0.3351132613","","","","","","","72","H","0","img/none_selected.jpg","","77","main_expt"
"181","","bandit","156","384582","0.0-117.0-0.0","91933452","wem/bandit_either","A2VXIWQ7WRR962","either","5","","","","","","","0","0","1","0.2673679704","","0.6","0.8","0.4","0.2","","","","","0.2673679704","0.205588479","0.02492981692","0.3086784207","","","","","","","72","H","0","img/none_selected.jpg","","78","main_expt"
"949","","bandit","157","387046","0.0-118.0-0.0","91933452","wem/bandit_either","A2VXIWQ7WRR962","either","5","","","","","","","0","0","1","0.2813811921","","0.6","0.8","0.4","0.2","","","","","0.2813811921","0.213062191","0.01824110002","0.3076482073","","","","","","","72","H","0","img/none_selected.jpg","","79","main_expt"
"1538","","bandit","158","390088","0.0-119.0-0.0","91933452","wem/bandit_either","A2VXIWQ7WRR962","either","5","","","","","","","1","0","0","0.2419447949","","0.6","0.8","0.4","0.2","","","","","0.2419447949","0.1852926048","0.0202176162","0.3605025214","","","","","","","72","H","0","img/none_selected.jpg","","80","main_expt"
"124","","bandit","159","391718","0.0-120.0-0.0","91933452","wem/bandit_either","A2VXIWQ7WRR962","either","5","","","","","","","0","0","1","0.2332942271","","0.6","0.8","0.4","0.2","","","","","0.323481111","0.2332942271","0.0252752587","0.3286166321","","","","","","","74","J","1","","","81","main_expt"
"157","","bandit","160","393382","0.0-121.0-0.0","91933452","wem/bandit_either","A2VXIWQ7WRR962","either","5","","","","","","","0","0","1","0.2087797338","","0.6","0.8","0.4","0.2","","","","","0.3097244961","0.2087797338","0.05668457717","0.3459677762","","","","","","","74","J","1","","","82","main_expt"
"67","","bandit","161","394965","0.0-122.0-0.0","91933452","wem/bandit_either","A2VXIWQ7WRR962","either","5","","","","","","","0","0","1","0.2787498647","","0.6","0.8","0.4","0.2","","","","","0.2787498647","0.2049979043","0.07760530004","0.3092751195","","","","","","","72","H","0","img/none_selected.jpg","","83","main_expt"
"139","","bandit","162","396614","0.0-123.0-0.0","91933452","wem/bandit_either","A2VXIWQ7WRR962","either","5","","","","","","","0","0","1","","0.3044630387","0.6","0.8","0.4","0.2","0.2589524449","0.2151780091","0.03696005566","0.3044630387","","","","","","","","","","","76","L","3","","","84","main_expt"
"44","","bandit","163","398165","0.0-124.0-0.0","91933452","wem/bandit_either","A2VXIWQ7WRR962","either","5","","","","","","","0","0","1","","0.2812480587","0.6","0.8","0.4","0.2","0.2769318636","0.1497615914","0.04177257934","0.2812480587","","","","","","","","","","","76","L","3","","","85","main_expt"
"46","","bandit","164","399718","0.0-125.0-0.0","91933452","wem/bandit_either","A2VXIWQ7WRR962","either","5","","","","","","","0","0","1","0.1223687677","","0.6","0.8","0.4","0.2","","","","","0.2849222391","0.1223687677","0.0385770192","0.2506532223","","","","","","","74","J","1","","","86","main_expt"
"924","","bandit","165","402151","0.0-126.0-0.0","91933452","wem/bandit_either","A2VXIWQ7WRR962","either","5","","","","","","","0","0","1","0.3131087309","","0.6","0.8","0.4","0.2","","","","","0.3131087309","0.1472857413","0.03720252147","0.2269900387","","","","","","","72","H","0","img/none_selected.jpg","","87","main_expt"
"11","","bandit","166","403670","0.0-127.0-0.0","91933452","wem/bandit_either","A2VXIWQ7WRR962","either","5","","","","","","","0","0","1","","0.1252586248","0.6","0.8","0.4","0.2","0.3038587512","0.1252586248","0.06746059371","0.1504729919","","","","","","","","","","","74","J","1","","","88","main_expt"
"5","","bandit","167","405186","0.0-128.0-0.0","91933452","wem/bandit_either","A2VXIWQ7WRR962","either","5","","","","","","","0","0","1","0.1194927994","","0.6","0.8","0.4","0.2","","","","","0.3308022157","0.1194927994","0.04069757945","0.1382070302","","","","","","","74","J","1","","","89","main_expt"
"48","","bandit","168","406751","0.0-129.0-0.0","91933452","wem/bandit_either","A2VXIWQ7WRR962","either","5","","","","","","","0","0","1","0.1589750007","","0.6","0.8","0.4","0.2","","","","","0.3574922351","0.1589750007","0.07325379503","0.1364765349","","","","","","","74","J","1","","","90","main_expt"
"14816","","bandit","169","423070","0.0-130.0-0.0","91933452","wem/bandit_either","A2VXIWQ7WRR962","either","5","","","","","","","0","0","1","0.3729517688","","0.6","0.8","0.4","0.2","","","","","0.3729517688","0.1859960426","0.06877471811","0.09318196272","","","","","","","72","H","0","img/none_selected.jpg","","91","main_expt"
"83","","bandit","170","424677","0.0-131.0-0.0","91933452","wem/bandit_either","A2VXIWQ7WRR962","either","5","","","","","","","0","0","1","","0.398352994","0.6","0.8","0.4","0.2","0.398352994","0.192419488","0.04115987362","0.06946097624","","","","","","","","","","","72","H","0","img/none_selected.jpg","","92","main_expt"
"253","","bandit","171","426443","0.0-132.0-0.0","91933452","wem/bandit_either","A2VXIWQ7WRR962","either","5","","","","","","","0","0","1","0.4135860398","","0.6","0.8","0.4","0.2","","","","","0.4135860398","0.1716033463","0.07078892783","0.08102832817","","","","","","","72","H","0","img/none_selected.jpg","","93","main_expt"
"224","","bandit","172","428179","0.0-133.0-0.0","91933452","wem/bandit_either","A2VXIWQ7WRR962","either","5","","","","","","","1","0","0","0.1935897604","","0.6","0.8","0.4","0.2","","","","","0.3786880174","0.1935897604","0.05572868433","0.1271360848","","","","","","","74","J","1","","","94","main_expt"
"52","","bandit","173","429742","0.0-134.0-0.0","91933452","wem/bandit_either","A2VXIWQ7WRR962","either","5","","","","","","","0","0","1","0.2193228015","","0.6","0.8","0.4","0.2","","","","","0.3823424718","0.2193228015","0.05056929995","0.1097592989","","","","","","","74","J","1","","","95","main_expt"
"100","","bandit","174","431364","0.0-135.0-0.0","91933452","wem/bandit_either","A2VXIWQ7WRR962","either","5","","","","","","","0","0","1","0.3262643469","","0.6","0.8","0.4","0.2","","","","","0.3642725552","0.3262643469","0.04159874267","0.1085490834","","","","","","","74","J","1","","","96","main_expt"
"218","","bandit","175","433085","0.0-136.0-0.0","91933452","wem/bandit_either","A2VXIWQ7WRR962","either","5","","","","","","","0","1","0","","0.3207405496","0.6","0.8","0.4","0.2","0.3197717944","0.3207405496","0.03654451862","0.1049812554","","","","","","","","","","","74","J","1","","","97","main_expt"
"4","","bandit","176","434597","0.0-137.0-0.0","91933452","wem/bandit_either","A2VXIWQ7WRR962","either","5","","","","","","","1","0","0","0.3712856991","","0.6","0.8","0.4","0.2","","","","","0.2514424369","0.3712856991","0.04190300095","0.08177978443","","","","","","","74","J","1","","","98","main_expt"
"5332","","bandit","177","441444","0.0-138.0-0.0","91933452","wem/bandit_either","A2VXIWQ7WRR962","either","5","","","","","","","1","0","0","0.3740145378","","0.6","0.8","0.4","0.2","","","","","0.2926772137","0.3740145378","0.08742990617","0.07574087804","","","","","","","74","J","1","","","99","main_expt"
"34","","bandit","178","442981","0.0-139.0-0.0","91933452","wem/bandit_either","A2VXIWQ7WRR962","either","5","","","","","","","0","1","0","","0.3776295542","0.6","0.8","0.4","0.2","0.234485335","0.3776295542","0.08966523481","0.07829319678","","","","","","","","","","","74","J","1","","","100","main_expt"
"433","","bandit","179","444940","0.0-140.0-0.0","91933452","wem/bandit_either","A2VXIWQ7WRR962","either","5","","","","","","","0","0","1","0.3592666398","","0.6","0.8","0.4","0.2","","","","","0.250352175","0.3592666398","0.07849065771","0.07919243683","","","","","","","74","J","1","","","101","main_expt"
"759","","bandit","180","447216","0.0-141.0-0.0","91933452","wem/bandit_either","A2VXIWQ7WRR962","either","5","","","","","","","0","0","1","0.3412191773","","0.6","0.8","0.4","0.2","","","","","0.2139972863","0.3412191773","0.1054267613","0.1052753188","","","","","","","74","J","1","","","102","main_expt"
"86","","bandit","181","448825","0.0-142.0-0.0","91933452","wem/bandit_either","A2VXIWQ7WRR962","either","5","","","","","","","1","0","0","0.3133100433","","0.6","0.8","0.4","0.2","","","","","0.20092706","0.3133100433","0.1120981937","0.1248526142","","","","","","","74","J","1","","","103","main_expt"
"37","","bandit","182","450367","0.0-143.0-0.0","91933452","wem/bandit_either","A2VXIWQ7WRR962","either","5","","","","","","","0","0","1","0.3219148419","","0.6","0.8","0.4","0.2","","","","","0.2305366804","0.3219148419","0.1034740879","0.142969925","","","","","","","74","J","1","","","104","main_expt"
"74","","bandit","183","451960","0.0-144.0-0.0","91933452","wem/bandit_either","A2VXIWQ7WRR962","either","5","","","","","","","0","0","1","0.3300892518","","0.6","0.8","0.4","0.2","","","","","0.2102135581","0.3300892518","0.07597240327","0.13947254","","","","","","","74","J","1","","","105","main_expt"
"0","","bandit","184","453472","0.0-145.0-0.0","91933452","wem/bandit_either","A2VXIWQ7WRR962","either","5","","","","","","","0","0","1","","0.3401839058","0.6","0.8","0.4","0.2","0.2219457329","0.3401839058","0.1124257427","0.1329526997","","","","","","","","","","","74","J","1","","","106","main_expt"
"22","","bandit","185","455003","0.0-146.0-0.0","91933452","wem/bandit_either","A2VXIWQ7WRR962","either","5","","","","","","","0","0","1","","0.3048423019","0.6","0.8","0.4","0.2","0.3048423019","0.3784706915","0.1133168519","0.1727290233","","","","","","","","","","","72","H","0","img/none_selected.jpg","","107","main_expt"
"1090","","bandit","186","457614","0.0-147.0-0.0","91933452","wem/bandit_either","A2VXIWQ7WRR962","either","5","","","","","","","0","0","1","0.3945753887","","0.6","0.8","0.4","0.2","","","","","0.258150515","0.3945753887","0.1752395656","0.1864487031","","","","","","","74","J","1","","","108","main_expt"
"905","","bandit","187","460044","0.0-148.0-0.0","91933452","wem/bandit_either","A2VXIWQ7WRR962","either","5","","","","","","","0","0","1","0.1859129148","","0.6","0.8","0.4","0.2","","","","","0.1859129148","0.356827327","0.1862973424","0.2463216238","","","","","","","72","H","0","img/none_selected.jpg","","109","main_expt"
"528","","bandit","188","462084","0.0-149.0-0.0","91933452","wem/bandit_either","A2VXIWQ7WRR962","either","5","","","","","","","0","0","1","","0.1371624404","0.6","0.8","0.4","0.2","0.1371624404","0.2344179837","0.2015845776","0.2431522628","","","","","","","","","","","72","H","0","img/none_selected.jpg","","110","main_expt"
"1907","","bandit","189","465507","0.0-150.0-0.0","91933452","wem/bandit_either","A2VXIWQ7WRR962","either","5","","","","","","","1","0","0","0.2644823096","","0.6","0.8","0.4","0.2","","","","","0.1258232978","0.2644823096","0.2003651753","0.1757476643","","","","","","","74","J","1","","","111","main_expt"
"1968","","bandit","190","468991","0.0-151.0-0.0","91933452","wem/bandit_either","A2VXIWQ7WRR962","either","5","","","","","","","0","0","1","","0.1529967373","0.6","0.8","0.4","0.2","0.1529967373","0.28311182","0.21392293","0.2451518953","","","","","","","","","","","72","H","0","img/none_selected.jpg","","112","main_expt"
"63","","bandit","191","470559","0.0-152.0-0.0","91933452","wem/bandit_either","A2VXIWQ7WRR962","either","5","","","","","","","0","0","1","","0.1606798039","0.6","0.8","0.4","0.2","0.148248117","0.2413269532","0.1606798039","0.2407836715","","","","","","","","","","","75","K","2","","","113","main_expt"
"1037","","bandit","192","473113","0.0-153.0-0.0","91933452","wem/bandit_either","A2VXIWQ7WRR962","either","5","","","","","","","1","0","0","0.3100969134","","0.6","0.8","0.4","0.2","","","","","0.1562208239","0.3100969134","0.2095980235","0.3099317417","","","","","","","74","J","1","","","114","main_expt"
"1109","","bandit","193","475734","0.0-154.0-0.0","91933452","wem/bandit_either","A2VXIWQ7WRR962","either","5","","","","","","","0","0","1","0.329842252","","0.6","0.8","0.4","0.2","","","","","0.2138032898","0.329842252","0.2550279667","0.3180754701","","","","","","","74","J","1","","","115","main_expt"
"4655","","bandit","194","481901","0.0-155.0-0.0","91933452","wem/bandit_either","A2VXIWQ7WRR962","either","5","","","","","","","1","0","0","0.2331260325","","0.6","0.8","0.4","0.2","","","","","0.2331260325","0.3223706096","0.2471764387","0.2919742107","","","","","","","72","H","0","img/none_selected.jpg","","116","main_expt"
"365","","bandit","195","483783","0.0-156.0-0.0","91933452","wem/bandit_either","A2VXIWQ7WRR962","either","5","","","","","","","0","0","1","","0.1826309729","0.6","0.8","0.4","0.2","0.1826309729","0.3098408215","0.2730878341","0.2799774295","","","","","","","","","","","72","H","0","img/none_selected.jpg","","117","main_expt"
"873","","bandit","196","486174","0.0-157.0-0.0","91933452","wem/bandit_either","A2VXIWQ7WRR962","either","5","","","","","","","0","0","1","","0.1511269107","0.6","0.8","0.4","0.2","0.1511269107","0.2974554567","0.2071462199","0.2646714695","","","","","","","","","","","72","H","0","img/none_selected.jpg","","118","main_expt"
"1358","","bandit","197","489060","0.0-158.0-0.0","91933452","wem/bandit_either","A2VXIWQ7WRR962","either","5","","","","","","","0","0","1","0.1559979654","","0.6","0.8","0.4","0.2","","","","","0.1559979654","0.3598468986","0.2275232499","0.3179839519","","","","","","","72","H","0","img/none_selected.jpg","","119","main_expt"
"570","","bandit","198","491155","0.0-159.0-0.0","91933452","wem/bandit_either","A2VXIWQ7WRR962","either","5","","","","","","","0","0","1","0.1463004055","","0.6","0.8","0.4","0.2","","","","","0.1463004055","0.2984373086","0.2767559596","0.3302262658","","","","","","","72","H","0","img/none_selected.jpg","","120","main_expt"
"1967","","bandit","199","494643","0.0-160.0-0.0","91933452","wem/bandit_either","A2VXIWQ7WRR962","either","5","","","","","","","0","0","1","0.1418195479","","0.6","0.8","0.4","0.2","","","","","0.1418195479","0.2973090059","0.3448590315","0.3500549905","","","","","","","72","H","0","img/none_selected.jpg","","121","main_expt"
"331","","bandit","200","496479","0.0-161.0-0.0","91933452","wem/bandit_either","A2VXIWQ7WRR962","either","5","","","","","","","0","0","1","0.1270782113","","0.6","0.8","0.4","0.2","","","","","0.1270782113","0.3382791822","0.3593301016","0.2686616284","","","","","","","72","H","0","img/none_selected.jpg","","122","main_expt"
"3212","","bandit","201","501210","0.0-162.0-0.0","91933452","wem/bandit_either","A2VXIWQ7WRR962","either","5","","","","","","","0","0","1","0.1207154071","","0.6","0.8","0.4","0.2","","","","","0.1207154071","0.3154347028","0.3680529171","0.2277230314","","","","","","","72","H","0","img/none_selected.jpg","","123","main_expt"
"144","","bandit","202","502878","0.0-163.0-0.0","91933452","wem/bandit_either","A2VXIWQ7WRR962","either","5","","","","","","","0","0","1","0.1229329119","","0.6","0.8","0.4","0.2","","","","","0.1229329119","0.2966737815","0.3476523483","0.3287090939","","","","","","","72","H","0","img/none_selected.jpg","","124","main_expt"
"511","","bandit","203","504906","0.0-164.0-0.0","91933452","wem/bandit_either","A2VXIWQ7WRR962","either","5","","","","","","","0","0","1","0.09241122996","","0.6","0.8","0.4","0.2","","","","","0.09241122996","0.3094831126","0.3564603465","0.3687339586","","","","","","","72","H","0","img/none_selected.jpg","","125","main_expt"
"2131","","bandit","204","508550","0.0-165.0-0.0","91933452","wem/bandit_either","A2VXIWQ7WRR962","either","5","","","","","","","0","0","1","0.08418962236","","0.6","0.8","0.4","0.2","","","","","0.08418962236","0.2488993205","0.3550684458","0.3836195774","","","","","","","72","H","0","img/none_selected.jpg","","126","main_expt"
"754","","bandit","205","510815","0.0-166.0-0.0","91933452","wem/bandit_either","A2VXIWQ7WRR962","either","5","","","","","","","0","0","1","","0.154715772","0.6","0.8","0.4","0.2","0.154715772","0.1953487027","0.3235559827","0.3617365958","","","","","","","","","","","72","H","0","img/none_selected.jpg","","127","main_expt"
"1110","","bandit","206","513440","0.0-167.0-0.0","91933452","wem/bandit_either","A2VXIWQ7WRR962","either","5","","","","","","","0","0","1","","0.1556709078","0.6","0.8","0.4","0.2","0.1556709078","0.2171889907","0.312087491","0.3235283493","","","","","","","","","","","72","H","0","img/none_selected.jpg","","128","main_expt"
"1006","","bandit","207","515969","0.0-168.0-0.0","91933452","wem/bandit_either","A2VXIWQ7WRR962","either","5","","","","","","","0","0","1","0.1214200615","","0.6","0.8","0.4","0.2","","","","","0.1214200615","0.2467699801","0.2843272188","0.3453830546","","","","","","","72","H","0","img/none_selected.jpg","","129","main_expt"
"86","","bandit","208","517581","0.0-169.0-0.0","91933452","wem/bandit_either","A2VXIWQ7WRR962","either","5","","","","","","","0","0","1","0.2814443482","","0.6","0.8","0.4","0.2","","","","","0.1377283829","0.2814443482","0.2128416856","0.3242747857","","","","","","","74","J","1","","","130","main_expt"
"936","","bandit","209","520029","0.0-170.0-0.0","91933452","wem/bandit_either","A2VXIWQ7WRR962","either","5","","","","","","","0","1","0","","0.1397421628","0.6","0.8","0.4","0.2","0.1397421628","0.2834176508","0.2403879813","0.3417201858","","","","","","","","","","","72","H","0","img/none_selected.jpg","","131","main_expt"
"754","","bandit","210","522294","0.0-171.0-0.0","91933452","wem/bandit_either","A2VXIWQ7WRR962","either","5","","","","","","","0","0","1","0.1061875113","","0.6","0.8","0.4","0.2","","","","","0.1061875113","0.2429908031","0.2811421594","0.3498614837","","","","","","","72","H","0","img/none_selected.jpg","","132","main_expt"
"2129","","bandit","211","525939","0.0-172.0-0.0","91933452","wem/bandit_either","A2VXIWQ7WRR962","either","5","","","","","","","0","0","1","0.07774811701","","0.6","0.8","0.4","0.2","","","","","0.07774811701","0.3053559495","0.3002858371","0.3134828643","","","","","","","72","H","0","img/none_selected.jpg","","133","main_expt"
"251","","bandit","212","527699","0.0-173.0-0.0","91933452","wem/bandit_either","A2VXIWQ7WRR962","either","5","","","","","","","0","0","1","0.08211281178","","0.6","0.8","0.4","0.2","","","","","0.08211281178","0.2693478067","0.277406375","0.3554593188","","","","","","","72","H","0","img/none_selected.jpg","","134","main_expt"
"96","","bandit","213","529306","0.0-174.0-0.0","91933452","wem/bandit_either","A2VXIWQ7WRR962","either","5","","","","","","","0","0","1","0.1123817552","","0.6","0.8","0.4","0.2","","","","","0.1123817552","0.3369166079","0.2897147582","0.3150900126","","","","","","","72","H","0","img/none_selected.jpg","","135","main_expt"
"3832","","bandit","214","534646","0.0-175.0-0.0","91933452","wem/bandit_either","A2VXIWQ7WRR962","either","5","","","","","","","0","0","1","","0.1478339482","0.6","0.8","0.4","0.2","0.1478339482","0.268603144","0.3590576628","0.3199395785","","","","","","","","","","","72","H","0","img/none_selected.jpg","","136","main_expt"
"1336","","bandit","215","537494","0.0-176.0-0.0","91933452","wem/bandit_either","A2VXIWQ7WRR962","either","5","","","","","","","0","0","1","0.1374936615","","0.6","0.8","0.4","0.2","","","","","0.1374936615","0.2373427956","0.3822427384","0.33362357","","","","","","","72","H","0","img/none_selected.jpg","","137","main_expt"
"670","","bandit","216","539691","0.0-177.0-0.0","91933452","wem/bandit_either","A2VXIWQ7WRR962","either","5","","","","","","","1","0","0","0.159761955","","0.6","0.8","0.4","0.2","","","","","0.159761955","0.2206869265","0.3410071165","0.3611324022","","","","","","","72","H","0","img/none_selected.jpg","","138","main_expt"
"586","","bandit","217","541797","0.0-178.0-0.0","91933452","wem/bandit_either","A2VXIWQ7WRR962","either","5","","","","","","","0","0","1","0.1363721132","","0.6","0.8","0.4","0.2","","","","","0.1363721132","0.2177966349","0.3738014659","0.3504145086","","","","","","","72","H","0","img/none_selected.jpg","","139","main_expt"
"1559","","bandit","218","544862","0.0-179.0-0.0","91933452","wem/bandit_either","A2VXIWQ7WRR962","either","5","","","","","","","0","0","1","0.1031445192","","0.6","0.8","0.4","0.2","","","","","0.1031445192","0.2387685432","0.422575493","0.309774603","","","","","","","72","H","0","img/none_selected.jpg","","140","main_expt"
"396","","bandit","219","546774","0.0-180.0-0.0","91933452","wem/bandit_either","A2VXIWQ7WRR962","either","5","","","","","","","0","0","1","0.09805286369","","0.6","0.8","0.4","0.2","","","","","0.09805286369","0.2575087366","0.4439129864","0.3506531288","","","","","","","72","H","0","img/none_selected.jpg","","141","main_expt"
"64","","bandit","220","548361","0.0-181.0-0.0","91933452","wem/bandit_either","A2VXIWQ7WRR962","either","5","","","","","","","0","0","1","","0.1149002948","0.6","0.8","0.4","0.2","0.1149002948","0.2392038972","0.4323802182","0.2965027242","","","","","","","","","","","72","H","0","img/none_selected.jpg","","142","main_expt"
"4849","","bandit","221","554727","0.0-182.0-0.0","91933452","wem/bandit_either","A2VXIWQ7WRR962","either","5","","","","","","","0","0","1","0.1209542099","","0.6","0.8","0.4","0.2","","","","","0.1209542099","0.2216470548","0.4358412593","0.2087517366","","","","","","","72","H","0","img/none_selected.jpg","","143","main_expt"
"3014","","bandit","222","559257","0.0-183.0-0.0","91933452","wem/bandit_either","A2VXIWQ7WRR962","either","5","","","","","","","0","1","0","","0.1202521083","0.6","0.8","0.4","0.2","0.1202521083","0.2224896139","0.4407373256","0.2313605626","","","","","","","","","","","72","H","0","img/none_selected.jpg","","144","main_expt"
"205","","bandit","223","560973","0.0-184.0-0.0","91933452","wem/bandit_either","A2VXIWQ7WRR962","either","5","","","","","","","0","0","1","0.1925605464","","0.6","0.8","0.4","0.2","","","","","0.1619743669","0.1925605464","0.4661091035","0.1785565547","","","","","","","74","J","1","","","145","main_expt"
"2466","","bandit","224","564959","0.0-185.0-0.0","91933452","wem/bandit_either","A2VXIWQ7WRR962","either","5","","","","","","","0","0","1","0.1664631043","","0.6","0.8","0.4","0.2","","","","","0.1664631043","0.2069800611","0.4637097668","0.1770660648","","","","","","","72","H","0","img/none_selected.jpg","","146","main_expt"
"1506","","bandit","225","567979","0.0-186.0-0.0","91933452","wem/bandit_either","A2VXIWQ7WRR962","either","5","","","","","","","0","0","1","0.2489662189","","0.6","0.8","0.4","0.2","","","","","0.1669241763","0.2489662189","0.4700491642","0.1063371611","","","","","","","74","J","1","","","147","main_expt"
"1375","","bandit","226","570857","0.0-187.0-0.0","91933452","wem/bandit_either","A2VXIWQ7WRR962","either","5","","","","","","","1","0","0","0.1581456949","","0.6","0.8","0.4","0.2","","","","","0.1581456949","0.1946464158","0.4648109734","0.1216370817","","","","","","","72","H","0","img/none_selected.jpg","","148","main_expt"
"1269","","bandit","227","573632","0.0-188.0-0.0","91933452","wem/bandit_either","A2VXIWQ7WRR962","either","5","","","","","","","0","0","1","0.1698392466","","0.6","0.8","0.4","0.2","","","","","0.1698392466","0.1826562491","0.4635511513","0.1024256959","","","","","","","72","H","0","img/none_selected.jpg","","149","main_expt"
"779","","bandit","228","575932","0.0-189.0-0.0","91933452","wem/bandit_either","A2VXIWQ7WRR962","either","5","","","","","","","1","0","0","0.2140114634","","0.6","0.8","0.4","0.2","","","","","0.2140114634","0.1750473563","0.4445017148","0.1371094633","","","","","","","72","H","0","img/none_selected.jpg","","150","main_expt"
"669","","bandit","229","578107","0.0-190.0-0.0","91933452","wem/bandit_either","A2VXIWQ7WRR962","either","5","","","","","","","0","1","0","","0.2392960001","0.6","0.8","0.4","0.2","0.2392960001","0.1109536645","0.4434799742","0.1702433702","","","","","","","","","","","72","H","0","img/none_selected.jpg","","151","main_expt"
"670","","bandit","230","580290","0.0-191.0-0.0","91933452","wem/bandit_either","A2VXIWQ7WRR962","either","5","","","","","","","0","0","1","0.2095863317","","0.6","0.8","0.4","0.2","","","","","0.2095863317","0.1143086707","0.4451665291","0.1860489046","","","","","","","72","H","0","img/none_selected.jpg","","152","main_expt"
"1023","","bandit","231","582832","0.0-192.0-0.0","91933452","wem/bandit_either","A2VXIWQ7WRR962","either","5","","","","","","","0","0","1","0.2543258611","","0.6","0.8","0.4","0.2","","","","","0.2543258611","0.1236290712","0.4401532833","0.2117094388","","","","","","","72","H","0","img/none_selected.jpg","","153","main_expt"
"545","","bandit","232","584885","0.0-193.0-0.0","91933452","wem/bandit_either","A2VXIWQ7WRR962","either","5","","","","","","","0","0","1","0.2602259906","","0.6","0.8","0.4","0.2","","","","","0.2602259906","0.1600695342","0.4516855879","0.2072389033","","","","","","","72","H","0","img/none_selected.jpg","","154","main_expt"
"314","","bandit","233","586710","0.0-194.0-0.0","91933452","wem/bandit_either","A2VXIWQ7WRR962","either","5","","","","","","","1","0","0","0.2750581274","","0.6","0.8","0.4","0.2","","","","","0.2750581274","0.1770288166","0.4480264808","0.1986333914","","","","","","","72","H","0","img/none_selected.jpg","","155","main_expt"
"141","","bandit","234","588371","0.0-195.0-0.0","91933452","wem/bandit_either","A2VXIWQ7WRR962","either","5","","","","","","","1","0","0","0.1761817894","","0.6","0.8","0.4","0.2","","","","","0.2438045727","0.1761817894","0.4260414265","0.2054640346","","","","","","","74","J","1","","","156","main_expt"
"2238","","bandit","235","592120","0.0-196.0-0.0","91933452","wem/bandit_either","A2VXIWQ7WRR962","either","5","","","","","","","1","0","0","0.2857025143","","0.6","0.8","0.4","0.2","","","","","0.2857025143","0.1998830888","0.4365201507","0.1810715383","","","","","","","72","H","0","img/none_selected.jpg","","157","main_expt"
"260","","bandit","236","593896","0.0-197.0-0.0","91933452","wem/bandit_either","A2VXIWQ7WRR962","either","5","","","","","","","1","0","0","0.2887719476","","0.6","0.8","0.4","0.2","","","","","0.2887719476","0.2150354531","0.4076244479","0.2118906364","","","","","","","72","H","0","img/none_selected.jpg","","158","main_expt"
"10","","bandit","237","595425","0.0-198.0-0.0","91933452","wem/bandit_either","A2VXIWQ7WRR962","either","5","","","","","","","0","0","1","0.2859462397","","0.6","0.8","0.4","0.2","","","","","0.2859462397","0.2221069796","0.403953851","0.2293976715","","","","","","","72","H","0","img/none_selected.jpg","","159","main_expt"
"600","","bandit","238","597538","0.0-199.0-0.0","91933452","wem/bandit_either","A2VXIWQ7WRR962","either","5","","","","","","","1","0","0","0.207432816","","0.6","0.8","0.4","0.2","","","","","0.207432816","0.2627335039","0.4282135537","0.2186051381","","","","","","","72","H","0","img/none_selected.jpg","","160","main_expt"
"31","","bandit","239","599070","0.0-200.0-0.0","91933452","wem/bandit_either","A2VXIWQ7WRR962","either","5","","","","","","","0","0","1","0.1611694724","","0.6","0.8","0.4","0.2","","","","","0.1611694724","0.2922457848","0.4479073124","0.2175927206","","","","","","","72","H","0","img/none_selected.jpg","","161","main_expt"
"187","","bandit","240","600766","0.0-201.0-0.0","91933452","wem/bandit_either","A2VXIWQ7WRR962","either","5","","","","","","","0","0","1","0.14378348","","0.6","0.8","0.4","0.2","","","","","0.14378348","0.3040212123","0.4456201243","0.2370404117","","","","","","","72","H","0","img/none_selected.jpg","","162","main_expt"
"120","","bandit","241","602396","0.0-202.0-0.0","91933452","wem/bandit_either","A2VXIWQ7WRR962","either","5","","","","","","","0","0","1","0.1707099899","","0.6","0.8","0.4","0.2","","","","","0.1707099899","0.2933359027","0.4384930657","0.2778780432","","","","","","","72","H","0","img/none_selected.jpg","","163","main_expt"
"173","","bandit","242","604091","0.0-203.0-0.0","91933452","wem/bandit_either","A2VXIWQ7WRR962","either","5","","","","","","","0","0","1","","0.1933693166","0.6","0.8","0.4","0.2","0.1933693166","0.2388203062","0.4231568034","0.2643388611","","","","","","","","","","","72","H","0","img/none_selected.jpg","","164","main_expt"
"157","","bandit","243","605786","0.0-204.0-0.0","91933452","wem/bandit_either","A2VXIWQ7WRR962","either","5","","","","","","","1","0","0","0.2406324952","","0.6","0.8","0.4","0.2","","","","","0.2406324952","0.2646204916","0.4412535734","0.1967204453","","","","","","","72","H","0","img/none_selected.jpg","","165","main_expt"
"125","","bandit","244","607428","0.0-205.0-0.0","91933452","wem/bandit_either","A2VXIWQ7WRR962","either","5","","","","","","","0","0","1","0.2650462377","","0.6","0.8","0.4","0.2","","","","","0.2650462377","0.2591758032","0.438364003","0.1567937345","","","","","","","72","H","0","img/none_selected.jpg","","166","main_expt"
"720","","bandit","245","609660","0.0-206.0-0.0","91933452","wem/bandit_either","A2VXIWQ7WRR962","either","5","","","","","","","0","0","1","0.245875583","","0.6","0.8","0.4","0.2","","","","","0.245875583","0.1955934818","0.4290991351","0.1201482918","","","","","","","72","H","0","img/none_selected.jpg","","167","main_expt"
"30","","bandit","246","611206","0.0-207.0-0.0","91933452","wem/bandit_either","A2VXIWQ7WRR962","either","5","","","","","","","0","0","1","0.257303599","","0.6","0.8","0.4","0.2","","","","","0.257303599","0.2090603634","0.4510860662","0.0936051119","","","","","","","72","H","0","img/none_selected.jpg","","168","main_expt"
"627","","bandit","247","613356","0.0-208.0-0.0","91933452","wem/bandit_either","A2VXIWQ7WRR962","either","5","","","","","","","0","0","1","","0.2993732043","0.6","0.8","0.4","0.2","0.2993732043","0.2678479696","0.4491424364","0.08775096918","","","","","","","","","","","72","H","0","img/none_selected.jpg","","169","main_expt"
"386","","bandit","248","615258","0.0-209.0-0.0","91933452","wem/bandit_either","A2VXIWQ7WRR962","either","5","","","","","","","0","0","1","0.3388977639","","0.6","0.8","0.4","0.2","","","","","0.3388977639","0.2532125956","0.4332244901","0.06743429675","","","","","","","72","H","0","img/none_selected.jpg","","170","main_expt"
"730","","bandit","249","617508","0.0-210.0-0.0","91933452","wem/bandit_either","A2VXIWQ7WRR962","either","5","","","","","","","0","0","1","0.2947926635","","0.6","0.8","0.4","0.2","","","","","0.2947926635","0.2568627054","0.4405036994","0.05979118822","","","","","","","72","H","0","img/none_selected.jpg","","171","main_expt"
"3503","","bandit","250","622531","0.0-211.0-0.0","91933452","wem/bandit_either","A2VXIWQ7WRR962","either","5","","","","","","","0","0","1","","0.2892529657","0.6","0.8","0.4","0.2","0.2892529657","0.2451563353","0.4358521759","0.03200499914","","","","","","","","","","","72","H","0","img/none_selected.jpg","","172","main_expt"
"48","","bandit","251","624082","0.0-212.0-0.0","91933452","wem/bandit_either","A2VXIWQ7WRR962","either","5","","","","","","","1","0","0","0.2571917514","","0.6","0.8","0.4","0.2","","","","","0.2571917514","0.3003395367","0.4471617722","0.04613358223","","","","","","","72","H","0","img/none_selected.jpg","","173","main_expt"
"3113","","bandit","252","628698","0.0-213.0-0.0","91933452","wem/bandit_either","A2VXIWQ7WRR962","either","5","","","","","","","0","0","1","","0.244173221","0.6","0.8","0.4","0.2","0.244173221","0.2545998681","0.4560251174","0.05969677181","","","","","","","","","","","72","H","0","img/none_selected.jpg","","174","main_expt"
"66","","bandit","253","630285","0.0-214.0-0.0","91933452","wem/bandit_either","A2VXIWQ7WRR962","either","5","","","","","","","1","0","0","0.4379349024","","0.6","0.8","0.4","0.2","","","","","0.2038098688","0.3383135611","0.4379349024","0.05930066603","","","","","","","75","K","2","","","175","main_expt"
"356","","bandit","254","632157","0.0-215.0-0.0","91933452","wem/bandit_either","A2VXIWQ7WRR962","either","5","","","","","","","0","0","1","","0.3880627729","0.6","0.8","0.4","0.2","0.2053823003","0.3880627729","0.4328841116","0.08110879181","","","","","","","","","","","74","J","1","","","176","main_expt"
"240","","bandit","255","633916","0.0-216.0-0.0","91933452","wem/bandit_either","A2VXIWQ7WRR962","either","5","","","","","","","0","0","1","0.2193083282","","0.6","0.8","0.4","0.2","","","","","0.2193083282","0.3920994557","0.3965365967","0.07611568943","","","","","","","72","H","0","img/none_selected.jpg","","177","main_expt"
"47","","bandit","256","635468","0.0-217.0-0.0","91933452","wem/bandit_either","A2VXIWQ7WRR962","either","5","","","","","","","0","0","1","","0.1904263594","0.6","0.8","0.4","0.2","0.1904263594","0.3882277994","0.3899234309","0.1220467165","","","","","","","","","","","72","H","0","img/none_selected.jpg","","178","main_expt"
"446","","bandit","257","637422","0.0-218.0-0.0","91933452","wem/bandit_either","A2VXIWQ7WRR962","either","5","","","","","","","1","0","0","0.2212788648","","0.6","0.8","0.4","0.2","","","","","0.2212788648","0.3939691408","0.4238443777","0.1698853315","","","","","","","72","H","0","img/none_selected.jpg","","179","main_expt"
"220","","bandit","258","639158","0.0-219.0-0.0","91933452","wem/bandit_either","A2VXIWQ7WRR962","either","5","","","","","","","0","0","1","","0.2640717145","0.6","0.8","0.4","0.2","0.2640717145","0.4074656662","0.4487400994","0.1374762061","","","","","","","","","","","72","H","0","img/none_selected.jpg","","180","main_expt"
"2658","","bandit","259","643332","0.0-220.0-0.0","91933452","wem/bandit_either","A2VXIWQ7WRR962","either","5","","","","","","","0","0","1","","0.2426483564","0.6","0.8","0.4","0.2","0.2426483564","0.3724421945","0.4314573438","0.09961924189","","","","","","","","","","","72","H","0","img/none_selected.jpg","","181","main_expt"
"4351","","bandit","260","649191","0.0-221.0-0.0","91933452","wem/bandit_either","A2VXIWQ7WRR962","either","5","","","","","","","0","0","1","0.2001563476","","0.6","0.8","0.4","0.2","","","","","0.2001563476","0.2998177931","0.4458059303","0.1391043194","","","","","","","72","H","0","img/none_selected.jpg","","182","main_expt"
"703","","bandit","261","651410","0.0-222.0-0.0","91933452","wem/bandit_either","A2VXIWQ7WRR962","either","5","","","","","","","0","0","1","0.2167094124","","0.6","0.8","0.4","0.2","","","","","0.2167094124","0.3629728763","0.4485460149","0.1336424596","","","","","","","72","H","0","img/none_selected.jpg","","183","main_expt"
"417","","bandit","262","653346","0.0-223.0-0.0","91933452","wem/bandit_either","A2VXIWQ7WRR962","either","5","","","","","","","0","0","1","","0.2402813617","0.6","0.8","0.4","0.2","0.2402813617","0.3763603645","0.4078350507","0.115911235","","","","","","","","","","","72","H","0","img/none_selected.jpg","","184","main_expt"
"4019","","bandit","263","658891","0.0-224.0-0.0","91933452","wem/bandit_either","A2VXIWQ7WRR962","either","5","","","","","","","0","1","0","","0.2745112141","0.6","0.8","0.4","0.2","0.2745112141","0.3472982705","0.3805788675","0.1394203739","","","","","","","","","","","72","H","0","img/none_selected.jpg","","185","main_expt"
"127","","bandit","264","660526","0.0-225.0-0.0","91933452","wem/bandit_either","A2VXIWQ7WRR962","either","5","","","","","","","1","0","0","0.3095995051","","0.6","0.8","0.4","0.2","","","","","0.2774566956","0.3095995051","0.4236809331","0.1557479742","","","","","","","74","J","1","","","186","main_expt"
"414","","bandit","265","662453","0.0-226.0-0.0","91933452","wem/bandit_either","A2VXIWQ7WRR962","either","5","","","","","","","0","0","1","","0.2567332284","0.6","0.8","0.4","0.2","0.2876011691","0.2567332284","0.4058627081","0.1823611596","","","","","","","","","","","74","J","1","","","187","main_expt"
"329","","bandit","266","664304","0.0-227.0-0.0","91933452","wem/bandit_either","A2VXIWQ7WRR962","either","5","","","","","","","0","0","1","0.2555256861","","0.6","0.8","0.4","0.2","","","","","0.2947112378","0.2555256861","0.3913346521","0.1854179297","","","","","","","74","J","1","","","188","main_expt"
"90","","bandit","267","665907","0.0-228.0-0.0","91933452","wem/bandit_either","A2VXIWQ7WRR962","either","5","","","","","","","0","0","1","","0.2009875262","0.6","0.8","0.4","0.2","0.2581494","0.2009875262","0.3760164219","0.1875645599","","","","","","","","","","","74","J","1","","","189","main_expt"
"112","","bandit","268","667528","0.0-229.0-0.0","91933452","wem/bandit_either","A2VXIWQ7WRR962","either","5","","","","","","","0","0","1","0.2055488595","","0.6","0.8","0.4","0.2","","","","","0.1756323468","0.2055488595","0.3327352817","0.2018323604","","","","","","","74","J","1","","","190","main_expt"
"137","","bandit","269","669192","0.0-230.0-0.0","91933452","wem/bandit_either","A2VXIWQ7WRR962","either","5","","","","","","","1","0","0","0.1506387864","","0.6","0.8","0.4","0.2","","","","","0.2521570866","0.1506387864","0.3015177445","0.221094727","","","","","","","74","J","1","","","191","main_expt"
"467","","bandit","270","671177","0.0-231.0-0.0","91933452","wem/bandit_either","A2VXIWQ7WRR962","either","5","","","","","","","0","0","1","0.2027442266","","0.6","0.8","0.4","0.2","","","","","0.2964739449","0.2027442266","0.2773298268","0.2320570195","","","","","","","74","J","1","","","192","main_expt"
"55","","bandit","271","672744","0.0-232.0-0.0","91933452","wem/bandit_either","A2VXIWQ7WRR962","either","5","","","","","","","0","0","1","0.1969137872","","0.6","0.8","0.4","0.2","","","","","0.2612966838","0.1969137872","0.2836613797","0.2948950962","","","","","","","74","J","1","","","193","main_expt"
"110","","bandit","272","674373","0.0-233.0-0.0","91933452","wem/bandit_either","A2VXIWQ7WRR962","either","5","","","","","","","1","0","0","0.2114994946","","0.6","0.8","0.4","0.2","","","","","0.3292914436","0.2114994946","0.2799350415","0.2602906927","","","","","","","74","J","1","","","194","main_expt"
"149","","bandit","273","676050","0.0-234.0-0.0","91933452","wem/bandit_either","A2VXIWQ7WRR962","either","5","","","","","","","0","0","1","0.2467939011","","0.6","0.8","0.4","0.2","","","","","0.4070308407","0.2467939011","0.2068597772","0.1771499101","","","","","","","74","J","1","","","195","main_expt"
"23","","bandit","274","677578","0.0-235.0-0.0","91933452","wem/bandit_either","A2VXIWQ7WRR962","either","5","","","","","","","0","0","1","0.2731811988","","0.6","0.8","0.4","0.2","","","","","0.3494820729","0.2731811988","0.2679469531","0.1746274925","","","","","","","74","J","1","","","196","main_expt"
"61","","bandit","275","679155","0.0-236.0-0.0","91933452","wem/bandit_either","A2VXIWQ7WRR962","either","5","","","","","","","0","0","1","0.2512114903","","0.6","0.8","0.4","0.2","","","","","0.3571939809","0.2512114903","0.2448078588","0.193224684","","","","","","","74","J","1","","","197","main_expt"
"982","","bandit","276","681642","0.0-237.0-0.0","91933452","wem/bandit_either","A2VXIWQ7WRR962","either","5","","","","","","","0","0","1","0.190651112","","0.6","0.8","0.4","0.2","","","","","0.382430028","0.190651112","0.2433987968","0.1771509929","","","","","","","74","J","1","","","198","main_expt"
"437","","bandit","277","683600","0.0-238.0-0.0","91933452","wem/bandit_either","A2VXIWQ7WRR962","either","5","","","","","","","0","0","1","","0.1701189695","0.6","0.8","0.4","0.2","0.3353474301","0.1701189695","0.2653624242","0.2466668772","","","","","","","","","","","74","J","1","","","199","main_expt"
"360","","bandit","278","685483","0.0-239.0-0.0","91933452","wem/bandit_either","A2VXIWQ7WRR962","either","5","","","","","","","0","0","1","0.1656975488","","0.6","0.8","0.4","0.2","","","","","0.3321976498","0.1656975488","0.2551376492","0.2477816141","","","","","","","74","J","1","","","200","main_expt"
"5598","","bandit","279","692586","0.0-240.0-0.0","91933452","wem/bandit_either","A2VXIWQ7WRR962","either","5","","","","","","","0","0","1","","0.1647298582","0.6","0.8","0.4","0.2","0.3218117355","0.1647298582","0.2660639347","0.2744817861","","","","","","","","","","","74","J","1","","","201","main_expt"
"852","","bandit","280","694956","0.0-241.0-0.0","91933452","wem/bandit_either","A2VXIWQ7WRR962","either","5","","","","","","","0","0","1","0.1242041815","","0.6","0.8","0.4","0.2","","","","","0.2949214693","0.1242041815","0.2220900594","0.3043062986","","","","","","","74","J","1","","","202","main_expt"
"163","","bandit","281","696637","0.0-242.0-0.0","91933452","wem/bandit_either","A2VXIWQ7WRR962","either","5","","","","","","","1","0","0","0.300077299","","0.6","0.8","0.4","0.2","","","","","0.300077299","0.1684487429","0.1543353204","0.272185569","","","","","","","72","H","0","img/none_selected.jpg","","203","main_expt"
"2680","","bandit","282","700828","0.0-243.0-0.0","91933452","wem/bandit_either","A2VXIWQ7WRR962","either","5","","","","","","","0","0","1","0.1666409686","","0.6","0.8","0.4","0.2","","","","","0.2866085977","0.1666409686","0.1605482003","0.2610767704","","","","","","","74","J","1","","","204","main_expt"
"681","","bandit","283","703028","0.0-244.0-0.0","91933452","wem/bandit_either","A2VXIWQ7WRR962","either","5","","","","","","","0","0","1","0.2197286508","","0.6","0.8","0.4","0.2","","","","","0.2695546272","0.2197286508","0.1406914754","0.2832615928","","","","","","","74","J","1","","","205","main_expt"
"542","","bandit","284","705079","0.0-245.0-0.0","91933452","wem/bandit_either","A2VXIWQ7WRR962","either","5","","","","","","","0","0","1","0.2754509052","","0.6","0.8","0.4","0.2","","","","","0.2622178416","0.2754509052","0.1138947463","0.300913322","","","","","","","74","J","1","","","206","main_expt"
"1720","","bandit","285","708309","0.0-246.0-0.0","91933452","wem/bandit_either","A2VXIWQ7WRR962","either","5","","","","","","","0","0","1","0.2664869377","","0.6","0.8","0.4","0.2","","","","","0.2498186578","0.2664869377","0.1096702189","0.3260258847","","","","","","","74","J","1","","","207","main_expt"
"1883","","bandit","286","711700","0.0-247.0-0.0","91933452","wem/bandit_either","A2VXIWQ7WRR962","either","5","","","","","","","0","0","1","0.2686565688","","0.6","0.8","0.4","0.2","","","","","0.2335358635","0.2686565688","0.09922356593","0.3173829003","","","","","","","74","J","1","","","208","main_expt"
"21247","","bandit","287","734464","0.0-248.0-0.0","91933452","wem/bandit_either","A2VXIWQ7WRR962","either","5","","","","","","","0","0","1","0.2638942681","","0.6","0.8","0.4","0.2","","","","","0.2638942681","0.2380255957","0.101567507","0.3153846937","","","","","","","72","H","0","img/none_selected.jpg","","209","main_expt"
"89","","bandit","288","736070","0.0-249.0-0.0","91933452","wem/bandit_either","A2VXIWQ7WRR962","either","5","","","","","","","0","0","1","0.2507768727","","0.6","0.8","0.4","0.2","","","","","0.2526926237","0.2507768727","0.08675379402","0.3010876552","","","","","","","74","J","1","","","210","main_expt"
"619","","bandit","289","738202","0.0-250.0-0.0","91933452","wem/bandit_either","A2VXIWQ7WRR962","either","5","","","","","","","0","0","1","","0.2685142319","0.6","0.8","0.4","0.2","0.2740367769","0.2685142319","0.07512021269","0.2864900033","","","","","","","","","","","74","J","1","","","211","main_expt"
"470","","bandit","290","740191","0.0-251.0-0.0","91933452","wem/bandit_either","A2VXIWQ7WRR962","either","5","","","","","","","0","1","0","","0.260511483","0.6","0.8","0.4","0.2","0.2440836191","0.260511483","0.08144254236","0.3163372434","","","","","","","","","","","74","J","1","","","212","main_expt"
"894","","bandit","291","742605","0.0-252.0-0.0","91933452","wem/bandit_either","A2VXIWQ7WRR962","either","5","","","","","","","0","0","1","0.2579605047","","0.6","0.8","0.4","0.2","","","","","0.2341903104","0.2579605047","0.06585574052","0.2701305136","","","","","","","74","J","1","","","213","main_expt"
"365","","bandit","292","744490","0.0-253.0-0.0","91933452","wem/bandit_either","A2VXIWQ7WRR962","either","5","","","","","","","0","0","1","0.2470456849","","0.6","0.8","0.4","0.2","","","","","0.2097526345","0.2470456849","0.08686614453","0.302599165","","","","","","","74","J","1","","","214","main_expt"
"78","","bandit","293","746090","0.0-254.0-0.0","91933452","wem/bandit_either","A2VXIWQ7WRR962","either","5","","","","","","","0","0","1","0.1796882487","","0.6","0.8","0.4","0.2","","","","","0.1796882487","0.3285383036","0.1068548489","0.2968005471","","","","","","","72","H","0","img/none_selected.jpg","","215","main_expt"
"92","","bandit","294","747698","0.0-255.0-0.0","91933452","wem/bandit_either","A2VXIWQ7WRR962","either","5","","","","","","","0","0","1","0.2237900511","","0.6","0.8","0.4","0.2","","","","","0.2237900511","0.3780044773","0.1211736082","0.2835536598","","","","","","","72","H","0","img/none_selected.jpg","","216","main_expt"
"1684","","bandit","295","750897","0.0-256.0-0.0","91933452","wem/bandit_either","A2VXIWQ7WRR962","either","5","","","","","","","0","0","1","","0.2265358539","0.6","0.8","0.4","0.2","0.2265358539","0.3939228946","0.09343701815","0.2520762718","","","","","","","","","","","72","H","0","img/none_selected.jpg","","217","main_expt"
"2712","","bandit","296","755123","0.0-257.0-0.0","91933452","wem/bandit_either","A2VXIWQ7WRR962","either","5","","","","","","","0","0","1","","0.2364013437","0.6","0.8","0.4","0.2","0.2364013437","0.3198270803","0.1001055386","0.2562699476","","","","","","","","","","","72","H","0","img/none_selected.jpg","","218","main_expt"
"3115","","bandit","297","759755","0.0-258.0-0.0","91933452","wem/bandit_either","A2VXIWQ7WRR962","either","5","","","","","","","0","0","1","","0.2810560361","0.6","0.8","0.4","0.2","0.2810560361","0.3502502288","0.09524874014","0.3002431464","","","","","","","","","","","72","H","0","img/none_selected.jpg","","219","main_expt"
"42973","","bandit","298","804240","0.0-259.0-0.0","91933452","wem/bandit_either","A2VXIWQ7WRR962","either","5","","","","","","","0","0","1","","0.3027429446","0.6","0.8","0.4","0.2","0.3027429446","0.3402456168","0.1304899995","0.3365413303","","","","","","","","","","","72","H","0","img/none_selected.jpg","","220","main_expt"
"33","","bandit","299","805775","0.0-260.0-0.0","91933452","wem/bandit_either","A2VXIWQ7WRR962","either","5","","","","","","","0","0","1","","0.3132134988","0.6","0.8","0.4","0.2","0.3132134988","0.3770059732","0.1272814923","0.2946103072","","","","","","","","","","","72","H","0","img/none_selected.jpg","","221","main_expt"
"76","","bandit","300","807373","0.0-261.0-0.0","91933452","wem/bandit_either","A2VXIWQ7WRR962","either","5","","","","","","","0","0","1","","0.2424821827","0.6","0.8","0.4","0.2","0.2424821827","0.3864421123","0.1654407056","0.3267284332","","","","","","","","","","","72","H","0","img/none_selected.jpg","","222","main_expt"
"5700","","bandit","301","814591","0.0-262.0-0.0","91933452","wem/bandit_either","A2VXIWQ7WRR962","either","5","","","","","","","0","0","1","","0.2595367495","0.6","0.8","0.4","0.2","0.2595367495","0.4205211408","0.1788325852","0.3175152631","","","","","","","","","","","72","H","0","img/none_selected.jpg","","223","main_expt"
"121","","bandit","302","816224","0.0-263.0-0.0","91933452","wem/bandit_either","A2VXIWQ7WRR962","either","5","","","","","","","0","1","0","","0.4131889957","0.6","0.8","0.4","0.2","0.328819141","0.4131889957","0.1736623033","0.3192400935","","","","","","","","","","","74","J","1","","","224","main_expt"
"111","","bandit","303","817841","0.0-264.0-0.0","91933452","wem/bandit_either","A2VXIWQ7WRR962","either","5","","","","","","","1","0","0","0.4001513574","","0.6","0.8","0.4","0.2","","","","","0.356121412","0.4001513574","0.1721911447","0.3096750449","","","","","","","74","J","1","","","225","main_expt"
"40","","bandit","304","819392","0.0-265.0-0.0","91933452","wem/bandit_either","A2VXIWQ7WRR962","either","5","","","","","","","0","0","1","0.3963688582","","0.6","0.8","0.4","0.2","","","","","0.3394019192","0.3963688582","0.2133818582","0.3142833063","","","","","","","74","J","1","","","226","main_expt"
"8454","","bandit","305","829360","0.0-266.0-0.0","91933452","wem/bandit_either","A2VXIWQ7WRR962","either","5","","","","","","","1","0","0","0.3979714495","","0.6","0.8","0.4","0.2","","","","","0.2860553004","0.3979714495","0.2620007467","0.3096885674","","","","","","","74","J","1","","","227","main_expt"
"516","","bandit","306","831391","0.0-267.0-0.0","91933452","wem/bandit_either","A2VXIWQ7WRR962","either","5","","","","","","","0","0","1","","0.3811043637","0.6","0.8","0.4","0.2","0.2967856672","0.3811043637","0.2961930455","0.3048295172","","","","","","","","","","","74","J","1","","","228","main_expt"
"266","","bandit","307","833168","0.0-268.0-0.0","91933452","wem/bandit_either","A2VXIWQ7WRR962","either","5","","","","","","","0","0","1","0.3488149186","","0.6","0.8","0.4","0.2","","","","","0.2857745529","0.3488149186","0.3081123415","0.2553920021","","","","","","","74","J","1","","","229","main_expt"
"0","","bandit","308","834685","0.0-269.0-0.0","91933452","wem/bandit_either","A2VXIWQ7WRR962","either","5","","","","","","","1","0","0","0.2883621188","","0.6","0.8","0.4","0.2","","","","","0.2589404948","0.2883621188","0.3027177586","0.2783794412","","","","","","","74","J","1","","","230","main_expt"
"10","","bandit","309","836209","0.0-270.0-0.0","91933452","wem/bandit_either","A2VXIWQ7WRR962","either","5","","","","","","","0","0","1","0.2444465504","","0.6","0.8","0.4","0.2","","","","","0.2628441024","0.2444465504","0.2495346478","0.2735536708","","","","","","","74","J","1","","","231","main_expt"
"4472","","bandit","310","842200","0.0-271.0-0.0","91933452","wem/bandit_either","A2VXIWQ7WRR962","either","5","","","","","","","0","0","1","0.2996930955","","0.6","0.8","0.4","0.2","","","","","0.276537748","0.2996930955","0.2185872191","0.2262440502","","","","","","","74","J","1","","","232","main_expt"
"300","","bandit","311","844010","0.0-272.0-0.0","91933452","wem/bandit_either","A2VXIWQ7WRR962","either","5","","","","","","","1","0","0","0.2485723575","","0.6","0.8","0.4","0.2","","","","","0.2485723575","0.3103031796","0.1874863907","0.2171974885","","","","","","","72","H","0","img/none_selected.jpg","","233","main_expt"
"150","","bandit","312","845680","0.0-273.0-0.0","91933452","wem/bandit_either","A2VXIWQ7WRR962","either","5","","","","","","","0","0","1","","0.2971988612","0.6","0.8","0.4","0.2","0.2172766866","0.2971988612","0.2165838284","0.2951485073","","","","","","","","","","","74","J","1","","","234","main_expt"
"162","","bandit","313","847353","0.0-274.0-0.0","91933452","wem/bandit_either","A2VXIWQ7WRR962","either","5","","","","","","","1","0","0","0.3266576642","","0.6","0.8","0.4","0.2","","","","","0.221542824","0.3266576642","0.1791302586","0.3135740045","","","","","","","74","J","1","","","235","main_expt"
"9259","","bandit","314","858127","0.0-275.0-0.0","91933452","wem/bandit_either","A2VXIWQ7WRR962","either","5","","","","","","","1","0","0","0.2200573756","","0.6","0.8","0.4","0.2","","","","","0.2200573756","0.3596878827","0.2463713802","0.2945285262","","","","","","","72","H","0","img/none_selected.jpg","","236","main_expt"
"2","","bandit","315","859639","0.0-276.0-0.0","91933452","wem/bandit_either","A2VXIWQ7WRR962","either","5","","","","","","","0","0","1","0.3951370387","","0.6","0.8","0.4","0.2","","","","","0.2146478317","0.3951370387","0.2204623923","0.2797454337","","","","","","","74","J","1","","","237","main_expt"
"200","","bandit","316","861351","0.0-277.0-0.0","91933452","wem/bandit_either","A2VXIWQ7WRR962","either","5","","","","","","","1","0","0","0.2237656472","","0.6","0.8","0.4","0.2","","","","","0.2237656472","0.3863552979","0.2316256556","0.266453507","","","","","","","72","H","0","img/none_selected.jpg","","238","main_expt"
"432","","bandit","317","863301","0.0-278.0-0.0","91933452","wem/bandit_either","A2VXIWQ7WRR962","either","5","","","","","","","0","0","1","0.3962704677","","0.6","0.8","0.4","0.2","","","","","0.2302611888","0.3962704677","0.2406304147","0.310831157","","","","","","","74","J","1","","","239","main_expt"
"10","","bandit","318","864815","0.0-279.0-0.0","91933452","wem/bandit_either","A2VXIWQ7WRR962","either","5","","","","","","","0","0","1","","0.2253069634","0.6","0.8","0.4","0.2","0.2253069634","0.3926977495","0.2624476398","0.331950591","","","","","","","","","","","72","H","0","img/none_selected.jpg","","240","main_expt"
"7","","bandit","319","866328","0.0-280.0-0.0","91933452","wem/bandit_either","A2VXIWQ7WRR962","either","5","","","","","","","0","0","1","0.3381110468","","0.6","0.8","0.4","0.2","","","","","0.2523404353","0.3381110468","0.2627099727","0.3223776605","","","","","","","74","J","1","","","241","main_expt"
"127","","bandit","320","867974","0.0-281.0-0.0","91933452","wem/bandit_either","A2VXIWQ7WRR962","either","5","","","","","","","0","0","1","","0.238450381","0.6","0.8","0.4","0.2","0.238450381","0.3213381148","0.2262339403","0.3389272588","","","","","","","","","","","72","H","0","img/none_selected.jpg","","242","main_expt"
"0","","bandit","321","869494","0.0-282.0-0.0","91933452","wem/bandit_either","A2VXIWQ7WRR962","either","5","","","","","","","0","0","1","0.2476478509","","0.6","0.8","0.4","0.2","","","","","0.2476478509","0.3395415742","0.2511573395","0.4023830898","","","","","","","72","H","0","img/none_selected.jpg","","243","main_expt"
"194","","bandit","322","871198","0.0-283.0-0.0","91933452","wem/bandit_either","A2VXIWQ7WRR962","either","5","","","","","","","0","0","1","0.2603762171","","0.6","0.8","0.4","0.2","","","","","0.2603762171","0.3077285799","0.3112309098","0.4072225753","","","","","","","72","H","0","img/none_selected.jpg","","244","main_expt"
"216","","bandit","323","872926","0.0-284.0-0.0","91933452","wem/bandit_either","A2VXIWQ7WRR962","either","5","","","","","","","0","0","1","0.269997398","","0.6","0.8","0.4","0.2","","","","","0.2778117757","0.269997398","0.3169667097","0.4047901721","","","","","","","74","J","1","","","245","main_expt"
"96","","bandit","324","874534","0.0-285.0-0.0","91933452","wem/bandit_either","A2VXIWQ7WRR962","either","5","","","","","","","0","0","1","","0.3774934029","0.6","0.8","0.4","0.2","0.2571702875","0.2896792764","0.3774934029","0.4245844383","","","","","","","","","","","75","K","2","","","246","main_expt"
"282","","bandit","325","876334","0.0-286.0-0.0","91933452","wem/bandit_either","A2VXIWQ7WRR962","either","5","","","","","","","0","0","1","","0.4425022826","0.6","0.8","0.4","0.2","0.2790325972","0.3079745892","0.3592590195","0.4425022826","","","","","","","","","","","76","L","3","","","247","main_expt"
"57","","bandit","326","877901","0.0-287.0-0.0","91933452","wem/bandit_either","A2VXIWQ7WRR962","either","5","","","","","","","0","0","1","","0.3659800935","0.6","0.8","0.4","0.2","0.2665328125","0.2306801962","0.3659800935","0.4454461089","","","","","","","","","","","75","K","2","","","248","main_expt"
"10","","bandit","327","879423","0.0-288.0-0.0","91933452","wem/bandit_either","A2VXIWQ7WRR962","either","5","","","","","","","0","0","1","","0.4565985803","0.6","0.8","0.4","0.2","0.2666328085","0.2363838343","0.3940863056","0.4565985803","","","","","","","","","","","76","L","3","","","249","main_expt"
"63","","bandit","328","881001","0.0-289.0-0.0","91933452","wem/bandit_either","A2VXIWQ7WRR962","either","5","","","","","","","0","0","1","","0.4666950096","0.6","0.8","0.4","0.2","0.2637425143","0.2865845142","0.3652193683","0.4666950096","","","","","","","","","","","76","L","3","","","250","main_expt"
