"rt","responses","trial_type","trial_index","time_elapsed","internal_node_id","subjID","study","MID","cond","drift","key_press","expt_phase","target","like","value","connected","gems","bombs","no_reward","GemPrChosen","BombPrChosen","GainOverPainPr_0","GainOverPainPr_1","GainOverPainPr_2","GainOverPainPr_3","LosePr_0","LosePr_1","LosePr_2","LosePr_3","WinPr_0","WinPr_1","WinPr_2","WinPr_3","Q0","Q1","Q2","gender","age","ethnicity","respCharCode","respKey","respChoiceNum","respChoice","practice","trial_counter","trial_label"
"7491","{""Q0"":""A3N0QZ9ZKUCTCQ""}","survey-text","0","7499","0.0-0.0","92771403","wem/bandit_either","A3N0QZ9ZKUCTCQ","either","2","","","","","","","","","","","","","","","","","","","","","","","","","","","","","","","","","","","",""
"11044","","text","1","19549","0.0-1.0","92771403","wem/bandit_either","A3N0QZ9ZKUCTCQ","either","2","32","","","","","","","","","","","","","","","","","","","","","","","","","","","","","","","","","","",""
"5138","","text","2","24689","0.0-2.0","92771403","wem/bandit_either","A3N0QZ9ZKUCTCQ","either","2","32","","","","","","","","","","","","","","","","","","","","","","","","","","","","","","","","","","",""
"23970","","text","3","48661","0.0-3.0","92771403","wem/bandit_either","A3N0QZ9ZKUCTCQ","either","2","32","","","","","","","","","","","","","","","","","","","","","","","","","","","","","","","","","","",""
"11761","","text","4","60424","0.0-4.0","92771403","wem/bandit_either","A3N0QZ9ZKUCTCQ","either","2","32","","","","","","","","","","","","","","","","","","","","","","","","","","","","","","","","","","",""
"36899","","text","5","97325","0.0-5.0","92771403","wem/bandit_either","A3N0QZ9ZKUCTCQ","either","2","32","","","","","","","","","","","","","","","","","","","","","","","","","","","","","","","","","","",""
"9303","","text","6","106629","0.0-6.0","92771403","wem/bandit_either","A3N0QZ9ZKUCTCQ","either","2","32","","","","","","","","","","","","","","","","","","","","","","","","","","","","","","","","","","",""
"5987","","text","7","112617","0.0-7.0","92771403","wem/bandit_either","A3N0QZ9ZKUCTCQ","either","2","32","","","","","","","","","","","","","","","","","","","","","","","","","","","","","","","","","","",""
"16777","","identification","8","129421","0.0-8.0-0.0","92771403","wem/bandit_either","A3N0QZ9ZKUCTCQ","either","2","","identification_pre","the village of Zur","","","","","","","","","","","","","","","","","","","","","","","","","","","","","","","","",""
"8359","","identification","9","138798","0.0-8.0-1.0","92771403","wem/bandit_either","A3N0QZ9ZKUCTCQ","either","2","","identification_pre","the village of Nyx","","","","","","","","","","","","","","","","","","","","","","","","","","","","","","","","",""
"5583","","text","10","145383","0.0-9.0","92771403","wem/bandit_either","A3N0QZ9ZKUCTCQ","either","2","32","","","","","","","","","","","","","","","","","","","","","","","","","","","","","","","","","","",""
"3008","","text","11","148394","0.0-10.0","92771403","wem/bandit_either","A3N0QZ9ZKUCTCQ","either","2","32","","","","","","","","","","","","","","","","","","","","","","","","","","","","","","","","","","",""
"2154","","text","12","150550","0.0-11.0","92771403","wem/bandit_either","A3N0QZ9ZKUCTCQ","either","2","32","","","","","","","","","","","","","","","","","","","","","","","","","","","","","","","","","","",""
"3289","","text","13","153842","0.0-12.0","92771403","wem/bandit_either","A3N0QZ9ZKUCTCQ","either","2","32","","","","","","","","","","","","","","","","","","","","","","","","","","","","","","","","","","",""
"2873","","bandit","14","158228","0.0-13.0-0.0","92771403","wem/bandit_either","A3N0QZ9ZKUCTCQ","either","2","","","","","","","0","0","1","0","0","","","","","0","","","","0","","","","","","","","","","74","J","0","img/none_selected_demo.jpg","true","0",""
"756","","bandit","15","160490","0.0-14.0-0.0","92771403","wem/bandit_either","A3N0QZ9ZKUCTCQ","either","2","","","","","","","0","0","1","0","0","","","","","0","","","","0","","","","","","","","","","75","K","0","img/none_selected_demo.jpg","true","0",""
"8222","","text","16","168714","0.0-15.0","92771403","wem/bandit_either","A3N0QZ9ZKUCTCQ","either","2","32","","","","","","","","","","","","","","","","","","","","","","","","","","","","","","","","","","",""
"16167","","text","17","184882","0.0-16.0","92771403","wem/bandit_either","A3N0QZ9ZKUCTCQ","either","2","32","","","","","","","","","","","","","","","","","","","","","","","","","","","","","","","","","","",""
"4865","","text","18","189750","0.0-17.0","92771403","wem/bandit_either","A3N0QZ9ZKUCTCQ","either","2","32","","","","","","","","","","","","","","","","","","","","","","","","","","","","","","","","","","",""
"2583","","text","19","192335","0.0-18.0","92771403","wem/bandit_either","A3N0QZ9ZKUCTCQ","either","2","32","","","","","","","","","","","","","","","","","","","","","","","","","","","","","","","","","","",""
"1108","","bandit","20","194950","0.0-19.0-0.0","92771403","wem/bandit_either","A3N0QZ9ZKUCTCQ","either","2","","","","","","","0","1","0","","0.8","0.5","0.5","","","0.8","0.2","","","","","","","","","","","","","74","J","0","img/none_selected_demo.jpg","true","0","80_20_practice"
"1004","","bandit","21","197462","0.0-19.0-1.0","92771403","wem/bandit_either","A3N0QZ9ZKUCTCQ","either","2","","","","","","","0","0","1","0.2","","0.5","0.5","","","","","","","0.8","0.2","","","","","","","","","75","K","1","","true","0","80_20_practice"
"116","","bandit","22","199087","0.0-19.0-2.0","92771403","wem/bandit_either","A3N0QZ9ZKUCTCQ","either","2","","","","","","","0","0","1","0.8","","0.5","0.5","","","","","","","0.8","0.2","","","","","","","","","74","J","0","img/none_selected_demo.jpg","true","0","80_20_practice"
"218","","bandit","23","200811","0.0-19.0-3.0","92771403","wem/bandit_either","A3N0QZ9ZKUCTCQ","either","2","","","","","","","1","0","0","0.8","","0.5","0.5","","","","","","","0.8","0.2","","","","","","","","","74","J","0","img/none_selected_demo.jpg","true","0","80_20_practice"
"241","","bandit","24","202559","0.0-19.0-4.0","92771403","wem/bandit_either","A3N0QZ9ZKUCTCQ","either","2","","","","","","","0","1","0","","0.8","0.5","0.5","","","0.8","0.2","","","","","","","","","","","","","74","J","0","img/none_selected_demo.jpg","true","0","80_20_practice"
"133","","bandit","25","204200","0.0-19.0-5.0","92771403","wem/bandit_either","A3N0QZ9ZKUCTCQ","either","2","","","","","","","1","0","0","0.8","","0.5","0.5","","","","","","","0.8","0.2","","","","","","","","","74","J","0","img/none_selected_demo.jpg","true","0","80_20_practice"
"93","","bandit","26","205799","0.0-19.0-6.0","92771403","wem/bandit_either","A3N0QZ9ZKUCTCQ","either","2","","","","","","","1","0","0","0.8","","0.5","0.5","","","","","","","0.8","0.2","","","","","","","","","74","J","0","img/none_selected_demo.jpg","true","0","80_20_practice"
"23","","bandit","27","207327","0.0-19.0-7.0","92771403","wem/bandit_either","A3N0QZ9ZKUCTCQ","either","2","","","","","","","0","0","1","0.8","","0.5","0.5","","","","","","","0.8","0.2","","","","","","","","","74","J","0","img/none_selected_demo.jpg","true","0","80_20_practice"
"214","","bandit","28","209047","0.0-19.0-8.0","92771403","wem/bandit_either","A3N0QZ9ZKUCTCQ","either","2","","","","","","","0","1","0","","0.8","0.5","0.5","","","0.8","0.2","","","","","","","","","","","","","74","J","0","img/none_selected_demo.jpg","true","0","80_20_practice"
"16","","bandit","29","210570","0.0-19.0-9.0","92771403","wem/bandit_either","A3N0QZ9ZKUCTCQ","either","2","","","","","","","1","0","0","0.8","","0.5","0.5","","","","","","","0.8","0.2","","","","","","","","","74","J","0","img/none_selected_demo.jpg","true","0","80_20_practice"
"39","","bandit","30","212117","0.0-19.0-10.0","92771403","wem/bandit_either","A3N0QZ9ZKUCTCQ","either","2","","","","","","","1","0","0","0.8","","0.5","0.5","","","","","","","0.8","0.2","","","","","","","","","74","J","0","img/none_selected_demo.jpg","true","0","80_20_practice"
"208","","bandit","31","213834","0.0-19.0-11.0","92771403","wem/bandit_either","A3N0QZ9ZKUCTCQ","either","2","","","","","","","0","0","1","0.8","","0.5","0.5","","","","","","","0.8","0.2","","","","","","","","","74","J","0","img/none_selected_demo.jpg","true","0","80_20_practice"
"102","","bandit","32","215445","0.0-19.0-12.0","92771403","wem/bandit_either","A3N0QZ9ZKUCTCQ","either","2","","","","","","","0","1","0","","0.8","0.5","0.5","","","0.8","0.2","","","","","","","","","","","","","74","J","0","img/none_selected_demo.jpg","true","0","80_20_practice"
"32","","bandit","33","216986","0.0-19.0-13.0","92771403","wem/bandit_either","A3N0QZ9ZKUCTCQ","either","2","","","","","","","0","0","1","","0.8","0.5","0.5","","","0.8","0.2","","","","","","","","","","","","","74","J","0","img/none_selected_demo.jpg","true","0","80_20_practice"
"28","","bandit","34","218526","0.0-19.0-14.0","92771403","wem/bandit_either","A3N0QZ9ZKUCTCQ","either","2","","","","","","","0","1","0","","0.8","0.5","0.5","","","0.8","0.2","","","","","","","","","","","","","74","J","0","img/none_selected_demo.jpg","true","0","80_20_practice"
"203","","bandit","35","220238","0.0-19.0-15.0","92771403","wem/bandit_either","A3N0QZ9ZKUCTCQ","either","2","","","","","","","1","0","0","0.8","","0.5","0.5","","","","","","","0.8","0.2","","","","","","","","","74","J","0","img/none_selected_demo.jpg","true","0","80_20_practice"
"219","","bandit","36","221964","0.0-19.0-16.0","92771403","wem/bandit_either","A3N0QZ9ZKUCTCQ","either","2","","","","","","","0","1","0","","0.8","0.5","0.5","","","0.8","0.2","","","","","","","","","","","","","74","J","0","img/none_selected_demo.jpg","true","0","80_20_practice"
"85","","bandit","37","223560","0.0-19.0-17.0","92771403","wem/bandit_either","A3N0QZ9ZKUCTCQ","either","2","","","","","","","1","0","0","0.8","","0.5","0.5","","","","","","","0.8","0.2","","","","","","","","","74","J","0","img/none_selected_demo.jpg","true","0","80_20_practice"
"18","","bandit","38","225087","0.0-19.0-18.0","92771403","wem/bandit_either","A3N0QZ9ZKUCTCQ","either","2","","","","","","","1","0","0","0.8","","0.5","0.5","","","","","","","0.8","0.2","","","","","","","","","74","J","0","img/none_selected_demo.jpg","true","0","80_20_practice"
"53","","bandit","39","226648","0.0-19.0-19.0","92771403","wem/bandit_either","A3N0QZ9ZKUCTCQ","either","2","","","","","","","1","0","0","0.8","","0.5","0.5","","","","","","","0.8","0.2","","","","","","","","","74","J","0","img/none_selected_demo.jpg","true","0","80_20_practice"
"5534","","text","40","232185","0.0-20.0","92771403","wem/bandit_either","A3N0QZ9ZKUCTCQ","either","2","32","","","","","","","","","","","","","","","","","","","","","","","","","","","","","","","","","","",""
"1975","","bandit","41","235667","0.0-21.0-0.0","92771403","wem/bandit_either","A3N0QZ9ZKUCTCQ","either","2","","","","","","","1","0","0","1","0","","","","","0","1","","","1","0","","","","","","","","","74","J","0","img/none_selected_demo.jpg","true","0",""
"3659","","text","42","239328","0.0-22.0","92771403","wem/bandit_either","A3N0QZ9ZKUCTCQ","either","2","32","","","","","","","","","","","","","","","","","","","","","","","","","","","","","","","","","","",""
"2081","","text","43","241412","0.0-23.0","92771403","wem/bandit_either","A3N0QZ9ZKUCTCQ","either","2","32","","","","","","","","","","","","","","","","","","","","","","","","","","","","","","","","","","",""
"2387","","text","44","243802","0.0-24.0","92771403","wem/bandit_either","A3N0QZ9ZKUCTCQ","either","2","32","","","","","","","","","","","","","","","","","","","","","","","","","","","","","","","","","","",""
"2955","","text","45","246760","0.0-25.0","92771403","wem/bandit_either","A3N0QZ9ZKUCTCQ","either","2","32","","","","","","","","","","","","","","","","","","","","","","","","","","","","","","","","","","",""
"7976","","text","46","254738","0.0-26.0","92771403","wem/bandit_either","A3N0QZ9ZKUCTCQ","either","2","32","","","","","","","","","","","","","","","","","","","","","","","","","","","","","","","","","","",""
"2116","","text","47","256857","0.0-27.0","92771403","wem/bandit_either","A3N0QZ9ZKUCTCQ","either","2","32","","","","","","","","","","","","","","","","","","","","","","","","","","","","","","","","","","",""
"2820","","text","48","259680","0.0-28.0","92771403","wem/bandit_either","A3N0QZ9ZKUCTCQ","either","2","32","","","","","","","","","","","","","","","","","","","","","","","","","","","","","","","","","","",""
"4233","","text","49","263915","0.0-29.0","92771403","wem/bandit_either","A3N0QZ9ZKUCTCQ","either","2","32","","","","","","","","","","","","","","","","","","","","","","","","","","","","","","","","","","",""
"3460","","text","50","267379","0.0-30.0","92771403","wem/bandit_either","A3N0QZ9ZKUCTCQ","either","2","32","","","","","","","","","","","","","","","","","","","","","","","","","","","","","","","","","","",""
"1352","","text","51","268733","0.0-31.0","92771403","wem/bandit_either","A3N0QZ9ZKUCTCQ","either","2","32","","","","","","","","","","","","","","","","","","","","","","","","","","","","","","","","","","",""
"4643","","text","52","273377","0.0-32.0","92771403","wem/bandit_either","A3N0QZ9ZKUCTCQ","either","2","32","","","","","","","","","","","","","","","","","","","","","","","","","","","","","","","","","","",""
"1121","","bandit","53","276005","0.0-33.0-0.0","92771403","wem/bandit_either","A3N0QZ9ZKUCTCQ","either","2","","","","","","","0","0","1","0.2","","0.5","0.5","0.5","0.5","","","","","0.8","0.2","0.6","0.2","","","","","","","74","J","1","","true","0","full_practice"
"152","","bandit","54","277666","0.0-33.0-1.0","92771403","wem/bandit_either","A3N0QZ9ZKUCTCQ","either","2","","","","","","","0","1","0","","0.6","0.5","0.5","0.5","0.5","0.8","0.2","0.6","0.2","","","","","","","","","","","75","K","2","","true","0","full_practice"
"163","","bandit","55","279339","0.0-33.0-2.0","92771403","wem/bandit_either","A3N0QZ9ZKUCTCQ","either","2","","","","","","","0","0","1","0.2","","0.5","0.5","0.5","0.5","","","","","0.8","0.2","0.6","0.2","","","","","","","76","L","3","","true","0","full_practice"
"151","","bandit","56","281000","0.0-33.0-3.0","92771403","wem/bandit_either","A3N0QZ9ZKUCTCQ","either","2","","","","","","","0","1","0","","0.6","0.5","0.5","0.5","0.5","0.8","0.2","0.6","0.2","","","","","","","","","","","75","K","2","","true","0","full_practice"
"126","","bandit","57","282635","0.0-33.0-4.0","92771403","wem/bandit_either","A3N0QZ9ZKUCTCQ","either","2","","","","","","","0","1","0","","0.6","0.5","0.5","0.5","0.5","0.8","0.2","0.6","0.2","","","","","","","","","","","75","K","2","","true","0","full_practice"
"736","","bandit","58","284880","0.0-33.0-5.0","92771403","wem/bandit_either","A3N0QZ9ZKUCTCQ","either","2","","","","","","","0","1","0","","0.8","0.5","0.5","0.5","0.5","0.8","0.2","0.6","0.2","","","","","","","","","","","72","H","0","img/none_selected.jpg","true","0","full_practice"
"172","","bandit","59","286561","0.0-33.0-6.0","92771403","wem/bandit_either","A3N0QZ9ZKUCTCQ","either","2","","","","","","","0","1","0","","0.8","0.5","0.5","0.5","0.5","0.8","0.2","0.6","0.2","","","","","","","","","","","72","H","0","img/none_selected.jpg","true","0","full_practice"
"132","","bandit","60","288202","0.0-33.0-7.0","92771403","wem/bandit_either","A3N0QZ9ZKUCTCQ","either","2","","","","","","","0","1","0","","0.8","0.5","0.5","0.5","0.5","0.8","0.2","0.6","0.2","","","","","","","","","","","72","H","0","img/none_selected.jpg","true","0","full_practice"
"18","","bandit","61","289731","0.0-33.0-8.0","92771403","wem/bandit_either","A3N0QZ9ZKUCTCQ","either","2","","","","","","","0","0","1","0.8","","0.5","0.5","0.5","0.5","","","","","0.8","0.2","0.6","0.2","","","","","","","72","H","0","img/none_selected.jpg","true","0","full_practice"
"110","","bandit","62","291351","0.0-33.0-9.0","92771403","wem/bandit_either","A3N0QZ9ZKUCTCQ","either","2","","","","","","","1","0","0","0.6","","0.5","0.5","0.5","0.5","","","","","0.8","0.2","0.6","0.2","","","","","","","75","K","2","","true","0","full_practice"
"81","","bandit","63","292941","0.0-33.0-10.0","92771403","wem/bandit_either","A3N0QZ9ZKUCTCQ","either","2","","","","","","","1","0","0","0.6","","0.5","0.5","0.5","0.5","","","","","0.8","0.2","0.6","0.2","","","","","","","75","K","2","","true","0","full_practice"
"31","","bandit","64","294485","0.0-33.0-11.0","92771403","wem/bandit_either","A3N0QZ9ZKUCTCQ","either","2","","","","","","","0","1","0","","0.6","0.5","0.5","0.5","0.5","0.8","0.2","0.6","0.2","","","","","","","","","","","75","K","2","","true","0","full_practice"
"214","","bandit","65","296210","0.0-33.0-12.0","92771403","wem/bandit_either","A3N0QZ9ZKUCTCQ","either","2","","","","","","","1","0","0","0.6","","0.5","0.5","0.5","0.5","","","","","0.8","0.2","0.6","0.2","","","","","","","75","K","2","","true","0","full_practice"
"18","","bandit","66","297737","0.0-33.0-13.0","92771403","wem/bandit_either","A3N0QZ9ZKUCTCQ","either","2","","","","","","","1","0","0","0.6","","0.5","0.5","0.5","0.5","","","","","0.8","0.2","0.6","0.2","","","","","","","75","K","2","","true","0","full_practice"
"186","","bandit","67","299433","0.0-33.0-14.0","92771403","wem/bandit_either","A3N0QZ9ZKUCTCQ","either","2","","","","","","","0","1","0","","0.6","0.5","0.5","0.5","0.5","0.8","0.2","0.6","0.2","","","","","","","","","","","75","K","2","","true","0","full_practice"
"95","","bandit","68","301038","0.0-33.0-15.0","92771403","wem/bandit_either","A3N0QZ9ZKUCTCQ","either","2","","","","","","","0","0","1","","0.6","0.5","0.5","0.5","0.5","0.8","0.2","0.6","0.2","","","","","","","","","","","75","K","2","","true","0","full_practice"
"525","","bandit","69","303072","0.0-33.0-16.0","92771403","wem/bandit_either","A3N0QZ9ZKUCTCQ","either","2","","","","","","","1","0","0","0.6","","0.5","0.5","0.5","0.5","","","","","0.8","0.2","0.6","0.2","","","","","","","75","K","2","","true","0","full_practice"
"10","","bandit","70","304593","0.0-33.0-17.0","92771403","wem/bandit_either","A3N0QZ9ZKUCTCQ","either","2","","","","","","","1","0","0","0.6","","0.5","0.5","0.5","0.5","","","","","0.8","0.2","0.6","0.2","","","","","","","75","K","2","","true","0","full_practice"
"108","","bandit","71","306210","0.0-33.0-18.0","92771403","wem/bandit_either","A3N0QZ9ZKUCTCQ","either","2","","","","","","","1","0","0","0.6","","0.5","0.5","0.5","0.5","","","","","0.8","0.2","0.6","0.2","","","","","","","75","K","2","","true","0","full_practice"
"12","","bandit","72","307732","0.0-33.0-19.0","92771403","wem/bandit_either","A3N0QZ9ZKUCTCQ","either","2","","","","","","","0","1","0","","0.6","0.5","0.5","0.5","0.5","0.8","0.2","0.6","0.2","","","","","","","","","","","75","K","2","","true","0","full_practice"
"2646","","text","73","310389","0.0-34.0","92771403","wem/bandit_either","A3N0QZ9ZKUCTCQ","either","2","32","","","","","","","","","","","","","","","","","","","","","","","","","","","","","","","","","","",""
"17912","","text","74","329306","0.0-35.0","92771403","wem/bandit_either","A3N0QZ9ZKUCTCQ","either","2","32","","","","","","","","","","","","","","","","","","","","","","","","","","","","","","","","","","",""
"11048","","text","75","340358","0.0-36.0","92771403","wem/bandit_either","A3N0QZ9ZKUCTCQ","either","2","32","","","","","","","","","","","","","","","","","","","","","","","","","","","","","","","","","","",""
"2608","","text","76","342970","0.0-37.0","92771403","wem/bandit_either","A3N0QZ9ZKUCTCQ","either","2","32","","","","","","","","","","","","","","","","","","","","","","","","","","","","","","","","","","",""
"3995","","text","77","346971","0.0-38.0","92771403","wem/bandit_either","A3N0QZ9ZKUCTCQ","either","2","32","","","","","","","","","","","","","","","","","","","","","","","","","","","","","","","","","","",""
"3289","","text","78","350264","0.0-39.0","92771403","wem/bandit_either","A3N0QZ9ZKUCTCQ","either","2","32","","","","","","","","","","","","","","","","","","","","","","","","","","","","","","","","","","",""
"1174","","bandit","79","352948","0.0-40.0-0.0","92771403","wem/bandit_either","A3N0QZ9ZKUCTCQ","either","2","","","","","","","0","0","1","0.3653736811","","0.6","0.4","0.8","0.2","","","","","0.362799796","0.326135308","0.3653736811","0.4781977867","","","","","","","75","K","2","","","1","main_expt"
"88","","bandit","80","354547","0.0-41.0-0.0","92771403","wem/bandit_either","A3N0QZ9ZKUCTCQ","either","2","","","","","","","0","1","0","","0.4765481994","0.6","0.4","0.8","0.2","0.3891507205","0.3564958201","0.3999069229","0.4765481994","","","","","","","","","","","76","L","3","","","2","main_expt"
"221","","bandit","81","356278","0.0-42.0-0.0","92771403","wem/bandit_either","A3N0QZ9ZKUCTCQ","either","2","","","","","","","0","0","1","0.3309056029","","0.6","0.4","0.8","0.2","","","","","0.3151339382","0.3309056029","0.4363582421","0.4722158263","","","","","","","74","J","1","","","3","main_expt"
"76","","bandit","82","357864","0.0-43.0-0.0","92771403","wem/bandit_either","A3N0QZ9ZKUCTCQ","either","2","","","","","","","0","0","1","","0.250648122","0.6","0.4","0.8","0.2","0.250648122","0.308467875","0.4300921111","0.4609570051","","","","","","","","","","","72","H","0","img/none_selected.jpg","","4","main_expt"
"163","","bandit","83","359539","0.0-44.0-0.0","92771403","wem/bandit_either","A3N0QZ9ZKUCTCQ","either","2","","","","","","","0","0","1","","0.4707799186","0.6","0.4","0.8","0.2","0.2382585344","0.3349995635","0.3863220662","0.4707799186","","","","","","","","","","","76","L","3","","","5","main_expt"
"212","","bandit","84","361260","0.0-45.0-0.0","92771403","wem/bandit_either","A3N0QZ9ZKUCTCQ","either","2","","","","","","","0","1","0","","0.4676743975","0.6","0.4","0.8","0.2","0.2088101903","0.3743101545","0.4192648028","0.4676743975","","","","","","","","","","","76","L","3","","","6","main_expt"
"168","","bandit","85","362937","0.0-46.0-0.0","92771403","wem/bandit_either","A3N0QZ9ZKUCTCQ","either","2","","","","","","","0","0","1","","0.4767364015","0.6","0.4","0.8","0.2","0.1884279889","0.377506125","0.4218548145","0.4767364015","","","","","","","","","","","76","L","3","","","7","main_expt"
"410","","bandit","86","364856","0.0-47.0-0.0","92771403","wem/bandit_either","A3N0QZ9ZKUCTCQ","either","2","","","","","","","0","1","0","","0.4837409877","0.6","0.4","0.8","0.2","0.2297930851","0.3452849142","0.4298914749","0.4837409877","","","","","","","","","","","76","L","3","","","8","main_expt"
"919","","bandit","87","367285","0.0-48.0-0.0","92771403","wem/bandit_either","A3N0QZ9ZKUCTCQ","either","2","","","","","","","0","1","0","","0.4825212187","0.6","0.4","0.8","0.2","0.2219539873","0.2713567333","0.4215440671","0.4825212187","","","","","","","","","","","76","L","3","","","9","main_expt"
"54","","bandit","88","368848","0.0-49.0-0.0","92771403","wem/bandit_either","A3N0QZ9ZKUCTCQ","either","2","","","","","","","0","0","1","","0.4791264729","0.6","0.4","0.8","0.2","0.2398128751","0.2712708503","0.3991616263","0.4791264729","","","","","","","","","","","76","L","3","","","10","main_expt"
"43","","bandit","89","370400","0.0-50.0-0.0","92771403","wem/bandit_either","A3N0QZ9ZKUCTCQ","either","2","","","","","","","0","1","0","","0.4762013833","0.6","0.4","0.8","0.2","0.2551733424","0.2635531688","0.4002673883","0.4762013833","","","","","","","","","","","76","L","3","","","11","main_expt"
"280","","bandit","90","372189","0.0-51.0-0.0","92771403","wem/bandit_either","A3N0QZ9ZKUCTCQ","either","2","","","","","","","0","0","1","","0.4729837645","0.6","0.4","0.8","0.2","0.2593424883","0.2669056975","0.368629831","0.4729837645","","","","","","","","","","","76","L","3","","","12","main_expt"
"287","","bandit","91","373987","0.0-52.0-0.0","92771403","wem/bandit_either","A3N0QZ9ZKUCTCQ","either","2","","","","","","","0","0","1","","0.4749786695","0.6","0.4","0.8","0.2","0.2493591627","0.3204456557","0.4189726289","0.4749786695","","","","","","","","","","","76","L","3","","","13","main_expt"
"77","","bandit","92","375574","0.0-53.0-0.0","92771403","wem/bandit_either","A3N0QZ9ZKUCTCQ","either","2","","","","","","","0","0","1","","0.2686446846","0.6","0.4","0.8","0.2","0.2686446846","0.3466526728","0.4352425359","0.4810115094","","","","","","","","","","","72","H","0","img/none_selected.jpg","","14","main_expt"
"131","","bandit","93","377216","0.0-54.0-0.0","92771403","wem/bandit_either","A3N0QZ9ZKUCTCQ","either","2","","","","","","","0","1","0","","0.3736671224","0.6","0.4","0.8","0.2","0.2690169042","0.3736671224","0.3819090161","0.4705329286","","","","","","","","","","","74","J","1","","","15","main_expt"
"251","","bandit","94","378976","0.0-55.0-0.0","92771403","wem/bandit_either","A3N0QZ9ZKUCTCQ","either","2","","","","","","","0","0","1","0.3778143907","","0.6","0.4","0.8","0.2","","","","","0.2518303543","0.3778143907","0.3737760256","0.4687419894","","","","","","","74","J","1","","","16","main_expt"
"165","","bandit","95","380651","0.0-56.0-0.0","92771403","wem/bandit_either","A3N0QZ9ZKUCTCQ","either","2","","","","","","","0","0","1","","0.4151791473","0.6","0.4","0.8","0.2","0.2406549936","0.3845750066","0.4151791473","0.4594180265","","","","","","","","","","","75","K","2","","","17","main_expt"
"350","","bandit","96","382512","0.0-57.0-0.0","92771403","wem/bandit_either","A3N0QZ9ZKUCTCQ","either","2","","","","","","","1","0","0","0.4137363134","","0.6","0.4","0.8","0.2","","","","","0.2670149403","0.4041286345","0.4137363134","0.425397146","","","","","","","75","K","2","","","18","main_expt"
"156","","bandit","97","384179","0.0-58.0-0.0","92771403","wem/bandit_either","A3N0QZ9ZKUCTCQ","either","2","","","","","","","0","0","1","0.4084056464","","0.6","0.4","0.8","0.2","","","","","0.2658482338","0.4127350431","0.4084056464","0.4201246927","","","","","","","75","K","2","","","19","main_expt"
"63","","bandit","98","385749","0.0-59.0-0.0","92771403","wem/bandit_either","A3N0QZ9ZKUCTCQ","either","2","","","","","","","0","0","1","0.4129175496","","0.6","0.4","0.8","0.2","","","","","0.2452433766","0.4107359536","0.4129175496","0.3954271328","","","","","","","75","K","2","","","20","main_expt"
"536","","bandit","99","387795","0.0-60.0-0.0","92771403","wem/bandit_either","A3N0QZ9ZKUCTCQ","either","2","","","","","","","0","0","1","0.2298761452","","0.6","0.4","0.8","0.2","","","","","0.2298761452","0.3954861765","0.3888488162","0.4196431029","","","","","","","72","H","0","img/none_selected.jpg","","21","main_expt"
"2","","bandit","100","389307","0.0-61.0-0.0","92771403","wem/bandit_either","A3N0QZ9ZKUCTCQ","either","2","","","","","","","0","0","1","0.266827693","","0.6","0.4","0.8","0.2","","","","","0.266827693","0.3805979297","0.3873149631","0.3843335182","","","","","","","72","H","0","img/none_selected.jpg","","22","main_expt"
"622","","bandit","101","391439","0.0-62.0-0.0","92771403","wem/bandit_either","A3N0QZ9ZKUCTCQ","either","2","","","","","","","0","0","1","0.3839977458","","0.6","0.4","0.8","0.2","","","","","0.2519769849","0.425451992","0.3659772031","0.3839977458","","","","","","","76","L","3","","","23","main_expt"
"1603","","bandit","102","394554","0.0-63.0-0.0","92771403","wem/bandit_either","A3N0QZ9ZKUCTCQ","either","2","","","","","","","0","0","1","0.4699447661","","0.6","0.4","0.8","0.2","","","","","0.2447613107","0.4699447661","0.3594327093","0.3338939571","","","","","","","74","J","1","","","24","main_expt"
"19","","bandit","103","396083","0.0-64.0-0.0","92771403","wem/bandit_either","A3N0QZ9ZKUCTCQ","either","2","","","","","","","0","1","0","","0.4484050393","0.6","0.4","0.8","0.2","0.2350413847","0.4484050393","0.3719143394","0.324486952","","","","","","","","","","","74","J","1","","","25","main_expt"
"173","","bandit","104","397767","0.0-65.0-0.0","92771403","wem/bandit_either","A3N0QZ9ZKUCTCQ","either","2","","","","","","","0","1","0","","0.4190234423","0.6","0.4","0.8","0.2","0.207774486","0.4190234423","0.3690014044","0.3095710384","","","","","","","","","","","74","J","1","","","26","main_expt"
"514","","bandit","105","399792","0.0-66.0-0.0","92771403","wem/bandit_either","A3N0QZ9ZKUCTCQ","either","2","","","","","","","0","0","1","","0.4251478254","0.6","0.4","0.8","0.2","0.2164182795","0.4251478254","0.3940030818","0.3355629191","","","","","","","","","","","74","J","1","","","27","main_expt"
"220","","bandit","106","401524","0.0-67.0-0.0","92771403","wem/bandit_either","A3N0QZ9ZKUCTCQ","either","2","","","","","","","1","0","0","0.4111080327","","0.6","0.4","0.8","0.2","","","","","0.2164031865","0.4287328697","0.4111080327","0.3668681485","","","","","","","75","K","2","","","28","main_expt"
"43","","bandit","107","403078","0.0-68.0-0.0","92771403","wem/bandit_either","A3N0QZ9ZKUCTCQ","either","2","","","","","","","0","0","1","0.41290056","","0.6","0.4","0.8","0.2","","","","","0.2770000278","0.4106025245","0.41290056","0.343198694","","","","","","","75","K","2","","","29","main_expt"
"145","","bandit","108","404734","0.0-69.0-0.0","92771403","wem/bandit_either","A3N0QZ9ZKUCTCQ","either","2","","","","","","","1","0","0","0.3937480262","","0.6","0.4","0.8","0.2","","","","","0.2354797847","0.3942494676","0.3937480262","0.326069126","","","","","","","75","K","2","","","30","main_expt"
"332","","bandit","109","406578","0.0-70.0-0.0","92771403","wem/bandit_either","A3N0QZ9ZKUCTCQ","either","2","","","","","","","0","0","1","0.3997016236","","0.6","0.4","0.8","0.2","","","","","0.2692030882","0.4285056211","0.3997016236","0.3390127419","","","","","","","75","K","2","","","31","main_expt"
"502","","bandit","110","408592","0.0-71.0-0.0","92771403","wem/bandit_either","A3N0QZ9ZKUCTCQ","either","2","","","","","","","1","0","0","0.3574295763","","0.6","0.4","0.8","0.2","","","","","0.2471118655","0.4249454459","0.3574295763","0.3360649894","","","","","","","75","K","2","","","32","main_expt"
"299","","bandit","111","410401","0.0-72.0-0.0","92771403","wem/bandit_either","A3N0QZ9ZKUCTCQ","either","2","","","","","","","0","0","1","0.3877818659","","0.6","0.4","0.8","0.2","","","","","0.2879199001","0.416417765","0.3877818659","0.3052602024","","","","","","","75","K","2","","","33","main_expt"
"179","","bandit","112","412093","0.0-73.0-0.0","92771403","wem/bandit_either","A3N0QZ9ZKUCTCQ","either","2","","","","","","","1","0","0","0.3799496232","","0.6","0.4","0.8","0.2","","","","","0.3180115212","0.4623714429","0.3799496232","0.3594788954","","","","","","","75","K","2","","","34","main_expt"
"8","","bandit","113","413611","0.0-74.0-0.0","92771403","wem/bandit_either","A3N0QZ9ZKUCTCQ","either","2","","","","","","","1","0","0","0.3577573403","","0.6","0.4","0.8","0.2","","","","","0.2524306687","0.4591977302","0.3577573403","0.380235832","","","","","","","75","K","2","","","35","main_expt"
"498","","bandit","114","415619","0.0-75.0-0.0","92771403","wem/bandit_either","A3N0QZ9ZKUCTCQ","either","2","","","","","","","1","0","0","0.3895375856","","0.6","0.4","0.8","0.2","","","","","0.2351869563","0.4686235256","0.3895375856","0.3459989602","","","","","","","75","K","2","","","36","main_expt"
"375","","bandit","115","417504","0.0-76.0-0.0","92771403","wem/bandit_either","A3N0QZ9ZKUCTCQ","either","2","","","","","","","1","0","0","0.3783527007","","0.6","0.4","0.8","0.2","","","","","0.2629170466","0.4571547709","0.3783527007","0.3320905149","","","","","","","75","K","2","","","37","main_expt"
"182","","bandit","116","419197","0.0-77.0-0.0","92771403","wem/bandit_either","A3N0QZ9ZKUCTCQ","either","2","","","","","","","1","0","0","0.284076782","","0.6","0.4","0.8","0.2","","","","","0.3090194305","0.4688430709","0.284076782","0.3471020919","","","","","","","75","K","2","","","38","main_expt"
"732","","bandit","117","421440","0.0-78.0-0.0","92771403","wem/bandit_either","A3N0QZ9ZKUCTCQ","either","2","","","","","","","0","0","1","0.3388972186","","0.6","0.4","0.8","0.2","","","","","0.2845371228","0.4612923778","0.3388972186","0.3401763967","","","","","","","75","K","2","","","39","main_expt"
"3","","bandit","118","422953","0.0-79.0-0.0","92771403","wem/bandit_either","A3N0QZ9ZKUCTCQ","either","2","","","","","","","0","0","1","0.2663655232","","0.6","0.4","0.8","0.2","","","","","0.3076259244","0.4576194683","0.2663655232","0.3260487483","","","","","","","75","K","2","","","40","main_expt"
"2","","bandit","119","424472","0.0-80.0-0.0","92771403","wem/bandit_either","A3N0QZ9ZKUCTCQ","either","2","","","","","","","0","0","1","","0.3390218734","0.6","0.4","0.8","0.2","0.2888769276","0.4473921051","0.2608266697","0.3390218734","","","","","","","","","","","76","L","3","","","41","main_expt"
"471","","bandit","120","426454","0.0-81.0-0.0","92771403","wem/bandit_either","A3N0QZ9ZKUCTCQ","either","2","","","","","","","1","0","0","0.2639198141","","0.6","0.4","0.8","0.2","","","","","0.2639198141","0.425470286","0.2287676803","0.2889680017","","","","","","","72","H","0","img/none_selected.jpg","","42","main_expt"
"591","","bandit","121","428556","0.0-82.0-0.0","92771403","wem/bandit_either","A3N0QZ9ZKUCTCQ","either","2","","","","","","","0","1","0","","0.2255441472","0.6","0.4","0.8","0.2","0.2255441472","0.4030522017","0.2043112358","0.2784828801","","","","","","","","","","","72","H","0","img/none_selected.jpg","","43","main_expt"
"43","","bandit","122","430111","0.0-83.0-0.0","92771403","wem/bandit_either","A3N0QZ9ZKUCTCQ","either","2","","","","","","","0","0","1","0.2050272072","","0.6","0.4","0.8","0.2","","","","","0.2050272072","0.4106315797","0.1957049551","0.2805729819","","","","","","","72","H","0","img/none_selected.jpg","","44","main_expt"
"638","","bandit","123","432261","0.0-84.0-0.0","92771403","wem/bandit_either","A3N0QZ9ZKUCTCQ","either","2","","","","","","","0","0","1","0.239455925","","0.6","0.4","0.8","0.2","","","","","0.239455925","0.4258527362","0.2207366272","0.2195119073","","","","","","","72","H","0","img/none_selected.jpg","","45","main_expt"
"687","","bandit","124","434461","0.0-85.0-0.0","92771403","wem/bandit_either","A3N0QZ9ZKUCTCQ","either","2","","","","","","","0","0","1","0.4425966235","","0.6","0.4","0.8","0.2","","","","","0.2414778298","0.4425966235","0.1727988076","0.2657932304","","","","","","","74","J","1","","","46","main_expt"
"314","","bandit","125","436286","0.0-86.0-0.0","92771403","wem/bandit_either","A3N0QZ9ZKUCTCQ","either","2","","","","","","","0","0","1","0.1446735631","","0.6","0.4","0.8","0.2","","","","","0.1884211613","0.4428977597","0.1446735631","0.2678398397","","","","","","","75","K","2","","","47","main_expt"
"374","","bandit","126","438173","0.0-87.0-0.0","92771403","wem/bandit_either","A3N0QZ9ZKUCTCQ","either","2","","","","","","","0","1","0","","0.2866904938","0.6","0.4","0.8","0.2","0.1755274282","0.4479964269","0.1681765936","0.2866904938","","","","","","","","","","","76","L","3","","","48","main_expt"
"63","","bandit","127","439748","0.0-88.0-0.0","92771403","wem/bandit_either","A3N0QZ9ZKUCTCQ","either","2","","","","","","","0","0","1","","0.2803848884","0.6","0.4","0.8","0.2","0.1646396384","0.4660387519","0.1473883531","0.2803848884","","","","","","","","","","","76","L","3","","","49","main_expt"
"31","","bandit","128","441289","0.0-89.0-0.0","92771403","wem/bandit_either","A3N0QZ9ZKUCTCQ","either","2","","","","","","","0","0","1","0.2587411269","","0.6","0.4","0.8","0.2","","","","","0.2024226619","0.4345757832","0.1378170987","0.2587411269","","","","","","","76","L","3","","","50","main_expt"
"17","","bandit","129","442819","0.0-90.0-0.0","92771403","wem/bandit_either","A3N0QZ9ZKUCTCQ","either","2","","","","","","","0","0","1","","0.1976760068","0.6","0.4","0.8","0.2","0.1976760068","0.4450950844","0.1430360168","0.2212901065","","","","","","","","","","","72","H","0","img/none_selected.jpg","","51","main_expt"
"329","","bandit","130","444661","0.0-91.0-0.0","92771403","wem/bandit_either","A3N0QZ9ZKUCTCQ","either","2","","","","","","","0","0","1","0.1731798725","","0.6","0.4","0.8","0.2","","","","","0.1796352224","0.4475354499","0.1731798725","0.236006857","","","","","","","75","K","2","","","52","main_expt"
"256","","bandit","131","446429","0.0-92.0-0.0","92771403","wem/bandit_either","A3N0QZ9ZKUCTCQ","either","2","","","","","","","1","0","0","0.4627294295","","0.6","0.4","0.8","0.2","","","","","0.2451732725","0.4627294295","0.1312409056","0.2660825342","","","","","","","74","J","1","","","53","main_expt"
"437","","bandit","132","448379","0.0-93.0-0.0","92771403","wem/bandit_either","A3N0QZ9ZKUCTCQ","either","2","","","","","","","1","0","0","0.44829207","","0.6","0.4","0.8","0.2","","","","","0.2621482643","0.44829207","0.1862053218","0.2458345041","","","","","","","74","J","1","","","54","main_expt"
"610","","bandit","133","450504","0.0-94.0-0.0","92771403","wem/bandit_either","A3N0QZ9ZKUCTCQ","either","2","","","","","","","0","0","1","","0.4505537928","0.6","0.4","0.8","0.2","0.2441780383","0.4505537928","0.1733563037","0.2265690781","","","","","","","","","","","74","J","1","","","55","main_expt"
"279","","bandit","134","452295","0.0-95.0-0.0","92771403","wem/bandit_either","A3N0QZ9ZKUCTCQ","either","2","","","","","","","0","0","1","0.4686400132","","0.6","0.4","0.8","0.2","","","","","0.199729785","0.4686400132","0.1728369204","0.2741820357","","","","","","","74","J","1","","","56","main_expt"
"413","","bandit","135","454220","0.0-96.0-0.0","92771403","wem/bandit_either","A3N0QZ9ZKUCTCQ","either","2","","","","","","","1","0","0","0.4572679106","","0.6","0.4","0.8","0.2","","","","","0.1945085845","0.4572679106","0.09176359954","0.2937641054","","","","","","","74","J","1","","","57","main_expt"
"314","","bandit","136","456046","0.0-97.0-0.0","92771403","wem/bandit_either","A3N0QZ9ZKUCTCQ","either","2","","","","","","","0","0","1","0.4300169527","","0.6","0.4","0.8","0.2","","","","","0.2614759052","0.4300169527","0.04991422033","0.2949827607","","","","","","","74","J","1","","","58","main_expt"
"164","","bandit","137","457721","0.0-98.0-0.0","92771403","wem/bandit_either","A3N0QZ9ZKUCTCQ","either","2","","","","","","","0","0","1","0.4050829606","","0.6","0.4","0.8","0.2","","","","","0.2426118991","0.4050829606","0.053239915","0.2710075273","","","","","","","74","J","1","","","59","main_expt"
"3","","bandit","138","459235","0.0-99.0-0.0","92771403","wem/bandit_either","A3N0QZ9ZKUCTCQ","either","2","","","","","","","0","0","1","0.06994226662","","0.6","0.4","0.8","0.2","","","","","0.2623750897","0.4070720156","0.06994226662","0.2766623035","","","","","","","75","K","2","","","60","main_expt"
"216","","bandit","139","460966","0.0-100.0-0.0","92771403","wem/bandit_either","A3N0QZ9ZKUCTCQ","either","2","","","","","","","0","0","1","","0.07064832373","0.6","0.4","0.8","0.2","0.2139103784","0.3895400789","0.07064832373","0.2574592035","","","","","","","","","","","75","K","2","","","61","main_expt"
"201","","bandit","140","462681","0.0-101.0-0.0","92771403","wem/bandit_either","A3N0QZ9ZKUCTCQ","either","2","","","","","","","0","0","1","0.2566580444","","0.6","0.4","0.8","0.2","","","","","0.2566580444","0.4050708951","0.08925217872","0.2425209234","","","","","","","72","H","0","img/none_selected.jpg","","62","main_expt"
"242","","bandit","141","464433","0.0-102.0-0.0","92771403","wem/bandit_either","A3N0QZ9ZKUCTCQ","either","2","","","","","","","0","0","1","0.2294211584","","0.6","0.4","0.8","0.2","","","","","0.2393402704","0.3765761212","0.08505035955","0.2294211584","","","","","","","76","L","3","","","63","main_expt"
"324","","bandit","142","466266","0.0-103.0-0.0","92771403","wem/bandit_either","A3N0QZ9ZKUCTCQ","either","2","","","","","","","0","0","1","","0.2350173232","0.6","0.4","0.8","0.2","0.300105392","0.3859881554","0.09892528285","0.2350173232","","","","","","","","","","","76","L","3","","","64","main_expt"
"369","","bandit","143","468148","0.0-104.0-0.0","92771403","wem/bandit_either","A3N0QZ9ZKUCTCQ","either","2","","","","","","","0","0","1","0.2584268813","","0.6","0.4","0.8","0.2","","","","","0.2584268813","0.3817039273","0.1428545766","0.2775473173","","","","","","","72","H","0","img/none_selected.jpg","","65","main_expt"
"133","","bandit","144","469795","0.0-105.0-0.0","92771403","wem/bandit_either","A3N0QZ9ZKUCTCQ","either","2","","","","","","","0","1","0","","0.3622232449","0.6","0.4","0.8","0.2","0.2536378703","0.3622232449","0.120440259","0.298861572","","","","","","","","","","","74","J","1","","","66","main_expt"
"318","","bandit","145","471624","0.0-106.0-0.0","92771403","wem/bandit_either","A3N0QZ9ZKUCTCQ","either","2","","","","","","","1","0","0","0.3768721334","","0.6","0.4","0.8","0.2","","","","","0.2548884231","0.3768721334","0.2019700983","0.3043747659","","","","","","","74","J","1","","","67","main_expt"
"144","","bandit","146","473280","0.0-107.0-0.0","92771403","wem/bandit_either","A3N0QZ9ZKUCTCQ","either","2","","","","","","","0","1","0","","0.3826604183","0.6","0.4","0.8","0.2","0.2105458193","0.3826604183","0.1467862533","0.2533072519","","","","","","","","","","","74","J","1","","","68","main_expt"
"137","","bandit","147","474930","0.0-108.0-0.0","92771403","wem/bandit_either","A3N0QZ9ZKUCTCQ","either","2","","","","","","","0","0","1","","0.3981811202","0.6","0.4","0.8","0.2","0.2901666962","0.3981811202","0.09022805221","0.2451677402","","","","","","","","","","","74","J","1","","","69","main_expt"
"195","","bandit","148","476638","0.0-109.0-0.0","92771403","wem/bandit_either","A3N0QZ9ZKUCTCQ","either","2","","","","","","","0","0","1","0.3936557204","","0.6","0.4","0.8","0.2","","","","","0.2973761433","0.3936557204","0.1128827508","0.2403061491","","","","","","","74","J","1","","","70","main_expt"
"75","","bandit","149","478224","0.0-110.0-0.0","92771403","wem/bandit_either","A3N0QZ9ZKUCTCQ","either","2","","","","","","","0","0","1","0.3949471057","","0.6","0.4","0.8","0.2","","","","","0.2737706179","0.3949471057","0.1184182172","0.1917576795","","","","","","","74","J","1","","","71","main_expt"
"252","","bandit","150","479989","0.0-111.0-0.0","92771403","wem/bandit_either","A3N0QZ9ZKUCTCQ","either","2","","","","","","","0","0","1","","0.1038133506","0.6","0.4","0.8","0.2","0.3005227265","0.3888869603","0.1038133506","0.1894079546","","","","","","","","","","","75","K","2","","","72","main_expt"
"190","","bandit","151","481691","0.0-112.0-0.0","92771403","wem/bandit_either","A3N0QZ9ZKUCTCQ","either","2","","","","","","","0","0","1","0.07830871569","","0.6","0.4","0.8","0.2","","","","","0.3205676235","0.4015056825","0.07830871569","0.235909594","","","","","","","75","K","2","","","73","main_expt"
"317","","bandit","152","483520","0.0-113.0-0.0","92771403","wem/bandit_either","A3N0QZ9ZKUCTCQ","either","2","","","","","","","0","0","1","0.2772030277","","0.6","0.4","0.8","0.2","","","","","0.3040473008","0.4200542591","0.09226686474","0.2772030277","","","","","","","76","L","3","","","74","main_expt"
"212","","bandit","153","485243","0.0-114.0-0.0","92771403","wem/bandit_either","A3N0QZ9ZKUCTCQ","either","2","","","","","","","0","0","1","","0.2686744794","0.6","0.4","0.8","0.2","0.2686744794","0.4353174817","0.07948082514","0.2237268092","","","","","","","","","","","72","H","0","img/none_selected.jpg","","75","main_expt"
"2","","bandit","154","486759","0.0-115.0-0.0","92771403","wem/bandit_either","A3N0QZ9ZKUCTCQ","either","2","","","","","","","0","0","1","0.258707356","","0.6","0.4","0.8","0.2","","","","","0.258707356","0.4196821318","0.1279570505","0.1739375455","","","","","","","72","H","0","img/none_selected.jpg","","76","main_expt"
"30","","bandit","155","488301","0.0-116.0-0.0","92771403","wem/bandit_either","A3N0QZ9ZKUCTCQ","either","2","","","","","","","0","0","1","","0.1648796623","0.6","0.4","0.8","0.2","0.3010070056","0.3787369199","0.1202820049","0.1648796623","","","","","","","","","","","76","L","3","","","77","main_expt"
"38","","bandit","156","489852","0.0-117.0-0.0","92771403","wem/bandit_either","A3N0QZ9ZKUCTCQ","either","2","","","","","","","0","0","1","","0.1637798684","0.6","0.4","0.8","0.2","0.2648586626","0.4314930014","0.1054071572","0.1637798684","","","","","","","","","","","76","L","3","","","78","main_expt"
"17","","bandit","157","491382","0.0-118.0-0.0","92771403","wem/bandit_either","A3N0QZ9ZKUCTCQ","either","2","","","","","","","0","0","1","0.1403095361","","0.6","0.4","0.8","0.2","","","","","0.1984114041","0.4155078174","0.1403095361","0.1490076182","","","","","","","75","K","2","","","79","main_expt"
"170","","bandit","158","493066","0.0-119.0-0.0","92771403","wem/bandit_either","A3N0QZ9ZKUCTCQ","either","2","","","","","","","0","1","0","","0.4226243671","0.6","0.4","0.8","0.2","0.180325551","0.4226243671","0.1891235553","0.1093198388","","","","","","","","","","","74","J","1","","","80","main_expt"
"195","","bandit","159","494771","0.0-120.0-0.0","92771403","wem/bandit_either","A3N0QZ9ZKUCTCQ","either","2","","","","","","","0","0","1","","0.4474166549","0.6","0.4","0.8","0.2","0.224531153","0.4474166549","0.1858030354","0.08868186825","","","","","","","","","","","74","J","1","","","81","main_expt"
"218","","bandit","160","496501","0.0-121.0-0.0","92771403","wem/bandit_either","A3N0QZ9ZKUCTCQ","either","2","","","","","","","0","1","0","","0.4636297045","0.6","0.4","0.8","0.2","0.221125015","0.4636297045","0.2476542501","0.1073880826","","","","","","","","","","","74","J","1","","","82","main_expt"
"143","","bandit","161","498158","0.0-122.0-0.0","92771403","wem/bandit_either","A3N0QZ9ZKUCTCQ","either","2","","","","","","","0","1","0","","0.467509749","0.6","0.4","0.8","0.2","0.2143237207","0.467509749","0.2188241074","0.1022587498","","","","","","","","","","","74","J","1","","","83","main_expt"
"32","","bandit","162","499704","0.0-123.0-0.0","92771403","wem/bandit_either","A3N0QZ9ZKUCTCQ","either","2","","","","","","","0","0","1","","0.4551111531","0.6","0.4","0.8","0.2","0.2097367537","0.4551111531","0.2754771977","0.1085807699","","","","","","","","","","","74","J","1","","","84","main_expt"
"208","","bandit","163","501425","0.0-124.0-0.0","92771403","wem/bandit_either","A3N0QZ9ZKUCTCQ","either","2","","","","","","","0","0","1","","0.4621419017","0.6","0.4","0.8","0.2","0.1661536269","0.4621419017","0.2965575968","0.1263918358","","","","","","","","","","","74","J","1","","","85","main_expt"
"7","","bandit","164","502948","0.0-125.0-0.0","92771403","wem/bandit_either","A3N0QZ9ZKUCTCQ","either","2","","","","","","","0","0","1","0.257129161","","0.6","0.4","0.8","0.2","","","","","0.1364458955","0.4612050897","0.257129161","0.1481941301","","","","","","","75","K","2","","","86","main_expt"
"0","","bandit","165","504454","0.0-126.0-0.0","92771403","wem/bandit_either","A3N0QZ9ZKUCTCQ","either","2","","","","","","","0","0","1","0.2338967043","","0.6","0.4","0.8","0.2","","","","","0.08235553135","0.4334675206","0.2338967043","0.1447872846","","","","","","","75","K","2","","","87","main_expt"
"73","","bandit","166","506038","0.0-127.0-0.0","92771403","wem/bandit_either","A3N0QZ9ZKUCTCQ","either","2","","","","","","","0","0","1","","0.1391637727","0.6","0.4","0.8","0.2","0.0754832669","0.4397617206","0.2161535794","0.1391637727","","","","","","","","","","","76","L","3","","","88","main_expt"
"219","","bandit","167","507775","0.0-128.0-0.0","92771403","wem/bandit_either","A3N0QZ9ZKUCTCQ","either","2","","","","","","","0","0","1","","0.1476089376","0.6","0.4","0.8","0.2","0.109361408","0.4635478967","0.2043146745","0.1476089376","","","","","","","","","","","76","L","3","","","89","main_expt"
"9","","bandit","168","509297","0.0-129.0-0.0","92771403","wem/bandit_either","A3N0QZ9ZKUCTCQ","either","2","","","","","","","0","0","1","0.07391079866","","0.6","0.4","0.8","0.2","","","","","0.07391079866","0.4234969579","0.2346009907","0.2081489191","","","","","","","72","H","0","img/none_selected.jpg","","90","main_expt"
"168","","bandit","169","510977","0.0-130.0-0.0","92771403","wem/bandit_either","A3N0QZ9ZKUCTCQ","either","2","","","","","","","0","0","1","","0.1164594673","0.6","0.4","0.8","0.2","0.1164594673","0.4267507071","0.2333967219","0.1834039029","","","","","","","","","","","72","H","0","img/none_selected.jpg","","91","main_expt"
"541","","bandit","170","513033","0.0-131.0-0.0","92771403","wem/bandit_either","A3N0QZ9ZKUCTCQ","either","2","","","","","","","0","0","1","","0.2027314649","0.6","0.4","0.8","0.2","0.113043345","0.4089505196","0.2150480475","0.2027314649","","","","","","","","","","","76","L","3","","","92","main_expt"
"293","","bandit","171","514839","0.0-132.0-0.0","92771403","wem/bandit_either","A3N0QZ9ZKUCTCQ","either","2","","","","","","","1","0","0","0.2588080464","","0.6","0.4","0.8","0.2","","","","","0.1714352716","0.4112501448","0.2588080464","0.1738894496","","","","","","","75","K","2","","","93","main_expt"
"98","","bandit","172","516450","0.0-133.0-0.0","92771403","wem/bandit_either","A3N0QZ9ZKUCTCQ","either","2","","","","","","","0","1","0","","0.2748849181","0.6","0.4","0.8","0.2","0.1253024032","0.452415855","0.2748849181","0.2484708832","","","","","","","","","","","75","K","2","","","94","main_expt"
"172","","bandit","173","518135","0.0-134.0-0.0","92771403","wem/bandit_either","A3N0QZ9ZKUCTCQ","either","2","","","","","","","0","0","1","0.2791739054","","0.6","0.4","0.8","0.2","","","","","0.1401284447","0.4589197587","0.2791739054","0.2914685715","","","","","","","75","K","2","","","95","main_expt"
"119","","bandit","174","519767","0.0-135.0-0.0","92771403","wem/bandit_either","A3N0QZ9ZKUCTCQ","either","2","","","","","","","1","0","0","0.3149564315","","0.6","0.4","0.8","0.2","","","","","0.1320491369","0.4481870348","0.3149564315","0.2417524935","","","","","","","75","K","2","","","96","main_expt"
"32","","bandit","175","521313","0.0-136.0-0.0","92771403","wem/bandit_either","A3N0QZ9ZKUCTCQ","either","2","","","","","","","0","0","1","0.372564007","","0.6","0.4","0.8","0.2","","","","","0.1518453759","0.4597072186","0.372564007","0.2492821404","","","","","","","75","K","2","","","97","main_expt"
"97","","bandit","176","522924","0.0-137.0-0.0","92771403","wem/bandit_either","A3N0QZ9ZKUCTCQ","either","2","","","","","","","0","0","1","0.393328365","","0.6","0.4","0.8","0.2","","","","","0.2173959583","0.4705619112","0.393328365","0.3002958449","","","","","","","75","K","2","","","98","main_expt"
"143","","bandit","177","524580","0.0-138.0-0.0","92771403","wem/bandit_either","A3N0QZ9ZKUCTCQ","either","2","","","","","","","1","0","0","0.4800968761","","0.6","0.4","0.8","0.2","","","","","0.2618725657","0.4800968761","0.421239771","0.3544832656","","","","","","","74","J","1","","","99","main_expt"
"317","","bandit","178","526411","0.0-139.0-0.0","92771403","wem/bandit_either","A3N0QZ9ZKUCTCQ","either","2","","","","","","","1","0","0","0.4780143146","","0.6","0.4","0.8","0.2","","","","","0.2487788848","0.4780143146","0.4130759476","0.3810954338","","","","","","","74","J","1","","","100","main_expt"
"467","","bandit","179","528392","0.0-140.0-0.0","92771403","wem/bandit_either","A3N0QZ9ZKUCTCQ","either","2","","","","","","","0","1","0","","0.4849002763","0.6","0.4","0.8","0.2","0.2890792313","0.4849002763","0.4089462913","0.4042362267","","","","","","","","","","","74","J","1","","","101","main_expt"
"2","","bandit","180","529909","0.0-141.0-0.0","92771403","wem/bandit_either","A3N0QZ9ZKUCTCQ","either","2","","","","","","","0","0","1","","0.4886078379","0.6","0.4","0.8","0.2","0.3136369757","0.4886078379","0.370330464","0.4594696392","","","","","","","","","","","74","J","1","","","102","main_expt"
"887","","bandit","181","532309","0.0-142.0-0.0","92771403","wem/bandit_either","A3N0QZ9ZKUCTCQ","either","2","","","","","","","1","0","0","0.47121906","","0.6","0.4","0.8","0.2","","","","","0.2364671533","0.47121906","0.3306315663","0.4588766667","","","","","","","74","J","1","","","103","main_expt"
"66","","bandit","182","533889","0.0-143.0-0.0","92771403","wem/bandit_either","A3N0QZ9ZKUCTCQ","either","2","","","","","","","0","1","0","","0.4760763377","0.6","0.4","0.8","0.2","0.2202486688","0.4760763377","0.354634178","0.4372785745","","","","","","","","","","","74","J","1","","","104","main_expt"
"178","","bandit","183","535582","0.0-144.0-0.0","92771403","wem/bandit_either","A3N0QZ9ZKUCTCQ","either","2","","","","","","","1","0","0","0.4701389446","","0.6","0.4","0.8","0.2","","","","","0.1854418088","0.4701389446","0.3896605338","0.4063887309","","","","","","","74","J","1","","","105","main_expt"
"330","","bandit","184","537426","0.0-145.0-0.0","92771403","wem/bandit_either","A3N0QZ9ZKUCTCQ","either","2","","","","","","","0","0","1","","0.471324938","0.6","0.4","0.8","0.2","0.1596754559","0.471324938","0.414339711","0.3778019321","","","","","","","","","","","74","J","1","","","106","main_expt"
"400","","bandit","185","539342","0.0-146.0-0.0","92771403","wem/bandit_either","A3N0QZ9ZKUCTCQ","either","2","","","","","","","0","0","1","0.4164239898","","0.6","0.4","0.8","0.2","","","","","0.137099288","0.4786694594","0.4164239898","0.3614143111","","","","","","","75","K","2","","","107","main_expt"
"315","","bandit","186","541172","0.0-147.0-0.0","92771403","wem/bandit_either","A3N0QZ9ZKUCTCQ","either","2","","","","","","","0","0","1","0.1443984823","","0.6","0.4","0.8","0.2","","","","","0.1443984823","0.4810065258","0.3836571442","0.3681250399","","","","","","","72","H","0","img/none_selected.jpg","","108","main_expt"
"167","","bandit","187","542854","0.0-148.0-0.0","92771403","wem/bandit_either","A3N0QZ9ZKUCTCQ","either","2","","","","","","","0","0","1","","0.3446081275","0.6","0.4","0.8","0.2","0.1409511773","0.4816764674","0.3881214568","0.3446081275","","","","","","","","","","","76","L","3","","","109","main_expt"
"57","","bandit","188","544425","0.0-149.0-0.0","92771403","wem/bandit_either","A3N0QZ9ZKUCTCQ","either","2","","","","","","","0","1","0","","0.4882082215","0.6","0.4","0.8","0.2","0.1787750665","0.4882082215","0.4266873791","0.3681270965","","","","","","","","","","","74","J","1","","","110","main_expt"
"19","","bandit","189","545958","0.0-150.0-0.0","92771403","wem/bandit_either","A3N0QZ9ZKUCTCQ","either","2","","","","","","","0","1","0","","0.478642168","0.6","0.4","0.8","0.2","0.1862786225","0.478642168","0.4475699482","0.391379093","","","","","","","","","","","74","J","1","","","111","main_expt"
"229","","bandit","190","547701","0.0-151.0-0.0","92771403","wem/bandit_either","A3N0QZ9ZKUCTCQ","either","2","","","","","","","0","0","1","0.4841415165","","0.6","0.4","0.8","0.2","","","","","0.1654620982","0.4841415165","0.4190314983","0.4131544452","","","","","","","74","J","1","","","112","main_expt"
"457","","bandit","191","549673","0.0-152.0-0.0","92771403","wem/bandit_either","A3N0QZ9ZKUCTCQ","either","2","","","","","","","1","0","0","0.4883212127","","0.6","0.4","0.8","0.2","","","","","0.1582981878","0.4883212127","0.3666128881","0.3963985948","","","","","","","74","J","1","","","113","main_expt"
"336","","bandit","192","551523","0.0-153.0-0.0","92771403","wem/bandit_either","A3N0QZ9ZKUCTCQ","either","2","","","","","","","1","0","0","0.4883790739","","0.6","0.4","0.8","0.2","","","","","0.1922757069","0.4883790739","0.3866259854","0.4117985871","","","","","","","74","J","1","","","114","main_expt"
"349","","bandit","193","553384","0.0-154.0-0.0","92771403","wem/bandit_either","A3N0QZ9ZKUCTCQ","either","2","","","","","","","0","0","1","","0.4902011966","0.6","0.4","0.8","0.2","0.185618385","0.4902011966","0.354161152","0.394381103","","","","","","","","","","","74","J","1","","","115","main_expt"
"72","","bandit","194","554971","0.0-155.0-0.0","92771403","wem/bandit_either","A3N0QZ9ZKUCTCQ","either","2","","","","","","","0","1","0","","0.4844723045","0.6","0.4","0.8","0.2","0.2057277395","0.4844723045","0.3170745426","0.3762408663","","","","","","","","","","","74","J","1","","","116","main_expt"
"336","","bandit","195","556820","0.0-156.0-0.0","92771403","wem/bandit_either","A3N0QZ9ZKUCTCQ","either","2","","","","","","","0","0","1","","0.4895589844","0.6","0.4","0.8","0.2","0.2288411079","0.4895589844","0.304536318","0.3823674378","","","","","","","","","","","74","J","1","","","117","main_expt"
"233","","bandit","196","558568","0.0-157.0-0.0","92771403","wem/bandit_either","A3N0QZ9ZKUCTCQ","either","2","","","","","","","0","0","1","","0.4899729034","0.6","0.4","0.8","0.2","0.2207517482","0.4899729034","0.3411026949","0.4050195855","","","","","","","","","","","74","J","1","","","118","main_expt"
"111","","bandit","197","560194","0.0-158.0-0.0","92771403","wem/bandit_either","A3N0QZ9ZKUCTCQ","either","2","","","","","","","1","0","0","0.3447942488","","0.6","0.4","0.8","0.2","","","","","0.1955286499","0.4947041593","0.3447942488","0.4227562767","","","","","","","75","K","2","","","119","main_expt"
"120","","bandit","198","561829","0.0-159.0-0.0","92771403","wem/bandit_either","A3N0QZ9ZKUCTCQ","either","2","","","","","","","0","0","1","","0.3686185352","0.6","0.4","0.8","0.2","0.2427950695","0.4916865355","0.3686185352","0.4163810796","","","","","","","","","","","75","K","2","","","120","main_expt"
"152","","bandit","199","563496","0.0-160.0-0.0","92771403","wem/bandit_either","A3N0QZ9ZKUCTCQ","either","2","","","","","","","0","0","1","0.3547669752","","0.6","0.4","0.8","0.2","","","","","0.2479682904","0.4860386064","0.3547669752","0.406821829","","","","","","","75","K","2","","","121","main_expt"
"46","","bandit","200","565056","0.0-161.0-0.0","92771403","wem/bandit_either","A3N0QZ9ZKUCTCQ","either","2","","","","","","","0","1","0","","0.3999449125","0.6","0.4","0.8","0.2","0.3081985406","0.483083859","0.365994073","0.3999449125","","","","","","","","","","","76","L","3","","","122","main_expt"
"381","","bandit","201","566952","0.0-162.0-0.0","92771403","wem/bandit_either","A3N0QZ9ZKUCTCQ","either","2","","","","","","","0","1","0","","0.366626489","0.6","0.4","0.8","0.2","0.3089359708","0.4791491275","0.3120596142","0.366626489","","","","","","","","","","","76","L","3","","","123","main_expt"
"480","","bandit","202","568947","0.0-163.0-0.0","92771403","wem/bandit_either","A3N0QZ9ZKUCTCQ","either","2","","","","","","","0","0","1","","0.3706278578","0.6","0.4","0.8","0.2","0.3298338218","0.4776777384","0.302161917","0.3706278578","","","","","","","","","","","76","L","3","","","124","main_expt"
"544","","bandit","203","570998","0.0-164.0-0.0","92771403","wem/bandit_either","A3N0QZ9ZKUCTCQ","either","2","","","","","","","0","0","1","0.2795250441","","0.6","0.4","0.8","0.2","","","","","0.2795250441","0.478983255","0.2794370347","0.3545504723","","","","","","","72","H","0","img/none_selected.jpg","","125","main_expt"
"212","","bandit","204","572727","0.0-165.0-0.0","92771403","wem/bandit_either","A3N0QZ9ZKUCTCQ","either","2","","","","","","","0","0","1","0.2184127205","","0.6","0.4","0.8","0.2","","","","","0.2184127205","0.4724726719","0.2466154908","0.3106298006","","","","","","","72","H","0","img/none_selected.jpg","","126","main_expt"
"250","","bandit","205","574490","0.0-166.0-0.0","92771403","wem/bandit_either","A3N0QZ9ZKUCTCQ","either","2","","","","","","","0","0","1","","0.4796244369","0.6","0.4","0.8","0.2","0.2488858907","0.4796244369","0.2712823261","0.3351405197","","","","","","","","","","","74","J","1","","","127","main_expt"
"2","","bandit","206","576007","0.0-167.0-0.0","92771403","wem/bandit_either","A3N0QZ9ZKUCTCQ","either","2","","","","","","","0","0","1","0.2095517986","","0.6","0.4","0.8","0.2","","","","","0.2850827173","0.4825212971","0.2095517986","0.2984422464","","","","","","","75","K","2","","","128","main_expt"
"50","","bandit","207","577573","0.0-168.0-0.0","92771403","wem/bandit_either","A3N0QZ9ZKUCTCQ","either","2","","","","","","","0","0","1","","0.4877535013","0.6","0.4","0.8","0.2","0.2867242009","0.4877535013","0.1986866195","0.2027892291","","","","","","","","","","","74","J","1","","","129","main_expt"
"182","","bandit","208","579269","0.0-169.0-0.0","92771403","wem/bandit_either","A3N0QZ9ZKUCTCQ","either","2","","","","","","","0","0","1","","0.2509552002","0.6","0.4","0.8","0.2","0.2509552002","0.4833646461","0.172959111","0.13768179","","","","","","","","","","","72","H","0","img/none_selected.jpg","","130","main_expt"
"227","","bandit","209","581015","0.0-170.0-0.0","92771403","wem/bandit_either","A3N0QZ9ZKUCTCQ","either","2","","","","","","","0","0","1","","0.2172434631","0.6","0.4","0.8","0.2","0.2172434631","0.4790990265","0.163172462","0.1352832961","","","","","","","","","","","72","H","0","img/none_selected.jpg","","131","main_expt"
"87","","bandit","210","582617","0.0-171.0-0.0","92771403","wem/bandit_either","A3N0QZ9ZKUCTCQ","either","2","","","","","","","0","0","1","","0.4882311922","0.6","0.4","0.8","0.2","0.158295755","0.4882311922","0.161148659","0.08660982753","","","","","","","","","","","74","J","1","","","132","main_expt"
"2","","bandit","211","584134","0.0-172.0-0.0","92771403","wem/bandit_either","A3N0QZ9ZKUCTCQ","either","2","","","","","","","0","0","1","0.1735641072","","0.6","0.4","0.8","0.2","","","","","0.185310911","0.4889625365","0.1735641072","0.1020907376","","","","","","","75","K","2","","","133","main_expt"
"143","","bandit","212","585794","0.0-173.0-0.0","92771403","wem/bandit_either","A3N0QZ9ZKUCTCQ","either","2","","","","","","","0","0","1","","0.1231499397","0.6","0.4","0.8","0.2","0.1966535246","0.4916783795","0.1597390633","0.1231499397","","","","","","","","","","","76","L","3","","","134","main_expt"
"211","","bandit","213","587519","0.0-174.0-0.0","92771403","wem/bandit_either","A3N0QZ9ZKUCTCQ","either","2","","","","","","","0","0","1","0.1460070414","","0.6","0.4","0.8","0.2","","","","","0.2290191974","0.4904315354","0.1460070414","0.1524236556","","","","","","","75","K","2","","","135","main_expt"
"13","","bandit","214","589047","0.0-175.0-0.0","92771403","wem/bandit_either","A3N0QZ9ZKUCTCQ","either","2","","","","","","","0","0","1","0.491666595","","0.6","0.4","0.8","0.2","","","","","0.2929229053","0.491666595","0.105474526","0.1954247664","","","","","","","74","J","1","","","136","main_expt"
"86","","bandit","215","590653","0.0-176.0-0.0","92771403","wem/bandit_either","A3N0QZ9ZKUCTCQ","either","2","","","","","","","0","0","1","","0.4917142499","0.6","0.4","0.8","0.2","0.2780805385","0.4917142499","0.08835118593","0.1833989084","","","","","","","","","","","74","J","1","","","137","main_expt"
"156","","bandit","216","592323","0.0-177.0-0.0","92771403","wem/bandit_either","A3N0QZ9ZKUCTCQ","either","2","","","","","","","0","0","1","0.06418360449","","0.6","0.4","0.8","0.2","","","","","0.217224157","0.4870170403","0.06418360449","0.1490533902","","","","","","","75","K","2","","","138","main_expt"
"100","","bandit","217","593940","0.0-178.0-0.0","92771403","wem/bandit_either","A3N0QZ9ZKUCTCQ","either","2","","","","","","","0","0","1","","0.1318817547","0.6","0.4","0.8","0.2","0.2323391466","0.4834992155","0.03554325754","0.1318817547","","","","","","","","","","","76","L","3","","","139","main_expt"
"76","","bandit","218","595533","0.0-179.0-0.0","92771403","wem/bandit_either","A3N0QZ9ZKUCTCQ","either","2","","","","","","","0","0","1","0.244475209","","0.6","0.4","0.8","0.2","","","","","0.244475209","0.4927392517","0.04477370895","0.1877412345","","","","","","","72","H","0","img/none_selected.jpg","","140","main_expt"
"52","","bandit","219","597099","0.0-180.0-0.0","92771403","wem/bandit_either","A3N0QZ9ZKUCTCQ","either","2","","","","","","","0","0","1","0.232604034","","0.6","0.4","0.8","0.2","","","","","0.232604034","0.4872377518","0.03780119019","0.2363671377","","","","","","","72","H","0","img/none_selected.jpg","","141","main_expt"
"276","","bandit","220","598891","0.0-181.0-0.0","92771403","wem/bandit_either","A3N0QZ9ZKUCTCQ","either","2","","","","","","","0","0","1","0.4846254936","","0.6","0.4","0.8","0.2","","","","","0.2447345556","0.4846254936","0.03149913875","0.2546402356","","","","","","","74","J","1","","","142","main_expt"
"179","","bandit","221","600587","0.0-182.0-0.0","92771403","wem/bandit_either","A3N0QZ9ZKUCTCQ","either","2","","","","","","","0","1","0","","0.4815328815","0.6","0.4","0.8","0.2","0.26413271","0.4815328815","0.04191513266","0.2825544685","","","","","","","","","","","74","J","1","","","143","main_expt"
"109","","bandit","222","602212","0.0-183.0-0.0","92771403","wem/bandit_either","A3N0QZ9ZKUCTCQ","either","2","","","","","","","0","0","1","","0.4854048375","0.6","0.4","0.8","0.2","0.1988203511","0.4854048375","0.05613120157","0.2731230023","","","","","","","","","","","74","J","1","","","144","main_expt"
"81","","bandit","223","603808","0.0-184.0-0.0","92771403","wem/bandit_either","A3N0QZ9ZKUCTCQ","either","2","","","","","","","0","1","0","","0.4813029389","0.6","0.4","0.8","0.2","0.217822638","0.4813029389","0.03827589539","0.2943814715","","","","","","","","","","","74","J","1","","","145","main_expt"
"85","","bandit","224","605407","0.0-185.0-0.0","92771403","wem/bandit_either","A3N0QZ9ZKUCTCQ","either","2","","","","","","","0","0","1","","0.4884824202","0.6","0.4","0.8","0.2","0.2009042904","0.4884824202","0.02861175853","0.328634005","","","","","","","","","","","74","J","1","","","146","main_expt"
"18","","bandit","225","606941","0.0-186.0-0.0","92771403","wem/bandit_either","A3N0QZ9ZKUCTCQ","either","2","","","","","","","0","1","0","","0.4835291327","0.6","0.4","0.8","0.2","0.2080446297","0.4835291327","0.02140640811","0.3511209141","","","","","","","","","","","74","J","1","","","147","main_expt"
"465","","bandit","226","608921","0.0-187.0-0.0","92771403","wem/bandit_either","A3N0QZ9ZKUCTCQ","either","2","","","","","","","0","0","1","0.4716003481","","0.6","0.4","0.8","0.2","","","","","0.1536700415","0.4716003481","0.0202041473","0.3874996206","","","","","","","74","J","1","","","148","main_expt"
"85","","bandit","227","610520","0.0-188.0-0.0","92771403","wem/bandit_either","A3N0QZ9ZKUCTCQ","either","2","","","","","","","0","0","1","0.01154190459","","0.6","0.4","0.8","0.2","","","","","0.1593661633","0.4341886607","0.01154190459","0.3476646045","","","","","","","75","K","2","","","149","main_expt"
"349","","bandit","228","612385","0.0-189.0-0.0","92771403","wem/bandit_either","A3N0QZ9ZKUCTCQ","either","2","","","","","","","0","1","0","","0.3323010919","0.6","0.4","0.8","0.2","0.144955896","0.4014438172","0.01291237021","0.3323010919","","","","","","","","","","","76","L","3","","","150","main_expt"
"249","","bandit","229","614151","0.0-190.0-0.0","92771403","wem/bandit_either","A3N0QZ9ZKUCTCQ","either","2","","","","","","","0","1","0","","0.3954477196","0.6","0.4","0.8","0.2","0.2123564028","0.3980713407","0.0137789916","0.3954477196","","","","","","","","","","","76","L","3","","","151","main_expt"
"2","","bandit","230","615671","0.0-191.0-0.0","92771403","wem/bandit_either","A3N0QZ9ZKUCTCQ","either","2","","","","","","","0","1","0","","0.4186327087","0.6","0.4","0.8","0.2","0.2301890466","0.4002357887","0.01985271471","0.4186327087","","","","","","","","","","","76","L","3","","","152","main_expt"
"270","","bandit","231","617460","0.0-192.0-0.0","92771403","wem/bandit_either","A3N0QZ9ZKUCTCQ","either","2","","","","","","","0","0","1","","0.4029566754","0.6","0.4","0.8","0.2","0.2295153641","0.388677987","0.02951100453","0.4029566754","","","","","","","","","","","76","L","3","","","153","main_expt"
"128","","bandit","232","619103","0.0-193.0-0.0","92771403","wem/bandit_either","A3N0QZ9ZKUCTCQ","either","2","","","","","","","0","0","1","","0.4037751878","0.6","0.4","0.8","0.2","0.2163321136","0.3817747688","0.02325572033","0.4037751878","","","","","","","","","","","76","L","3","","","154","main_expt"
"285","","bandit","233","620904","0.0-194.0-0.0","92771403","wem/bandit_either","A3N0QZ9ZKUCTCQ","either","2","","","","","","","0","0","1","0.4078727314","","0.6","0.4","0.8","0.2","","","","","0.2257858177","0.327727533","0.03925092562","0.4078727314","","","","","","","76","L","3","","","155","main_expt"
"172","","bandit","234","622591","0.0-195.0-0.0","92771403","wem/bandit_either","A3N0QZ9ZKUCTCQ","either","2","","","","","","","0","0","1","0.2821504166","","0.6","0.4","0.8","0.2","","","","","0.2077891775","0.2821504166","0.05532081832","0.3941681487","","","","","","","74","J","1","","","156","main_expt"
"40","","bandit","235","624148","0.0-196.0-0.0","92771403","wem/bandit_either","A3N0QZ9ZKUCTCQ","either","2","","","","","","","0","0","1","","0.2784527126","0.6","0.4","0.8","0.2","0.1742908387","0.2784527126","0.05983660039","0.3417147062","","","","","","","","","","","74","J","1","","","157","main_expt"
"17","","bandit","236","625680","0.0-197.0-0.0","92771403","wem/bandit_either","A3N0QZ9ZKUCTCQ","either","2","","","","","","","0","0","1","0.09347744845","","0.6","0.4","0.8","0.2","","","","","0.162057643","0.2857058734","0.09347744845","0.2963220618","","","","","","","75","K","2","","","158","main_expt"
"8","","bandit","237","627206","0.0-198.0-0.0","92771403","wem/bandit_either","A3N0QZ9ZKUCTCQ","either","2","","","","","","","0","0","1","0.09649648717","","0.6","0.4","0.8","0.2","","","","","0.1805514511","0.2349295223","0.09649648717","0.2961528309","","","","","","","75","K","2","","","159","main_expt"
"37","","bandit","238","628760","0.0-199.0-0.0","92771403","wem/bandit_either","A3N0QZ9ZKUCTCQ","either","2","","","","","","","0","0","1","0.1724629995","","0.6","0.4","0.8","0.2","","","","","0.1724629995","0.2275717407","0.08382429791","0.2842772575","","","","","","","72","H","0","img/none_selected.jpg","","160","main_expt"
"82","","bandit","239","630360","0.0-200.0-0.0","92771403","wem/bandit_either","A3N0QZ9ZKUCTCQ","either","2","","","","","","","0","0","1","","0.2747674873","0.6","0.4","0.8","0.2","0.1660992999","0.2559884592","0.1466352983","0.2747674873","","","","","","","","","","","76","L","3","","","161","main_expt"
"198","","bandit","240","632075","0.0-201.0-0.0","92771403","wem/bandit_either","A3N0QZ9ZKUCTCQ","either","2","","","","","","","0","0","1","0.2670526618","","0.6","0.4","0.8","0.2","","","","","0.2281832109","0.2670526618","0.1569467617","0.2993190406","","","","","","","74","J","1","","","162","main_expt"
"69","","bandit","241","633662","0.0-202.0-0.0","92771403","wem/bandit_either","A3N0QZ9ZKUCTCQ","either","2","","","","","","","0","0","1","","0.2144285545","0.6","0.4","0.8","0.2","0.2144285545","0.2618894379","0.1437935099","0.3102408377","","","","","","","","","","","72","H","0","img/none_selected.jpg","","163","main_expt"
"125","","bandit","242","635305","0.0-203.0-0.0","92771403","wem/bandit_either","A3N0QZ9ZKUCTCQ","either","2","","","","","","","1","0","0","0.2131293933","","0.6","0.4","0.8","0.2","","","","","0.2131293933","0.2977476978","0.1503677763","0.2607878409","","","","","","","72","H","0","img/none_selected.jpg","","164","main_expt"
"22","","bandit","243","636846","0.0-204.0-0.0","92771403","wem/bandit_either","A3N0QZ9ZKUCTCQ","either","2","","","","","","","0","0","1","0.251698227","","0.6","0.4","0.8","0.2","","","","","0.251698227","0.3138636066","0.1574825995","0.2470054868","","","","","","","72","H","0","img/none_selected.jpg","","165","main_expt"
"125","","bandit","244","638487","0.0-205.0-0.0","92771403","wem/bandit_either","A3N0QZ9ZKUCTCQ","either","2","","","","","","","0","0","1","","0.2831539445","0.6","0.4","0.8","0.2","0.2831539445","0.3204338644","0.1500633275","0.2629624785","","","","","","","","","","","72","H","0","img/none_selected.jpg","","166","main_expt"
"208","","bandit","245","640211","0.0-206.0-0.0","92771403","wem/bandit_either","A3N0QZ9ZKUCTCQ","either","2","","","","","","","0","0","1","","0.1137242654","0.6","0.4","0.8","0.2","0.2496169508","0.3600517585","0.1137242654","0.2745713682","","","","","","","","","","","75","K","2","","","167","main_expt"
"111","","bandit","246","641839","0.0-207.0-0.0","92771403","wem/bandit_either","A3N0QZ9ZKUCTCQ","either","2","","","","","","","0","1","0","","0.3678373827","0.6","0.4","0.8","0.2","0.2315540067","0.3678373827","0.145192941","0.2557249153","","","","","","","","","","","74","J","1","","","168","main_expt"
"314","","bandit","247","643670","0.0-208.0-0.0","92771403","wem/bandit_either","A3N0QZ9ZKUCTCQ","either","2","","","","","","","0","0","1","","0.3421512568","0.6","0.4","0.8","0.2","0.1825517174","0.3421512568","0.1863479632","0.2016321063","","","","","","","","","","","74","J","1","","","169","main_expt"
"130","","bandit","248","645317","0.0-209.0-0.0","92771403","wem/bandit_either","A3N0QZ9ZKUCTCQ","either","2","","","","","","","0","0","1","","0.3917895485","0.6","0.4","0.8","0.2","0.2535959064","0.3917895485","0.142304713","0.2210696627","","","","","","","","","","","74","J","1","","","170","main_expt"
"211","","bandit","249","647048","0.0-210.0-0.0","92771403","wem/bandit_either","A3N0QZ9ZKUCTCQ","either","2","","","","","","","0","0","1","0.1739768979","","0.6","0.4","0.8","0.2","","","","","0.3004284576","0.3206692194","0.1739768979","0.1627904758","","","","","","","75","K","2","","","171","main_expt"
"40","","bandit","250","648605","0.0-211.0-0.0","92771403","wem/bandit_either","A3N0QZ9ZKUCTCQ","either","2","","","","","","","0","0","1","0.1421076649","","0.6","0.4","0.8","0.2","","","","","0.2716191145","0.3198600846","0.2172659048","0.1421076649","","","","","","","76","L","3","","","172","main_expt"
"12","","bandit","251","650134","0.0-212.0-0.0","92771403","wem/bandit_either","A3N0QZ9ZKUCTCQ","either","2","","","","","","","1","0","0","0.3253138029","","0.6","0.4","0.8","0.2","","","","","0.3253138029","0.2641483633","0.2419731025","0.165050165","","","","","","","72","H","0","img/none_selected.jpg","","173","main_expt"
"161","","bandit","252","651812","0.0-213.0-0.0","92771403","wem/bandit_either","A3N0QZ9ZKUCTCQ","either","2","","","","","","","0","0","1","","0.3419591401","0.6","0.4","0.8","0.2","0.3419591401","0.2248062597","0.2239571331","0.1406738207","","","","","","","","","","","72","H","0","img/none_selected.jpg","","174","main_expt"
"118","","bandit","253","653447","0.0-214.0-0.0","92771403","wem/bandit_either","A3N0QZ9ZKUCTCQ","either","2","","","","","","","0","0","1","0.3442692367","","0.6","0.4","0.8","0.2","","","","","0.3442692367","0.2370379408","0.2311410243","0.138310495","","","","","","","72","H","0","img/none_selected.jpg","","175","main_expt"
"3","","bandit","254","654966","0.0-215.0-0.0","92771403","wem/bandit_either","A3N0QZ9ZKUCTCQ","either","2","","","","","","","0","0","1","0.3397266539","","0.6","0.4","0.8","0.2","","","","","0.3397266539","0.2157433706","0.2610077479","0.1675243642","","","","","","","72","H","0","img/none_selected.jpg","","176","main_expt"
"306","","bandit","255","656792","0.0-216.0-0.0","92771403","wem/bandit_either","A3N0QZ9ZKUCTCQ","either","2","","","","","","","1","0","0","0.2997078274","","0.6","0.4","0.8","0.2","","","","","0.2997078274","0.2014791824","0.2780938204","0.1919885971","","","","","","","72","H","0","img/none_selected.jpg","","177","main_expt"
"362","","bandit","256","658670","0.0-217.0-0.0","92771403","wem/bandit_either","A3N0QZ9ZKUCTCQ","either","2","","","","","","","0","0","1","0.3064007527","","0.6","0.4","0.8","0.2","","","","","0.3064007527","0.1913564418","0.3151752793","0.2365392944","","","","","","","72","H","0","img/none_selected.jpg","","178","main_expt"
"300","","bandit","257","660487","0.0-218.0-0.0","92771403","wem/bandit_either","A3N0QZ9ZKUCTCQ","either","2","","","","","","","0","1","0","","0.3533432679","0.6","0.4","0.8","0.2","0.3533432679","0.1980728016","0.2799621139","0.2509455726","","","","","","","","","","","72","H","0","img/none_selected.jpg","","179","main_expt"
"329","","bandit","258","662333","0.0-219.0-0.0","92771403","wem/bandit_either","A3N0QZ9ZKUCTCQ","either","2","","","","","","","1","0","0","0.3652522579","","0.6","0.4","0.8","0.2","","","","","0.3652522579","0.1833491223","0.3170936092","0.2767223981","","","","","","","72","H","0","img/none_selected.jpg","","180","main_expt"
"373","","bandit","259","664223","0.0-220.0-0.0","92771403","wem/bandit_either","A3N0QZ9ZKUCTCQ","either","2","","","","","","","0","0","1","0.3383156657","","0.6","0.4","0.8","0.2","","","","","0.3383156657","0.1342686697","0.28101752","0.314600373","","","","","","","72","H","0","img/none_selected.jpg","","181","main_expt"
"104","","bandit","260","665845","0.0-221.0-0.0","92771403","wem/bandit_either","A3N0QZ9ZKUCTCQ","either","2","","","","","","","0","0","1","","0.1636660304","0.6","0.4","0.8","0.2","0.2902116232","0.1636660304","0.3043342224","0.3943610609","","","","","","","","","","","74","J","1","","","182","main_expt"
"53","","bandit","261","667417","0.0-222.0-0.0","92771403","wem/bandit_either","A3N0QZ9ZKUCTCQ","either","2","","","","","","","0","1","0","","0.3026157476","0.6","0.4","0.8","0.2","0.3026157476","0.136761637","0.3192524042","0.3586422101","","","","","","","","","","","72","H","0","img/none_selected.jpg","","183","main_expt"
"178","","bandit","262","669112","0.0-223.0-0.0","92771403","wem/bandit_either","A3N0QZ9ZKUCTCQ","either","2","","","","","","","0","0","1","0.3360229169","","0.6","0.4","0.8","0.2","","","","","0.3360229169","0.1685989701","0.3332516821","0.3879999062","","","","","","","72","H","0","img/none_selected.jpg","","184","main_expt"
"34","","bandit","263","670664","0.0-224.0-0.0","92771403","wem/bandit_either","A3N0QZ9ZKUCTCQ","either","2","","","","","","","0","0","1","0.3336456265","","0.6","0.4","0.8","0.2","","","","","0.3336456265","0.1663529744","0.3228184693","0.3831340227","","","","","","","72","H","0","img/none_selected.jpg","","185","main_expt"
"19","","bandit","264","672201","0.0-225.0-0.0","92771403","wem/bandit_either","A3N0QZ9ZKUCTCQ","either","2","","","","","","","0","0","1","","0.3308881938","0.6","0.4","0.8","0.2","0.3308881938","0.1916836285","0.3111703144","0.3999004662","","","","","","","","","","","72","H","0","img/none_selected.jpg","","186","main_expt"
"97","","bandit","265","673817","0.0-226.0-0.0","92771403","wem/bandit_either","A3N0QZ9ZKUCTCQ","either","2","","","","","","","1","0","0","0.3353611299","","0.6","0.4","0.8","0.2","","","","","0.325530054","0.1686829448","0.3353611299","0.3875363153","","","","","","","75","K","2","","","187","main_expt"
"114","","bandit","266","675446","0.0-227.0-0.0","92771403","wem/bandit_either","A3N0QZ9ZKUCTCQ","either","2","","","","","","","1","0","0","0.3646937268","","0.6","0.4","0.8","0.2","","","","","0.3055482451","0.1461675531","0.3646937268","0.3875691392","","","","","","","75","K","2","","","188","main_expt"
"193","","bandit","267","677159","0.0-228.0-0.0","92771403","wem/bandit_either","A3N0QZ9ZKUCTCQ","either","2","","","","","","","0","0","1","0.3891323825","","0.6","0.4","0.8","0.2","","","","","0.3002345065","0.1382971047","0.3891323825","0.4166866882","","","","","","","75","K","2","","","189","main_expt"
"288","","bandit","268","678964","0.0-229.0-0.0","92771403","wem/bandit_either","A3N0QZ9ZKUCTCQ","either","2","","","","","","","0","0","1","","0.4124474499","0.6","0.4","0.8","0.2","0.2693931213","0.1898135375","0.3860741766","0.4124474499","","","","","","","","","","","76","L","3","","","190","main_expt"
"458","","bandit","269","680940","0.0-230.0-0.0","92771403","wem/bandit_either","A3N0QZ9ZKUCTCQ","either","2","","","","","","","0","0","1","0.3009284261","","0.6","0.4","0.8","0.2","","","","","0.3009284261","0.1264917812","0.3864243721","0.3638199534","","","","","","","72","H","0","img/none_selected.jpg","","191","main_expt"
"114","","bandit","270","682571","0.0-231.0-0.0","92771403","wem/bandit_either","A3N0QZ9ZKUCTCQ","either","2","","","","","","","0","0","1","0.1185409567","","0.6","0.4","0.8","0.2","","","","","0.3157917784","0.1185409567","0.400448014","0.3711146034","","","","","","","74","J","1","","","192","main_expt"
"260","","bandit","271","684341","0.0-232.0-0.0","92771403","wem/bandit_either","A3N0QZ9ZKUCTCQ","either","2","","","","","","","0","0","1","0.3895367297","","0.6","0.4","0.8","0.2","","","","","0.2999212614","0.09837948322","0.3895367297","0.3654165885","","","","","","","75","K","2","","","193","main_expt"
"84","","bandit","272","685943","0.0-233.0-0.0","92771403","wem/bandit_either","A3N0QZ9ZKUCTCQ","either","2","","","","","","","1","0","0","0.4032313792","","0.6","0.4","0.8","0.2","","","","","0.3287494418","0.137690802","0.4032313792","0.3537818584","","","","","","","75","K","2","","","194","main_expt"
"330","","bandit","273","687792","0.0-234.0-0.0","92771403","wem/bandit_either","A3N0QZ9ZKUCTCQ","either","2","","","","","","","1","0","0","0.337234763","","0.6","0.4","0.8","0.2","","","","","0.3031978913","0.1683354775","0.337234763","0.3597494918","","","","","","","75","K","2","","","195","main_expt"
"431","","bandit","274","689739","0.0-235.0-0.0","92771403","wem/bandit_either","A3N0QZ9ZKUCTCQ","either","2","","","","","","","1","0","0","0.3950764453","","0.6","0.4","0.8","0.2","","","","","0.2901303692","0.1561951964","0.3950764453","0.3479121901","","","","","","","75","K","2","","","196","main_expt"
"700","","bandit","275","691958","0.0-236.0-0.0","92771403","wem/bandit_either","A3N0QZ9ZKUCTCQ","either","2","","","","","","","0","0","1","0.4193743727","","0.6","0.4","0.8","0.2","","","","","0.2444781728","0.1329868482","0.4193743727","0.3596292454","","","","","","","75","K","2","","","197","main_expt"
"195","","bandit","276","693677","0.0-237.0-0.0","92771403","wem/bandit_either","A3N0QZ9ZKUCTCQ","either","2","","","","","","","0","0","1","0.2140047665","","0.6","0.4","0.8","0.2","","","","","0.2140047665","0.1730826789","0.4375347816","0.3555371828","","","","","","","72","H","0","img/none_selected.jpg","","198","main_expt"
"56","","bandit","277","695250","0.0-238.0-0.0","92771403","wem/bandit_either","A3N0QZ9ZKUCTCQ","either","2","","","","","","","0","0","1","","0.2077842613","0.6","0.4","0.8","0.2","0.2077842613","0.1385649096","0.4315030007","0.4016486285","","","","","","","","","","","72","H","0","img/none_selected.jpg","","199","main_expt"
"50","","bandit","278","696818","0.0-239.0-0.0","92771403","wem/bandit_either","A3N0QZ9ZKUCTCQ","either","2","","","","","","","0","0","1","0.1941139053","","0.6","0.4","0.8","0.2","","","","","0.180488049","0.1941139053","0.4340108373","0.3871107612","","","","","","","74","J","1","","","200","main_expt"
"25","","bandit","279","698358","0.0-240.0-0.0","92771403","wem/bandit_either","A3N0QZ9ZKUCTCQ","either","2","","","","","","","0","0","1","0.3856539452","","0.6","0.4","0.8","0.2","","","","","0.2084987087","0.1825013029","0.441078118","0.3856539452","","","","","","","76","L","3","","","201","main_expt"
"128","","bandit","280","700004","0.0-241.0-0.0","92771403","wem/bandit_either","A3N0QZ9ZKUCTCQ","either","2","","","","","","","0","0","1","0.4143682719","","0.6","0.4","0.8","0.2","","","","","0.1869669721","0.162440572","0.4143682719","0.358588673","","","","","","","75","K","2","","","202","main_expt"
"89","","bandit","281","701614","0.0-242.0-0.0","92771403","wem/bandit_either","A3N0QZ9ZKUCTCQ","either","2","","","","","","","0","0","1","0.1914238456","","0.6","0.4","0.8","0.2","","","","","0.1383076553","0.1914238456","0.4280720422","0.3460881607","","","","","","","74","J","1","","","203","main_expt"
"204","","bandit","282","703338","0.0-243.0-0.0","92771403","wem/bandit_either","A3N0QZ9ZKUCTCQ","either","2","","","","","","","1","0","0","0.1656187697","","0.6","0.4","0.8","0.2","","","","","0.1656187697","0.1849793247","0.4113524858","0.3091432968","","","","","","","72","H","0","img/none_selected.jpg","","204","main_expt"
"168","","bandit","283","705024","0.0-244.0-0.0","92771403","wem/bandit_either","A3N0QZ9ZKUCTCQ","either","2","","","","","","","1","0","0","0.1699285253","","0.6","0.4","0.8","0.2","","","","","0.1699285253","0.1722293799","0.4151465815","0.3016396897","","","","","","","72","H","0","img/none_selected.jpg","","205","main_expt"
"129","","bandit","284","706671","0.0-245.0-0.0","92771403","wem/bandit_either","A3N0QZ9ZKUCTCQ","either","2","","","","","","","0","0","1","","0.161732949","0.6","0.4","0.8","0.2","0.161732949","0.1625694713","0.4002359997","0.3300702997","","","","","","","","","","","72","H","0","img/none_selected.jpg","","206","main_expt"
"323","","bandit","285","708512","0.0-246.0-0.0","92771403","wem/bandit_either","A3N0QZ9ZKUCTCQ","either","2","","","","","","","1","0","0","0.1699017951","","0.6","0.4","0.8","0.2","","","","","0.1699017951","0.1079769143","0.3692387261","0.2648848683","","","","","","","72","H","0","img/none_selected.jpg","","207","main_expt"
"314","","bandit","286","710341","0.0-247.0-0.0","92771403","wem/bandit_either","A3N0QZ9ZKUCTCQ","either","2","","","","","","","0","0","1","","0.1592107695","0.6","0.4","0.8","0.2","0.1592107695","0.1380178959","0.3283471685","0.2502792914","","","","","","","","","","","72","H","0","img/none_selected.jpg","","208","main_expt"
"348","","bandit","287","712208","0.0-248.0-0.0","92771403","wem/bandit_either","A3N0QZ9ZKUCTCQ","either","2","","","","","","","0","0","1","","0.1659907122","0.6","0.4","0.8","0.2","0.1659907122","0.1538506734","0.2924758898","0.2770073026","","","","","","","","","","","72","H","0","img/none_selected.jpg","","209","main_expt"
"113","","bandit","288","713838","0.0-249.0-0.0","92771403","wem/bandit_either","A3N0QZ9ZKUCTCQ","either","2","","","","","","","0","0","1","","0.229525517","0.6","0.4","0.8","0.2","0.229525517","0.1406222791","0.2279470939","0.3451435735","","","","","","","","","","","72","H","0","img/none_selected.jpg","","210","main_expt"
"144","","bandit","289","715499","0.0-250.0-0.0","92771403","wem/bandit_either","A3N0QZ9ZKUCTCQ","either","2","","","","","","","0","0","1","0.2131844406","","0.6","0.4","0.8","0.2","","","","","0.2434605193","0.08987887408","0.2131844406","0.3514478275","","","","","","","75","K","2","","","211","main_expt"
"8","","bandit","290","717026","0.0-251.0-0.0","92771403","wem/bandit_either","A3N0QZ9ZKUCTCQ","either","2","","","","","","","0","0","1","0.1601793481","","0.6","0.4","0.8","0.2","","","","","0.1633214123","0.1277875359","0.1601793481","0.3579324364","","","","","","","75","K","2","","","212","main_expt"
"118","","bandit","291","718656","0.0-252.0-0.0","92771403","wem/bandit_either","A3N0QZ9ZKUCTCQ","either","2","","","","","","","0","1","0","","0.3231243524","0.6","0.4","0.8","0.2","0.1014835246","0.134271297","0.1354109392","0.3231243524","","","","","","","","","","","76","L","3","","","213","main_expt"
"59","","bandit","292","720232","0.0-253.0-0.0","92771403","wem/bandit_either","A3N0QZ9ZKUCTCQ","either","2","","","","","","","0","0","1","","0.2798540136","0.6","0.4","0.8","0.2","0.09587264096","0.1385204111","0.1142105534","0.2798540136","","","","","","","","","","","76","L","3","","","214","main_expt"
"205","","bandit","293","721953","0.0-254.0-0.0","92771403","wem/bandit_either","A3N0QZ9ZKUCTCQ","either","2","","","","","","","0","1","0","","0.2469391402","0.6","0.4","0.8","0.2","0.08342689115","0.1089132689","0.1031311673","0.2469391402","","","","","","","","","","","76","L","3","","","215","main_expt"
"25","","bandit","294","723504","0.0-255.0-0.0","92771403","wem/bandit_either","A3N0QZ9ZKUCTCQ","either","2","","","","","","","0","1","0","","0.3211823944","0.6","0.4","0.8","0.2","0.05361264496","0.1299508563","0.1031732366","0.3211823944","","","","","","","","","","","76","L","3","","","216","main_expt"
"19","","bandit","295","725041","0.0-256.0-0.0","92771403","wem/bandit_either","A3N0QZ9ZKUCTCQ","either","2","","","","","","","0","0","1","","0.3545519007","0.6","0.4","0.8","0.2","0.09912420903","0.131109262","0.1188097379","0.3545519007","","","","","","","","","","","76","L","3","","","217","main_expt"
"101","","bandit","296","726659","0.0-257.0-0.0","92771403","wem/bandit_either","A3N0QZ9ZKUCTCQ","either","2","","","","","","","0","0","1","0.3781539282","","0.6","0.4","0.8","0.2","","","","","0.1021137889","0.1039495344","0.1096623481","0.3781539282","","","","","","","76","L","3","","","218","main_expt"
"446","","bandit","297","728625","0.0-258.0-0.0","92771403","wem/bandit_either","A3N0QZ9ZKUCTCQ","either","2","","","","","","","0","0","1","","0.09488552944","0.6","0.4","0.8","0.2","0.1025207236","0.09488552944","0.08679630722","0.3674409598","","","","","","","","","","","74","J","1","","","219","main_expt"
"2","","bandit","298","730144","0.0-259.0-0.0","92771403","wem/bandit_either","A3N0QZ9ZKUCTCQ","either","2","","","","","","","0","0","1","0.1311925698","","0.6","0.4","0.8","0.2","","","","","0.1049734862","0.1311925698","0.1482089448","0.315237632","","","","","","","74","J","1","","","220","main_expt"
"573","","bandit","299","732238","0.0-260.0-0.0","92771403","wem/bandit_either","A3N0QZ9ZKUCTCQ","either","2","","","","","","","0","1","0","","0.08224132258","0.6","0.4","0.8","0.2","0.08244295151","0.08224132258","0.217172314","0.3572442142","","","","","","","","","","","74","J","1","","","221","main_expt"
"180","","bandit","300","733936","0.0-261.0-0.0","92771403","wem/bandit_either","A3N0QZ9ZKUCTCQ","either","2","","","","","","","0","0","1","0.06870998364","","0.6","0.4","0.8","0.2","","","","","0.09815111748","0.06870998364","0.2227738938","0.2796125419","","","","","","","74","J","1","","","222","main_expt"
"244","","bandit","301","735699","0.0-262.0-0.0","92771403","wem/bandit_either","A3N0QZ9ZKUCTCQ","either","2","","","","","","","0","0","1","","0.111762886","0.6","0.4","0.8","0.2","0.09925351505","0.111762886","0.2768694491","0.2265565182","","","","","","","","","","","74","J","1","","","223","main_expt"
"131","","bandit","302","737350","0.0-263.0-0.0","92771403","wem/bandit_either","A3N0QZ9ZKUCTCQ","either","2","","","","","","","0","0","1","","0.07842644678","0.6","0.4","0.8","0.2","0.07842644678","0.09652303785","0.2895694018","0.1727872262","","","","","","","","","","","72","H","0","img/none_selected.jpg","","224","main_expt"
"15","","bandit","303","738875","0.0-264.0-0.0","92771403","wem/bandit_either","A3N0QZ9ZKUCTCQ","either","2","","","","","","","0","0","1","","0.05284632075","0.6","0.4","0.8","0.2","0.05284632075","0.09424892582","0.3515154126","0.1580797834","","","","","","","","","","","72","H","0","img/none_selected.jpg","","225","main_expt"
"129","","bandit","304","740523","0.0-265.0-0.0","92771403","wem/bandit_either","A3N0QZ9ZKUCTCQ","either","2","","","","","","","1","0","0","0.3960872924","","0.6","0.4","0.8","0.2","","","","","0.06788221328","0.1094697254","0.3960872924","0.1206031336","","","","","","","75","K","2","","","226","main_expt"
"37","","bandit","305","742078","0.0-266.0-0.0","92771403","wem/bandit_either","A3N0QZ9ZKUCTCQ","either","2","","","","","","","0","0","1","0.3301105445","","0.6","0.4","0.8","0.2","","","","","0.04226868229","0.1055794081","0.3301105445","0.1218099769","","","","","","","75","K","2","","","227","main_expt"
"137","","bandit","306","743730","0.0-267.0-0.0","92771403","wem/bandit_either","A3N0QZ9ZKUCTCQ","either","2","","","","","","","0","0","1","0.3679650562","","0.6","0.4","0.8","0.2","","","","","0.06174471126","0.1210232629","0.3679650562","0.08458740206","","","","","","","75","K","2","","","228","main_expt"
"193","","bandit","307","745441","0.0-268.0-0.0","92771403","wem/bandit_either","A3N0QZ9ZKUCTCQ","either","2","","","","","","","0","0","1","0.06311990622","","0.6","0.4","0.8","0.2","","","","","0.06122033102","0.1249199002","0.3413725311","0.06311990622","","","","","","","76","L","3","","","229","main_expt"
"1185","","bandit","308","748150","0.0-269.0-0.0","92771403","wem/bandit_either","A3N0QZ9ZKUCTCQ","either","2","","","","","","","0","0","1","","0.09369367087","0.6","0.4","0.8","0.2","0.09369367087","0.1423167866","0.3652503211","0.04674316758","","","","","","","","","","","72","H","0","img/none_selected.jpg","","230","main_expt"
"83","","bandit","309","749751","0.0-270.0-0.0","92771403","wem/bandit_either","A3N0QZ9ZKUCTCQ","either","2","","","","","","","0","0","1","0.1378364932","","0.6","0.4","0.8","0.2","","","","","0.1378364932","0.1441411413","0.3774172636","0.06697327866","","","","","","","72","H","0","img/none_selected.jpg","","231","main_expt"
"2","","bandit","310","751274","0.0-271.0-0.0","92771403","wem/bandit_either","A3N0QZ9ZKUCTCQ","either","2","","","","","","","0","0","1","","0.1132866493","0.6","0.4","0.8","0.2","0.1138343256","0.1132866493","0.3507397895","0.08617656909","","","","","","","","","","","74","J","1","","","232","main_expt"
"309","","bandit","311","753104","0.0-272.0-0.0","92771403","wem/bandit_either","A3N0QZ9ZKUCTCQ","either","2","","","","","","","0","0","1","","0.08388286328","0.6","0.4","0.8","0.2","0.1602674987","0.07587191469","0.3228668676","0.08388286328","","","","","","","","","","","76","L","3","","","233","main_expt"
"271","","bandit","312","754892","0.0-273.0-0.0","92771403","wem/bandit_either","A3N0QZ9ZKUCTCQ","either","2","","","","","","","0","0","1","0.3219168209","","0.6","0.4","0.8","0.2","","","","","0.1399599793","0.08330376307","0.3219168209","0.08303297831","","","","","","","75","K","2","","","234","main_expt"
"38","","bandit","313","756450","0.0-274.0-0.0","92771403","wem/bandit_either","A3N0QZ9ZKUCTCQ","either","2","","","","","","","0","0","1","0.07960395758","","0.6","0.4","0.8","0.2","","","","","0.1577883936","0.07960395758","0.2907257894","0.08228619446","","","","","","","74","J","1","","","235","main_expt"
"127","","bandit","314","758098","0.0-275.0-0.0","92771403","wem/bandit_either","A3N0QZ9ZKUCTCQ","either","2","","","","","","","0","0","1","0.1206463377","","0.6","0.4","0.8","0.2","","","","","0.1206463377","0.06703487678","0.2879125653","0.07856112713","","","","","","","72","H","0","img/none_selected.jpg","","236","main_expt"
"21","","bandit","315","759639","0.0-276.0-0.0","92771403","wem/bandit_either","A3N0QZ9ZKUCTCQ","either","2","","","","","","","0","0","1","0.07970276757","","0.6","0.4","0.8","0.2","","","","","0.1224948263","0.07970276757","0.3055933028","0.09394336493","","","","","","","74","J","1","","","237","main_expt"
"132","","bandit","316","761304","0.0-277.0-0.0","92771403","wem/bandit_either","A3N0QZ9ZKUCTCQ","either","2","","","","","","","0","0","1","","0.3197806133","0.6","0.4","0.8","0.2","0.1163601633","0.05589422377","0.3197806133","0.1044036833","","","","","","","","","","","75","K","2","","","238","main_expt"
"81","","bandit","317","762906","0.0-278.0-0.0","92771403","wem/bandit_either","A3N0QZ9ZKUCTCQ","either","2","","","","","","","0","0","1","0.1010835707","","0.6","0.4","0.8","0.2","","","","","0.09302868556","0.07304711058","0.2699970134","0.1010835707","","","","","","","76","L","3","","","239","main_expt"
"479","","bandit","318","764905","0.0-279.0-0.0","92771403","wem/bandit_either","A3N0QZ9ZKUCTCQ","either","2","","","","","","","0","0","1","0.2594796501","","0.6","0.4","0.8","0.2","","","","","0.1142909623","0.05193691484","0.2594796501","0.1196592177","","","","","","","75","K","2","","","240","main_expt"
"117","","bandit","319","766541","0.0-280.0-0.0","92771403","wem/bandit_either","A3N0QZ9ZKUCTCQ","either","2","","","","","","","0","0","1","","0.1694552561","0.6","0.4","0.8","0.2","0.1694552561","0.06844812817","0.252227353","0.127320561","","","","","","","","","","","72","H","0","img/none_selected.jpg","","241","main_expt"
"22","","bandit","320","768083","0.0-281.0-0.0","92771403","wem/bandit_either","A3N0QZ9ZKUCTCQ","either","2","","","","","","","0","0","1","0.07869989264","","0.6","0.4","0.8","0.2","","","","","0.1828807391","0.07869989264","0.301231011","0.10641745","","","","","","","74","J","1","","","242","main_expt"
"2","","bandit","321","769606","0.0-282.0-0.0","92771403","wem/bandit_either","A3N0QZ9ZKUCTCQ","either","2","","","","","","","0","0","1","0.2903867436","","0.6","0.4","0.8","0.2","","","","","0.1236361748","0.06084245892","0.2903867436","0.131785075","","","","","","","75","K","2","","","243","main_expt"
"101","","bandit","322","771226","0.0-283.0-0.0","92771403","wem/bandit_either","A3N0QZ9ZKUCTCQ","either","2","","","","","","","0","0","1","","0.2659167858","0.6","0.4","0.8","0.2","0.1131162958","0.04982625113","0.2659167858","0.1150513838","","","","","","","","","","","75","K","2","","","244","main_expt"
"118","","bandit","323","772862","0.0-284.0-0.0","92771403","wem/bandit_either","A3N0QZ9ZKUCTCQ","either","2","","","","","","","0","0","1","0.1651966394","","0.6","0.4","0.8","0.2","","","","","0.08611006768","0.04708965441","0.254087564","0.1651966394","","","","","","","76","L","3","","","245","main_expt"
"3","","bandit","324","774386","0.0-285.0-0.0","92771403","wem/bandit_either","A3N0QZ9ZKUCTCQ","either","2","","","","","","","0","0","1","","0.1555796254","0.6","0.4","0.8","0.2","0.1123216353","0.0280961865","0.2551799517","0.1555796254","","","","","","","","","","","76","L","3","","","246","main_expt"
"638","","bandit","325","776544","0.0-286.0-0.0","92771403","wem/bandit_either","A3N0QZ9ZKUCTCQ","either","2","","","","","","","0","0","1","","0.04499456282","0.6","0.4","0.8","0.2","0.09475638668","0.04499456282","0.2629335529","0.1703980626","","","","","","","","","","","74","J","1","","","247","main_expt"
"204","","bandit","326","778270","0.0-287.0-0.0","92771403","wem/bandit_either","A3N0QZ9ZKUCTCQ","either","2","","","","","","","0","0","1","","0.08309477664","0.6","0.4","0.8","0.2","0.08309477664","0.03910304398","0.2393496224","0.1502680902","","","","","","","","","","","72","H","0","img/none_selected.jpg","","248","main_expt"
"1553","","bandit","327","781332","0.0-288.0-0.0","92771403","wem/bandit_either","A3N0QZ9ZKUCTCQ","either","2","","","","","","","0","0","1","","0.02658952892","0.6","0.4","0.8","0.2","0.09118761135","0.02658952892","0.2612635012","0.1515252412","","","","","","","","","","","74","J","1","","","249","main_expt"
"112","","bandit","328","782964","0.0-289.0-0.0","92771403","wem/bandit_either","A3N0QZ9ZKUCTCQ","either","2","","","","","","","0","0","1","0.2729339083","","0.6","0.4","0.8","0.2","","","","","0.1173751119","0.02715120894","0.2729339083","0.164479444","","","","","","","75","K","2","","","250","main_expt"
"82","","bandit","329","784566","0.0-290.0-0.0","92771403","wem/bandit_either","A3N0QZ9ZKUCTCQ","either","2","","","","","","","0","0","1","","0.1036013708","0.6","0.4","0.8","0.2","0.10167128","0.02468122838","0.2394547858","0.1036013708","","","","","","","","","","","76","L","3","","","251","main_expt"
"124","","bandit","330","786212","0.0-291.0-0.0","92771403","wem/bandit_either","A3N0QZ9ZKUCTCQ","either","2","","","","","","","0","1","0","","0.1206404305","0.6","0.4","0.8","0.2","0.1297907712","0.01934001153","0.1971678968","0.1206404305","","","","","","","","","","","76","L","3","","","252","main_expt"
"361","","bandit","331","788093","0.0-292.0-0.0","92771403","wem/bandit_either","A3N0QZ9ZKUCTCQ","either","2","","","","","","","0","0","1","","0.144481093","0.6","0.4","0.8","0.2","0.08555329314","0.01552303999","0.2194815642","0.144481093","","","","","","","","","","","76","L","3","","","253","main_expt"
"209","","bandit","332","789823","0.0-293.0-0.0","92771403","wem/bandit_either","A3N0QZ9ZKUCTCQ","either","2","","","","","","","0","0","1","","0.1495858552","0.6","0.4","0.8","0.2","0.05661737176","0.02294208798","0.2365987297","0.1495858552","","","","","","","","","","","76","L","3","","","254","main_expt"
