"rt","responses","trial_type","trial_index","time_elapsed","internal_node_id","subjID","study","MID","cond","drift","key_press","expt_phase","target","like","value","connected","gems","bombs","no_reward","GemPrChosen","BombPrChosen","GainOverPainPr_0","GainOverPainPr_1","GainOverPainPr_2","GainOverPainPr_3","LosePr_0","LosePr_1","LosePr_2","LosePr_3","WinPr_0","WinPr_1","WinPr_2","WinPr_3","Q0","Q1","Q2","gender","age","ethnicity","respCharCode","respKey","respChoiceNum","respChoice","practice","trial_counter","trial_label"
"3074","{""Q0"":""A3O5EU9QQV2OS1""}","survey-text","0","3085","0.0-0.0","92997302","wem/bandit_either","A3O5EU9QQV2OS1","either","4","","","","","","","","","","","","","","","","","","","","","","","","","","","","","","","","","","","",""
"7919","","text","1","12016","0.0-1.0","92997302","wem/bandit_either","A3O5EU9QQV2OS1","either","4","32","","","","","","","","","","","","","","","","","","","","","","","","","","","","","","","","","","",""
"8171","","text","2","20190","0.0-2.0","92997302","wem/bandit_either","A3O5EU9QQV2OS1","either","4","32","","","","","","","","","","","","","","","","","","","","","","","","","","","","","","","","","","",""
"18063","","text","3","38256","0.0-3.0","92997302","wem/bandit_either","A3O5EU9QQV2OS1","either","4","32","","","","","","","","","","","","","","","","","","","","","","","","","","","","","","","","","","",""
"8563","","text","4","46822","0.0-4.0","92997302","wem/bandit_either","A3O5EU9QQV2OS1","either","4","32","","","","","","","","","","","","","","","","","","","","","","","","","","","","","","","","","","",""
"9321","","text","5","56144","0.0-5.0","92997302","wem/bandit_either","A3O5EU9QQV2OS1","either","4","32","","","","","","","","","","","","","","","","","","","","","","","","","","","","","","","","","","",""
"6316","","text","6","62462","0.0-6.0","92997302","wem/bandit_either","A3O5EU9QQV2OS1","either","4","32","","","","","","","","","","","","","","","","","","","","","","","","","","","","","","","","","","",""
"4224","","text","7","66687","0.0-7.0","92997302","wem/bandit_either","A3O5EU9QQV2OS1","either","4","32","","","","","","","","","","","","","","","","","","","","","","","","","","","","","","","","","","",""
"17766","","identification","8","84480","0.0-8.0-0.0","92997302","wem/bandit_either","A3O5EU9QQV2OS1","either","4","","identification_pre","the village of Zur","","","","","","","","","","","","","","","","","","","","","","","","","","","","","","","","",""
"10410","","identification","9","95915","0.0-8.0-1.0","92997302","wem/bandit_either","A3O5EU9QQV2OS1","either","4","","identification_pre","the village of Nyx","","","","","","","","","","","","","","","","","","","","","","","","","","","","","","","","",""
"5035","","text","10","101954","0.0-9.0","92997302","wem/bandit_either","A3O5EU9QQV2OS1","either","4","32","","","","","","","","","","","","","","","","","","","","","","","","","","","","","","","","","","",""
"3244","","text","11","105200","0.0-10.0","92997302","wem/bandit_either","A3O5EU9QQV2OS1","either","4","32","","","","","","","","","","","","","","","","","","","","","","","","","","","","","","","","","","",""
"5774","","text","12","110976","0.0-11.0","92997302","wem/bandit_either","A3O5EU9QQV2OS1","either","4","32","","","","","","","","","","","","","","","","","","","","","","","","","","","","","","","","","","",""
"5383","","text","13","116362","0.0-12.0","92997302","wem/bandit_either","A3O5EU9QQV2OS1","either","4","32","","","","","","","","","","","","","","","","","","","","","","","","","","","","","","","","","","",""
"2433","","bandit","14","120313","0.0-13.0-0.0","92997302","wem/bandit_either","A3O5EU9QQV2OS1","either","4","","","","","","","0","0","1","0","0","","","","","0","","","","0","","","","","","","","","","74","J","0","img/none_selected_demo.jpg","true","0",""
"995","","bandit","15","122820","0.0-14.0-0.0","92997302","wem/bandit_either","A3O5EU9QQV2OS1","either","4","","","","","","","0","0","1","0","0","","","","","0","","","","0","","","","","","","","","","75","K","0","img/none_selected_demo.jpg","true","0",""
"10066","","text","16","132889","0.0-15.0","92997302","wem/bandit_either","A3O5EU9QQV2OS1","either","4","32","","","","","","","","","","","","","","","","","","","","","","","","","","","","","","","","","","",""
"16631","","text","17","149523","0.0-16.0","92997302","wem/bandit_either","A3O5EU9QQV2OS1","either","4","32","","","","","","","","","","","","","","","","","","","","","","","","","","","","","","","","","","",""
"3652","","text","18","153178","0.0-17.0","92997302","wem/bandit_either","A3O5EU9QQV2OS1","either","4","32","","","","","","","","","","","","","","","","","","","","","","","","","","","","","","","","","","",""
"4605","","text","19","157785","0.0-18.0","92997302","wem/bandit_either","A3O5EU9QQV2OS1","either","4","32","","","","","","","","","","","","","","","","","","","","","","","","","","","","","","","","","","",""
"876","","bandit","20","160176","0.0-19.0-0.0","92997302","wem/bandit_either","A3O5EU9QQV2OS1","either","4","","","","","","","0","0","1","","0.8","0.5","0.5","","","0.8","0.2","","","","","","","","","","","","","74","J","0","img/none_selected_demo.jpg","true","0","80_20_practice"
"558","","bandit","21","162249","0.0-19.0-1.0","92997302","wem/bandit_either","A3O5EU9QQV2OS1","either","4","","","","","","","1","0","0","0.8","","0.5","0.5","","","","","","","0.8","0.2","","","","","","","","","74","J","0","img/none_selected_demo.jpg","true","0","80_20_practice"
"524","","bandit","22","164285","0.0-19.0-2.0","92997302","wem/bandit_either","A3O5EU9QQV2OS1","either","4","","","","","","","0","0","1","","0.8","0.5","0.5","","","0.8","0.2","","","","","","","","","","","","","74","J","0","img/none_selected_demo.jpg","true","0","80_20_practice"
"296","","bandit","23","166096","0.0-19.0-3.0","92997302","wem/bandit_either","A3O5EU9QQV2OS1","either","4","","","","","","","1","0","0","0.8","","0.5","0.5","","","","","","","0.8","0.2","","","","","","","","","74","J","0","img/none_selected_demo.jpg","true","0","80_20_practice"
"341","","bandit","24","167952","0.0-19.0-4.0","92997302","wem/bandit_either","A3O5EU9QQV2OS1","either","4","","","","","","","0","0","1","","0.8","0.5","0.5","","","0.8","0.2","","","","","","","","","","","","","74","J","0","img/none_selected_demo.jpg","true","0","80_20_practice"
"150","","bandit","25","169618","0.0-19.0-5.0","92997302","wem/bandit_either","A3O5EU9QQV2OS1","either","4","","","","","","","1","0","0","0.8","","0.5","0.5","","","","","","","0.8","0.2","","","","","","","","","74","J","0","img/none_selected_demo.jpg","true","0","80_20_practice"
"411","","bandit","26","171545","0.0-19.0-6.0","92997302","wem/bandit_either","A3O5EU9QQV2OS1","either","4","","","","","","","0","0","1","","0.8","0.5","0.5","","","0.8","0.2","","","","","","","","","","","","","74","J","0","img/none_selected_demo.jpg","true","0","80_20_practice"
"397","","bandit","27","173458","0.0-19.0-7.0","92997302","wem/bandit_either","A3O5EU9QQV2OS1","either","4","","","","","","","0","1","0","","0.8","0.5","0.5","","","0.8","0.2","","","","","","","","","","","","","74","J","0","img/none_selected_demo.jpg","true","0","80_20_practice"
"1235","","bandit","28","176204","0.0-19.0-8.0","92997302","wem/bandit_either","A3O5EU9QQV2OS1","either","4","","","","","","","0","1","0","","0.2","0.5","0.5","","","0.8","0.2","","","","","","","","","","","","","75","K","1","","true","0","80_20_practice"
"416","","bandit","29","178134","0.0-19.0-9.0","92997302","wem/bandit_either","A3O5EU9QQV2OS1","either","4","","","","","","","0","1","0","","0.8","0.5","0.5","","","0.8","0.2","","","","","","","","","","","","","74","J","0","img/none_selected_demo.jpg","true","0","80_20_practice"
"696","","bandit","30","180344","0.0-19.0-10.0","92997302","wem/bandit_either","A3O5EU9QQV2OS1","either","4","","","","","","","0","1","0","","0.8","0.5","0.5","","","0.8","0.2","","","","","","","","","","","","","74","J","0","img/none_selected_demo.jpg","true","0","80_20_practice"
"462","","bandit","31","182318","0.0-19.0-11.0","92997302","wem/bandit_either","A3O5EU9QQV2OS1","either","4","","","","","","","0","0","1","0.2","","0.5","0.5","","","","","","","0.8","0.2","","","","","","","","","75","K","1","","true","0","80_20_practice"
"273","","bandit","32","184105","0.0-19.0-12.0","92997302","wem/bandit_either","A3O5EU9QQV2OS1","either","4","","","","","","","1","0","0","0.2","","0.5","0.5","","","","","","","0.8","0.2","","","","","","","","","75","K","1","","true","0","80_20_practice"
"308","","bandit","33","185929","0.0-19.0-13.0","92997302","wem/bandit_either","A3O5EU9QQV2OS1","either","4","","","","","","","0","0","1","","0.2","0.5","0.5","","","0.8","0.2","","","","","","","","","","","","","75","K","1","","true","0","80_20_practice"
"92","","bandit","34","187538","0.0-19.0-14.0","92997302","wem/bandit_either","A3O5EU9QQV2OS1","either","4","","","","","","","0","0","1","","0.2","0.5","0.5","","","0.8","0.2","","","","","","","","","","","","","75","K","1","","true","0","80_20_practice"
"235","","bandit","35","189290","0.0-19.0-15.0","92997302","wem/bandit_either","A3O5EU9QQV2OS1","either","4","","","","","","","0","0","1","","0.2","0.5","0.5","","","0.8","0.2","","","","","","","","","","","","","75","K","1","","true","0","80_20_practice"
"195","","bandit","36","191002","0.0-19.0-16.0","92997302","wem/bandit_either","A3O5EU9QQV2OS1","either","4","","","","","","","1","0","0","0.2","","0.5","0.5","","","","","","","0.8","0.2","","","","","","","","","75","K","1","","true","0","80_20_practice"
"226","","bandit","37","192745","0.0-19.0-17.0","92997302","wem/bandit_either","A3O5EU9QQV2OS1","either","4","","","","","","","0","0","1","0.2","","0.5","0.5","","","","","","","0.8","0.2","","","","","","","","","75","K","1","","true","0","80_20_practice"
"278","","bandit","38","194537","0.0-19.0-18.0","92997302","wem/bandit_either","A3O5EU9QQV2OS1","either","4","","","","","","","0","0","1","0.2","","0.5","0.5","","","","","","","0.8","0.2","","","","","","","","","75","K","1","","true","0","80_20_practice"
"404","","bandit","39","196452","0.0-19.0-19.0","92997302","wem/bandit_either","A3O5EU9QQV2OS1","either","4","","","","","","","0","0","1","","0.2","0.5","0.5","","","0.8","0.2","","","","","","","","","","","","","75","K","1","","true","0","80_20_practice"
"3420","","text","40","199875","0.0-20.0","92997302","wem/bandit_either","A3O5EU9QQV2OS1","either","4","32","","","","","","","","","","","","","","","","","","","","","","","","","","","","","","","","","","",""
"1892","","bandit","41","203281","0.0-21.0-0.0","92997302","wem/bandit_either","A3O5EU9QQV2OS1","either","4","","","","","","","0","1","0","0","1","","","","","0","1","","","1","0","","","","","","","","","75","K","1","","true","0",""
"88","","text","42","203375","0.0-22.0","92997302","wem/bandit_either","A3O5EU9QQV2OS1","either","4","74","","","","","","","","","","","","","","","","","","","","","","","","","","","","","","","","","","",""
"4617","","text","43","207995","0.0-23.0","92997302","wem/bandit_either","A3O5EU9QQV2OS1","either","4","32","","","","","","","","","","","","","","","","","","","","","","","","","","","","","","","","","","",""
"3101","","text","44","211099","0.0-24.0","92997302","wem/bandit_either","A3O5EU9QQV2OS1","either","4","32","","","","","","","","","","","","","","","","","","","","","","","","","","","","","","","","","","",""
"3462","","text","45","214565","0.0-25.0","92997302","wem/bandit_either","A3O5EU9QQV2OS1","either","4","32","","","","","","","","","","","","","","","","","","","","","","","","","","","","","","","","","","",""
"4515","","text","46","219082","0.0-26.0","92997302","wem/bandit_either","A3O5EU9QQV2OS1","either","4","32","","","","","","","","","","","","","","","","","","","","","","","","","","","","","","","","","","",""
"3670","","text","47","222755","0.0-27.0","92997302","wem/bandit_either","A3O5EU9QQV2OS1","either","4","32","","","","","","","","","","","","","","","","","","","","","","","","","","","","","","","","","","",""
"4360","","text","48","227117","0.0-28.0","92997302","wem/bandit_either","A3O5EU9QQV2OS1","either","4","32","","","","","","","","","","","","","","","","","","","","","","","","","","","","","","","","","","",""
"2108","","text","49","229228","0.0-29.0","92997302","wem/bandit_either","A3O5EU9QQV2OS1","either","4","32","","","","","","","","","","","","","","","","","","","","","","","","","","","","","","","","","","",""
"1646","","text","50","230876","0.0-30.0","92997302","wem/bandit_either","A3O5EU9QQV2OS1","either","4","32","","","","","","","","","","","","","","","","","","","","","","","","","","","","","","","","","","",""
"1749","","text","51","232628","0.0-31.0","92997302","wem/bandit_either","A3O5EU9QQV2OS1","either","4","32","","","","","","","","","","","","","","","","","","","","","","","","","","","","","","","","","","",""
"2589","","text","52","235220","0.0-32.0","92997302","wem/bandit_either","A3O5EU9QQV2OS1","either","4","32","","","","","","","","","","","","","","","","","","","","","","","","","","","","","","","","","","",""
"1194","","bandit","53","237931","0.0-33.0-0.0","92997302","wem/bandit_either","A3O5EU9QQV2OS1","either","4","","","","","","","0","1","0","","0.8","0.5","0.5","0.5","0.5","0.8","0.2","0.6","0.2","","","","","","","","","","","72","H","0","img/none_selected.jpg","true","0","full_practice"
"205","","bandit","54","239649","0.0-33.0-1.0","92997302","wem/bandit_either","A3O5EU9QQV2OS1","either","4","","","","","","","0","0","1","0.2","","0.5","0.5","0.5","0.5","","","","","0.8","0.2","0.6","0.2","","","","","","","74","J","1","","true","0","full_practice"
"262","","bandit","55","241425","0.0-33.0-2.0","92997302","wem/bandit_either","A3O5EU9QQV2OS1","either","4","","","","","","","0","0","1","0.6","","0.5","0.5","0.5","0.5","","","","","0.8","0.2","0.6","0.2","","","","","","","75","K","2","","true","0","full_practice"
"317","","bandit","56","243254","0.0-33.0-3.0","92997302","wem/bandit_either","A3O5EU9QQV2OS1","either","4","","","","","","","0","1","0","","0.2","0.5","0.5","0.5","0.5","0.8","0.2","0.6","0.2","","","","","","","","","","","76","L","3","","true","0","full_practice"
"297","","bandit","57","245065","0.0-33.0-4.0","92997302","wem/bandit_either","A3O5EU9QQV2OS1","either","4","","","","","","","1","0","0","0.6","","0.5","0.5","0.5","0.5","","","","","0.8","0.2","0.6","0.2","","","","","","","75","K","2","","true","0","full_practice"
"270","","bandit","58","246848","0.0-33.0-5.0","92997302","wem/bandit_either","A3O5EU9QQV2OS1","either","4","","","","","","","1","0","0","0.6","","0.5","0.5","0.5","0.5","","","","","0.8","0.2","0.6","0.2","","","","","","","75","K","2","","true","0","full_practice"
"312","","bandit","59","248670","0.0-33.0-6.0","92997302","wem/bandit_either","A3O5EU9QQV2OS1","either","4","","","","","","","1","0","0","0.6","","0.5","0.5","0.5","0.5","","","","","0.8","0.2","0.6","0.2","","","","","","","75","K","2","","true","0","full_practice"
"297","","bandit","60","250481","0.0-33.0-7.0","92997302","wem/bandit_either","A3O5EU9QQV2OS1","either","4","","","","","","","0","0","1","0.6","","0.5","0.5","0.5","0.5","","","","","0.8","0.2","0.6","0.2","","","","","","","75","K","2","","true","0","full_practice"
"278","","bandit","61","252275","0.0-33.0-8.0","92997302","wem/bandit_either","A3O5EU9QQV2OS1","either","4","","","","","","","0","1","0","","0.6","0.5","0.5","0.5","0.5","0.8","0.2","0.6","0.2","","","","","","","","","","","75","K","2","","true","0","full_practice"
"339","","bandit","62","254127","0.0-33.0-9.0","92997302","wem/bandit_either","A3O5EU9QQV2OS1","either","4","","","","","","","1","0","0","0.6","","0.5","0.5","0.5","0.5","","","","","0.8","0.2","0.6","0.2","","","","","","","75","K","2","","true","0","full_practice"
"376","","bandit","63","256020","0.0-33.0-10.0","92997302","wem/bandit_either","A3O5EU9QQV2OS1","either","4","","","","","","","1","0","0","0.6","","0.5","0.5","0.5","0.5","","","","","0.8","0.2","0.6","0.2","","","","","","","75","K","2","","true","0","full_practice"
"283","","bandit","64","257821","0.0-33.0-11.0","92997302","wem/bandit_either","A3O5EU9QQV2OS1","either","4","","","","","","","0","1","0","","0.6","0.5","0.5","0.5","0.5","0.8","0.2","0.6","0.2","","","","","","","","","","","75","K","2","","true","0","full_practice"
"499","","bandit","65","259834","0.0-33.0-12.0","92997302","wem/bandit_either","A3O5EU9QQV2OS1","either","4","","","","","","","0","0","1","","0.2","0.5","0.5","0.5","0.5","0.8","0.2","0.6","0.2","","","","","","","","","","","74","J","1","","true","0","full_practice"
"191","","bandit","66","261540","0.0-33.0-13.0","92997302","wem/bandit_either","A3O5EU9QQV2OS1","either","4","","","","","","","0","0","1","0.2","","0.5","0.5","0.5","0.5","","","","","0.8","0.2","0.6","0.2","","","","","","","74","J","1","","true","0","full_practice"
"370","","bandit","67","263427","0.0-33.0-14.0","92997302","wem/bandit_either","A3O5EU9QQV2OS1","either","4","","","","","","","0","0","1","0.2","","0.5","0.5","0.5","0.5","","","","","0.8","0.2","0.6","0.2","","","","","","","74","J","1","","true","0","full_practice"
"277","","bandit","68","265221","0.0-33.0-15.0","92997302","wem/bandit_either","A3O5EU9QQV2OS1","either","4","","","","","","","0","0","1","","0.2","0.5","0.5","0.5","0.5","0.8","0.2","0.6","0.2","","","","","","","","","","","74","J","1","","true","0","full_practice"
"139","","bandit","69","266875","0.0-33.0-16.0","92997302","wem/bandit_either","A3O5EU9QQV2OS1","either","4","","","","","","","0","0","1","0.2","","0.5","0.5","0.5","0.5","","","","","0.8","0.2","0.6","0.2","","","","","","","74","J","1","","true","0","full_practice"
"292","","bandit","70","268680","0.0-33.0-17.0","92997302","wem/bandit_either","A3O5EU9QQV2OS1","either","4","","","","","","","0","0","1","","0.2","0.5","0.5","0.5","0.5","0.8","0.2","0.6","0.2","","","","","","","","","","","74","J","1","","true","0","full_practice"
"87","","bandit","71","270283","0.0-33.0-18.0","92997302","wem/bandit_either","A3O5EU9QQV2OS1","either","4","","","","","","","0","0","1","0.2","","0.5","0.5","0.5","0.5","","","","","0.8","0.2","0.6","0.2","","","","","","","74","J","1","","true","0","full_practice"
"189","","bandit","72","271984","0.0-33.0-19.0","92997302","wem/bandit_either","A3O5EU9QQV2OS1","either","4","","","","","","","1","0","0","0.6","","0.5","0.5","0.5","0.5","","","","","0.8","0.2","0.6","0.2","","","","","","","75","K","2","","true","0","full_practice"
"4573","","text","73","276565","0.0-34.0","92997302","wem/bandit_either","A3O5EU9QQV2OS1","either","4","32","","","","","","","","","","","","","","","","","","","","","","","","","","","","","","","","","","",""
"14440","","text","74","292015","0.0-35.0","92997302","wem/bandit_either","A3O5EU9QQV2OS1","either","4","32","","","","","","","","","","","","","","","","","","","","","","","","","","","","","","","","","","",""
"9916","","text","75","301934","0.0-36.0","92997302","wem/bandit_either","A3O5EU9QQV2OS1","either","4","32","","","","","","","","","","","","","","","","","","","","","","","","","","","","","","","","","","",""
"1886","","text","76","303823","0.0-37.0","92997302","wem/bandit_either","A3O5EU9QQV2OS1","either","4","32","","","","","","","","","","","","","","","","","","","","","","","","","","","","","","","","","","",""
"4147","","text","77","307974","0.0-38.0","92997302","wem/bandit_either","A3O5EU9QQV2OS1","either","4","32","","","","","","","","","","","","","","","","","","","","","","","","","","","","","","","","","","",""
"3124","","text","78","311102","0.0-39.0","92997302","wem/bandit_either","A3O5EU9QQV2OS1","either","4","32","","","","","","","","","","","","","","","","","","","","","","","","","","","","","","","","","","",""
"1953","","bandit","79","314571","0.0-40.0-0.0","92997302","wem/bandit_either","A3O5EU9QQV2OS1","either","4","","","","","","","0","0","1","","0.2771551185","0.8","0.2","0.4","0.6","0.3894728165","0.2771551185","0.3525715257","0.3242650943","","","","","","","","","","","74","J","1","","","1","main_expt"
"829","","bandit","80","316916","0.0-41.0-0.0","92997302","wem/bandit_either","A3O5EU9QQV2OS1","either","4","","","","","","","0","1","0","","0.390153736","0.8","0.2","0.4","0.6","0.363660736","0.3030893157","0.390153736","0.3296228245","","","","","","","","","","","75","K","2","","","2","main_expt"
"380","","bandit","81","318808","0.0-42.0-0.0","92997302","wem/bandit_either","A3O5EU9QQV2OS1","either","4","","","","","","","0","0","1","","0.3842171554","0.8","0.2","0.4","0.6","0.3842171554","0.3211059343","0.3725447061","0.3102780753","","","","","","","","","","","72","H","0","img/none_selected.jpg","","3","main_expt"
"272","","bandit","82","320596","0.0-43.0-0.0","92997302","wem/bandit_either","A3O5EU9QQV2OS1","either","4","","","","","","","1","0","0","0.3831963053","","0.8","0.2","0.4","0.6","","","","","0.3831963053","0.2804386453","0.3431524481","0.2749892112","","","","","","","72","H","0","img/none_selected.jpg","","4","main_expt"
"276","","bandit","83","322390","0.0-44.0-0.0","92997302","wem/bandit_either","A3O5EU9QQV2OS1","either","4","","","","","","","0","0","1","0.4056596471","","0.8","0.2","0.4","0.6","","","","","0.4056596471","0.2609559086","0.3448007793","0.3037824898","","","","","","","72","H","0","img/none_selected.jpg","","5","main_expt"
"203","","bandit","84","324106","0.0-45.0-0.0","92997302","wem/bandit_either","A3O5EU9QQV2OS1","either","4","","","","","","","0","0","1","0.4409946319","","0.8","0.2","0.4","0.6","","","","","0.4409946319","0.2259287768","0.3980888019","0.3217417103","","","","","","","72","H","0","img/none_selected.jpg","","6","main_expt"
"272","","bandit","85","325893","0.0-46.0-0.0","92997302","wem/bandit_either","A3O5EU9QQV2OS1","either","4","","","","","","","0","0","1","0.3821747998","","0.8","0.2","0.4","0.6","","","","","0.3821747998","0.2433618728","0.3693121862","0.3018715163","","","","","","","72","H","0","img/none_selected.jpg","","7","main_expt"
"188","","bandit","86","327598","0.0-47.0-0.0","92997302","wem/bandit_either","A3O5EU9QQV2OS1","either","4","","","","","","","1","0","0","0.3841844813","","0.8","0.2","0.4","0.6","","","","","0.3841844813","0.2025356769","0.2933697555","0.3643645816","","","","","","","72","H","0","img/none_selected.jpg","","8","main_expt"
"242","","bandit","87","329356","0.0-48.0-0.0","92997302","wem/bandit_either","A3O5EU9QQV2OS1","either","4","","","","","","","0","0","1","0.3412237964","","0.8","0.2","0.4","0.6","","","","","0.3412237964","0.1441028094","0.3036212831","0.3418610374","","","","","","","72","H","0","img/none_selected.jpg","","9","main_expt"
"293","","bandit","88","331162","0.0-49.0-0.0","92997302","wem/bandit_either","A3O5EU9QQV2OS1","either","4","","","","","","","0","0","1","0.3256420777","","0.8","0.2","0.4","0.6","","","","","0.3256420777","0.1736005971","0.308020301","0.3190157878","","","","","","","72","H","0","img/none_selected.jpg","","10","main_expt"
"103","","bandit","89","332781","0.0-50.0-0.0","92997302","wem/bandit_either","A3O5EU9QQV2OS1","either","4","","","","","","","1","0","0","0.3514007431","","0.8","0.2","0.4","0.6","","","","","0.3514007431","0.1836365694","0.3065973113","0.2998731478","","","","","","","72","H","0","img/none_selected.jpg","","11","main_expt"
"235","","bandit","90","334529","0.0-51.0-0.0","92997302","wem/bandit_either","A3O5EU9QQV2OS1","either","4","","","","","","","0","0","1","0.3722032088","","0.8","0.2","0.4","0.6","","","","","0.3722032088","0.2143869662","0.3271859636","0.2942822571","","","","","","","72","H","0","img/none_selected.jpg","","12","main_expt"
"242","","bandit","91","336282","0.0-52.0-0.0","92997302","wem/bandit_either","A3O5EU9QQV2OS1","either","4","","","","","","","0","1","0","","0.3681707299","0.8","0.2","0.4","0.6","0.3681707299","0.1637139448","0.2761076709","0.3009212619","","","","","","","","","","","72","H","0","img/none_selected.jpg","","13","main_expt"
"480","","bandit","92","338272","0.0-53.0-0.0","92997302","wem/bandit_either","A3O5EU9QQV2OS1","either","4","","","","","","","0","0","1","0.2311164494","","0.8","0.2","0.4","0.6","","","","","0.3528222564","0.1488535162","0.2311164494","0.3227424667","","","","","","","75","K","2","","","14","main_expt"
"409","","bandit","93","340195","0.0-54.0-0.0","92997302","wem/bandit_either","A3O5EU9QQV2OS1","either","4","","","","","","","0","0","1","","0.3547546862","0.8","0.2","0.4","0.6","0.3738838661","0.1332411271","0.2905977425","0.3547546862","","","","","","","","","","","76","L","3","","","15","main_expt"
"262","","bandit","94","341971","0.0-55.0-0.0","92997302","wem/bandit_either","A3O5EU9QQV2OS1","either","4","","","","","","","0","0","1","","0.3241157583","0.8","0.2","0.4","0.6","0.3385239332","0.09882415698","0.2924554969","0.3241157583","","","","","","","","","","","76","L","3","","","16","main_expt"
"142","","bandit","95","343627","0.0-56.0-0.0","92997302","wem/bandit_either","A3O5EU9QQV2OS1","either","4","","","","","","","0","0","1","","0.3114836302","0.8","0.2","0.4","0.6","0.3111355138","0.1069157009","0.3114836302","0.3363410386","","","","","","","","","","","75","K","2","","","17","main_expt"
"117","","bandit","96","345262","0.0-57.0-0.0","92997302","wem/bandit_either","A3O5EU9QQV2OS1","either","4","","","","","","","1","0","0","0.3880947854","","0.8","0.2","0.4","0.6","","","","","0.3487767647","0.134958137","0.3215333475","0.3880947854","","","","","","","76","L","3","","","18","main_expt"
"291","","bandit","97","347068","0.0-58.0-0.0","92997302","wem/bandit_either","A3O5EU9QQV2OS1","either","4","","","","","","","0","0","1","0.4116912081","","0.8","0.2","0.4","0.6","","","","","0.3010303499","0.1230418706","0.2733398822","0.4116912081","","","","","","","76","L","3","","","19","main_expt"
"149","","bandit","98","348734","0.0-59.0-0.0","92997302","wem/bandit_either","A3O5EU9QQV2OS1","either","4","","","","","","","0","0","1","","0.3973894305","0.8","0.2","0.4","0.6","0.2907203997","0.09866604889","0.2351410235","0.3973894305","","","","","","","","","","","76","L","3","","","20","main_expt"
"242","","bandit","99","350493","0.0-60.0-0.0","92997302","wem/bandit_either","A3O5EU9QQV2OS1","either","4","","","","","","","0","0","1","0.369037109","","0.8","0.2","0.4","0.6","","","","","0.3088108907","0.1021222834","0.2257810982","0.369037109","","","","","","","76","L","3","","","21","main_expt"
"315","","bandit","100","352322","0.0-61.0-0.0","92997302","wem/bandit_either","A3O5EU9QQV2OS1","either","4","","","","","","","0","1","0","","0.4179468344","0.8","0.2","0.4","0.6","0.349202701","0.1234138809","0.2221856846","0.4179468344","","","","","","","","","","","76","L","3","","","22","main_expt"
"223","","bandit","101","354057","0.0-62.0-0.0","92997302","wem/bandit_either","A3O5EU9QQV2OS1","either","4","","","","","","","0","1","0","","0.2127124712","0.8","0.2","0.4","0.6","0.3785068464","0.1030640584","0.2127124712","0.4276062926","","","","","","","","","","","75","K","2","","","23","main_expt"
"263","","bandit","102","355833","0.0-63.0-0.0","92997302","wem/bandit_either","A3O5EU9QQV2OS1","either","4","","","","","","","0","0","1","","0.1261035851","0.8","0.2","0.4","0.6","0.4012919653","0.1261035851","0.1882566648","0.4078122208","","","","","","","","","","","74","J","1","","","24","main_expt"
"186","","bandit","103","357536","0.0-64.0-0.0","92997302","wem/bandit_either","A3O5EU9QQV2OS1","either","4","","","","","","","0","0","1","0.1796705612","","0.8","0.2","0.4","0.6","","","","","0.400899794","0.1796705612","0.1273223766","0.3950411191","","","","","","","74","J","1","","","25","main_expt"
"224","","bandit","104","359276","0.0-65.0-0.0","92997302","wem/bandit_either","A3O5EU9QQV2OS1","either","4","","","","","","","0","1","0","","0.2414651519","0.8","0.2","0.4","0.6","0.4126274585","0.2414651519","0.15747458","0.4322303329","","","","","","","","","","","74","J","1","","","26","main_expt"
"252","","bandit","105","361047","0.0-66.0-0.0","92997302","wem/bandit_either","A3O5EU9QQV2OS1","either","4","","","","","","","0","0","1","","0.2005374927","0.8","0.2","0.4","0.6","0.3992263875","0.2005374927","0.1442684908","0.4353643722","","","","","","","","","","","74","J","1","","","27","main_expt"
"202","","bandit","106","362765","0.0-67.0-0.0","92997302","wem/bandit_either","A3O5EU9QQV2OS1","either","4","","","","","","","0","0","1","","0.3197257227","0.8","0.2","0.4","0.6","0.3846584236","0.3197257227","0.2255404594","0.4464017809","","","","","","","","","","","74","J","1","","","28","main_expt"
"260","","bandit","107","364543","0.0-68.0-0.0","92997302","wem/bandit_either","A3O5EU9QQV2OS1","either","4","","","","","","","0","1","0","","0.3141869899","0.8","0.2","0.4","0.6","0.3561298134","0.3141869899","0.2730951691","0.4417109462","","","","","","","","","","","74","J","1","","","29","main_expt"
"345","","bandit","108","366404","0.0-69.0-0.0","92997302","wem/bandit_either","A3O5EU9QQV2OS1","either","4","","","","","","","0","0","1","","0.3101363315","0.8","0.2","0.4","0.6","0.3101363315","0.3445991012","0.2890412698","0.4065908859","","","","","","","","","","","72","H","0","img/none_selected.jpg","","30","main_expt"
"358","","bandit","109","368280","0.0-70.0-0.0","92997302","wem/bandit_either","A3O5EU9QQV2OS1","either","4","","","","","","","0","0","1","","0.3322219809","0.8","0.2","0.4","0.6","0.3322219809","0.3456655029","0.3309226042","0.3954582793","","","","","","","","","","","72","H","0","img/none_selected.jpg","","31","main_expt"
"163","","bandit","110","369958","0.0-71.0-0.0","92997302","wem/bandit_either","A3O5EU9QQV2OS1","either","4","","","","","","","0","0","1","0.3516269472","","0.8","0.2","0.4","0.6","","","","","0.3516269472","0.3826172224","0.3519301717","0.3716723047","","","","","","","72","H","0","img/none_selected.jpg","","32","main_expt"
"123","","bandit","111","371593","0.0-72.0-0.0","92997302","wem/bandit_either","A3O5EU9QQV2OS1","either","4","","","","","","","0","1","0","","0.3852085553","0.8","0.2","0.4","0.6","0.3852085553","0.3804083149","0.3414953842","0.3799724366","","","","","","","","","","","72","H","0","img/none_selected.jpg","","33","main_expt"
"334","","bandit","112","373447","0.0-73.0-0.0","92997302","wem/bandit_either","A3O5EU9QQV2OS1","either","4","","","","","","","0","0","1","0.4196644934","","0.8","0.2","0.4","0.6","","","","","0.4196644934","0.3808178469","0.2938412915","0.409480615","","","","","","","72","H","0","img/none_selected.jpg","","34","main_expt"
"410","","bandit","113","375374","0.0-74.0-0.0","92997302","wem/bandit_either","A3O5EU9QQV2OS1","either","4","","","","","","","1","0","0","0.420891004","","0.8","0.2","0.4","0.6","","","","","0.420891004","0.376129724","0.2256616696","0.3869649509","","","","","","","72","H","0","img/none_selected.jpg","","35","main_expt"
"315","","bandit","114","377203","0.0-75.0-0.0","92997302","wem/bandit_either","A3O5EU9QQV2OS1","either","4","","","","","","","0","0","1","0.3808881167","","0.8","0.2","0.4","0.6","","","","","0.3808881167","0.4027809904","0.2525957923","0.3045389962","","","","","","","72","H","0","img/none_selected.jpg","","36","main_expt"
"143","","bandit","115","378863","0.0-76.0-0.0","92997302","wem/bandit_either","A3O5EU9QQV2OS1","either","4","","","","","","","0","0","1","","0.3634360393","0.8","0.2","0.4","0.6","0.3634360393","0.3715556026","0.2333373749","0.2954217214","","","","","","","","","","","72","H","0","img/none_selected.jpg","","37","main_expt"
"129","","bandit","116","380512","0.0-77.0-0.0","92997302","wem/bandit_either","A3O5EU9QQV2OS1","either","4","","","","","","","0","0","1","0.3432691328","","0.8","0.2","0.4","0.6","","","","","0.3432691328","0.354842885","0.2126884676","0.2749906923","","","","","","","72","H","0","img/none_selected.jpg","","38","main_expt"
"242","","bandit","117","382270","0.0-78.0-0.0","92997302","wem/bandit_either","A3O5EU9QQV2OS1","either","4","","","","","","","0","0","1","0.3113322025","","0.8","0.2","0.4","0.6","","","","","0.3113322025","0.3066825603","0.212498526","0.2911873598","","","","","","","72","H","0","img/none_selected.jpg","","39","main_expt"
"316","","bandit","118","384100","0.0-79.0-0.0","92997302","wem/bandit_either","A3O5EU9QQV2OS1","either","4","","","","","","","0","0","1","0.3298138996","","0.8","0.2","0.4","0.6","","","","","0.3298138996","0.3208648015","0.2031275136","0.3066149412","","","","","","","72","H","0","img/none_selected.jpg","","40","main_expt"
"197","","bandit","119","385812","0.0-80.0-0.0","92997302","wem/bandit_either","A3O5EU9QQV2OS1","either","4","","","","","","","0","0","1","0.3590557929","","0.8","0.2","0.4","0.6","","","","","0.3590557929","0.2774570704","0.2409224204","0.2612722093","","","","","","","72","H","0","img/none_selected.jpg","","41","main_expt"
"270","","bandit","120","387598","0.0-81.0-0.0","92997302","wem/bandit_either","A3O5EU9QQV2OS1","either","4","","","","","","","0","0","1","0.3455434044","","0.8","0.2","0.4","0.6","","","","","0.3455434044","0.3092882543","0.2166695961","0.2579482203","","","","","","","72","H","0","img/none_selected.jpg","","42","main_expt"
"156","","bandit","121","389271","0.0-82.0-0.0","92997302","wem/bandit_either","A3O5EU9QQV2OS1","either","4","","","","","","","0","0","1","0.3161251671","","0.8","0.2","0.4","0.6","","","","","0.4020043176","0.3161251671","0.2314197793","0.2232302517","","","","","","","74","J","1","","","43","main_expt"
"228","","bandit","122","391013","0.0-83.0-0.0","92997302","wem/bandit_either","A3O5EU9QQV2OS1","either","4","","","","","","","0","0","1","","0.3032549762","0.8","0.2","0.4","0.6","0.4088695108","0.3032549762","0.1889371852","0.2435669349","","","","","","","","","","","74","J","1","","","44","main_expt"
"180","","bandit","123","392708","0.0-84.0-0.0","92997302","wem/bandit_either","A3O5EU9QQV2OS1","either","4","","","","","","","0","1","0","","0.3012359134","0.8","0.2","0.4","0.6","0.3914045207","0.3012359134","0.2152104473","0.1885724617","","","","","","","","","","","74","J","1","","","45","main_expt"
"390","","bandit","124","394612","0.0-85.0-0.0","92997302","wem/bandit_either","A3O5EU9QQV2OS1","either","4","","","","","","","0","0","1","","0.2260726972","0.8","0.2","0.4","0.6","0.3682142312","0.2994346937","0.2260726972","0.104230756","","","","","","","","","","","75","K","2","","","46","main_expt"
"261","","bandit","125","396391","0.0-86.0-0.0","92997302","wem/bandit_either","A3O5EU9QQV2OS1","either","4","","","","","","","0","0","1","","0.2330399618","0.8","0.2","0.4","0.6","0.3462276735","0.3169549043","0.2330399618","0.09013225529","","","","","","","","","","","75","K","2","","","47","main_expt"
"363","","bandit","126","398271","0.0-87.0-0.0","92997302","wem/bandit_either","A3O5EU9QQV2OS1","either","4","","","","","","","0","0","1","","0.2769685944","0.8","0.2","0.4","0.6","0.3501405617","0.3137179834","0.2769685944","0.1066227192","","","","","","","","","","","75","K","2","","","48","main_expt"
"286","","bandit","127","400069","0.0-88.0-0.0","92997302","wem/bandit_either","A3O5EU9QQV2OS1","either","4","","","","","","","0","0","1","0.2954986192","","0.8","0.2","0.4","0.6","","","","","0.3607669766","0.3026837323","0.2954986192","0.1273062614","","","","","","","75","K","2","","","49","main_expt"
"459","","bandit","128","402049","0.0-89.0-0.0","92997302","wem/bandit_either","A3O5EU9QQV2OS1","either","4","","","","","","","0","0","1","0.2730110453","","0.8","0.2","0.4","0.6","","","","","0.3776327681","0.2690248343","0.2730110453","0.08158159543","","","","","","","75","K","2","","","50","main_expt"
"353","","bandit","129","403918","0.0-90.0-0.0","92997302","wem/bandit_either","A3O5EU9QQV2OS1","either","4","","","","","","","0","0","1","0.2672659715","","0.8","0.2","0.4","0.6","","","","","0.3922012959","0.2407215714","0.2672659715","0.08035098666","","","","","","","75","K","2","","","51","main_expt"
"290","","bandit","130","405724","0.0-91.0-0.0","92997302","wem/bandit_either","A3O5EU9QQV2OS1","either","4","","","","","","","0","0","1","","0.1007468434","0.8","0.2","0.4","0.6","0.3532085343","0.2758158767","0.2552972095","0.1007468434","","","","","","","","","","","76","L","3","","","52","main_expt"
"126","","bandit","131","407366","0.0-92.0-0.0","92997302","wem/bandit_either","A3O5EU9QQV2OS1","either","4","","","","","","","0","0","1","","0.1479770317","0.8","0.2","0.4","0.6","0.3597378762","0.2661511239","0.1954439593","0.1479770317","","","","","","","","","","","76","L","3","","","53","main_expt"
"369","","bandit","132","409253","0.0-93.0-0.0","92997302","wem/bandit_either","A3O5EU9QQV2OS1","either","4","","","","","","","0","0","1","","0.1450389045","0.8","0.2","0.4","0.6","0.3553644404","0.250303373","0.1250298759","0.1450389045","","","","","","","","","","","76","L","3","","","54","main_expt"
"332","","bandit","133","411105","0.0-94.0-0.0","92997302","wem/bandit_either","A3O5EU9QQV2OS1","either","4","","","","","","","0","0","1","0.1678096349","","0.8","0.2","0.4","0.6","","","","","0.3427354451","0.1850572083","0.1224949652","0.1678096349","","","","","","","76","L","3","","","55","main_expt"
"249","","bandit","134","412868","0.0-95.0-0.0","92997302","wem/bandit_either","A3O5EU9QQV2OS1","either","4","","","","","","","0","0","1","0.1748395718","","0.8","0.2","0.4","0.6","","","","","0.3158877586","0.2410157884","0.1312048923","0.1748395718","","","","","","","76","L","3","","","56","main_expt"
"158","","bandit","135","414542","0.0-96.0-0.0","92997302","wem/bandit_either","A3O5EU9QQV2OS1","either","4","","","","","","","0","1","0","","0.2657224069","0.8","0.2","0.4","0.6","0.3224611445","0.2657224069","0.14452077","0.146986137","","","","","","","","","","","74","J","1","","","57","main_expt"
"388","","bandit","136","416446","0.0-97.0-0.0","92997302","wem/bandit_either","A3O5EU9QQV2OS1","either","4","","","","","","","0","0","1","","0.2361308133","0.8","0.2","0.4","0.6","0.3378672788","0.2361308133","0.1198415177","0.1316135006","","","","","","","","","","","74","J","1","","","58","main_expt"
"308","","bandit","137","418268","0.0-98.0-0.0","92997302","wem/bandit_either","A3O5EU9QQV2OS1","either","4","","","","","","","0","0","1","","0.2078360154","0.8","0.2","0.4","0.6","0.3438075972","0.2078360154","0.1674914914","0.1776120447","","","","","","","","","","","74","J","1","","","59","main_expt"
"294","","bandit","138","420080","0.0-99.0-0.0","92997302","wem/bandit_either","A3O5EU9QQV2OS1","either","4","","","","","","","0","0","1","0.2256957235","","0.8","0.2","0.4","0.6","","","","","0.2950987239","0.2256957235","0.147959707","0.2034864675","","","","","","","74","J","1","","","60","main_expt"
"379","","bandit","139","421972","0.0-100.0-0.0","92997302","wem/bandit_either","A3O5EU9QQV2OS1","either","4","","","","","","","0","0","1","","0.2713547376","0.8","0.2","0.4","0.6","0.2939622289","0.2713547376","0.1217284172","0.1325668513","","","","","","","","","","","74","J","1","","","61","main_expt"
"310","","bandit","140","423801","0.0-101.0-0.0","92997302","wem/bandit_either","A3O5EU9QQV2OS1","either","4","","","","","","","0","0","1","","0.2800078023","0.8","0.2","0.4","0.6","0.2907096119","0.2800078023","0.1392905859","0.125492747","","","","","","","","","","","74","J","1","","","62","main_expt"
"377","","bandit","141","425691","0.0-102.0-0.0","92997302","wem/bandit_either","A3O5EU9QQV2OS1","either","4","","","","","","","0","0","1","","0.362183352","0.8","0.2","0.4","0.6","0.2696382907","0.362183352","0.1953314019","0.1081989139","","","","","","","","","","","74","J","1","","","63","main_expt"
"278","","bandit","142","427487","0.0-103.0-0.0","92997302","wem/bandit_either","A3O5EU9QQV2OS1","either","4","","","","","","","0","1","0","","0.3354395381","0.8","0.2","0.4","0.6","0.2496415039","0.3354395381","0.2618523415","0.09104284411","","","","","","","","","","","74","J","1","","","64","main_expt"
"171","","bandit","143","429176","0.0-104.0-0.0","92997302","wem/bandit_either","A3O5EU9QQV2OS1","either","4","","","","","","","0","0","1","","0.2686672798","0.8","0.2","0.4","0.6","0.2364994079","0.2893845237","0.2686672798","0.1264903162","","","","","","","","","","","75","K","2","","","65","main_expt"
"240","","bandit","144","430937","0.0-105.0-0.0","92997302","wem/bandit_either","A3O5EU9QQV2OS1","either","4","","","","","","","0","0","1","0.2451656397","","0.8","0.2","0.4","0.6","","","","","0.2541683514","0.2355717356","0.2451656397","0.1665937301","","","","","","","75","K","2","","","66","main_expt"
"322","","bandit","145","432775","0.0-106.0-0.0","92997302","wem/bandit_either","A3O5EU9QQV2OS1","either","4","","","","","","","0","0","1","0.2445320338","","0.8","0.2","0.4","0.6","","","","","0.2985471382","0.2848755716","0.2445320338","0.1740025863","","","","","","","75","K","2","","","67","main_expt"
"337","","bandit","146","434627","0.0-107.0-0.0","92997302","wem/bandit_either","A3O5EU9QQV2OS1","either","4","","","","","","","0","1","0","","0.2261158315","0.8","0.2","0.4","0.6","0.3391290389","0.3341158043","0.2261158315","0.2300011382","","","","","","","","","","","75","K","2","","","68","main_expt"
"359","","bandit","147","436502","0.0-108.0-0.0","92997302","wem/bandit_either","A3O5EU9QQV2OS1","either","4","","","","","","","1","0","0","0.1627286519","","0.8","0.2","0.4","0.6","","","","","0.3114764975","0.3253412689","0.1627286519","0.1768594062","","","","","","","75","K","2","","","69","main_expt"
"204","","bandit","148","438227","0.0-109.0-0.0","92997302","wem/bandit_either","A3O5EU9QQV2OS1","either","4","","","","","","","0","0","1","0.1301009224","","0.8","0.2","0.4","0.6","","","","","0.3056328376","0.3280915152","0.1301009224","0.1906145184","","","","","","","75","K","2","","","70","main_expt"
"368","","bandit","149","440113","0.0-110.0-0.0","92997302","wem/bandit_either","A3O5EU9QQV2OS1","either","4","","","","","","","0","0","1","0.1356707761","","0.8","0.2","0.4","0.6","","","","","0.3445325487","0.3772643828","0.1356707761","0.1451664327","","","","","","","75","K","2","","","71","main_expt"
"264","","bandit","150","441896","0.0-111.0-0.0","92997302","wem/bandit_either","A3O5EU9QQV2OS1","either","4","","","","","","","0","0","1","","0.1045412551","0.8","0.2","0.4","0.6","0.364612409","0.4074174212","0.1045412551","0.1091447996","","","","","","","","","","","75","K","2","","","72","main_expt"
"276","","bandit","151","443689","0.0-112.0-0.0","92997302","wem/bandit_either","A3O5EU9QQV2OS1","either","4","","","","","","","0","0","1","","0.0867882282","0.8","0.2","0.4","0.6","0.4454774056","0.3736299767","0.0867882282","0.1248737042","","","","","","","","","","","75","K","2","","","73","main_expt"
"280","","bandit","152","445487","0.0-113.0-0.0","92997302","wem/bandit_either","A3O5EU9QQV2OS1","either","4","","","","","","","0","0","1","0.1018359722","","0.8","0.2","0.4","0.6","","","","","0.4492830973","0.383211712","0.1018359722","0.1073746888","","","","","","","75","K","2","","","74","main_expt"
"91","","bandit","153","447097","0.0-114.0-0.0","92997302","wem/bandit_either","A3O5EU9QQV2OS1","either","4","","","","","","","0","0","1","","0.09443707336","0.8","0.2","0.4","0.6","0.449321966","0.3681962321","0.09443707336","0.1051395745","","","","","","","","","","","75","K","2","","","75","main_expt"
"81","","bandit","154","448693","0.0-115.0-0.0","92997302","wem/bandit_either","A3O5EU9QQV2OS1","either","4","","","","","","","0","0","1","0.08768691443","","0.8","0.2","0.4","0.6","","","","","0.4299726132","0.3574328021","0.08768691443","0.09171451076","","","","","","","75","K","2","","","76","main_expt"
"182","","bandit","155","450388","0.0-116.0-0.0","92997302","wem/bandit_either","A3O5EU9QQV2OS1","either","4","","","","","","","0","0","1","","0.07744448812","0.8","0.2","0.4","0.6","0.4349340462","0.4041720962","0.07744448812","0.1256070833","","","","","","","","","","","75","K","2","","","77","main_expt"
"213","","bandit","156","452118","0.0-117.0-0.0","92997302","wem/bandit_either","A3O5EU9QQV2OS1","either","4","","","","","","","0","0","1","","0.05712631425","0.8","0.2","0.4","0.6","0.4112950215","0.4000946746","0.05712631425","0.1398604905","","","","","","","","","","","75","K","2","","","78","main_expt"
"61","","bandit","157","453697","0.0-118.0-0.0","92997302","wem/bandit_either","A3O5EU9QQV2OS1","either","4","","","","","","","0","0","1","","0.03981704588","0.8","0.2","0.4","0.6","0.4123046053","0.425248604","0.03981704588","0.1303191282","","","","","","","","","","","75","K","2","","","79","main_expt"
"128","","bandit","158","455346","0.0-119.0-0.0","92997302","wem/bandit_either","A3O5EU9QQV2OS1","either","4","","","","","","","0","0","1","0.02961196177","","0.8","0.2","0.4","0.6","","","","","0.4345430878","0.4263383456","0.02961196177","0.1491340647","","","","","","","75","K","2","","","80","main_expt"
"201","","bandit","159","457064","0.0-120.0-0.0","92997302","wem/bandit_either","A3O5EU9QQV2OS1","either","4","","","","","","","0","0","1","","0.0408206899","0.8","0.2","0.4","0.6","0.4255274095","0.4377411966","0.0408206899","0.1484119081","","","","","","","","","","","75","K","2","","","81","main_expt"
"121","","bandit","160","458702","0.0-121.0-0.0","92997302","wem/bandit_either","A3O5EU9QQV2OS1","either","4","","","","","","","0","0","1","0.03491361241","","0.8","0.2","0.4","0.6","","","","","0.4266934287","0.4263216968","0.03491361241","0.135460029","","","","","","","75","K","2","","","82","main_expt"
"4","","bandit","161","460222","0.0-122.0-0.0","92997302","wem/bandit_either","A3O5EU9QQV2OS1","either","4","","","","","","","0","0","1","0.09497461961","","0.8","0.2","0.4","0.6","","","","","0.4321646522","0.4536492548","0.01881925386","0.09497461961","","","","","","","76","L","3","","","83","main_expt"
"27","","bandit","162","461767","0.0-123.0-0.0","92997302","wem/bandit_either","A3O5EU9QQV2OS1","either","4","","","","","","","0","0","1","0.0956585677","","0.8","0.2","0.4","0.6","","","","","0.43129245","0.4344769981","0.03441768066","0.0956585677","","","","","","","76","L","3","","","84","main_expt"
"347","","bandit","163","463630","0.0-124.0-0.0","92997302","wem/bandit_either","A3O5EU9QQV2OS1","either","4","","","","","","","0","0","1","0.08427930603","","0.8","0.2","0.4","0.6","","","","","0.4307495417","0.4167097255","0.04015732792","0.08427930603","","","","","","","76","L","3","","","85","main_expt"
"247","","bandit","164","465389","0.0-125.0-0.0","92997302","wem/bandit_either","A3O5EU9QQV2OS1","either","4","","","","","","","0","0","1","","0.09540141202","0.8","0.2","0.4","0.6","0.4327415212","0.4215971904","0.0462821445","0.09540141202","","","","","","","","","","","76","L","3","","","86","main_expt"
"596","","bandit","165","467502","0.0-126.0-0.0","92997302","wem/bandit_either","A3O5EU9QQV2OS1","either","4","","","","","","","0","0","1","","0.06504543429","0.8","0.2","0.4","0.6","0.4507305815","0.3962725568","0.07236867375","0.06504543429","","","","","","","","","","","76","L","3","","","87","main_expt"
"246","","bandit","166","469266","0.0-127.0-0.0","92997302","wem/bandit_either","A3O5EU9QQV2OS1","either","4","","","","","","","1","0","0","0.4571393315","","0.8","0.2","0.4","0.6","","","","","0.4571393315","0.4038430626","0.1132918069","0.05894337134","","","","","","","72","H","0","img/none_selected.jpg","","88","main_expt"
"280","","bandit","167","471065","0.0-128.0-0.0","92997302","wem/bandit_either","A3O5EU9QQV2OS1","either","4","","","","","","","0","0","1","0.4639779763","","0.8","0.2","0.4","0.6","","","","","0.4639779763","0.4247877058","0.1466354559","0.06803635399","","","","","","","72","H","0","img/none_selected.jpg","","89","main_expt"
"305","","bandit","168","472889","0.0-129.0-0.0","92997302","wem/bandit_either","A3O5EU9QQV2OS1","either","4","","","","","","","0","0","1","","0.4196700557","0.8","0.2","0.4","0.6","0.4620017245","0.4196700557","0.1746819083","0.09657856289","","","","","","","","","","","74","J","1","","","90","main_expt"
"76","","bandit","169","474478","0.0-130.0-0.0","92997302","wem/bandit_either","A3O5EU9QQV2OS1","either","4","","","","","","","0","0","1","0.1864657318","","0.8","0.2","0.4","0.6","","","","","0.4492963398","0.401758082","0.1864657318","0.08522031428","","","","","","","75","K","2","","","91","main_expt"
"148","","bandit","170","476146","0.0-131.0-0.0","92997302","wem/bandit_either","A3O5EU9QQV2OS1","either","4","","","","","","","0","0","1","","0.07078380504","0.8","0.2","0.4","0.6","0.462009279","0.3422099147","0.2124622091","0.07078380504","","","","","","","","","","","76","L","3","","","92","main_expt"
"80","","bandit","171","477743","0.0-132.0-0.0","92997302","wem/bandit_either","A3O5EU9QQV2OS1","either","4","","","","","","","0","0","1","0.3279059742","","0.8","0.2","0.4","0.6","","","","","0.4363090379","0.3279059742","0.245786276","0.0564278809","","","","","","","74","J","1","","","93","main_expt"
"59","","bandit","172","479319","0.0-133.0-0.0","92997302","wem/bandit_either","A3O5EU9QQV2OS1","either","4","","","","","","","0","0","1","0.4457519602","","0.8","0.2","0.4","0.6","","","","","0.4457519602","0.3155724737","0.2316759231","0.06067733924","","","","","","","72","H","0","img/none_selected.jpg","","94","main_expt"
"116","","bandit","173","480953","0.0-134.0-0.0","92997302","wem/bandit_either","A3O5EU9QQV2OS1","either","4","","","","","","","0","0","1","","0.4231248902","0.8","0.2","0.4","0.6","0.4231248902","0.3519625041","0.2231756969","0.08632751489","","","","","","","","","","","72","H","0","img/none_selected.jpg","","95","main_expt"
"233","","bandit","174","482708","0.0-135.0-0.0","92997302","wem/bandit_either","A3O5EU9QQV2OS1","either","4","","","","","","","1","0","0","0.4210676831","","0.8","0.2","0.4","0.6","","","","","0.4210676831","0.3661455107","0.1957128212","0.08481729553","","","","","","","72","H","0","img/none_selected.jpg","","96","main_expt"
"279","","bandit","175","484505","0.0-136.0-0.0","92997302","wem/bandit_either","A3O5EU9QQV2OS1","either","4","","","","","","","0","0","1","0.4022895305","","0.8","0.2","0.4","0.6","","","","","0.4022895305","0.3558031673","0.1638116915","0.08386440452","","","","","","","72","H","0","img/none_selected.jpg","","97","main_expt"
"161","","bandit","176","486183","0.0-137.0-0.0","92997302","wem/bandit_either","A3O5EU9QQV2OS1","either","4","","","","","","","1","0","0","0.4187351015","","0.8","0.2","0.4","0.6","","","","","0.4187351015","0.3558230887","0.1405816365","0.0940701929","","","","","","","72","H","0","img/none_selected.jpg","","98","main_expt"
"291","","bandit","177","487994","0.0-138.0-0.0","92997302","wem/bandit_either","A3O5EU9QQV2OS1","either","4","","","","","","","0","0","1","","0.3981340028","0.8","0.2","0.4","0.6","0.3981340028","0.3064708089","0.1435678602","0.1285058524","","","","","","","","","","","72","H","0","img/none_selected.jpg","","99","main_expt"
"328","","bandit","178","489840","0.0-139.0-0.0","92997302","wem/bandit_either","A3O5EU9QQV2OS1","either","4","","","","","","","1","0","0","0.3520446815","","0.8","0.2","0.4","0.6","","","","","0.3520446815","0.352498313","0.1478754355","0.065882019","","","","","","","72","H","0","img/none_selected.jpg","","100","main_expt"
"153","","bandit","179","491512","0.0-140.0-0.0","92997302","wem/bandit_either","A3O5EU9QQV2OS1","either","4","","","","","","","0","0","1","0.3715523215","","0.8","0.2","0.4","0.6","","","","","0.3715523215","0.3511810171","0.1532559328","0.05692140794","","","","","","","72","H","0","img/none_selected.jpg","","101","main_expt"
"365","","bandit","180","493393","0.0-141.0-0.0","92997302","wem/bandit_either","A3O5EU9QQV2OS1","either","4","","","","","","","1","0","0","0.3966955113","","0.8","0.2","0.4","0.6","","","","","0.3966955113","0.3246867477","0.15857411","0.04322280369","","","","","","","72","H","0","img/none_selected.jpg","","102","main_expt"
"161","","bandit","181","495071","0.0-142.0-0.0","92997302","wem/bandit_either","A3O5EU9QQV2OS1","either","4","","","","","","","1","0","0","0.3865714765","","0.8","0.2","0.4","0.6","","","","","0.3865714765","0.2827689756","0.1552377357","0.05121437093","","","","","","","72","H","0","img/none_selected.jpg","","103","main_expt"
"310","","bandit","182","496895","0.0-143.0-0.0","92997302","wem/bandit_either","A3O5EU9QQV2OS1","either","4","","","","","","","1","0","0","0.3440646931","","0.8","0.2","0.4","0.6","","","","","0.3440646931","0.3307995119","0.1584193753","0.06548077564","","","","","","","72","H","0","img/none_selected.jpg","","104","main_expt"
"41","","bandit","183","498449","0.0-144.0-0.0","92997302","wem/bandit_either","A3O5EU9QQV2OS1","either","4","","","","","","","0","0","1","","0.330981063","0.8","0.2","0.4","0.6","0.330981063","0.3078297571","0.192058402","0.07577357845","","","","","","","","","","","72","H","0","img/none_selected.jpg","","105","main_expt"
"49","","bandit","184","500019","0.0-145.0-0.0","92997302","wem/bandit_either","A3O5EU9QQV2OS1","either","4","","","","","","","0","0","1","0.3317280627","","0.8","0.2","0.4","0.6","","","","","0.3317280627","0.3202685942","0.1562344916","0.09041352565","","","","","","","72","H","0","img/none_selected.jpg","","106","main_expt"
"240","","bandit","185","501776","0.0-146.0-0.0","92997302","wem/bandit_either","A3O5EU9QQV2OS1","either","4","","","","","","","0","0","1","0.2760665195","","0.8","0.2","0.4","0.6","","","","","0.2760665195","0.3163418234","0.1493116313","0.1184921167","","","","","","","72","H","0","img/none_selected.jpg","","107","main_expt"
"14","","bandit","186","503308","0.0-147.0-0.0","92997302","wem/bandit_either","A3O5EU9QQV2OS1","either","4","","","","","","","0","0","1","0.2826301941","","0.8","0.2","0.4","0.6","","","","","0.2826301941","0.3425943818","0.1357435498","0.1057615429","","","","","","","72","H","0","img/none_selected.jpg","","108","main_expt"
"150","","bandit","187","504975","0.0-148.0-0.0","92997302","wem/bandit_either","A3O5EU9QQV2OS1","either","4","","","","","","","0","0","1","0.318117281","","0.8","0.2","0.4","0.6","","","","","0.318117281","0.2852030557","0.1164074326","0.1464484126","","","","","","","72","H","0","img/none_selected.jpg","","109","main_expt"
"347","","bandit","188","506844","0.0-149.0-0.0","92997302","wem/bandit_either","A3O5EU9QQV2OS1","either","4","","","","","","","0","0","1","0.3358587519","","0.8","0.2","0.4","0.6","","","","","0.3358587519","0.3392406975","0.1444451916","0.1641354829","","","","","","","72","H","0","img/none_selected.jpg","","110","main_expt"
"224","","bandit","189","508585","0.0-150.0-0.0","92997302","wem/bandit_either","A3O5EU9QQV2OS1","either","4","","","","","","","0","0","1","0.3031660534","","0.8","0.2","0.4","0.6","","","","","0.3031660534","0.3023411017","0.09905323685","0.1386891192","","","","","","","72","H","0","img/none_selected.jpg","","111","main_expt"
"228","","bandit","190","510325","0.0-151.0-0.0","92997302","wem/bandit_either","A3O5EU9QQV2OS1","either","4","","","","","","","0","0","1","0.2773548355","","0.8","0.2","0.4","0.6","","","","","0.2773548355","0.296849772","0.09652445584","0.1847512065","","","","","","","72","H","0","img/none_selected.jpg","","112","main_expt"
"374","","bandit","191","512214","0.0-152.0-0.0","92997302","wem/bandit_either","A3O5EU9QQV2OS1","either","4","","","","","","","0","0","1","","0.2370758425","0.8","0.2","0.4","0.6","0.2370758425","0.2673419259","0.09961189632","0.1304555333","","","","","","","","","","","72","H","0","img/none_selected.jpg","","113","main_expt"
"173","","bandit","192","513906","0.0-153.0-0.0","92997302","wem/bandit_either","A3O5EU9QQV2OS1","either","4","","","","","","","0","0","1","","0.1821928837","0.8","0.2","0.4","0.6","0.1821928837","0.2670531803","0.1036139638","0.1770102637","","","","","","","","","","","72","H","0","img/none_selected.jpg","","114","main_expt"
"264","","bandit","193","515690","0.0-154.0-0.0","92997302","wem/bandit_either","A3O5EU9QQV2OS1","either","4","","","","","","","0","0","1","0.1315453283","","0.8","0.2","0.4","0.6","","","","","0.1315453283","0.2825009356","0.0968506792","0.1564651975","","","","","","","72","H","0","img/none_selected.jpg","","115","main_expt"
"774","","bandit","194","517984","0.0-155.0-0.0","92997302","wem/bandit_either","A3O5EU9QQV2OS1","either","4","","","","","","","0","0","1","","0.3237719372","0.8","0.2","0.4","0.6","0.1102777544","0.3237719372","0.08782875681","0.1665702367","","","","","","","","","","","74","J","1","","","116","main_expt"
"60","","bandit","195","519563","0.0-156.0-0.0","92997302","wem/bandit_either","A3O5EU9QQV2OS1","either","4","","","","","","","0","0","1","","0.3154846423","0.8","0.2","0.4","0.6","0.1101610351","0.3154846423","0.06031800864","0.1530687496","","","","","","","","","","","74","J","1","","","117","main_expt"
"89","","bandit","196","521171","0.0-157.0-0.0","92997302","wem/bandit_either","A3O5EU9QQV2OS1","either","4","","","","","","","0","0","1","","0.2584508078","0.8","0.2","0.4","0.6","0.122460482","0.2584508078","0.05633053331","0.1674206906","","","","","","","","","","","74","J","1","","","118","main_expt"
"72","","bandit","197","522762","0.0-158.0-0.0","92997302","wem/bandit_either","A3O5EU9QQV2OS1","either","4","","","","","","","0","0","1","","0.2141905193","0.8","0.2","0.4","0.6","0.1451868924","0.2141905193","0.07530514027","0.1990215448","","","","","","","","","","","74","J","1","","","119","main_expt"
"56","","bandit","198","524335","0.0-159.0-0.0","92997302","wem/bandit_either","A3O5EU9QQV2OS1","either","4","","","","","","","0","1","0","","0.2341954374","0.8","0.2","0.4","0.6","0.09092593383","0.2341954374","0.09639595661","0.2208640619","","","","","","","","","","","74","J","1","","","120","main_expt"
"488","","bandit","199","526338","0.0-160.0-0.0","92997302","wem/bandit_either","A3O5EU9QQV2OS1","either","4","","","","","","","0","1","0","","0.1421799471","0.8","0.2","0.4","0.6","0.1080456108","0.1886372651","0.1421799471","0.2602917539","","","","","","","","","","","75","K","2","","","121","main_expt"
"344","","bandit","200","528199","0.0-161.0-0.0","92997302","wem/bandit_either","A3O5EU9QQV2OS1","either","4","","","","","","","0","1","0","","0.1624760489","0.8","0.2","0.4","0.6","0.1169053248","0.1597592322","0.1624760489","0.2512498235","","","","","","","","","","","75","K","2","","","122","main_expt"
"291","","bandit","201","530012","0.0-162.0-0.0","92997302","wem/bandit_either","A3O5EU9QQV2OS1","either","4","","","","","","","0","0","1","0.1640214383","","0.8","0.2","0.4","0.6","","","","","0.1571594809","0.1895266442","0.1640214383","0.2266242761","","","","","","","75","K","2","","","123","main_expt"
"311","","bandit","202","531841","0.0-163.0-0.0","92997302","wem/bandit_either","A3O5EU9QQV2OS1","either","4","","","","","","","0","0","1","","0.2014340991","0.8","0.2","0.4","0.6","0.2231804049","0.2042850732","0.2014340991","0.2373824638","","","","","","","","","","","75","K","2","","","124","main_expt"
"2","","bandit","203","533359","0.0-164.0-0.0","92997302","wem/bandit_either","A3O5EU9QQV2OS1","either","4","","","","","","","0","0","1","","0.2229229076","0.8","0.2","0.4","0.6","0.2232794356","0.1812515389","0.2229229076","0.2538727107","","","","","","","","","","","75","K","2","","","125","main_expt"
"270","","bandit","204","535146","0.0-165.0-0.0","92997302","wem/bandit_either","A3O5EU9QQV2OS1","either","4","","","","","","","0","0","1","0.290219491","","0.8","0.2","0.4","0.6","","","","","0.2316903634","0.1694736183","0.2324712723","0.290219491","","","","","","","76","L","3","","","126","main_expt"
"171","","bandit","205","536834","0.0-166.0-0.0","92997302","wem/bandit_either","A3O5EU9QQV2OS1","either","4","","","","","","","0","0","1","0.2542505169","","0.8","0.2","0.4","0.6","","","","","0.2337524142","0.1624528765","0.2628391623","0.2542505169","","","","","","","76","L","3","","","127","main_expt"
"264","","bandit","206","538616","0.0-167.0-0.0","92997302","wem/bandit_either","A3O5EU9QQV2OS1","either","4","","","","","","","1","0","0","0.2582316027","","0.8","0.2","0.4","0.6","","","","","0.2198210178","0.1632982916","0.2654356302","0.2582316027","","","","","","","76","L","3","","","128","main_expt"
"31","","bandit","207","540165","0.0-168.0-0.0","92997302","wem/bandit_either","A3O5EU9QQV2OS1","either","4","","","","","","","0","0","1","","0.3267566011","0.8","0.2","0.4","0.6","0.2280168395","0.2264598068","0.2070569149","0.3267566011","","","","","","","","","","","76","L","3","","","129","main_expt"
"229","","bandit","208","541913","0.0-169.0-0.0","92997302","wem/bandit_either","A3O5EU9QQV2OS1","either","4","","","","","","","0","0","1","0.3323271388","","0.8","0.2","0.4","0.6","","","","","0.243895296","0.202760285","0.2579182239","0.3323271388","","","","","","","76","L","3","","","130","main_expt"
"201","","bandit","209","543629","0.0-170.0-0.0","92997302","wem/bandit_either","A3O5EU9QQV2OS1","either","4","","","","","","","0","0","1","0.2666668646","","0.8","0.2","0.4","0.6","","","","","0.2164454501","0.1585094705","0.2329110821","0.2666668646","","","","","","","76","L","3","","","131","main_expt"
"126","","bandit","210","545274","0.0-171.0-0.0","92997302","wem/bandit_either","A3O5EU9QQV2OS1","either","4","","","","","","","0","0","1","0.2359119393","","0.8","0.2","0.4","0.6","","","","","0.200468731","0.1304261544","0.2400232435","0.2359119393","","","","","","","76","L","3","","","132","main_expt"
"8","","bandit","211","546801","0.0-172.0-0.0","92997302","wem/bandit_either","A3O5EU9QQV2OS1","either","4","","","","","","","0","0","1","0.2540740643","","0.8","0.2","0.4","0.6","","","","","0.2038597077","0.09339990826","0.2084798617","0.2540740643","","","","","","","76","L","3","","","133","main_expt"
"114","","bandit","212","548432","0.0-173.0-0.0","92997302","wem/bandit_either","A3O5EU9QQV2OS1","either","4","","","","","","","0","0","1","","0.2414927735","0.8","0.2","0.4","0.6","0.2263269307","0.08524612959","0.2034544","0.2414927735","","","","","","","","","","","76","L","3","","","134","main_expt"
"162","","bandit","213","550112","0.0-174.0-0.0","92997302","wem/bandit_either","A3O5EU9QQV2OS1","either","4","","","","","","","0","0","1","","0.2632369982","0.8","0.2","0.4","0.6","0.2686469146","0.0622033461","0.2088958693","0.2632369982","","","","","","","","","","","76","L","3","","","135","main_expt"
"291","","bandit","214","551918","0.0-175.0-0.0","92997302","wem/bandit_either","A3O5EU9QQV2OS1","either","4","","","","","","","0","1","0","","0.3032623762","0.8","0.2","0.4","0.6","0.3170393738","0.05632890875","0.2573758916","0.3032623762","","","","","","","","","","","76","L","3","","","136","main_expt"
"102","","bandit","215","553540","0.0-176.0-0.0","92997302","wem/bandit_either","A3O5EU9QQV2OS1","either","4","","","","","","","0","0","1","0.338962466","","0.8","0.2","0.4","0.6","","","","","0.338962466","0.06052980877","0.2467438462","0.2984046037","","","","","","","72","H","0","img/none_selected.jpg","","137","main_expt"
"144","","bandit","216","555201","0.0-177.0-0.0","92997302","wem/bandit_either","A3O5EU9QQV2OS1","either","4","","","","","","","0","0","1","0.3586643031","","0.8","0.2","0.4","0.6","","","","","0.3586643031","0.1038497792","0.2221944767","0.3110629865","","","","","","","72","H","0","img/none_selected.jpg","","138","main_expt"
"321","","bandit","217","557041","0.0-178.0-0.0","92997302","wem/bandit_either","A3O5EU9QQV2OS1","either","4","","","","","","","0","0","1","0.3430902759","","0.8","0.2","0.4","0.6","","","","","0.3430902759","0.08561062373","0.2750517365","0.3048373826","","","","","","","72","H","0","img/none_selected.jpg","","139","main_expt"
"122","","bandit","218","558683","0.0-179.0-0.0","92997302","wem/bandit_either","A3O5EU9QQV2OS1","either","4","","","","","","","1","0","0","0.3777112835","","0.8","0.2","0.4","0.6","","","","","0.3777112835","0.08025295029","0.277474309","0.3163642845","","","","","","","72","H","0","img/none_selected.jpg","","140","main_expt"
"144","","bandit","219","560344","0.0-180.0-0.0","92997302","wem/bandit_either","A3O5EU9QQV2OS1","either","4","","","","","","","1","0","0","0.4276051364","","0.8","0.2","0.4","0.6","","","","","0.4276051364","0.09309891757","0.2932007391","0.2213861514","","","","","","","72","H","0","img/none_selected.jpg","","141","main_expt"
"98","","bandit","220","561964","0.0-181.0-0.0","92997302","wem/bandit_either","A3O5EU9QQV2OS1","either","4","","","","","","","0","0","1","0.4312347149","","0.8","0.2","0.4","0.6","","","","","0.4312347149","0.1107976638","0.3001807938","0.2492613222","","","","","","","72","H","0","img/none_selected.jpg","","142","main_expt"
"24","","bandit","221","563508","0.0-182.0-0.0","92997302","wem/bandit_either","A3O5EU9QQV2OS1","either","4","","","","","","","0","0","1","","0.386657586","0.8","0.2","0.4","0.6","0.386657586","0.09575525052","0.3640878437","0.2645663874","","","","","","","","","","","72","H","0","img/none_selected.jpg","","143","main_expt"
"158","","bandit","222","565183","0.0-183.0-0.0","92997302","wem/bandit_either","A3O5EU9QQV2OS1","either","4","","","","","","","1","0","0","0.3409851627","","0.8","0.2","0.4","0.6","","","","","0.3409851627","0.07222794989","0.2706796495","0.2928215939","","","","","","","72","H","0","img/none_selected.jpg","","144","main_expt"
"148","","bandit","223","566852","0.0-184.0-0.0","92997302","wem/bandit_either","A3O5EU9QQV2OS1","either","4","","","","","","","1","0","0","0.3538709708","","0.8","0.2","0.4","0.6","","","","","0.3538709708","0.03203798906","0.2359726437","0.3178979655","","","","","","","72","H","0","img/none_selected.jpg","","145","main_expt"
"46","","bandit","224","568421","0.0-185.0-0.0","92997302","wem/bandit_either","A3O5EU9QQV2OS1","either","4","","","","","","","0","0","1","0.2745956728","","0.8","0.2","0.4","0.6","","","","","0.2745956728","0.03073079809","0.2200332621","0.2850957273","","","","","","","72","H","0","img/none_selected.jpg","","146","main_expt"
"153","","bandit","225","570088","0.0-186.0-0.0","92997302","wem/bandit_either","A3O5EU9QQV2OS1","either","4","","","","","","","0","0","1","","0.2375793476","0.8","0.2","0.4","0.6","0.2375793476","0.05105424151","0.1957794229","0.2483519338","","","","","","","","","","","72","H","0","img/none_selected.jpg","","147","main_expt"
"29","","bandit","226","571634","0.0-187.0-0.0","92997302","wem/bandit_either","A3O5EU9QQV2OS1","either","4","","","","","","","0","0","1","0.2954602587","","0.8","0.2","0.4","0.6","","","","","0.2954602587","0.04045355104","0.1790722045","0.2309770791","","","","","","","72","H","0","img/none_selected.jpg","","148","main_expt"
"83","","bandit","227","573237","0.0-188.0-0.0","92997302","wem/bandit_either","A3O5EU9QQV2OS1","either","4","","","","","","","0","0","1","","0.3435099865","0.8","0.2","0.4","0.6","0.3435099865","0.06416506337","0.2189150546","0.1759049641","","","","","","","","","","","72","H","0","img/none_selected.jpg","","149","main_expt"
"0","","bandit","228","574759","0.0-189.0-0.0","92997302","wem/bandit_either","A3O5EU9QQV2OS1","either","4","","","","","","","0","0","1","0.268900415","","0.8","0.2","0.4","0.6","","","","","0.268900415","0.07819388902","0.2119229637","0.1910702346","","","","","","","72","H","0","img/none_selected.jpg","","150","main_expt"
"68","","bandit","229","576349","0.0-190.0-0.0","92997302","wem/bandit_either","A3O5EU9QQV2OS1","either","4","","","","","","","0","0","1","0.2326488896","","0.8","0.2","0.4","0.6","","","","","0.2326488896","0.1186979887","0.2472398003","0.1799178466","","","","","","","72","H","0","img/none_selected.jpg","","151","main_expt"
"86","","bandit","230","577957","0.0-191.0-0.0","92997302","wem/bandit_either","A3O5EU9QQV2OS1","either","4","","","","","","","1","0","0","0.2768057641","","0.8","0.2","0.4","0.6","","","","","0.2768057641","0.1084773402","0.2148428051","0.1826140084","","","","","","","72","H","0","img/none_selected.jpg","","152","main_expt"
"485","","bandit","231","579960","0.0-192.0-0.0","92997302","wem/bandit_either","A3O5EU9QQV2OS1","either","4","","","","","","","0","0","1","","0.2997660112","0.8","0.2","0.4","0.6","0.2997660112","0.1314289417","0.1598057249","0.147924298","","","","","","","","","","","72","H","0","img/none_selected.jpg","","153","main_expt"
"185","","bandit","232","581667","0.0-193.0-0.0","92997302","wem/bandit_either","A3O5EU9QQV2OS1","either","4","","","","","","","0","0","1","0.3196464983","","0.8","0.2","0.4","0.6","","","","","0.3196464983","0.1354051011","0.1489099923","0.1388357139","","","","","","","72","H","0","img/none_selected.jpg","","154","main_expt"
"67","","bandit","233","583252","0.0-194.0-0.0","92997302","wem/bandit_either","A3O5EU9QQV2OS1","either","4","","","","","","","0","0","1","0.3141654429","","0.8","0.2","0.4","0.6","","","","","0.3141654429","0.1085215933","0.1502541116","0.1658398244","","","","","","","72","H","0","img/none_selected.jpg","","155","main_expt"
"228","","bandit","234","585005","0.0-195.0-0.0","92997302","wem/bandit_either","A3O5EU9QQV2OS1","either","4","","","","","","","0","0","1","0.2667217688","","0.8","0.2","0.4","0.6","","","","","0.2667217688","0.1383379057","0.1605084188","0.1104921729","","","","","","","72","H","0","img/none_selected.jpg","","156","main_expt"
"223","","bandit","235","586746","0.0-196.0-0.0","92997302","wem/bandit_either","A3O5EU9QQV2OS1","either","4","","","","","","","0","0","1","0.2867075714","","0.8","0.2","0.4","0.6","","","","","0.2867075714","0.1428990181","0.1684101418","0.09530810267","","","","","","","72","H","0","img/none_selected.jpg","","157","main_expt"
"1146","","bandit","236","589411","0.0-197.0-0.0","92997302","wem/bandit_either","A3O5EU9QQV2OS1","either","4","","","","","","","0","0","1","","0.07455979893","0.8","0.2","0.4","0.6","0.2788639118","0.07455979893","0.1807688322","0.1211627972","","","","","","","","","","","74","J","1","","","158","main_expt"
"136","","bandit","237","591065","0.0-198.0-0.0","92997302","wem/bandit_either","A3O5EU9QQV2OS1","either","4","","","","","","","0","1","0","","0.3020710819","0.8","0.2","0.4","0.6","0.3020710819","0.1009372764","0.1516426412","0.1012897464","","","","","","","","","","","72","H","0","img/none_selected.jpg","","159","main_expt"
"2","","bandit","238","592587","0.0-199.0-0.0","92997302","wem/bandit_either","A3O5EU9QQV2OS1","either","4","","","","","","","1","0","0","0.3404227007","","0.8","0.2","0.4","0.6","","","","","0.3404227007","0.05118862797","0.1638698877","0.1188035868","","","","","","","72","H","0","img/none_selected.jpg","","160","main_expt"
"145","","bandit","239","594252","0.0-200.0-0.0","92997302","wem/bandit_either","A3O5EU9QQV2OS1","either","4","","","","","","","0","0","1","0.2876249865","","0.8","0.2","0.4","0.6","","","","","0.2876249865","0.05265847637","0.1645359983","0.1606836622","","","","","","","72","H","0","img/none_selected.jpg","","161","main_expt"
"238","","bandit","240","596015","0.0-201.0-0.0","92997302","wem/bandit_either","A3O5EU9QQV2OS1","either","4","","","","","","","0","0","1","","0.2401308511","0.8","0.2","0.4","0.6","0.2401308511","0.07938684611","0.2509918509","0.1859884171","","","","","","","","","","","72","H","0","img/none_selected.jpg","","162","main_expt"
"301","","bandit","241","597834","0.0-202.0-0.0","92997302","wem/bandit_either","A3O5EU9QQV2OS1","either","4","","","","","","","0","0","1","","0.2486605046","0.8","0.2","0.4","0.6","0.2486605046","0.0970900163","0.1883685458","0.2528258464","","","","","","","","","","","72","H","0","img/none_selected.jpg","","163","main_expt"
"105","","bandit","242","599460","0.0-203.0-0.0","92997302","wem/bandit_either","A3O5EU9QQV2OS1","either","4","","","","","","","0","0","1","","0.07401968201","0.8","0.2","0.4","0.6","0.22675384","0.07401968201","0.2179532334","0.2515292425","","","","","","","","","","","74","J","1","","","164","main_expt"
"47","","bandit","243","601027","0.0-204.0-0.0","92997302","wem/bandit_either","A3O5EU9QQV2OS1","either","4","","","","","","","0","0","1","","0.2143704678","0.8","0.2","0.4","0.6","0.2841151948","0.06633104104","0.2143704678","0.2068970429","","","","","","","","","","","75","K","2","","","165","main_expt"
"249","","bandit","244","602798","0.0-205.0-0.0","92997302","wem/bandit_either","A3O5EU9QQV2OS1","either","4","","","","","","","0","0","1","0.2175899085","","0.8","0.2","0.4","0.6","","","","","0.2842980464","0.05309652092","0.2175899085","0.1413778631","","","","","","","75","K","2","","","166","main_expt"
"61","","bandit","245","604377","0.0-206.0-0.0","92997302","wem/bandit_either","A3O5EU9QQV2OS1","either","4","","","","","","","0","0","1","","0.07357446968","0.8","0.2","0.4","0.6","0.3007590714","0.07357446968","0.2137120923","0.1999497975","","","","","","","","","","","74","J","1","","","167","main_expt"
"163","","bandit","246","606062","0.0-207.0-0.0","92997302","wem/bandit_either","A3O5EU9QQV2OS1","either","4","","","","","","","1","0","0","0.2884936601","","0.8","0.2","0.4","0.6","","","","","0.2884936601","0.1054325378","0.2331560811","0.1696145944","","","","","","","72","H","0","img/none_selected.jpg","","168","main_expt"
"21","","bandit","247","607604","0.0-208.0-0.0","92997302","wem/bandit_either","A3O5EU9QQV2OS1","either","4","","","","","","","0","0","1","","0.2803439438","0.8","0.2","0.4","0.6","0.2803439438","0.08536867429","0.2367963754","0.1338518967","","","","","","","","","","","72","H","0","img/none_selected.jpg","","169","main_expt"
"136","","bandit","248","609259","0.0-209.0-0.0","92997302","wem/bandit_either","A3O5EU9QQV2OS1","either","4","","","","","","","0","0","1","0.3010437192","","0.8","0.2","0.4","0.6","","","","","0.3010437192","0.1083432756","0.2378050175","0.1307598277","","","","","","","72","H","0","img/none_selected.jpg","","170","main_expt"
"564","","bandit","249","611342","0.0-210.0-0.0","92997302","wem/bandit_either","A3O5EU9QQV2OS1","either","4","","","","","","","1","0","0","0.3243802095","","0.8","0.2","0.4","0.6","","","","","0.3243802095","0.09185370626","0.2253696972","0.1200375331","","","","","","","72","H","0","img/none_selected.jpg","","171","main_expt"
"63","","bandit","250","612922","0.0-211.0-0.0","92997302","wem/bandit_either","A3O5EU9QQV2OS1","either","4","","","","","","","0","0","1","0.3140094691","","0.8","0.2","0.4","0.6","","","","","0.3140094691","0.09458096772","0.2903394368","0.07514546963","","","","","","","72","H","0","img/none_selected.jpg","","172","main_expt"
"27","","bandit","251","614468","0.0-212.0-0.0","92997302","wem/bandit_either","A3O5EU9QQV2OS1","either","4","","","","","","","0","0","1","0.2433770114","","0.8","0.2","0.4","0.6","","","","","0.2433770114","0.1016296913","0.2384828248","0.07704486673","","","","","","","72","H","0","img/none_selected.jpg","","173","main_expt"
"201","","bandit","252","616190","0.0-213.0-0.0","92997302","wem/bandit_either","A3O5EU9QQV2OS1","either","4","","","","","","","0","0","1","","0.2080779891","0.8","0.2","0.4","0.6","0.2080779891","0.117107939","0.2823111034","0.04061738922","","","","","","","","","","","72","H","0","img/none_selected.jpg","","174","main_expt"
"318","","bandit","253","618030","0.0-214.0-0.0","92997302","wem/bandit_either","A3O5EU9QQV2OS1","either","4","","","","","","","1","0","0","0.2211365803","","0.8","0.2","0.4","0.6","","","","","0.2211365803","0.1254773658","0.292147578","0.02968316822","","","","","","","72","H","0","img/none_selected.jpg","","175","main_expt"
"216","","bandit","254","619766","0.0-215.0-0.0","92997302","wem/bandit_either","A3O5EU9QQV2OS1","either","4","","","","","","","0","0","1","0.231280906","","0.8","0.2","0.4","0.6","","","","","0.231280906","0.1518856622","0.2928295457","0.04419366322","","","","","","","72","H","0","img/none_selected.jpg","","176","main_expt"
"14","","bandit","255","621300","0.0-216.0-0.0","92997302","wem/bandit_either","A3O5EU9QQV2OS1","either","4","","","","","","","0","0","1","0.1689881391","","0.8","0.2","0.4","0.6","","","","","0.1689881391","0.1502483312","0.297241693","0.04140429262","","","","","","","72","H","0","img/none_selected.jpg","","177","main_expt"
"130","","bandit","256","622947","0.0-217.0-0.0","92997302","wem/bandit_either","A3O5EU9QQV2OS1","either","4","","","","","","","0","0","1","","0.1699404395","0.8","0.2","0.4","0.6","0.1699404395","0.2073149786","0.276241128","0.06103489621","","","","","","","","","","","72","H","0","img/none_selected.jpg","","178","main_expt"
"457","","bandit","257","624927","0.0-218.0-0.0","92997302","wem/bandit_either","A3O5EU9QQV2OS1","either","4","","","","","","","0","0","1","0.1571972967","","0.8","0.2","0.4","0.6","","","","","0.1571972967","0.1928578162","0.2405339857","0.053608248","","","","","","","72","H","0","img/none_selected.jpg","","179","main_expt"
"527","","bandit","258","626971","0.0-219.0-0.0","92997302","wem/bandit_either","A3O5EU9QQV2OS1","either","4","","","","","","","1","0","0","0.1567782565","","0.8","0.2","0.4","0.6","","","","","0.1567782565","0.1412953234","0.233428307","0.06289379635","","","","","","","72","H","0","img/none_selected.jpg","","180","main_expt"
"201","","bandit","259","628694","0.0-220.0-0.0","92997302","wem/bandit_either","A3O5EU9QQV2OS1","either","4","","","","","","","0","0","1","0.1492691696","","0.8","0.2","0.4","0.6","","","","","0.1492691696","0.1258774719","0.1459310114","0.07748386732","","","","","","","72","H","0","img/none_selected.jpg","","181","main_expt"
"255","","bandit","260","630471","0.0-221.0-0.0","92997302","wem/bandit_either","A3O5EU9QQV2OS1","either","4","","","","","","","1","0","0","0.1609613705","","0.8","0.2","0.4","0.6","","","","","0.1609613705","0.1121960069","0.1796360657","0.096714051","","","","","","","72","H","0","img/none_selected.jpg","","182","main_expt"
"70","","bandit","261","632062","0.0-222.0-0.0","92997302","wem/bandit_either","A3O5EU9QQV2OS1","either","4","","","","","","","0","0","1","0.1982891881","","0.8","0.2","0.4","0.6","","","","","0.1982891881","0.08335286121","0.1907874973","0.05351369794","","","","","","","72","H","0","img/none_selected.jpg","","183","main_expt"
"279","","bandit","262","633863","0.0-223.0-0.0","92997302","wem/bandit_either","A3O5EU9QQV2OS1","either","4","","","","","","","0","0","1","0.1703318442","","0.8","0.2","0.4","0.6","","","","","0.1703318442","0.1085923678","0.1451627339","0.08854511538","","","","","","","72","H","0","img/none_selected.jpg","","184","main_expt"
"70","","bandit","263","635452","0.0-224.0-0.0","92997302","wem/bandit_either","A3O5EU9QQV2OS1","either","4","","","","","","","0","0","1","","0.09566746086","0.8","0.2","0.4","0.6","0.09566746086","0.1113654269","0.1692531577","0.136385666","","","","","","","","","","","72","H","0","img/none_selected.jpg","","185","main_expt"
"209","","bandit","264","637183","0.0-225.0-0.0","92997302","wem/bandit_either","A3O5EU9QQV2OS1","either","4","","","","","","","0","0","1","0.1254261761","","0.8","0.2","0.4","0.6","","","","","0.1254261761","0.1383531569","0.1885113298","0.1848043888","","","","","","","72","H","0","img/none_selected.jpg","","186","main_expt"
"184","","bandit","265","638885","0.0-226.0-0.0","92997302","wem/bandit_either","A3O5EU9QQV2OS1","either","4","","","","","","","0","0","1","","0.1081798115","0.8","0.2","0.4","0.6","0.1081798115","0.1739713275","0.2088125345","0.1640989128","","","","","","","","","","","72","H","0","img/none_selected.jpg","","187","main_expt"
"32","","bandit","266","640433","0.0-227.0-0.0","92997302","wem/bandit_either","A3O5EU9QQV2OS1","either","4","","","","","","","0","0","1","0.08529062399","","0.8","0.2","0.4","0.6","","","","","0.08529062399","0.1926366302","0.2228369986","0.1301402021","","","","","","","72","H","0","img/none_selected.jpg","","188","main_expt"
"261","","bandit","267","642215","0.0-228.0-0.0","92997302","wem/bandit_either","A3O5EU9QQV2OS1","either","4","","","","","","","0","0","1","0.07250281893","","0.8","0.2","0.4","0.6","","","","","0.07250281893","0.2499935398","0.2567428292","0.1980942663","","","","","","","72","H","0","img/none_selected.jpg","","189","main_expt"
"62","","bandit","268","643794","0.0-229.0-0.0","92997302","wem/bandit_either","A3O5EU9QQV2OS1","either","4","","","","","","","0","0","1","","0.07895395147","0.8","0.2","0.4","0.6","0.07895395147","0.2367317824","0.3177850294","0.1842725295","","","","","","","","","","","72","H","0","img/none_selected.jpg","","190","main_expt"
"2","","bandit","269","645315","0.0-230.0-0.0","92997302","wem/bandit_either","A3O5EU9QQV2OS1","either","4","","","","","","","0","0","1","0.06204701637","","0.8","0.2","0.4","0.6","","","","","0.06204701637","0.2515026666","0.2876912335","0.2087081259","","","","","","","72","H","0","img/none_selected.jpg","","191","main_expt"
"2","","bandit","270","646836","0.0-231.0-0.0","92997302","wem/bandit_either","A3O5EU9QQV2OS1","either","4","","","","","","","0","0","1","0.064067899","","0.8","0.2","0.4","0.6","","","","","0.064067899","0.2451916405","0.2383873749","0.1800110976","","","","","","","72","H","0","img/none_selected.jpg","","192","main_expt"
"185","","bandit","271","648542","0.0-232.0-0.0","92997302","wem/bandit_either","A3O5EU9QQV2OS1","either","4","","","","","","","0","0","1","0.1286650472","","0.8","0.2","0.4","0.6","","","","","0.1286650472","0.2353451433","0.24690957","0.1519186298","","","","","","","72","H","0","img/none_selected.jpg","","193","main_expt"
"223","","bandit","272","650283","0.0-233.0-0.0","92997302","wem/bandit_either","A3O5EU9QQV2OS1","either","4","","","","","","","0","0","1","0.1746490116","","0.8","0.2","0.4","0.6","","","","","0.1746490116","0.307075739","0.2728455101","0.1431656489","","","","","","","72","H","0","img/none_selected.jpg","","194","main_expt"
"1173","","bandit","273","652972","0.0-234.0-0.0","92997302","wem/bandit_either","A3O5EU9QQV2OS1","either","4","","","","","","","0","0","1","0.129035247","","0.8","0.2","0.4","0.6","","","","","0.129035247","0.3011001907","0.2421292151","0.1868251083","","","","","","","72","H","0","img/none_selected.jpg","","195","main_expt"
"562","","bandit","274","655056","0.0-235.0-0.0","92997302","wem/bandit_either","A3O5EU9QQV2OS1","either","4","","","","","","","0","0","1","0.09052040682","","0.8","0.2","0.4","0.6","","","","","0.09052040682","0.2861216794","0.2598052724","0.176624335","","","","","","","72","H","0","img/none_selected.jpg","","196","main_expt"
"100","","bandit","275","656675","0.0-236.0-0.0","92997302","wem/bandit_either","A3O5EU9QQV2OS1","either","4","","","","","","","0","0","1","0.08675464884","","0.8","0.2","0.4","0.6","","","","","0.08675464884","0.2121549007","0.2540930088","0.2383323772","","","","","","","72","H","0","img/none_selected.jpg","","197","main_expt"
"338","","bandit","276","658533","0.0-237.0-0.0","92997302","wem/bandit_either","A3O5EU9QQV2OS1","either","4","","","","","","","1","0","0","0.260340052","","0.8","0.2","0.4","0.6","","","","","0.09429549835","0.260340052","0.2460150375","0.260618614","","","","","","","74","J","1","","","198","main_expt"
"136","","bandit","277","660187","0.0-238.0-0.0","92997302","wem/bandit_either","A3O5EU9QQV2OS1","either","4","","","","","","","0","0","1","","0.3009562829","0.8","0.2","0.4","0.6","0.09303778716","0.3009562829","0.2217343644","0.2935067364","","","","","","","","","","","74","J","1","","","199","main_expt"
"20","","bandit","278","661728","0.0-239.0-0.0","92997302","wem/bandit_either","A3O5EU9QQV2OS1","either","4","","","","","","","0","0","1","","0.3430896668","0.8","0.2","0.4","0.6","0.07354084322","0.3430896668","0.2830302048","0.362920627","","","","","","","","","","","74","J","1","","","200","main_expt"
"117","","bandit","279","663366","0.0-240.0-0.0","92997302","wem/bandit_either","A3O5EU9QQV2OS1","either","4","","","","","","","0","0","1","","0.2973668079","0.8","0.2","0.4","0.6","0.08115367452","0.2973668079","0.3175621279","0.3119044903","","","","","","","","","","","74","J","1","","","201","main_expt"
"28","","bandit","280","664913","0.0-241.0-0.0","92997302","wem/bandit_either","A3O5EU9QQV2OS1","either","4","","","","","","","0","1","0","","0.3219337599","0.8","0.2","0.4","0.6","0.0774842685","0.3219337599","0.3049471546","0.3095695708","","","","","","","","","","","74","J","1","","","202","main_expt"
"179","","bandit","281","666614","0.0-242.0-0.0","92997302","wem/bandit_either","A3O5EU9QQV2OS1","either","4","","","","","","","0","0","1","","0.3229991028","0.8","0.2","0.4","0.6","0.09704724367","0.3229991028","0.2975042969","0.3005459379","","","","","","","","","","","74","J","1","","","203","main_expt"
"23","","bandit","282","668158","0.0-243.0-0.0","92997302","wem/bandit_either","A3O5EU9QQV2OS1","either","4","","","","","","","0","0","1","","0.3077995671","0.8","0.2","0.4","0.6","0.1224111047","0.3077995671","0.2268457719","0.3116824409","","","","","","","","","","","74","J","1","","","204","main_expt"
"175","","bandit","283","669855","0.0-244.0-0.0","92997302","wem/bandit_either","A3O5EU9QQV2OS1","either","4","","","","","","","0","0","1","","0.3070199156","0.8","0.2","0.4","0.6","0.1627664319","0.3070199156","0.2582085449","0.3291635812","","","","","","","","","","","74","J","1","","","205","main_expt"
"79","","bandit","284","671455","0.0-245.0-0.0","92997302","wem/bandit_either","A3O5EU9QQV2OS1","either","4","","","","","","","0","0","1","","0.3109683939","0.8","0.2","0.4","0.6","0.1604236747","0.3109683939","0.2841247045","0.4008790519","","","","","","","","","","","74","J","1","","","206","main_expt"
"301","","bandit","285","673278","0.0-246.0-0.0","92997302","wem/bandit_either","A3O5EU9QQV2OS1","either","4","","","","","","","0","0","1","","0.2845075958","0.8","0.2","0.4","0.6","0.126388554","0.2845075958","0.3333225396","0.4202180382","","","","","","","","","","","74","J","1","","","207","main_expt"
"39","","bandit","286","674833","0.0-247.0-0.0","92997302","wem/bandit_either","A3O5EU9QQV2OS1","either","4","","","","","","","1","0","0","0.290219871","","0.8","0.2","0.4","0.6","","","","","0.1602309633","0.2419557814","0.290219871","0.4168586074","","","","","","","75","K","2","","","208","main_expt"
"172","","bandit","287","676530","0.0-248.0-0.0","92997302","wem/bandit_either","A3O5EU9QQV2OS1","either","4","","","","","","","0","0","1","0.3426384504","","0.8","0.2","0.4","0.6","","","","","0.2009997365","0.2449545816","0.3426384504","0.3949328033","","","","","","","75","K","2","","","209","main_expt"
"67","","bandit","288","678120","0.0-249.0-0.0","92997302","wem/bandit_either","A3O5EU9QQV2OS1","either","4","","","","","","","0","0","1","","0.2932754766","0.8","0.2","0.4","0.6","0.1997114924","0.2176860071","0.2932754766","0.41782505","","","","","","","","","","","75","K","2","","","210","main_expt"
"77","","bandit","289","679715","0.0-250.0-0.0","92997302","wem/bandit_either","A3O5EU9QQV2OS1","either","4","","","","","","","0","0","1","","0.2522206247","0.8","0.2","0.4","0.6","0.2631807131","0.2460847292","0.2522206247","0.4377941382","","","","","","","","","","","75","K","2","","","211","main_expt"
"201","","bandit","290","681440","0.0-251.0-0.0","92997302","wem/bandit_either","A3O5EU9QQV2OS1","either","4","","","","","","","0","0","1","0.2323705111","","0.8","0.2","0.4","0.6","","","","","0.2008991105","0.2017704833","0.2323705111","0.4619006446","","","","","","","75","K","2","","","212","main_expt"
"133","","bandit","291","683095","0.0-252.0-0.0","92997302","wem/bandit_either","A3O5EU9QQV2OS1","either","4","","","","","","","0","0","1","","0.2815580385","0.8","0.2","0.4","0.6","0.1656487101","0.1891715169","0.2815580385","0.4508737721","","","","","","","","","","","75","K","2","","","213","main_expt"
"95","","bandit","292","684709","0.0-253.0-0.0","92997302","wem/bandit_either","A3O5EU9QQV2OS1","either","4","","","","","","","0","0","1","0.2955812139","","0.8","0.2","0.4","0.6","","","","","0.213788386","0.1819308411","0.2955812139","0.4639731149","","","","","","","75","K","2","","","214","main_expt"
"120","","bandit","293","686349","0.0-254.0-0.0","92997302","wem/bandit_either","A3O5EU9QQV2OS1","either","4","","","","","","","0","0","1","0.4690757113","","0.8","0.2","0.4","0.6","","","","","0.2206736926","0.1406935411","0.2988647484","0.4690757113","","","","","","","76","L","3","","","215","main_expt"
"104","","bandit","294","687977","0.0-255.0-0.0","92997302","wem/bandit_either","A3O5EU9QQV2OS1","either","4","","","","","","","1","0","0","0.4685680314","","0.8","0.2","0.4","0.6","","","","","0.2270120675","0.206739756","0.3361974059","0.4685680314","","","","","","","76","L","3","","","216","main_expt"
"191","","bandit","295","689691","0.0-256.0-0.0","92997302","wem/bandit_either","A3O5EU9QQV2OS1","either","4","","","","","","","0","0","1","","0.4873952874","0.8","0.2","0.4","0.6","0.2561581829","0.178624692","0.2764506131","0.4873952874","","","","","","","","","","","76","L","3","","","217","main_expt"
"206","","bandit","296","691412","0.0-257.0-0.0","92997302","wem/bandit_either","A3O5EU9QQV2OS1","either","4","","","","","","","1","0","0","0.4790671899","","0.8","0.2","0.4","0.6","","","","","0.2785758431","0.2021641755","0.299893698","0.4790671899","","","","","","","76","L","3","","","218","main_expt"
"178","","bandit","297","693110","0.0-258.0-0.0","92997302","wem/bandit_either","A3O5EU9QQV2OS1","either","4","","","","","","","0","1","0","","0.4769795117","0.8","0.2","0.4","0.6","0.2707863597","0.2076996705","0.3213687962","0.4769795117","","","","","","","","","","","76","L","3","","","219","main_expt"
"281","","bandit","298","694908","0.0-259.0-0.0","92997302","wem/bandit_either","A3O5EU9QQV2OS1","either","4","","","","","","","1","0","0","0.4746148145","","0.8","0.2","0.4","0.6","","","","","0.2262269101","0.2479045362","0.3782095139","0.4746148145","","","","","","","76","L","3","","","220","main_expt"
"185","","bandit","299","696615","0.0-260.0-0.0","92997302","wem/bandit_either","A3O5EU9QQV2OS1","either","4","","","","","","","0","0","1","","0.4789253058","0.8","0.2","0.4","0.6","0.2522421151","0.251163546","0.3572699546","0.4789253058","","","","","","","","","","","76","L","3","","","221","main_expt"
"55","","bandit","300","698188","0.0-261.0-0.0","92997302","wem/bandit_either","A3O5EU9QQV2OS1","either","4","","","","","","","1","0","0","0.4765400837","","0.8","0.2","0.4","0.6","","","","","0.2323100388","0.2653622565","0.332217079","0.4765400837","","","","","","","76","L","3","","","222","main_expt"
"187","","bandit","301","699895","0.0-262.0-0.0","92997302","wem/bandit_either","A3O5EU9QQV2OS1","either","4","","","","","","","0","0","1","0.4872993944","","0.8","0.2","0.4","0.6","","","","","0.2013525365","0.2034578964","0.3327789551","0.4872993944","","","","","","","76","L","3","","","223","main_expt"
"359","","bandit","302","701776","0.0-263.0-0.0","92997302","wem/bandit_either","A3O5EU9QQV2OS1","either","4","","","","","","","0","0","1","0.4864577786","","0.8","0.2","0.4","0.6","","","","","0.2017363432","0.1176985371","0.3720138676","0.4864577786","","","","","","","76","L","3","","","224","main_expt"
"183","","bandit","303","703483","0.0-264.0-0.0","92997302","wem/bandit_either","A3O5EU9QQV2OS1","either","4","","","","","","","0","0","1","0.4815865163","","0.8","0.2","0.4","0.6","","","","","0.1608447522","0.08531446518","0.4035982493","0.4815865163","","","","","","","76","L","3","","","225","main_expt"
"407","","bandit","304","705412","0.0-265.0-0.0","92997302","wem/bandit_either","A3O5EU9QQV2OS1","either","4","","","","","","","1","0","0","0.4781941344","","0.8","0.2","0.4","0.6","","","","","0.2023183299","0.0901010045","0.3538577565","0.4781941344","","","","","","","76","L","3","","","226","main_expt"
"65","","bandit","305","707001","0.0-266.0-0.0","92997302","wem/bandit_either","A3O5EU9QQV2OS1","either","4","","","","","","","1","0","0","0.4742279627","","0.8","0.2","0.4","0.6","","","","","0.1555458008","0.06499555022","0.4205879778","0.4742279627","","","","","","","76","L","3","","","227","main_expt"
"204","","bandit","306","708731","0.0-267.0-0.0","92997302","wem/bandit_either","A3O5EU9QQV2OS1","either","4","","","","","","","0","0","1","0.4597327255","","0.8","0.2","0.4","0.6","","","","","0.1210896773","0.06967502077","0.4082381823","0.4597327255","","","","","","","76","L","3","","","228","main_expt"
"130","","bandit","307","710385","0.0-268.0-0.0","92997302","wem/bandit_either","A3O5EU9QQV2OS1","either","4","","","","","","","0","0","1","0.4733003713","","0.8","0.2","0.4","0.6","","","","","0.1206830913","0.07642173418","0.4274963613","0.4733003713","","","","","","","76","L","3","","","229","main_expt"
"240","","bandit","308","712144","0.0-269.0-0.0","92997302","wem/bandit_either","A3O5EU9QQV2OS1","either","4","","","","","","","0","1","0","","0.4832022084","0.8","0.2","0.4","0.6","0.1334008039","0.04973788902","0.4362488765","0.4832022084","","","","","","","","","","","76","L","3","","","230","main_expt"
"65","","bandit","309","713729","0.0-270.0-0.0","92997302","wem/bandit_either","A3O5EU9QQV2OS1","either","4","","","","","","","1","0","0","0.4802630573","","0.8","0.2","0.4","0.6","","","","","0.1048467088","0.07419495466","0.4420629534","0.4802630573","","","","","","","76","L","3","","","231","main_expt"
"52","","bandit","310","715302","0.0-271.0-0.0","92997302","wem/bandit_either","A3O5EU9QQV2OS1","either","4","","","","","","","0","0","1","0.4739318499","","0.8","0.2","0.4","0.6","","","","","0.1184002818","0.08125260149","0.4287414635","0.4739318499","","","","","","","76","L","3","","","232","main_expt"
"415","","bandit","311","717241","0.0-272.0-0.0","92997302","wem/bandit_either","A3O5EU9QQV2OS1","either","4","","","","","","","1","0","0","0.4709765286","","0.8","0.2","0.4","0.6","","","","","0.08533064469","0.06057073796","0.4395511981","0.4709765286","","","","","","","76","L","3","","","233","main_expt"
"225","","bandit","312","718988","0.0-273.0-0.0","92997302","wem/bandit_either","A3O5EU9QQV2OS1","either","4","","","","","","","0","0","1","0.4658145356","","0.8","0.2","0.4","0.6","","","","","0.1190123434","0.1037411708","0.4479240545","0.4658145356","","","","","","","76","L","3","","","234","main_expt"
"235","","bandit","313","720741","0.0-274.0-0.0","92997302","wem/bandit_either","A3O5EU9QQV2OS1","either","4","","","","","","","0","1","0","","0.4312508187","0.8","0.2","0.4","0.6","0.1392024459","0.1267441937","0.4476644646","0.4312508187","","","","","","","","","","","76","L","3","","","235","main_expt"
"264","","bandit","314","722529","0.0-275.0-0.0","92997302","wem/bandit_either","A3O5EU9QQV2OS1","either","4","","","","","","","0","0","1","","0.4323277229","0.8","0.2","0.4","0.6","0.1076242464","0.1002206095","0.457106966","0.4323277229","","","","","","","","","","","76","L","3","","","236","main_expt"
"324","","bandit","315","724375","0.0-276.0-0.0","92997302","wem/bandit_either","A3O5EU9QQV2OS1","either","4","","","","","","","0","0","1","","0.4517679415","0.8","0.2","0.4","0.6","0.1539911713","0.08353940566","0.4097288684","0.4517679415","","","","","","","","","","","76","L","3","","","237","main_expt"
"77","","bandit","316","725978","0.0-277.0-0.0","92997302","wem/bandit_either","A3O5EU9QQV2OS1","either","4","","","","","","","1","0","0","0.4476427196","","0.8","0.2","0.4","0.6","","","","","0.1833253983","0.07847158511","0.4530646831","0.4476427196","","","","","","","76","L","3","","","238","main_expt"
"139","","bandit","317","727640","0.0-278.0-0.0","92997302","wem/bandit_either","A3O5EU9QQV2OS1","either","4","","","","","","","1","0","0","0.4421551546","","0.8","0.2","0.4","0.6","","","","","0.185515968","0.1132310855","0.4532148127","0.4421551546","","","","","","","76","L","3","","","239","main_expt"
"19","","bandit","318","729182","0.0-279.0-0.0","92997302","wem/bandit_either","A3O5EU9QQV2OS1","either","4","","","","","","","0","0","1","0.4205303603","","0.8","0.2","0.4","0.6","","","","","0.2545144829","0.130249024","0.4456906816","0.4205303603","","","","","","","76","L","3","","","240","main_expt"
"368","","bandit","319","731075","0.0-280.0-0.0","92997302","wem/bandit_either","A3O5EU9QQV2OS1","either","4","","","","","","","0","0","1","0.4304808994","","0.8","0.2","0.4","0.6","","","","","0.1902236802","0.1356270161","0.4515134246","0.4304808994","","","","","","","76","L","3","","","241","main_expt"
"242","","bandit","320","732842","0.0-281.0-0.0","92997302","wem/bandit_either","A3O5EU9QQV2OS1","either","4","","","","","","","0","0","1","0.4318168925","","0.8","0.2","0.4","0.6","","","","","0.2196571485","0.1402569013","0.4640222466","0.4318168925","","","","","","","76","L","3","","","242","main_expt"
"211","","bandit","321","734577","0.0-282.0-0.0","92997302","wem/bandit_either","A3O5EU9QQV2OS1","either","4","","","","","","","1","0","0","0.4437639365","","0.8","0.2","0.4","0.6","","","","","0.2691755858","0.1851652895","0.4305348251","0.4437639365","","","","","","","76","L","3","","","243","main_expt"
"50","","bandit","322","736157","0.0-283.0-0.0","92997302","wem/bandit_either","A3O5EU9QQV2OS1","either","4","","","","","","","0","0","1","0.4444545885","","0.8","0.2","0.4","0.6","","","","","0.2689580194","0.1871667761","0.4444417595","0.4444545885","","","","","","","76","L","3","","","244","main_expt"
"7","","bandit","323","737689","0.0-284.0-0.0","92997302","wem/bandit_either","A3O5EU9QQV2OS1","either","4","","","","","","","0","0","1","","0.445216333","0.8","0.2","0.4","0.6","0.1935089033","0.1881322931","0.4468105605","0.445216333","","","","","","","","","","","76","L","3","","","245","main_expt"
"85","","bandit","324","739295","0.0-285.0-0.0","92997302","wem/bandit_either","A3O5EU9QQV2OS1","either","4","","","","","","","0","1","0","","0.4767449203","0.8","0.2","0.4","0.6","0.1466547275","0.187853128","0.4453418505","0.4767449203","","","","","","","","","","","76","L","3","","","246","main_expt"
"111","","bandit","325","740926","0.0-286.0-0.0","92997302","wem/bandit_either","A3O5EU9QQV2OS1","either","4","","","","","","","0","1","0","","0.4530054638","0.8","0.2","0.4","0.6","0.1275107348","0.1952756904","0.4426138654","0.4530054638","","","","","","","","","","","76","L","3","","","247","main_expt"
"95","","bandit","326","742545","0.0-287.0-0.0","92997302","wem/bandit_either","A3O5EU9QQV2OS1","either","4","","","","","","","1","0","0","0.4326938674","","0.8","0.2","0.4","0.6","","","","","0.107785627","0.1722543521","0.464375056","0.4326938674","","","","","","","76","L","3","","","248","main_expt"
"62","","bandit","327","744125","0.0-288.0-0.0","92997302","wem/bandit_either","A3O5EU9QQV2OS1","either","4","","","","","","","0","0","1","","0.4276367863","0.8","0.2","0.4","0.6","0.1169449123","0.1935833679","0.4416705694","0.4276367863","","","","","","","","","","","76","L","3","","","249","main_expt"
"113","","bandit","328","745762","0.0-289.0-0.0","92997302","wem/bandit_either","A3O5EU9QQV2OS1","either","4","","","","","","","0","0","1","0.4602627553","","0.8","0.2","0.4","0.6","","","","","0.1474950258","0.1783221165","0.4352039605","0.4602627553","","","","","","","76","L","3","","","250","main_expt"
"213","","bandit","329","747499","0.0-290.0-0.0","92997302","wem/bandit_either","A3O5EU9QQV2OS1","either","4","","","","","","","0","1","0","","0.4429671406","0.8","0.2","0.4","0.6","0.1272017844","0.2191654692","0.4625669079","0.4429671406","","","","","","","","","","","76","L","3","","","251","main_expt"
