"rt","responses","trial_type","trial_index","time_elapsed","internal_node_id","subjID","study","MID","cond","drift","key_press","expt_phase","target","like","value","connected","gems","bombs","no_reward","GemPrChosen","BombPrChosen","GainOverPainPr_0","GainOverPainPr_1","GainOverPainPr_2","GainOverPainPr_3","LosePr_0","LosePr_1","LosePr_2","LosePr_3","WinPr_0","WinPr_1","WinPr_2","WinPr_3","Q0","Q1","Q2","gender","age","ethnicity","respCharCode","respKey","respChoiceNum","respChoice","practice","trial_counter","trial_label"
"11246","{""Q0"":""A1Z3NTRGIUZ240""}","survey-text","0","11255","0.0-0.0","93240998","wem/bandit_either","A1Z3NTRGIUZ240","either","7","","","","","","","","","","","","","","","","","","","","","","","","","","","","","","","","","","","",""
"779833","","text","1","792094","0.0-1.0","93240998","wem/bandit_either","A1Z3NTRGIUZ240","either","7","32","","","","","","","","","","","","","","","","","","","","","","","","","","","","","","","","","","",""
"5707","","text","2","797809","0.0-2.0","93240998","wem/bandit_either","A1Z3NTRGIUZ240","either","7","32","","","","","","","","","","","","","","","","","","","","","","","","","","","","","","","","","","",""
"10431","","text","3","808242","0.0-3.0","93240998","wem/bandit_either","A1Z3NTRGIUZ240","either","7","32","","","","","","","","","","","","","","","","","","","","","","","","","","","","","","","","","","",""
"4013","","text","4","812258","0.0-4.0","93240998","wem/bandit_either","A1Z3NTRGIUZ240","either","7","32","","","","","","","","","","","","","","","","","","","","","","","","","","","","","","","","","","",""
"9951","","text","5","822210","0.0-5.0","93240998","wem/bandit_either","A1Z3NTRGIUZ240","either","7","32","","","","","","","","","","","","","","","","","","","","","","","","","","","","","","","","","","",""
"6997","","text","6","829209","0.0-6.0","93240998","wem/bandit_either","A1Z3NTRGIUZ240","either","7","32","","","","","","","","","","","","","","","","","","","","","","","","","","","","","","","","","","",""
"5631","","text","7","834843","0.0-7.0","93240998","wem/bandit_either","A1Z3NTRGIUZ240","either","7","32","","","","","","","","","","","","","","","","","","","","","","","","","","","","","","","","","","",""
"9944","","identification","8","844814","0.0-8.0-0.0","93240998","wem/bandit_either","A1Z3NTRGIUZ240","either","7","","identification_pre","the village of Zur","","","","","","","","","","","","","","","","","","","","","","","","","","","","","","","","",""
"3275","","identification","9","849104","0.0-8.0-1.0","93240998","wem/bandit_either","A1Z3NTRGIUZ240","either","7","","identification_pre","the village of Nyx","","","","","","","","","","","","","","","","","","","","","","","","","","","","","","","","",""
"3981","","text","10","854098","0.0-9.0","93240998","wem/bandit_either","A1Z3NTRGIUZ240","either","7","32","","","","","","","","","","","","","","","","","","","","","","","","","","","","","","","","","","",""
"4174","","text","11","858275","0.0-10.0","93240998","wem/bandit_either","A1Z3NTRGIUZ240","either","7","32","","","","","","","","","","","","","","","","","","","","","","","","","","","","","","","","","","",""
"2437","","text","12","860714","0.0-11.0","93240998","wem/bandit_either","A1Z3NTRGIUZ240","either","7","32","","","","","","","","","","","","","","","","","","","","","","","","","","","","","","","","","","",""
"4086","","text","13","864802","0.0-12.0","93240998","wem/bandit_either","A1Z3NTRGIUZ240","either","7","32","","","","","","","","","","","","","","","","","","","","","","","","","","","","","","","","","","",""
"918","","bandit","14","867254","0.0-13.0-0.0","93240998","wem/bandit_either","A1Z3NTRGIUZ240","either","7","","","","","","","0","0","1","0","0","","","","","0","","","","0","","","","","","","","","","74","J","0","img/none_selected_demo.jpg","true","0",""
"869","","bandit","15","869654","0.0-14.0-0.0","93240998","wem/bandit_either","A1Z3NTRGIUZ240","either","7","","","","","","","0","0","1","0","0","","","","","0","","","","0","","","","","","","","","","75","K","0","img/none_selected_demo.jpg","true","0",""
"9122","","text","16","878779","0.0-15.0","93240998","wem/bandit_either","A1Z3NTRGIUZ240","either","7","32","","","","","","","","","","","","","","","","","","","","","","","","","","","","","","","","","","",""
"4716","","text","17","883498","0.0-16.0","93240998","wem/bandit_either","A1Z3NTRGIUZ240","either","7","32","","","","","","","","","","","","","","","","","","","","","","","","","","","","","","","","","","",""
"4493","","text","18","887995","0.0-17.0","93240998","wem/bandit_either","A1Z3NTRGIUZ240","either","7","32","","","","","","","","","","","","","","","","","","","","","","","","","","","","","","","","","","",""
"7580","","text","19","895579","0.0-18.0","93240998","wem/bandit_either","A1Z3NTRGIUZ240","either","7","32","","","","","","","","","","","","","","","","","","","","","","","","","","","","","","","","","","",""
"602","","bandit","20","897715","0.0-19.0-0.0","93240998","wem/bandit_either","A1Z3NTRGIUZ240","either","7","","","","","","","1","0","0","0.8","","0.5","0.5","","","","","","","0.8","0.2","","","","","","","","","74","J","0","img/none_selected_demo.jpg","true","0","80_20_practice"
"255","","bandit","21","899496","0.0-19.0-1.0","93240998","wem/bandit_either","A1Z3NTRGIUZ240","either","7","","","","","","","1","0","0","0.8","","0.5","0.5","","","","","","","0.8","0.2","","","","","","","","","74","J","0","img/none_selected_demo.jpg","true","0","80_20_practice"
"253","","bandit","22","901276","0.0-19.0-2.0","93240998","wem/bandit_either","A1Z3NTRGIUZ240","either","7","","","","","","","0","1","0","","0.8","0.5","0.5","","","0.8","0.2","","","","","","","","","","","","","74","J","0","img/none_selected_demo.jpg","true","0","80_20_practice"
"272","","bandit","23","903084","0.0-19.0-3.0","93240998","wem/bandit_either","A1Z3NTRGIUZ240","either","7","","","","","","","0","0","1","0.8","","0.5","0.5","","","","","","","0.8","0.2","","","","","","","","","74","J","0","img/none_selected_demo.jpg","true","0","80_20_practice"
"282","","bandit","24","904887","0.0-19.0-4.0","93240998","wem/bandit_either","A1Z3NTRGIUZ240","either","7","","","","","","","0","0","1","0.8","","0.5","0.5","","","","","","","0.8","0.2","","","","","","","","","74","J","0","img/none_selected_demo.jpg","true","0","80_20_practice"
"205","","bandit","25","906629","0.0-19.0-5.0","93240998","wem/bandit_either","A1Z3NTRGIUZ240","either","7","","","","","","","0","0","1","0.8","","0.5","0.5","","","","","","","0.8","0.2","","","","","","","","","74","J","0","img/none_selected_demo.jpg","true","0","80_20_practice"
"265","","bandit","26","908416","0.0-19.0-6.0","93240998","wem/bandit_either","A1Z3NTRGIUZ240","either","7","","","","","","","1","0","0","0.8","","0.5","0.5","","","","","","","0.8","0.2","","","","","","","","","74","J","0","img/none_selected_demo.jpg","true","0","80_20_practice"
"437","","bandit","27","910377","0.0-19.0-7.0","93240998","wem/bandit_either","A1Z3NTRGIUZ240","either","7","","","","","","","0","1","0","","0.8","0.5","0.5","","","0.8","0.2","","","","","","","","","","","","","74","J","0","img/none_selected_demo.jpg","true","0","80_20_practice"
"299","","bandit","28","912195","0.0-19.0-8.0","93240998","wem/bandit_either","A1Z3NTRGIUZ240","either","7","","","","","","","1","0","0","0.8","","0.5","0.5","","","","","","","0.8","0.2","","","","","","","","","74","J","0","img/none_selected_demo.jpg","true","0","80_20_practice"
"249","","bandit","29","913974","0.0-19.0-9.0","93240998","wem/bandit_either","A1Z3NTRGIUZ240","either","7","","","","","","","0","1","0","","0.8","0.5","0.5","","","0.8","0.2","","","","","","","","","","","","","74","J","0","img/none_selected_demo.jpg","true","0","80_20_practice"
"232","","bandit","30","915742","0.0-19.0-10.0","93240998","wem/bandit_either","A1Z3NTRGIUZ240","either","7","","","","","","","0","1","0","","0.8","0.5","0.5","","","0.8","0.2","","","","","","","","","","","","","74","J","0","img/none_selected_demo.jpg","true","0","80_20_practice"
"207","","bandit","31","917467","0.0-19.0-11.0","93240998","wem/bandit_either","A1Z3NTRGIUZ240","either","7","","","","","","","1","0","0","0.8","","0.5","0.5","","","","","","","0.8","0.2","","","","","","","","","74","J","0","img/none_selected_demo.jpg","true","0","80_20_practice"
"209","","bandit","32","919205","0.0-19.0-12.0","93240998","wem/bandit_either","A1Z3NTRGIUZ240","either","7","","","","","","","0","1","0","","0.8","0.5","0.5","","","0.8","0.2","","","","","","","","","","","","","74","J","0","img/none_selected_demo.jpg","true","0","80_20_practice"
"87","","bandit","33","920801","0.0-19.0-13.0","93240998","wem/bandit_either","A1Z3NTRGIUZ240","either","7","","","","","","","0","1","0","","0.8","0.5","0.5","","","0.8","0.2","","","","","","","","","","","","","74","J","0","img/none_selected_demo.jpg","true","0","80_20_practice"
"124","","bandit","34","922456","0.0-19.0-14.0","93240998","wem/bandit_either","A1Z3NTRGIUZ240","either","7","","","","","","","0","1","0","","0.8","0.5","0.5","","","0.8","0.2","","","","","","","","","","","","","74","J","0","img/none_selected_demo.jpg","true","0","80_20_practice"
"235","","bandit","35","924221","0.0-19.0-15.0","93240998","wem/bandit_either","A1Z3NTRGIUZ240","either","7","","","","","","","0","1","0","","0.8","0.5","0.5","","","0.8","0.2","","","","","","","","","","","","","74","J","0","img/none_selected_demo.jpg","true","0","80_20_practice"
"71","","bandit","36","925801","0.0-19.0-16.0","93240998","wem/bandit_either","A1Z3NTRGIUZ240","either","7","","","","","","","0","0","1","","0.8","0.5","0.5","","","0.8","0.2","","","","","","","","","","","","","74","J","0","img/none_selected_demo.jpg","true","0","80_20_practice"
"19","","bandit","37","927331","0.0-19.0-17.0","93240998","wem/bandit_either","A1Z3NTRGIUZ240","either","7","","","","","","","0","0","1","","0.8","0.5","0.5","","","0.8","0.2","","","","","","","","","","","","","74","J","0","img/none_selected_demo.jpg","true","0","80_20_practice"
"1018","","bandit","38","929877","0.0-19.0-18.0","93240998","wem/bandit_either","A1Z3NTRGIUZ240","either","7","","","","","","","1","0","0","0.8","","0.5","0.5","","","","","","","0.8","0.2","","","","","","","","","74","J","0","img/none_selected_demo.jpg","true","0","80_20_practice"
"31","","bandit","39","931416","0.0-19.0-19.0","93240998","wem/bandit_either","A1Z3NTRGIUZ240","either","7","","","","","","","1","0","0","0.8","","0.5","0.5","","","","","","","0.8","0.2","","","","","","","","","74","J","0","img/none_selected_demo.jpg","true","0","80_20_practice"
"2783","","text","40","934203","0.0-20.0","93240998","wem/bandit_either","A1Z3NTRGIUZ240","either","7","32","","","","","","","","","","","","","","","","","","","","","","","","","","","","","","","","","","",""
"530","","bandit","41","936241","0.0-21.0-0.0","93240998","wem/bandit_either","A1Z3NTRGIUZ240","either","7","","","","","","","1","0","0","1","0","","","","","0","1","","","1","0","","","","","","","","","74","J","0","img/none_selected_demo.jpg","true","0",""
"6971","","text","42","943217","0.0-22.0","93240998","wem/bandit_either","A1Z3NTRGIUZ240","either","7","32","","","","","","","","","","","","","","","","","","","","","","","","","","","","","","","","","","",""
"3633","","text","43","946853","0.0-23.0","93240998","wem/bandit_either","A1Z3NTRGIUZ240","either","7","32","","","","","","","","","","","","","","","","","","","","","","","","","","","","","","","","","","",""
"3011","","text","44","949868","0.0-24.0","93240998","wem/bandit_either","A1Z3NTRGIUZ240","either","7","32","","","","","","","","","","","","","","","","","","","","","","","","","","","","","","","","","","",""
"3525","","text","45","953397","0.0-25.0","93240998","wem/bandit_either","A1Z3NTRGIUZ240","either","7","32","","","","","","","","","","","","","","","","","","","","","","","","","","","","","","","","","","",""
"4163","","text","46","957564","0.0-26.0","93240998","wem/bandit_either","A1Z3NTRGIUZ240","either","7","32","","","","","","","","","","","","","","","","","","","","","","","","","","","","","","","","","","",""
"1764","","text","47","959332","0.0-27.0","93240998","wem/bandit_either","A1Z3NTRGIUZ240","either","7","32","","","","","","","","","","","","","","","","","","","","","","","","","","","","","","","","","","",""
"748","","text","48","960084","0.0-28.0","93240998","wem/bandit_either","A1Z3NTRGIUZ240","either","7","32","","","","","","","","","","","","","","","","","","","","","","","","","","","","","","","","","","",""
"2811","","text","49","962901","0.0-29.0","93240998","wem/bandit_either","A1Z3NTRGIUZ240","either","7","32","","","","","","","","","","","","","","","","","","","","","","","","","","","","","","","","","","",""
"6006","","text","50","968910","0.0-30.0","93240998","wem/bandit_either","A1Z3NTRGIUZ240","either","7","32","","","","","","","","","","","","","","","","","","","","","","","","","","","","","","","","","","",""
"2442","","text","51","971360","0.0-31.0","93240998","wem/bandit_either","A1Z3NTRGIUZ240","either","7","32","","","","","","","","","","","","","","","","","","","","","","","","","","","","","","","","","","",""
"5383","","text","52","976748","0.0-32.0","93240998","wem/bandit_either","A1Z3NTRGIUZ240","either","7","32","","","","","","","","","","","","","","","","","","","","","","","","","","","","","","","","","","",""
"615","","bandit","53","978895","0.0-33.0-0.0","93240998","wem/bandit_either","A1Z3NTRGIUZ240","either","7","","","","","","","0","0","1","0.8","","0.5","0.5","0.5","0.5","","","","","0.8","0.2","0.6","0.2","","","","","","","72","H","0","img/none_selected.jpg","true","0","full_practice"
"174","","bandit","54","980607","0.0-33.0-1.0","93240998","wem/bandit_either","A1Z3NTRGIUZ240","either","7","","","","","","","1","0","0","0.8","","0.5","0.5","0.5","0.5","","","","","0.8","0.2","0.6","0.2","","","","","","","72","H","0","img/none_selected.jpg","true","0","full_practice"
"190","","bandit","55","982312","0.0-33.0-2.0","93240998","wem/bandit_either","A1Z3NTRGIUZ240","either","7","","","","","","","0","1","0","","0.8","0.5","0.5","0.5","0.5","0.8","0.2","0.6","0.2","","","","","","","","","","","72","H","0","img/none_selected.jpg","true","0","full_practice"
"205","","bandit","56","984041","0.0-33.0-3.0","93240998","wem/bandit_either","A1Z3NTRGIUZ240","either","7","","","","","","","0","1","0","","0.8","0.5","0.5","0.5","0.5","0.8","0.2","0.6","0.2","","","","","","","","","","","72","H","0","img/none_selected.jpg","true","0","full_practice"
"254","","bandit","57","985803","0.0-33.0-4.0","93240998","wem/bandit_either","A1Z3NTRGIUZ240","either","7","","","","","","","0","1","0","","0.8","0.5","0.5","0.5","0.5","0.8","0.2","0.6","0.2","","","","","","","","","","","72","H","0","img/none_selected.jpg","true","0","full_practice"
"258","","bandit","58","987587","0.0-33.0-5.0","93240998","wem/bandit_either","A1Z3NTRGIUZ240","either","7","","","","","","","0","1","0","","0.8","0.5","0.5","0.5","0.5","0.8","0.2","0.6","0.2","","","","","","","","","","","72","H","0","img/none_selected.jpg","true","0","full_practice"
"218","","bandit","59","989332","0.0-33.0-6.0","93240998","wem/bandit_either","A1Z3NTRGIUZ240","either","7","","","","","","","0","1","0","","0.8","0.5","0.5","0.5","0.5","0.8","0.2","0.6","0.2","","","","","","","","","","","72","H","0","img/none_selected.jpg","true","0","full_practice"
"137","","bandit","60","990989","0.0-33.0-7.0","93240998","wem/bandit_either","A1Z3NTRGIUZ240","either","7","","","","","","","0","0","1","0.8","","0.5","0.5","0.5","0.5","","","","","0.8","0.2","0.6","0.2","","","","","","","72","H","0","img/none_selected.jpg","true","0","full_practice"
"111","","bandit","61","992629","0.0-33.0-8.0","93240998","wem/bandit_either","A1Z3NTRGIUZ240","either","7","","","","","","","0","1","0","","0.8","0.5","0.5","0.5","0.5","0.8","0.2","0.6","0.2","","","","","","","","","","","72","H","0","img/none_selected.jpg","true","0","full_practice"
"95","","bandit","62","994257","0.0-33.0-9.0","93240998","wem/bandit_either","A1Z3NTRGIUZ240","either","7","","","","","","","0","1","0","","0.8","0.5","0.5","0.5","0.5","0.8","0.2","0.6","0.2","","","","","","","","","","","72","H","0","img/none_selected.jpg","true","0","full_practice"
"53","","bandit","63","995847","0.0-33.0-10.0","93240998","wem/bandit_either","A1Z3NTRGIUZ240","either","7","","","","","","","0","0","1","","0.8","0.5","0.5","0.5","0.5","0.8","0.2","0.6","0.2","","","","","","","","","","","72","H","0","img/none_selected.jpg","true","0","full_practice"
"72","","bandit","64","997442","0.0-33.0-11.0","93240998","wem/bandit_either","A1Z3NTRGIUZ240","either","7","","","","","","","0","0","1","","0.2","0.5","0.5","0.5","0.5","0.8","0.2","0.6","0.2","","","","","","","","","","","74","J","1","","true","0","full_practice"
"897","","bandit","65","999862","0.0-33.0-12.0","93240998","wem/bandit_either","A1Z3NTRGIUZ240","either","7","","","","","","","0","0","1","","0.2","0.5","0.5","0.5","0.5","0.8","0.2","0.6","0.2","","","","","","","","","","","74","J","1","","true","0","full_practice"
"22","","bandit","66","1001410","0.0-33.0-13.0","93240998","wem/bandit_either","A1Z3NTRGIUZ240","either","7","","","","","","","0","1","0","","0.8","0.5","0.5","0.5","0.5","0.8","0.2","0.6","0.2","","","","","","","","","","","72","H","0","img/none_selected.jpg","true","0","full_practice"
"104","","bandit","67","1003047","0.0-33.0-14.0","93240998","wem/bandit_either","A1Z3NTRGIUZ240","either","7","","","","","","","1","0","0","0.8","","0.5","0.5","0.5","0.5","","","","","0.8","0.2","0.6","0.2","","","","","","","72","H","0","img/none_selected.jpg","true","0","full_practice"
"125","","bandit","68","1004691","0.0-33.0-15.0","93240998","wem/bandit_either","A1Z3NTRGIUZ240","either","7","","","","","","","1","0","0","0.8","","0.5","0.5","0.5","0.5","","","","","0.8","0.2","0.6","0.2","","","","","","","72","H","0","img/none_selected.jpg","true","0","full_practice"
"57","","bandit","69","1006277","0.0-33.0-16.0","93240998","wem/bandit_either","A1Z3NTRGIUZ240","either","7","","","","","","","0","0","1","0.8","","0.5","0.5","0.5","0.5","","","","","0.8","0.2","0.6","0.2","","","","","","","72","H","0","img/none_selected.jpg","true","0","full_practice"
"869","","bandit","70","1008666","0.0-33.0-17.0","93240998","wem/bandit_either","A1Z3NTRGIUZ240","either","7","","","","","","","0","0","1","","0.8","0.5","0.5","0.5","0.5","0.8","0.2","0.6","0.2","","","","","","","","","","","72","H","0","img/none_selected.jpg","true","0","full_practice"
"3","","bandit","71","1010198","0.0-33.0-18.0","93240998","wem/bandit_either","A1Z3NTRGIUZ240","either","7","","","","","","","1","0","0","0.8","","0.5","0.5","0.5","0.5","","","","","0.8","0.2","0.6","0.2","","","","","","","72","H","0","img/none_selected.jpg","true","0","full_practice"
"253","","bandit","72","1011986","0.0-33.0-19.0","93240998","wem/bandit_either","A1Z3NTRGIUZ240","either","7","","","","","","","1","0","0","0.8","","0.5","0.5","0.5","0.5","","","","","0.8","0.2","0.6","0.2","","","","","","","72","H","0","img/none_selected.jpg","true","0","full_practice"
"2474","","text","73","1014476","0.0-34.0","93240998","wem/bandit_either","A1Z3NTRGIUZ240","either","7","32","","","","","","","","","","","","","","","","","","","","","","","","","","","","","","","","","","",""
"14972","","text","74","1030470","0.0-35.0","93240998","wem/bandit_either","A1Z3NTRGIUZ240","either","7","32","","","","","","","","","","","","","","","","","","","","","","","","","","","","","","","","","","",""
"17186","","text","75","1047661","0.0-36.0","93240998","wem/bandit_either","A1Z3NTRGIUZ240","either","7","32","","","","","","","","","","","","","","","","","","","","","","","","","","","","","","","","","","",""
"9306","","text","76","1056973","0.0-37.0","93240998","wem/bandit_either","A1Z3NTRGIUZ240","either","7","32","","","","","","","","","","","","","","","","","","","","","","","","","","","","","","","","","","",""
"7874","","text","77","1064854","0.0-38.0","93240998","wem/bandit_either","A1Z3NTRGIUZ240","either","7","32","","","","","","","","","","","","","","","","","","","","","","","","","","","","","","","","","","",""
"6338","","text","78","1071197","0.0-39.0","93240998","wem/bandit_either","A1Z3NTRGIUZ240","either","7","32","","","","","","","","","","","","","","","","","","","","","","","","","","","","","","","","","","",""
"904","","bandit","79","1073635","0.0-40.0-0.0","93240998","wem/bandit_either","A1Z3NTRGIUZ240","either","7","","","","","","","0","0","1","","0.06530018083","0.2","0.8","0.4","0.6","0.1480066451","0.01738065524","0.1952616071","0.06530018083","","","","","","","","","","","76","L","3","","","1","main_expt"
"479","","bandit","80","1075653","0.0-41.0-0.0","93240998","wem/bandit_either","A1Z3NTRGIUZ240","either","7","","","","","","","0","0","1","","0.1011701763","0.2","0.8","0.4","0.6","0.1053714073","0.0196943787","0.1652234336","0.1011701763","","","","","","","","","","","76","L","3","","","2","main_expt"
"359","","bandit","81","1077546","0.0-42.0-0.0","93240998","wem/bandit_either","A1Z3NTRGIUZ240","either","7","","","","","","","0","0","1","","0.09486719381","0.2","0.8","0.4","0.6","0.1460078221","0.01678573497","0.1347382479","0.09486719381","","","","","","","","","","","76","L","3","","","3","main_expt"
"170","","bandit","82","1079250","0.0-43.0-0.0","93240998","wem/bandit_either","A1Z3NTRGIUZ240","either","7","","","","","","","0","0","1","0.1684625442","","0.2","0.8","0.4","0.6","","","","","0.1866138214","0.02981965743","0.1684625442","0.06705802814","","","","","","","75","K","2","","","4","main_expt"
"225","","bandit","83","1081004","0.0-44.0-0.0","93240998","wem/bandit_either","A1Z3NTRGIUZ240","either","7","","","","","","","0","1","0","","0.1792029032","0.2","0.8","0.4","0.6","0.2445348717","0.02600208211","0.1792029032","0.0822298525","","","","","","","","","","","75","K","2","","","5","main_expt"
"280","","bandit","84","1082795","0.0-45.0-0.0","93240998","wem/bandit_either","A1Z3NTRGIUZ240","either","7","","","","","","","0","0","1","","0.2153873139","0.2","0.8","0.4","0.6","0.2546962146","0.02332436933","0.2153873139","0.09162209411","","","","","","","","","","","75","K","2","","","6","main_expt"
"198","","bandit","85","1084521","0.0-46.0-0.0","93240998","wem/bandit_either","A1Z3NTRGIUZ240","either","7","","","","","","","0","0","1","0.1757762721","","0.2","0.8","0.4","0.6","","","","","0.2344841702","0.02864040813","0.1757762721","0.1028820098","","","","","","","75","K","2","","","7","main_expt"
"215","","bandit","86","1086269","0.0-47.0-0.0","93240998","wem/bandit_either","A1Z3NTRGIUZ240","either","7","","","","","","","0","0","1","0.02951264166","","0.2","0.8","0.4","0.6","","","","","0.2473344203","0.02951264166","0.2241229746","0.1532270122","","","","","","","74","J","1","","","8","main_expt"
"271","","bandit","87","1088067","0.0-48.0-0.0","93240998","wem/bandit_either","A1Z3NTRGIUZ240","either","7","","","","","","","0","0","1","0.02997011939","","0.2","0.8","0.4","0.6","","","","","0.2642160399","0.02997011939","0.2199426203","0.2131450397","","","","","","","74","J","1","","","9","main_expt"
"119","","bandit","88","1089714","0.0-49.0-0.0","93240998","wem/bandit_either","A1Z3NTRGIUZ240","either","7","","","","","","","0","0","1","0.02489651457","","0.2","0.8","0.4","0.6","","","","","0.2104627424","0.02489651457","0.1520686932","0.2985754635","","","","","","","74","J","1","","","10","main_expt"
"145","","bandit","89","1091371","0.0-50.0-0.0","93240998","wem/bandit_either","A1Z3NTRGIUZ240","either","7","","","","","","","0","0","1","","0.219372878","0.2","0.8","0.4","0.6","0.219372878","0.01651058827","0.2013349999","0.2924640086","","","","","","","","","","","72","H","0","img/none_selected.jpg","","11","main_expt"
"182","","bandit","90","1093087","0.0-51.0-0.0","93240998","wem/bandit_either","A1Z3NTRGIUZ240","either","7","","","","","","","0","0","1","","0.2105839871","0.2","0.8","0.4","0.6","0.2105839871","0.02341729431","0.2156800105","0.3264291113","","","","","","","","","","","72","H","0","img/none_selected.jpg","","12","main_expt"
"163","","bandit","91","1094777","0.0-52.0-0.0","93240998","wem/bandit_either","A1Z3NTRGIUZ240","either","7","","","","","","","0","0","1","","0.2511698571","0.2","0.8","0.4","0.6","0.2511698571","0.0257410372","0.1833947696","0.3254913314","","","","","","","","","","","72","H","0","img/none_selected.jpg","","13","main_expt"
"130","","bandit","92","1096419","0.0-53.0-0.0","93240998","wem/bandit_either","A1Z3NTRGIUZ240","either","7","","","","","","","0","0","1","0.3428504842","","0.2","0.8","0.4","0.6","","","","","0.2158977649","0.02570014082","0.243643366","0.3428504842","","","","","","","76","L","3","","","14","main_expt"
"15","","bandit","93","1097959","0.0-54.0-0.0","93240998","wem/bandit_either","A1Z3NTRGIUZ240","either","7","","","","","","","0","0","1","","0.2265365198","0.2","0.8","0.4","0.6","0.2762480727","0.04268316416","0.2265365198","0.3244047679","","","","","","","","","","","75","K","2","","","15","main_expt"
"549","","bandit","94","1100033","0.0-55.0-0.0","93240998","wem/bandit_either","A1Z3NTRGIUZ240","either","7","","","","","","","0","1","0","","0.2484951132","0.2","0.8","0.4","0.6","0.3202890724","0.04667408308","0.2484951132","0.3025313629","","","","","","","","","","","75","K","2","","","16","main_expt"
"320","","bandit","95","1101892","0.0-56.0-0.0","93240998","wem/bandit_either","A1Z3NTRGIUZ240","either","7","","","","","","","0","1","0","","0.2570267238","0.2","0.8","0.4","0.6","0.3680552247","0.0506688767","0.2570267238","0.3291216938","","","","","","","","","","","75","K","2","","","17","main_expt"
"288","","bandit","96","1103710","0.0-57.0-0.0","93240998","wem/bandit_either","A1Z3NTRGIUZ240","either","7","","","","","","","0","1","0","","0.287418789","0.2","0.8","0.4","0.6","0.3968593921","0.02988526167","0.287418789","0.2987881532","","","","","","","","","","","75","K","2","","","18","main_expt"
"246","","bandit","97","1105469","0.0-58.0-0.0","93240998","wem/bandit_either","A1Z3NTRGIUZ240","either","7","","","","","","","0","0","1","","0.2338710899","0.2","0.8","0.4","0.6","0.4192996399","0.03476350355","0.2338710899","0.281207523","","","","","","","","","","","75","K","2","","","19","main_expt"
"204","","bandit","98","1107196","0.0-59.0-0.0","93240998","wem/bandit_either","A1Z3NTRGIUZ240","either","7","","","","","","","0","0","1","","0.2335293464","0.2","0.8","0.4","0.6","0.4362768361","0.0233687216","0.2335293464","0.291129981","","","","","","","","","","","75","K","2","","","20","main_expt"
"182","","bandit","99","1108907","0.0-60.0-0.0","93240998","wem/bandit_either","A1Z3NTRGIUZ240","either","7","","","","","","","0","0","1","","0.2434826965","0.2","0.8","0.4","0.6","0.4599691003","0.01272547494","0.2434826965","0.2729578326","","","","","","","","","","","75","K","2","","","21","main_expt"
"289","","bandit","100","1110720","0.0-61.0-0.0","93240998","wem/bandit_either","A1Z3NTRGIUZ240","either","7","","","","","","","0","0","1","","0.2702300591","0.2","0.8","0.4","0.6","0.44353765","0.01739491555","0.2702300591","0.2805141014","","","","","","","","","","","75","K","2","","","22","main_expt"
"170","","bandit","101","1112422","0.0-62.0-0.0","93240998","wem/bandit_either","A1Z3NTRGIUZ240","either","7","","","","","","","0","1","0","","0.2424740502","0.2","0.8","0.4","0.6","0.4105594395","0.006692102231","0.2424740502","0.3016389313","","","","","","","","","","","75","K","2","","","23","main_expt"
"6","","bandit","102","1113941","0.0-63.0-0.0","93240998","wem/bandit_either","A1Z3NTRGIUZ240","either","7","","","","","","","0","1","0","","0.1754503809","0.2","0.8","0.4","0.6","0.4243351486","0.01209419849","0.1754503809","0.2475621169","","","","","","","","","","","75","K","2","","","24","main_expt"
"63","","bandit","103","1115517","0.0-64.0-0.0","93240998","wem/bandit_either","A1Z3NTRGIUZ240","either","7","","","","","","","0","0","1","0.2023019753","","0.2","0.8","0.4","0.6","","","","","0.4172780312","0.009734580702","0.2023019753","0.2607476102","","","","","","","75","K","2","","","25","main_expt"
"195","","bandit","104","1117243","0.0-65.0-0.0","93240998","wem/bandit_either","A1Z3NTRGIUZ240","either","7","","","","","","","0","0","1","","0.292589008","0.2","0.8","0.4","0.6","0.3981062588","0.008596148908","0.1887270612","0.292589008","","","","","","","","","","","76","L","3","","","26","main_expt"
"638","","bandit","105","1119397","0.0-66.0-0.0","93240998","wem/bandit_either","A1Z3NTRGIUZ240","either","7","","","","","","","0","0","1","0.2978950393","","0.2","0.8","0.4","0.6","","","","","0.3889188119","0.01380650739","0.2526986378","0.2978950393","","","","","","","76","L","3","","","27","main_expt"
"199","","bandit","106","1121130","0.0-67.0-0.0","93240998","wem/bandit_either","A1Z3NTRGIUZ240","either","7","","","","","","","0","0","1","0.2536033627","","0.2","0.8","0.4","0.6","","","","","0.3699095679","0.01160852189","0.2536033627","0.337392419","","","","","","","75","K","2","","","28","main_expt"
"696","","bandit","107","1123342","0.0-68.0-0.0","93240998","wem/bandit_either","A1Z3NTRGIUZ240","either","7","","","","","","","0","0","1","","0.4087832773","0.2","0.8","0.4","0.6","0.4087832773","0.02858314752","0.258258936","0.3830759015","","","","","","","","","","","72","H","0","img/none_selected.jpg","","29","main_expt"
"13","","bandit","108","1124880","0.0-69.0-0.0","93240998","wem/bandit_either","A1Z3NTRGIUZ240","either","7","","","","","","","0","0","1","","0.4162513677","0.2","0.8","0.4","0.6","0.4162513677","0.0265596094","0.3152574144","0.3778881599","","","","","","","","","","","72","H","0","img/none_selected.jpg","","30","main_expt"
"109","","bandit","109","1126523","0.0-70.0-0.0","93240998","wem/bandit_either","A1Z3NTRGIUZ240","either","7","","","","","","","0","1","0","","0.43337534","0.2","0.8","0.4","0.6","0.43337534","0.02828816112","0.3508579725","0.3585458117","","","","","","","","","","","72","H","0","img/none_selected.jpg","","31","main_expt"
"143","","bandit","110","1128203","0.0-71.0-0.0","93240998","wem/bandit_either","A1Z3NTRGIUZ240","either","7","","","","","","","0","0","1","","0.4399105216","0.2","0.8","0.4","0.6","0.4399105216","0.03857304495","0.3902021543","0.3511664436","","","","","","","","","","","72","H","0","img/none_selected.jpg","","32","main_expt"
"95","","bandit","111","1129825","0.0-72.0-0.0","93240998","wem/bandit_either","A1Z3NTRGIUZ240","either","7","","","","","","","0","1","0","","0.3859623535","0.2","0.8","0.4","0.6","0.3859623535","0.02642959278","0.4112626521","0.3924960189","","","","","","","","","","","72","H","0","img/none_selected.jpg","","33","main_expt"
"281","","bandit","112","1131629","0.0-73.0-0.0","93240998","wem/bandit_either","A1Z3NTRGIUZ240","either","7","","","","","","","0","0","1","","0.4231921331","0.2","0.8","0.4","0.6","0.4231921331","0.06800028167","0.3912589523","0.3713907517","","","","","","","","","","","72","H","0","img/none_selected.jpg","","34","main_expt"
"231","","bandit","113","1133374","0.0-74.0-0.0","93240998","wem/bandit_either","A1Z3NTRGIUZ240","either","7","","","","","","","0","1","0","","0.3950458867","0.2","0.8","0.4","0.6","0.3950458867","0.05710280771","0.3663646496","0.3929004689","","","","","","","","","","","72","H","0","img/none_selected.jpg","","35","main_expt"
"397","","bandit","114","1135306","0.0-75.0-0.0","93240998","wem/bandit_either","A1Z3NTRGIUZ240","either","7","","","","","","","0","0","1","0.4005306787","","0.2","0.8","0.4","0.6","","","","","0.4005306787","0.07756943076","0.3045225128","0.3820467604","","","","","","","72","H","0","img/none_selected.jpg","","36","main_expt"
"240","","bandit","115","1137080","0.0-76.0-0.0","93240998","wem/bandit_either","A1Z3NTRGIUZ240","either","7","","","","","","","0","0","1","","0.3972735937","0.2","0.8","0.4","0.6","0.3972735937","0.06074629621","0.2806474599","0.3948022939","","","","","","","","","","","72","H","0","img/none_selected.jpg","","37","main_expt"
"211","","bandit","116","1138824","0.0-77.0-0.0","93240998","wem/bandit_either","A1Z3NTRGIUZ240","either","7","","","","","","","0","0","1","","0.38339591","0.2","0.8","0.4","0.6","0.38339591","0.07063042774","0.3558759705","0.3769579019","","","","","","","","","","","72","H","0","img/none_selected.jpg","","38","main_expt"
"196","","bandit","117","1140558","0.0-78.0-0.0","93240998","wem/bandit_either","A1Z3NTRGIUZ240","either","7","","","","","","","1","0","0","0.3906354184","","0.2","0.8","0.4","0.6","","","","","0.3906354184","0.06209293178","0.3194138052","0.4030344636","","","","","","","72","H","0","img/none_selected.jpg","","39","main_expt"
"270","","bandit","118","1142365","0.0-79.0-0.0","93240998","wem/bandit_either","A1Z3NTRGIUZ240","either","7","","","","","","","0","0","1","","0.3623676206","0.2","0.8","0.4","0.6","0.3623676206","0.06952578958","0.3549086085","0.3622335218","","","","","","","","","","","72","H","0","img/none_selected.jpg","","40","main_expt"
"270","","bandit","119","1144159","0.0-80.0-0.0","93240998","wem/bandit_either","A1Z3NTRGIUZ240","either","7","","","","","","","0","0","1","0.1291245709","","0.2","0.8","0.4","0.6","","","","","0.3873704927","0.1291245709","0.3452113815","0.3911596719","","","","","","","74","J","1","","","41","main_expt"
"305","","bandit","120","1145987","0.0-81.0-0.0","93240998","wem/bandit_either","A1Z3NTRGIUZ240","either","7","","","","","","","0","0","1","0.1174523948","","0.2","0.8","0.4","0.6","","","","","0.359823116","0.1174523948","0.3522960267","0.3921858285","","","","","","","74","J","1","","","42","main_expt"
"310","","bandit","121","1147827","0.0-82.0-0.0","93240998","wem/bandit_either","A1Z3NTRGIUZ240","either","7","","","","","","","0","0","1","0.1201484523","","0.2","0.8","0.4","0.6","","","","","0.3710191411","0.1201484523","0.3093122096","0.3831213528","","","","","","","74","J","1","","","43","main_expt"
"280","","bandit","122","1149639","0.0-83.0-0.0","93240998","wem/bandit_either","A1Z3NTRGIUZ240","either","7","","","","","","","0","0","1","","0.3518708159","0.2","0.8","0.4","0.6","0.3874065465","0.09958360536","0.3026159556","0.3518708159","","","","","","","","","","","76","L","3","","","44","main_expt"
"5","","bandit","123","1151173","0.0-84.0-0.0","93240998","wem/bandit_either","A1Z3NTRGIUZ240","either","7","","","","","","","0","0","1","0.3122870636","","0.2","0.8","0.4","0.6","","","","","0.3851533971","0.05173655998","0.3336294247","0.3122870636","","","","","","","76","L","3","","","45","main_expt"
"78","","bandit","124","1152774","0.0-85.0-0.0","93240998","wem/bandit_either","A1Z3NTRGIUZ240","either","7","","","","","","","1","0","0","0.2635721956","","0.2","0.8","0.4","0.6","","","","","0.4055883719","0.05945041096","0.3400222736","0.2635721956","","","","","","","76","L","3","","","46","main_expt"
"222","","bandit","125","1154536","0.0-86.0-0.0","93240998","wem/bandit_either","A1Z3NTRGIUZ240","either","7","","","","","","","0","0","1","0.2856785865","","0.2","0.8","0.4","0.6","","","","","0.3671593179","0.04375763727","0.328707825","0.2856785865","","","","","","","76","L","3","","","47","main_expt"
"595","","bandit","126","1156665","0.0-87.0-0.0","93240998","wem/bandit_either","A1Z3NTRGIUZ240","either","7","","","","","","","0","0","1","","0.3307690822","0.2","0.8","0.4","0.6","0.3198203038","0.0666370861","0.3307690822","0.2649087478","","","","","","","","","","","75","K","2","","","48","main_expt"
"296","","bandit","127","1158489","0.0-88.0-0.0","93240998","wem/bandit_either","A1Z3NTRGIUZ240","either","7","","","","","","","0","0","1","","0.3111357295","0.2","0.8","0.4","0.6","0.3111357295","0.08266213623","0.3438067684","0.2462979357","","","","","","","","","","","72","H","0","img/none_selected.jpg","","49","main_expt"
"113","","bandit","128","1160133","0.0-89.0-0.0","93240998","wem/bandit_either","A1Z3NTRGIUZ240","either","7","","","","","","","0","1","0","","0.3196682981","0.2","0.8","0.4","0.6","0.3196682981","0.08795051988","0.4037002216","0.2490076798","","","","","","","","","","","72","H","0","img/none_selected.jpg","","50","main_expt"
"435","","bandit","129","1162097","0.0-90.0-0.0","93240998","wem/bandit_either","A1Z3NTRGIUZ240","either","7","","","","","","","0","0","1","","0.3088596379","0.2","0.8","0.4","0.6","0.3088596379","0.07533366945","0.3557518394","0.305209751","","","","","","","","","","","72","H","0","img/none_selected.jpg","","51","main_expt"
"378","","bandit","130","1164009","0.0-91.0-0.0","93240998","wem/bandit_either","A1Z3NTRGIUZ240","either","7","","","","","","","0","0","1","0.3060924957","","0.2","0.8","0.4","0.6","","","","","0.3060924957","0.06506638851","0.3254324358","0.3087204988","","","","","","","72","H","0","img/none_selected.jpg","","52","main_expt"
"256","","bandit","131","1165781","0.0-92.0-0.0","93240998","wem/bandit_either","A1Z3NTRGIUZ240","either","7","","","","","","","0","0","1","0.3229319808","","0.2","0.8","0.4","0.6","","","","","0.3229319808","0.06562792832","0.2952150256","0.2984188648","","","","","","","72","H","0","img/none_selected.jpg","","53","main_expt"
"523","","bandit","132","1167843","0.0-93.0-0.0","93240998","wem/bandit_either","A1Z3NTRGIUZ240","either","7","","","","","","","0","0","1","","0.3280138586","0.2","0.8","0.4","0.6","0.3280138586","0.04630081711","0.300320608","0.3353917468","","","","","","","","","","","72","H","0","img/none_selected.jpg","","54","main_expt"
"102","","bandit","133","1169482","0.0-94.0-0.0","93240998","wem/bandit_either","A1Z3NTRGIUZ240","either","7","","","","","","","0","0","1","","0.03868373719","0.2","0.8","0.4","0.6","0.2777260571","0.03868373719","0.2985084879","0.3259144651","","","","","","","","","","","74","J","1","","","55","main_expt"
"216","","bandit","134","1171238","0.0-95.0-0.0","93240998","wem/bandit_either","A1Z3NTRGIUZ240","either","7","","","","","","","0","0","1","0.06235362297","","0.2","0.8","0.4","0.6","","","","","0.1791004868","0.06235362297","0.2607009345","0.3259049121","","","","","","","74","J","1","","","56","main_expt"
"234","","bandit","135","1173005","0.0-96.0-0.0","93240998","wem/bandit_either","A1Z3NTRGIUZ240","either","7","","","","","","","0","0","1","","0.04639461243","0.2","0.8","0.4","0.6","0.2182265394","0.04639461243","0.2565854794","0.3687904078","","","","","","","","","","","74","J","1","","","57","main_expt"
"182","","bandit","136","1174716","0.0-97.0-0.0","93240998","wem/bandit_either","A1Z3NTRGIUZ240","either","7","","","","","","","0","0","1","0.08954448139","","0.2","0.8","0.4","0.6","","","","","0.2970860181","0.08954448139","0.319121847","0.3422038875","","","","","","","74","J","1","","","58","main_expt"
"189","","bandit","137","1176428","0.0-98.0-0.0","93240998","wem/bandit_either","A1Z3NTRGIUZ240","either","7","","","","","","","0","0","1","","0.3269923399","0.2","0.8","0.4","0.6","0.3249685468","0.07390342289","0.3269923399","0.3771421139","","","","","","","","","","","75","K","2","","","59","main_expt"
"150","","bandit","138","1178110","0.0-99.0-0.0","93240998","wem/bandit_either","A1Z3NTRGIUZ240","either","7","","","","","","","0","0","1","","0.3150968823","0.2","0.8","0.4","0.6","0.2931470039","0.05801548519","0.3150968823","0.3620124399","","","","","","","","","","","75","K","2","","","60","main_expt"
"104","","bandit","139","1179745","0.0-100.0-0.0","93240998","wem/bandit_either","A1Z3NTRGIUZ240","either","7","","","","","","","0","0","1","","0.324539239","0.2","0.8","0.4","0.6","0.2646536279","0.07333263924","0.324539239","0.3958116198","","","","","","","","","","","75","K","2","","","61","main_expt"
"242","","bandit","140","1181517","0.0-101.0-0.0","93240998","wem/bandit_either","A1Z3NTRGIUZ240","either","7","","","","","","","0","0","1","","0.3066306166","0.2","0.8","0.4","0.6","0.242461968","0.07563430262","0.3066306166","0.3615218546","","","","","","","","","","","75","K","2","","","62","main_expt"
"179","","bandit","141","1183217","0.0-102.0-0.0","93240998","wem/bandit_either","A1Z3NTRGIUZ240","either","7","","","","","","","0","0","1","","0.3068900116","0.2","0.8","0.4","0.6","0.2206683029","0.06826526778","0.3068900116","0.3574266064","","","","","","","","","","","75","K","2","","","63","main_expt"
"201","","bandit","142","1184951","0.0-103.0-0.0","93240998","wem/bandit_either","A1Z3NTRGIUZ240","either","7","","","","","","","0","0","1","","0.2936494982","0.2","0.8","0.4","0.6","0.2288959862","0.1175271989","0.2936494982","0.3541915859","","","","","","","","","","","75","K","2","","","64","main_expt"
"233","","bandit","143","1186706","0.0-104.0-0.0","93240998","wem/bandit_either","A1Z3NTRGIUZ240","either","7","","","","","","","0","0","1","0.290236101","","0.2","0.8","0.4","0.6","","","","","0.2346523549","0.1273865191","0.290236101","0.3339820985","","","","","","","75","K","2","","","65","main_expt"
"118","","bandit","144","1188354","0.0-105.0-0.0","93240998","wem/bandit_either","A1Z3NTRGIUZ240","either","7","","","","","","","0","0","1","0.3195467083","","0.2","0.8","0.4","0.6","","","","","0.1881688105","0.09075088943","0.2512036594","0.3195467083","","","","","","","76","L","3","","","66","main_expt"
"429","","bandit","145","1190316","0.0-106.0-0.0","93240998","wem/bandit_either","A1Z3NTRGIUZ240","either","7","","","","","","","0","1","0","","0.3477383846","0.2","0.8","0.4","0.6","0.231043846","0.08077075725","0.263747572","0.3477383846","","","","","","","","","","","76","L","3","","","67","main_expt"
"294","","bandit","146","1192146","0.0-107.0-0.0","93240998","wem/bandit_either","A1Z3NTRGIUZ240","either","7","","","","","","","1","0","0","0.3365352069","","0.2","0.8","0.4","0.6","","","","","0.2576664243","0.08810311296","0.2892519303","0.3365352069","","","","","","","76","L","3","","","68","main_expt"
"255","","bandit","147","1193932","0.0-108.0-0.0","93240998","wem/bandit_either","A1Z3NTRGIUZ240","either","7","","","","","","","0","0","1","","0.3148812039","0.2","0.8","0.4","0.6","0.2183283259","0.1260156682","0.2383664846","0.3148812039","","","","","","","","","","","76","L","3","","","69","main_expt"
"208","","bandit","148","1195668","0.0-109.0-0.0","93240998","wem/bandit_either","A1Z3NTRGIUZ240","either","7","","","","","","","0","0","1","0.3154014692","","0.2","0.8","0.4","0.6","","","","","0.2260484764","0.08773951932","0.2497111545","0.3154014692","","","","","","","76","L","3","","","70","main_expt"
"276","","bandit","149","1197477","0.0-110.0-0.0","93240998","wem/bandit_either","A1Z3NTRGIUZ240","either","7","","","","","","","0","0","1","","0.219815459","0.2","0.8","0.4","0.6","0.3196469567","0.1154304285","0.2095843002","0.219815459","","","","","","","","","","","76","L","3","","","71","main_expt"
"246","","bandit","150","1199251","0.0-111.0-0.0","93240998","wem/bandit_either","A1Z3NTRGIUZ240","either","7","","","","","","","0","1","0","","0.2623730272","0.2","0.8","0.4","0.6","0.3644141189","0.10097247","0.1972488467","0.2623730272","","","","","","","","","","","76","L","3","","","72","main_expt"
"276","","bandit","151","1201070","0.0-112.0-0.0","93240998","wem/bandit_either","A1Z3NTRGIUZ240","either","7","","","","","","","0","0","1","0.2639805735","","0.2","0.8","0.4","0.6","","","","","0.4081842109","0.0746930591","0.15494396","0.2639805735","","","","","","","76","L","3","","","73","main_expt"
"236","","bandit","152","1202836","0.0-113.0-0.0","93240998","wem/bandit_either","A1Z3NTRGIUZ240","either","7","","","","","","","0","0","1","0.2770925356","","0.2","0.8","0.4","0.6","","","","","0.4506698749","0.1124392477","0.1324790415","0.2770925356","","","","","","","76","L","3","","","74","main_expt"
"581","","bandit","153","1204945","0.0-114.0-0.0","93240998","wem/bandit_either","A1Z3NTRGIUZ240","either","7","","","","","","","0","0","1","","0.2796652475","0.2","0.8","0.4","0.6","0.454520075","0.113494578","0.179195356","0.2796652475","","","","","","","","","","","76","L","3","","","75","main_expt"
"312","","bandit","154","1206782","0.0-115.0-0.0","93240998","wem/bandit_either","A1Z3NTRGIUZ240","either","7","","","","","","","0","0","1","0.3153427244","","0.2","0.8","0.4","0.6","","","","","0.466199952","0.1469344428","0.215808919","0.3153427244","","","","","","","76","L","3","","","76","main_expt"
"361","","bandit","155","1208683","0.0-116.0-0.0","93240998","wem/bandit_either","A1Z3NTRGIUZ240","either","7","","","","","","","0","0","1","","0.3676911864","0.2","0.8","0.4","0.6","0.4402141775","0.2152215887","0.2312347408","0.3676911864","","","","","","","","","","","76","L","3","","","77","main_expt"
"183","","bandit","156","1210410","0.0-117.0-0.0","93240998","wem/bandit_either","A1Z3NTRGIUZ240","either","7","","","","","","","0","0","1","","0.3434277392","0.2","0.8","0.4","0.6","0.4525957793","0.2055177618","0.2197025874","0.3434277392","","","","","","","","","","","76","L","3","","","78","main_expt"
"422","","bandit","157","1212369","0.0-118.0-0.0","93240998","wem/bandit_either","A1Z3NTRGIUZ240","either","7","","","","","","","0","1","0","","0.3758616161","0.2","0.8","0.4","0.6","0.4630799716","0.222262525","0.2227420924","0.3758616161","","","","","","","","","","","76","L","3","","","79","main_expt"
"160","","bandit","158","1214056","0.0-119.0-0.0","93240998","wem/bandit_either","A1Z3NTRGIUZ240","either","7","","","","","","","0","0","1","","0.3862393514","0.2","0.8","0.4","0.6","0.423693353","0.2700860438","0.2283057493","0.3862393514","","","","","","","","","","","76","L","3","","","80","main_expt"
"194","","bandit","159","1215775","0.0-120.0-0.0","93240998","wem/bandit_either","A1Z3NTRGIUZ240","either","7","","","","","","","0","1","0","","0.3593770893","0.2","0.8","0.4","0.6","0.4319112677","0.2642688004","0.2721525977","0.3593770893","","","","","","","","","","","76","L","3","","","81","main_expt"
"391","","bandit","160","1217705","0.0-121.0-0.0","93240998","wem/bandit_either","A1Z3NTRGIUZ240","either","7","","","","","","","0","0","1","0.4035110645","","0.2","0.8","0.4","0.6","","","","","0.441827487","0.2824164754","0.2850237184","0.4035110645","","","","","","","76","L","3","","","82","main_expt"
"73","","bandit","161","1219315","0.0-122.0-0.0","93240998","wem/bandit_either","A1Z3NTRGIUZ240","either","7","","","","","","","1","0","0","0.3719627038","","0.2","0.8","0.4","0.6","","","","","0.4288861504","0.2819095575","0.3236436683","0.3719627038","","","","","","","76","L","3","","","83","main_expt"
"205","","bandit","162","1221048","0.0-123.0-0.0","93240998","wem/bandit_either","A1Z3NTRGIUZ240","either","7","","","","","","","0","0","1","0.3349288927","","0.2","0.8","0.4","0.6","","","","","0.4350385517","0.2589745902","0.3339638593","0.3349288927","","","","","","","76","L","3","","","84","main_expt"
"179","","bandit","163","1222753","0.0-124.0-0.0","93240998","wem/bandit_either","A1Z3NTRGIUZ240","either","7","","","","","","","0","1","0","","0.3247899262","0.2","0.8","0.4","0.6","0.4255505645","0.3626504113","0.3795022601","0.3247899262","","","","","","","","","","","76","L","3","","","85","main_expt"
"197","","bandit","164","1224485","0.0-125.0-0.0","93240998","wem/bandit_either","A1Z3NTRGIUZ240","either","7","","","","","","","0","1","0","","0.3443557019","0.2","0.8","0.4","0.6","0.4330938692","0.3598915268","0.3835523064","0.3443557019","","","","","","","","","","","76","L","3","","","86","main_expt"
"210","","bandit","165","1226239","0.0-126.0-0.0","93240998","wem/bandit_either","A1Z3NTRGIUZ240","either","7","","","","","","","0","0","1","0.3648776167","","0.2","0.8","0.4","0.6","","","","","0.4548398529","0.3433052933","0.3772514457","0.3648776167","","","","","","","76","L","3","","","87","main_expt"
"3","","bandit","166","1227768","0.0-127.0-0.0","93240998","wem/bandit_either","A1Z3NTRGIUZ240","either","7","","","","","","","1","0","0","0.3609631839","","0.2","0.8","0.4","0.6","","","","","0.4493124031","0.4022938878","0.3766830519","0.3609631839","","","","","","","76","L","3","","","88","main_expt"
"239","","bandit","167","1229554","0.0-128.0-0.0","93240998","wem/bandit_either","A1Z3NTRGIUZ240","either","7","","","","","","","0","0","1","0.3636167192","","0.2","0.8","0.4","0.6","","","","","0.4161110063","0.4141493151","0.3537755119","0.3636167192","","","","","","","76","L","3","","","89","main_expt"
"172","","bandit","168","1231257","0.0-129.0-0.0","93240998","wem/bandit_either","A1Z3NTRGIUZ240","either","7","","","","","","","1","0","0","0.3563441379","","0.2","0.8","0.4","0.6","","","","","0.405260856","0.4136124289","0.3014761449","0.3563441379","","","","","","","76","L","3","","","90","main_expt"
"168","","bandit","169","1232962","0.0-130.0-0.0","93240998","wem/bandit_either","A1Z3NTRGIUZ240","either","7","","","","","","","0","0","1","","0.3389138503","0.2","0.8","0.4","0.6","0.3827048226","0.4184852842","0.2694038268","0.3389138503","","","","","","","","","","","76","L","3","","","91","main_expt"
"174","","bandit","170","1234668","0.0-131.0-0.0","93240998","wem/bandit_either","A1Z3NTRGIUZ240","either","7","","","","","","","0","1","0","","0.3263360165","0.2","0.8","0.4","0.6","0.3552182969","0.4456808576","0.2651536323","0.3263360165","","","","","","","","","","","76","L","3","","","92","main_expt"
"323","","bandit","171","1236533","0.0-132.0-0.0","93240998","wem/bandit_either","A1Z3NTRGIUZ240","either","7","","","","","","","0","1","0","","0.2844131911","0.2","0.8","0.4","0.6","0.3286897504","0.4355219805","0.1997208586","0.2844131911","","","","","","","","","","","76","L","3","","","93","main_expt"
"341","","bandit","172","1238414","0.0-133.0-0.0","93240998","wem/bandit_either","A1Z3NTRGIUZ240","either","7","","","","","","","0","0","1","","0.2978465223","0.2","0.8","0.4","0.6","0.3422490236","0.4609821192","0.2442555344","0.2978465223","","","","","","","","","","","76","L","3","","","94","main_expt"
"313","","bandit","173","1240264","0.0-134.0-0.0","93240998","wem/bandit_either","A1Z3NTRGIUZ240","either","7","","","","","","","0","0","1","0.2638723705","","0.2","0.8","0.4","0.6","","","","","0.3160161054","0.4419374505","0.2638839348","0.2638723705","","","","","","","76","L","3","","","95","main_expt"
"176","","bandit","174","1241974","0.0-135.0-0.0","93240998","wem/bandit_either","A1Z3NTRGIUZ240","either","7","","","","","","","0","0","1","0.2276010735","","0.2","0.8","0.4","0.6","","","","","0.2945538732","0.39438674","0.2265245807","0.2276010735","","","","","","","76","L","3","","","96","main_expt"
"139","","bandit","175","1243649","0.0-136.0-0.0","93240998","wem/bandit_either","A1Z3NTRGIUZ240","either","7","","","","","","","0","1","0","","0.2045446072","0.2","0.8","0.4","0.6","0.393563827","0.3617668419","0.1969189177","0.2045446072","","","","","","","","","","","76","L","3","","","97","main_expt"
"152","","bandit","176","1245335","0.0-137.0-0.0","93240998","wem/bandit_either","A1Z3NTRGIUZ240","either","7","","","","","","","0","0","1","0.2436418828","","0.2","0.8","0.4","0.6","","","","","0.4046254927","0.3737913853","0.1761144245","0.2436418828","","","","","","","76","L","3","","","98","main_expt"
"130","","bandit","177","1247001","0.0-138.0-0.0","93240998","wem/bandit_either","A1Z3NTRGIUZ240","either","7","","","","","","","0","0","1","","0.2473144087","0.2","0.8","0.4","0.6","0.3659012549","0.4221129479","0.1211630765","0.2473144087","","","","","","","","","","","76","L","3","","","99","main_expt"
"391","","bandit","178","1248916","0.0-139.0-0.0","93240998","wem/bandit_either","A1Z3NTRGIUZ240","either","7","","","","","","","0","0","1","0.2707360286","","0.2","0.8","0.4","0.6","","","","","0.400368336","0.3857893684","0.1257326749","0.2707360286","","","","","","","76","L","3","","","100","main_expt"
"318","","bandit","179","1250761","0.0-140.0-0.0","93240998","wem/bandit_either","A1Z3NTRGIUZ240","either","7","","","","","","","0","0","1","0.3250409822","","0.2","0.8","0.4","0.6","","","","","0.4367931528","0.3635527264","0.09975532208","0.3250409822","","","","","","","76","L","3","","","101","main_expt"
"349","","bandit","180","1252650","0.0-141.0-0.0","93240998","wem/bandit_either","A1Z3NTRGIUZ240","either","7","","","","","","","0","0","1","0.3088580598","","0.2","0.8","0.4","0.6","","","","","0.4371155326","0.3738375489","0.1127414424","0.3088580598","","","","","","","76","L","3","","","102","main_expt"
"335","","bandit","181","1254524","0.0-142.0-0.0","93240998","wem/bandit_either","A1Z3NTRGIUZ240","either","7","","","","","","","0","0","1","","0.2901001995","0.2","0.8","0.4","0.6","0.388648264","0.3860163181","0.1232600734","0.2901001995","","","","","","","","","","","76","L","3","","","103","main_expt"
"195","","bandit","182","1256253","0.0-143.0-0.0","93240998","wem/bandit_either","A1Z3NTRGIUZ240","either","7","","","","","","","0","0","1","0.08156843846","","0.2","0.8","0.4","0.6","","","","","0.3718469433","0.390692362","0.08156843846","0.309645936","","","","","","","75","K","2","","","104","main_expt"
"42","","bandit","183","1257821","0.0-144.0-0.0","93240998","wem/bandit_either","A1Z3NTRGIUZ240","either","7","","","","","","","0","0","1","","0.08245659199","0.2","0.8","0.4","0.6","0.3920304628","0.4139082553","0.08245659199","0.3386062745","","","","","","","","","","","75","K","2","","","105","main_expt"
"117","","bandit","184","1259482","0.0-145.0-0.0","93240998","wem/bandit_either","A1Z3NTRGIUZ240","either","7","","","","","","","0","0","1","0.1276639339","","0.2","0.8","0.4","0.6","","","","","0.3733497125","0.3295275825","0.1276639339","0.3827539061","","","","","","","75","K","2","","","106","main_expt"
"119","","bandit","185","1261142","0.0-146.0-0.0","93240998","wem/bandit_either","A1Z3NTRGIUZ240","either","7","","","","","","","0","0","1","0.1812689745","","0.2","0.8","0.4","0.6","","","","","0.3878439861","0.3499712774","0.1812689745","0.3401355396","","","","","","","75","K","2","","","107","main_expt"
"73","","bandit","186","1262748","0.0-147.0-0.0","93240998","wem/bandit_either","A1Z3NTRGIUZ240","either","7","","","","","","","0","0","1","0.2187982558","","0.2","0.8","0.4","0.6","","","","","0.3529013302","0.2666891207","0.2187982558","0.3258039352","","","","","","","75","K","2","","","108","main_expt"
"131","","bandit","187","1264414","0.0-148.0-0.0","93240998","wem/bandit_either","A1Z3NTRGIUZ240","either","7","","","","","","","0","0","1","0.2575067634","","0.2","0.8","0.4","0.6","","","","","0.3457683734","0.2575067634","0.2201216928","0.374919859","","","","","","","74","J","1","","","109","main_expt"
"1067","","bandit","188","1267025","0.0-149.0-0.0","93240998","wem/bandit_either","A1Z3NTRGIUZ240","either","7","","","","","","","0","0","1","0.2664913793","","0.2","0.8","0.4","0.6","","","","","0.3316873257","0.2664913793","0.1789817232","0.3656186065","","","","","","","74","J","1","","","110","main_expt"
"3","","bandit","189","1268563","0.0-150.0-0.0","93240998","wem/bandit_either","A1Z3NTRGIUZ240","either","7","","","","","","","0","0","1","0.3434945318","","0.2","0.8","0.4","0.6","","","","","0.3434945318","0.2233446911","0.2404947452","0.3649701027","","","","","","","72","H","0","img/none_selected.jpg","","111","main_expt"
"297","","bandit","190","1270395","0.0-151.0-0.0","93240998","wem/bandit_either","A1Z3NTRGIUZ240","either","7","","","","","","","0","0","1","","0.2729480053","0.2","0.8","0.4","0.6","0.2729480053","0.2170082082","0.2959558532","0.3371716456","","","","","","","","","","","72","H","0","img/none_selected.jpg","","112","main_expt"
"292","","bandit","191","1272232","0.0-152.0-0.0","93240998","wem/bandit_either","A1Z3NTRGIUZ240","either","7","","","","","","","0","1","0","","0.2579672073","0.2","0.8","0.4","0.6","0.2579672073","0.1912277411","0.2966985553","0.2587224119","","","","","","","","","","","72","H","0","img/none_selected.jpg","","113","main_expt"
"215","","bandit","192","1273984","0.0-153.0-0.0","93240998","wem/bandit_either","A1Z3NTRGIUZ240","either","7","","","","","","","0","0","1","0.24654084","","0.2","0.8","0.4","0.6","","","","","0.24654084","0.1691995451","0.3289730608","0.2384324947","","","","","","","72","H","0","img/none_selected.jpg","","114","main_expt"
"3","","bandit","193","1275530","0.0-154.0-0.0","93240998","wem/bandit_either","A1Z3NTRGIUZ240","either","7","","","","","","","0","0","1","","0.246649757","0.2","0.8","0.4","0.6","0.246649757","0.1263730162","0.2783705844","0.2705755989","","","","","","","","","","","72","H","0","img/none_selected.jpg","","115","main_expt"
"159","","bandit","194","1277210","0.0-155.0-0.0","93240998","wem/bandit_either","A1Z3NTRGIUZ240","either","7","","","","","","","0","1","0","","0.2190482835","0.2","0.8","0.4","0.6","0.2190482835","0.1130092975","0.2990421824","0.2666822","","","","","","","","","","","72","H","0","img/none_selected.jpg","","116","main_expt"
"261","","bandit","195","1279019","0.0-156.0-0.0","93240998","wem/bandit_either","A1Z3NTRGIUZ240","either","7","","","","","","","0","0","1","","0.1860086181","0.2","0.8","0.4","0.6","0.1860086181","0.1317362661","0.3214730448","0.2664749026","","","","","","","","","","","72","H","0","img/none_selected.jpg","","117","main_expt"
"329","","bandit","196","1280879","0.0-157.0-0.0","93240998","wem/bandit_either","A1Z3NTRGIUZ240","either","7","","","","","","","0","0","1","0.1765749983","","0.2","0.8","0.4","0.6","","","","","0.1765749983","0.08460291254","0.3996160597","0.285497096","","","","","","","72","H","0","img/none_selected.jpg","","118","main_expt"
"337","","bandit","197","1282751","0.0-158.0-0.0","93240998","wem/bandit_either","A1Z3NTRGIUZ240","either","7","","","","","","","0","0","1","","0.1840588368","0.2","0.8","0.4","0.6","0.1840588368","0.09168363065","0.4143362638","0.3004427434","","","","","","","","","","","72","H","0","img/none_selected.jpg","","119","main_expt"
"815","","bandit","198","1285106","0.0-159.0-0.0","93240998","wem/bandit_either","A1Z3NTRGIUZ240","either","7","","","","","","","0","0","1","","0.1988357929","0.2","0.8","0.4","0.6","0.1988357929","0.06729372802","0.372340151","0.2419855731","","","","","","","","","","","72","H","0","img/none_selected.jpg","","120","main_expt"
"125","","bandit","199","1286776","0.0-160.0-0.0","93240998","wem/bandit_either","A1Z3NTRGIUZ240","either","7","","","","","","","0","0","1","0.2315674","","0.2","0.8","0.4","0.6","","","","","0.2315674","0.08346408207","0.3910424524","0.3054132847","","","","","","","72","H","0","img/none_selected.jpg","","121","main_expt"
"277","","bandit","200","1288579","0.0-161.0-0.0","93240998","wem/bandit_either","A1Z3NTRGIUZ240","either","7","","","","","","","1","0","0","0.2041322171","","0.2","0.8","0.4","0.6","","","","","0.2041322171","0.05632743158","0.3813410711","0.2473202095","","","","","","","72","H","0","img/none_selected.jpg","","122","main_expt"
"224","","bandit","201","1290335","0.0-162.0-0.0","93240998","wem/bandit_either","A1Z3NTRGIUZ240","either","7","","","","","","","0","0","1","","0.1945268209","0.2","0.8","0.4","0.6","0.1945268209","0.05516745574","0.4247291795","0.2909195989","","","","","","","","","","","72","H","0","img/none_selected.jpg","","123","main_expt"
"142","","bandit","202","1292022","0.0-163.0-0.0","93240998","wem/bandit_either","A1Z3NTRGIUZ240","either","7","","","","","","","0","1","0","","0.2206749142","0.2","0.8","0.4","0.6","0.2206749142","0.05528311039","0.4311179713","0.3493750294","","","","","","","","","","","72","H","0","img/none_selected.jpg","","124","main_expt"
"159","","bandit","203","1293712","0.0-164.0-0.0","93240998","wem/bandit_either","A1Z3NTRGIUZ240","either","7","","","","","","","0","0","1","","0.212012295","0.2","0.8","0.4","0.6","0.212012295","0.07149807259","0.4085782939","0.3883668019","","","","","","","","","","","72","H","0","img/none_selected.jpg","","125","main_expt"
"142","","bandit","204","1295379","0.0-165.0-0.0","93240998","wem/bandit_either","A1Z3NTRGIUZ240","either","7","","","","","","","0","0","1","","0.1656684785","0.2","0.8","0.4","0.6","0.1656684785","0.1137803622","0.4110861309","0.3888129637","","","","","","","","","","","72","H","0","img/none_selected.jpg","","126","main_expt"
"253","","bandit","205","1297162","0.0-166.0-0.0","93240998","wem/bandit_either","A1Z3NTRGIUZ240","either","7","","","","","","","0","0","1","","0.1685301808","0.2","0.8","0.4","0.6","0.1685301808","0.1003054442","0.4214671818","0.3659195129","","","","","","","","","","","72","H","0","img/none_selected.jpg","","127","main_expt"
"772","","bandit","206","1299473","0.0-167.0-0.0","93240998","wem/bandit_either","A1Z3NTRGIUZ240","either","7","","","","","","","0","0","1","","0.1703551811","0.2","0.8","0.4","0.6","0.1703551811","0.1378169536","0.36889317","0.3689954399","","","","","","","","","","","72","H","0","img/none_selected.jpg","","128","main_expt"
"1279","","bandit","207","1302291","0.0-168.0-0.0","93240998","wem/bandit_either","A1Z3NTRGIUZ240","either","7","","","","","","","0","0","1","","0.1624753709","0.2","0.8","0.4","0.6","0.1624753709","0.1333081235","0.3840267129","0.3600340942","","","","","","","","","","","72","H","0","img/none_selected.jpg","","129","main_expt"
"523","","bandit","208","1304350","0.0-169.0-0.0","93240998","wem/bandit_either","A1Z3NTRGIUZ240","either","7","","","","","","","0","0","1","0.2335662737","","0.2","0.8","0.4","0.6","","","","","0.2335662737","0.1682212827","0.3809677701","0.3580797835","","","","","","","72","H","0","img/none_selected.jpg","","130","main_expt"
"233","","bandit","209","1306122","0.0-170.0-0.0","93240998","wem/bandit_either","A1Z3NTRGIUZ240","either","7","","","","","","","0","0","1","","0.240441026","0.2","0.8","0.4","0.6","0.240441026","0.2193829955","0.3681933818","0.3785893338","","","","","","","","","","","72","H","0","img/none_selected.jpg","","131","main_expt"
"2101","","bandit","210","1309754","0.0-171.0-0.0","93240998","wem/bandit_either","A1Z3NTRGIUZ240","either","7","","","","","","","0","0","1","","0.2266699971","0.2","0.8","0.4","0.6","0.2266699971","0.2693349046","0.3664045944","0.3764735404","","","","","","","","","","","72","H","0","img/none_selected.jpg","","132","main_expt"
"121","","bandit","211","1311422","0.0-172.0-0.0","93240998","wem/bandit_either","A1Z3NTRGIUZ240","either","7","","","","","","","0","1","0","","0.1994193025","0.2","0.8","0.4","0.6","0.1994193025","0.2576546077","0.4046437197","0.3433534211","","","","","","","","","","","72","H","0","img/none_selected.jpg","","133","main_expt"
"538","","bandit","212","1313500","0.0-173.0-0.0","93240998","wem/bandit_either","A1Z3NTRGIUZ240","either","7","","","","","","","0","0","1","","0.1891464922","0.2","0.8","0.4","0.6","0.1891464922","0.2412372273","0.364490756","0.3606247271","","","","","","","","","","","72","H","0","img/none_selected.jpg","","134","main_expt"
"179","","bandit","213","1315210","0.0-174.0-0.0","93240998","wem/bandit_either","A1Z3NTRGIUZ240","either","7","","","","","","","0","0","1","","0.1614798668","0.2","0.8","0.4","0.6","0.1614798668","0.2198641054","0.311914316","0.3268624306","","","","","","","","","","","72","H","0","img/none_selected.jpg","","135","main_expt"
"109","","bandit","214","1316857","0.0-175.0-0.0","93240998","wem/bandit_either","A1Z3NTRGIUZ240","either","7","","","","","","","0","0","1","0.2504132697","","0.2","0.8","0.4","0.6","","","","","0.1880386222","0.2504132697","0.2653901568","0.2854606769","","","","","","","74","J","1","","","136","main_expt"
"74","","bandit","215","1318463","0.0-176.0-0.0","93240998","wem/bandit_either","A1Z3NTRGIUZ240","either","7","","","","","","","0","0","1","","0.1912230989","0.2","0.8","0.4","0.6","0.1961818793","0.1912230989","0.2413295316","0.3311747399","","","","","","","","","","","74","J","1","","","137","main_expt"
"1538","","bandit","216","1321534","0.0-177.0-0.0","93240998","wem/bandit_either","A1Z3NTRGIUZ240","either","7","","","","","","","0","0","1","0.1576256809","","0.2","0.8","0.4","0.6","","","","","0.2857678963","0.1576256809","0.2060295423","0.2570785188","","","","","","","74","J","1","","","138","main_expt"
"106","","bandit","217","1323165","0.0-178.0-0.0","93240998","wem/bandit_either","A1Z3NTRGIUZ240","either","7","","","","","","","0","0","1","0.1019788138","","0.2","0.8","0.4","0.6","","","","","0.3449131854","0.1019788138","0.1809645164","0.2858060749","","","","","","","74","J","1","","","139","main_expt"
"562","","bandit","218","1325271","0.0-179.0-0.0","93240998","wem/bandit_either","A1Z3NTRGIUZ240","either","7","","","","","","","0","0","1","0.07754087054","","0.2","0.8","0.4","0.6","","","","","0.2537716732","0.07754087054","0.1843216893","0.2975559752","","","","","","","74","J","1","","","140","main_expt"
"1082","","bandit","219","1327876","0.0-180.0-0.0","93240998","wem/bandit_either","A1Z3NTRGIUZ240","either","7","","","","","","","0","0","1","0.09489610577","","0.2","0.8","0.4","0.6","","","","","0.2858111263","0.09489610577","0.1651876155","0.2802168405","","","","","","","74","J","1","","","141","main_expt"
"1036","","bandit","220","1330447","0.0-181.0-0.0","93240998","wem/bandit_either","A1Z3NTRGIUZ240","either","7","","","","","","","0","0","1","0.09601428546","","0.2","0.8","0.4","0.6","","","","","0.303049367","0.09601428546","0.1536427928","0.2231986748","","","","","","","74","J","1","","","142","main_expt"
"80","","bandit","221","1332058","0.0-182.0-0.0","93240998","wem/bandit_either","A1Z3NTRGIUZ240","either","7","","","","","","","0","0","1","0.08301142993","","0.2","0.8","0.4","0.6","","","","","0.2969419413","0.08301142993","0.1546140226","0.2032880393","","","","","","","74","J","1","","","143","main_expt"
"279","","bandit","222","1333864","0.0-183.0-0.0","93240998","wem/bandit_either","A1Z3NTRGIUZ240","either","7","","","","","","","0","0","1","0.09599686985","","0.2","0.8","0.4","0.6","","","","","0.3128690494","0.09599686985","0.1746031107","0.1967741464","","","","","","","74","J","1","","","144","main_expt"
"83","","bandit","223","1335483","0.0-184.0-0.0","93240998","wem/bandit_either","A1Z3NTRGIUZ240","either","7","","","","","","","0","0","1","","0.2021387556","0.2","0.8","0.4","0.6","0.2991796355","0.07499383622","0.2021387556","0.2283154954","","","","","","","","","","","75","K","2","","","145","main_expt"
"5","","bandit","224","1337010","0.0-185.0-0.0","93240998","wem/bandit_either","A1Z3NTRGIUZ240","either","7","","","","","","","0","0","1","","0.2118700154","0.2","0.8","0.4","0.6","0.3163763193","0.09566861","0.2504344391","0.2118700154","","","","","","","","","","","76","L","3","","","146","main_expt"
"965","","bandit","225","1339504","0.0-186.0-0.0","93240998","wem/bandit_either","A1Z3NTRGIUZ240","either","7","","","","","","","0","0","1","","0.210437557","0.2","0.8","0.4","0.6","0.3198025905","0.08578591382","0.2437718569","0.210437557","","","","","","","","","","","76","L","3","","","147","main_expt"
"400","","bandit","226","1341435","0.0-187.0-0.0","93240998","wem/bandit_either","A1Z3NTRGIUZ240","either","7","","","","","","","0","0","1","0.2370661354","","0.2","0.8","0.4","0.6","","","","","0.2588245921","0.1147887709","0.2446677265","0.2370661354","","","","","","","76","L","3","","","148","main_expt"
"332","","bandit","227","1343301","0.0-188.0-0.0","93240998","wem/bandit_either","A1Z3NTRGIUZ240","either","7","","","","","","","0","0","1","","0.2430363771","0.2","0.8","0.4","0.6","0.248712437","0.1378203382","0.2911002833","0.2430363771","","","","","","","","","","","76","L","3","","","149","main_expt"
"236","","bandit","228","1345079","0.0-189.0-0.0","93240998","wem/bandit_either","A1Z3NTRGIUZ240","either","7","","","","","","","0","0","1","0.2242182381","","0.2","0.8","0.4","0.6","","","","","0.179144869","0.1414499273","0.3529655025","0.2242182381","","","","","","","76","L","3","","","150","main_expt"
"556","","bandit","229","1347175","0.0-190.0-0.0","93240998","wem/bandit_either","A1Z3NTRGIUZ240","either","7","","","","","","","0","0","1","","0.1997145133","0.2","0.8","0.4","0.6","0.1545669956","0.07852348772","0.3885741111","0.1997145133","","","","","","","","","","","76","L","3","","","151","main_expt"
"336","","bandit","230","1349041","0.0-191.0-0.0","93240998","wem/bandit_either","A1Z3NTRGIUZ240","either","7","","","","","","","0","0","1","","0.3690499696","0.2","0.8","0.4","0.6","0.1651714415","0.08485793113","0.3690499696","0.2195927633","","","","","","","","","","","75","K","2","","","152","main_expt"
"424","","bandit","231","1351000","0.0-192.0-0.0","93240998","wem/bandit_either","A1Z3NTRGIUZ240","either","7","","","","","","","0","0","1","0.3710492515","","0.2","0.8","0.4","0.6","","","","","0.2396245514","0.1083789561","0.3710492515","0.2121816628","","","","","","","75","K","2","","","153","main_expt"
"399","","bandit","232","1352935","0.0-193.0-0.0","93240998","wem/bandit_either","A1Z3NTRGIUZ240","either","7","","","","","","","0","0","1","0.2085838567","","0.2","0.8","0.4","0.6","","","","","0.2085838567","0.109098481","0.3483335413","0.1830588608","","","","","","","72","H","0","img/none_selected.jpg","","154","main_expt"
"275","","bandit","233","1354749","0.0-194.0-0.0","93240998","wem/bandit_either","A1Z3NTRGIUZ240","either","7","","","","","","","0","0","1","","0.1864274254","0.2","0.8","0.4","0.6","0.1864274254","0.1758262092","0.3343760247","0.2031423662","","","","","","","","","","","72","H","0","img/none_selected.jpg","","155","main_expt"
"153","","bandit","234","1356435","0.0-195.0-0.0","93240998","wem/bandit_either","A1Z3NTRGIUZ240","either","7","","","","","","","0","0","1","","0.1750870897","0.2","0.8","0.4","0.6","0.1750870897","0.2046597001","0.3742013553","0.2022731065","","","","","","","","","","","72","H","0","img/none_selected.jpg","","156","main_expt"
"262","","bandit","235","1358232","0.0-196.0-0.0","93240998","wem/bandit_either","A1Z3NTRGIUZ240","either","7","","","","","","","0","0","1","","0.1321985386","0.2","0.8","0.4","0.6","0.1321985386","0.1774751899","0.3620366094","0.1826661219","","","","","","","","","","","72","H","0","img/none_selected.jpg","","157","main_expt"
"198","","bandit","236","1359965","0.0-197.0-0.0","93240998","wem/bandit_either","A1Z3NTRGIUZ240","either","7","","","","","","","0","0","1","","0.1341899746","0.2","0.8","0.4","0.6","0.1341899746","0.1612033886","0.3671714071","0.1658993888","","","","","","","","","","","72","H","0","img/none_selected.jpg","","158","main_expt"
"171","","bandit","237","1361672","0.0-198.0-0.0","93240998","wem/bandit_either","A1Z3NTRGIUZ240","either","7","","","","","","","0","0","1","","0.1567784951","0.2","0.8","0.4","0.6","0.1567784951","0.1586838935","0.4015988616","0.1620079643","","","","","","","","","","","72","H","0","img/none_selected.jpg","","159","main_expt"
"166","","bandit","238","1363377","0.0-199.0-0.0","93240998","wem/bandit_either","A1Z3NTRGIUZ240","either","7","","","","","","","0","0","1","","0.1615549635","0.2","0.8","0.4","0.6","0.1615549635","0.2159944071","0.4004877553","0.2453635642","","","","","","","","","","","72","H","0","img/none_selected.jpg","","160","main_expt"
"317","","bandit","239","1365236","0.0-200.0-0.0","93240998","wem/bandit_either","A1Z3NTRGIUZ240","either","7","","","","","","","0","1","0","","0.1854631015","0.2","0.8","0.4","0.6","0.1854631015","0.2105769377","0.4095849454","0.2456373749","","","","","","","","","","","72","H","0","img/none_selected.jpg","","161","main_expt"
"289","","bandit","240","1367076","0.0-201.0-0.0","93240998","wem/bandit_either","A1Z3NTRGIUZ240","either","7","","","","","","","0","0","1","","0.21229469","0.2","0.8","0.4","0.6","0.21229469","0.2006925765","0.3978002783","0.2460125232","","","","","","","","","","","72","H","0","img/none_selected.jpg","","162","main_expt"
"268","","bandit","241","1368877","0.0-202.0-0.0","93240998","wem/bandit_either","A1Z3NTRGIUZ240","either","7","","","","","","","1","0","0","0.162194177","","0.2","0.8","0.4","0.6","","","","","0.162194177","0.2365124807","0.4180552148","0.2013568893","","","","","","","72","H","0","img/none_selected.jpg","","163","main_expt"
"344","","bandit","242","1370753","0.0-203.0-0.0","93240998","wem/bandit_either","A1Z3NTRGIUZ240","either","7","","","","","","","0","0","1","","0.1535707797","0.2","0.8","0.4","0.6","0.1535707797","0.2157370886","0.4407560021","0.1933595846","","","","","","","","","","","72","H","0","img/none_selected.jpg","","164","main_expt"
"508","","bandit","243","1372785","0.0-204.0-0.0","93240998","wem/bandit_either","A1Z3NTRGIUZ240","either","7","","","","","","","0","0","1","","0.2315934193","0.2","0.8","0.4","0.6","0.2315934193","0.2166787898","0.4582960521","0.167552211","","","","","","","","","","","72","H","0","img/none_selected.jpg","","165","main_expt"
"218","","bandit","244","1374536","0.0-205.0-0.0","93240998","wem/bandit_either","A1Z3NTRGIUZ240","either","7","","","","","","","1","0","0","0.2579087381","","0.2","0.8","0.4","0.6","","","","","0.2579087381","0.1846262972","0.4337500892","0.1311237951","","","","","","","72","H","0","img/none_selected.jpg","","166","main_expt"
"248","","bandit","245","1376326","0.0-206.0-0.0","93240998","wem/bandit_either","A1Z3NTRGIUZ240","either","7","","","","","","","0","0","1","","0.2496457694","0.2","0.8","0.4","0.6","0.2496457694","0.1888750078","0.4537582576","0.1714029316","","","","","","","","","","","72","H","0","img/none_selected.jpg","","167","main_expt"
"184","","bandit","246","1378039","0.0-207.0-0.0","93240998","wem/bandit_either","A1Z3NTRGIUZ240","either","7","","","","","","","0","1","0","","0.234558796","0.2","0.8","0.4","0.6","0.234558796","0.2315683769","0.4473485534","0.1494402723","","","","","","","","","","","72","H","0","img/none_selected.jpg","","168","main_expt"
"737","","bandit","247","1380316","0.0-208.0-0.0","93240998","wem/bandit_either","A1Z3NTRGIUZ240","either","7","","","","","","","0","0","1","0.2458600006","","0.2","0.8","0.4","0.6","","","","","0.2458600006","0.2018123945","0.4471591033","0.1819888556","","","","","","","72","H","0","img/none_selected.jpg","","169","main_expt"
"241","","bandit","248","1382101","0.0-209.0-0.0","93240998","wem/bandit_either","A1Z3NTRGIUZ240","either","7","","","","","","","1","0","0","0.2214583157","","0.2","0.8","0.4","0.6","","","","","0.2214583157","0.139238222","0.4581839475","0.2329206984","","","","","","","72","H","0","img/none_selected.jpg","","170","main_expt"
"955","","bandit","249","1384589","0.0-210.0-0.0","93240998","wem/bandit_either","A1Z3NTRGIUZ240","either","7","","","","","","","0","0","1","","0.296208115","0.2","0.8","0.4","0.6","0.296208115","0.1466511374","0.4674995421","0.2000607923","","","","","","","","","","","72","H","0","img/none_selected.jpg","","171","main_expt"
"111","","bandit","250","1386249","0.0-211.0-0.0","93240998","wem/bandit_either","A1Z3NTRGIUZ240","either","7","","","","","","","0","0","1","","0.3062379281","0.2","0.8","0.4","0.6","0.3062379281","0.1348290388","0.4455620345","0.2342957318","","","","","","","","","","","72","H","0","img/none_selected.jpg","","172","main_expt"
"166","","bandit","251","1387943","0.0-212.0-0.0","93240998","wem/bandit_either","A1Z3NTRGIUZ240","either","7","","","","","","","0","0","1","0.2498067723","","0.2","0.8","0.4","0.6","","","","","0.2498067723","0.1521691919","0.4471610379","0.2189308077","","","","","","","72","H","0","img/none_selected.jpg","","173","main_expt"
"181","","bandit","252","1389662","0.0-213.0-0.0","93240998","wem/bandit_either","A1Z3NTRGIUZ240","either","7","","","","","","","0","0","1","","0.1803522277","0.2","0.8","0.4","0.6","0.1803522277","0.2191935525","0.4496576915","0.2373932689","","","","","","","","","","","72","H","0","img/none_selected.jpg","","174","main_expt"
"103","","bandit","253","1391304","0.0-214.0-0.0","93240998","wem/bandit_either","A1Z3NTRGIUZ240","either","7","","","","","","","0","0","1","","0.2014319342","0.2","0.8","0.4","0.6","0.2014319342","0.219961305","0.4715297358","0.2160264752","","","","","","","","","","","72","H","0","img/none_selected.jpg","","175","main_expt"
"229","","bandit","254","1393087","0.0-215.0-0.0","93240998","wem/bandit_either","A1Z3NTRGIUZ240","either","7","","","","","","","0","0","1","","0.2122003168","0.2","0.8","0.4","0.6","0.2122003168","0.1882485239","0.477956151","0.1990604306","","","","","","","","","","","72","H","0","img/none_selected.jpg","","176","main_expt"
"352","","bandit","255","1394974","0.0-216.0-0.0","93240998","wem/bandit_either","A1Z3NTRGIUZ240","either","7","","","","","","","0","0","1","","0.2629069455","0.2","0.8","0.4","0.6","0.2629069455","0.1644902553","0.4563721206","0.1729978196","","","","","","","","","","","72","H","0","img/none_selected.jpg","","177","main_expt"
"217","","bandit","256","1396724","0.0-217.0-0.0","93240998","wem/bandit_either","A1Z3NTRGIUZ240","either","7","","","","","","","0","0","1","0.1633080779","","0.2","0.8","0.4","0.6","","","","","0.2336104206","0.1713669852","0.4409869931","0.1633080779","","","","","","","76","L","3","","","178","main_expt"
"722","","bandit","257","1398990","0.0-218.0-0.0","93240998","wem/bandit_either","A1Z3NTRGIUZ240","either","7","","","","","","","0","0","1","","0.4243126063","0.2","0.8","0.4","0.6","0.1887504226","0.2263400462","0.4243126063","0.1243251356","","","","","","","","","","","75","K","2","","","179","main_expt"
"14","","bandit","258","1400540","0.0-219.0-0.0","93240998","wem/bandit_either","A1Z3NTRGIUZ240","either","7","","","","","","","0","1","0","","0.4312830743","0.2","0.8","0.4","0.6","0.138376641","0.2036870175","0.4312830743","0.1150149055","","","","","","","","","","","75","K","2","","","180","main_expt"
"316","","bandit","259","1402401","0.0-220.0-0.0","93240998","wem/bandit_either","A1Z3NTRGIUZ240","either","7","","","","","","","0","0","1","","0.4433127893","0.2","0.8","0.4","0.6","0.1883992559","0.1934599198","0.4433127893","0.1407924877","","","","","","","","","","","75","K","2","","","181","main_expt"
"276","","bandit","260","1404214","0.0-221.0-0.0","93240998","wem/bandit_either","A1Z3NTRGIUZ240","either","7","","","","","","","0","0","1","","0.440136403","0.2","0.8","0.4","0.6","0.128889003","0.2424515525","0.440136403","0.09672650852","","","","","","","","","","","75","K","2","","","182","main_expt"
"303","","bandit","261","1406070","0.0-222.0-0.0","93240998","wem/bandit_either","A1Z3NTRGIUZ240","either","7","","","","","","","0","1","0","","0.4347693449","0.2","0.8","0.4","0.6","0.1748769843","0.1961777535","0.4347693449","0.09888002855","","","","","","","","","","","75","K","2","","","183","main_expt"
"271","","bandit","262","1407887","0.0-223.0-0.0","93240998","wem/bandit_either","A1Z3NTRGIUZ240","either","7","","","","","","","0","0","1","0.4277130926","","0.2","0.8","0.4","0.6","","","","","0.1945994373","0.1489283113","0.4277130926","0.07200145298","","","","","","","75","K","2","","","184","main_expt"
"150","","bandit","263","1409580","0.0-224.0-0.0","93240998","wem/bandit_either","A1Z3NTRGIUZ240","either","7","","","","","","","0","0","1","","0.3956248437","0.2","0.8","0.4","0.6","0.1644748654","0.1499965078","0.3956248437","0.09476413333","","","","","","","","","","","75","K","2","","","185","main_expt"
"72","","bandit","264","1411196","0.0-225.0-0.0","93240998","wem/bandit_either","A1Z3NTRGIUZ240","either","7","","","","","","","0","0","1","0.3748928266","","0.2","0.8","0.4","0.6","","","","","0.1504635592","0.2169832988","0.3748928266","0.06556422103","","","","","","","75","K","2","","","186","main_expt"
"244","","bandit","265","1412977","0.0-226.0-0.0","93240998","wem/bandit_either","A1Z3NTRGIUZ240","either","7","","","","","","","0","0","1","","0.3848139325","0.2","0.8","0.4","0.6","0.1760039214","0.2655186329","0.3848139325","0.08901149072","","","","","","","","","","","75","K","2","","","187","main_expt"
"229","","bandit","266","1414744","0.0-227.0-0.0","93240998","wem/bandit_either","A1Z3NTRGIUZ240","either","7","","","","","","","0","0","1","","0.3990176401","0.2","0.8","0.4","0.6","0.1203267588","0.2738785118","0.3990176401","0.09471428588","","","","","","","","","","","75","K","2","","","188","main_expt"
"148","","bandit","267","1416443","0.0-228.0-0.0","93240998","wem/bandit_either","A1Z3NTRGIUZ240","either","7","","","","","","","0","1","0","","0.3581396838","0.2","0.8","0.4","0.6","0.1171540391","0.3041874674","0.3581396838","0.05118235823","","","","","","","","","","","75","K","2","","","189","main_expt"
"722","","bandit","268","1418702","0.0-229.0-0.0","93240998","wem/bandit_either","A1Z3NTRGIUZ240","either","7","","","","","","","1","0","0","0.2882972244","","0.2","0.8","0.4","0.6","","","","","0.1535230761","0.3229453735","0.2882972244","0.05788318751","","","","","","","75","K","2","","","190","main_expt"
"3072","","bandit","269","1423312","0.0-230.0-0.0","93240998","wem/bandit_either","A1Z3NTRGIUZ240","either","7","","","","","","","1","0","0","0.3145326233","","0.2","0.8","0.4","0.6","","","","","0.1372750947","0.3818249757","0.3145326233","0.08736915481","","","","","","","75","K","2","","","191","main_expt"
"608","","bandit","270","1425481","0.0-231.0-0.0","93240998","wem/bandit_either","A1Z3NTRGIUZ240","either","7","","","","","","","0","1","0","","0.3270603702","0.2","0.8","0.4","0.6","0.1047771501","0.4157726243","0.3270603702","0.08251019118","","","","","","","","","","","75","K","2","","","192","main_expt"
"454","","bandit","271","1427475","0.0-232.0-0.0","93240998","wem/bandit_either","A1Z3NTRGIUZ240","either","7","","","","","","","1","0","0","0.3604030797","","0.2","0.8","0.4","0.6","","","","","0.1100845432","0.4611608212","0.3604030797","0.06897628064","","","","","","","75","K","2","","","193","main_expt"
"271","","bandit","272","1429289","0.0-233.0-0.0","93240998","wem/bandit_either","A1Z3NTRGIUZ240","either","7","","","","","","","0","0","1","","0.357423186","0.2","0.8","0.4","0.6","0.1468163818","0.4508818777","0.357423186","0.06801266305","","","","","","","","","","","75","K","2","","","194","main_expt"
"192","","bandit","273","1431017","0.0-234.0-0.0","93240998","wem/bandit_either","A1Z3NTRGIUZ240","either","7","","","","","","","0","0","1","0.3697779856","","0.2","0.8","0.4","0.6","","","","","0.1495594621","0.4278921451","0.3697779856","0.09923709358","","","","","","","75","K","2","","","195","main_expt"
"13862","","bandit","274","1446430","0.0-235.0-0.0","93240998","wem/bandit_either","A1Z3NTRGIUZ240","either","7","","","","","","","0","0","1","","0.3617177512","0.2","0.8","0.4","0.6","0.2263220537","0.4256293003","0.3617177512","0.1103063831","","","","","","","","","","","75","K","2","","","196","main_expt"
"10565","","bandit","275","1458520","0.0-236.0-0.0","93240998","wem/bandit_either","A1Z3NTRGIUZ240","either","7","","","","","","","0","0","1","","0.3775990084","0.2","0.8","0.4","0.6","0.2204718804","0.4476975038","0.3775990084","0.07377144043","","","","","","","","","","","75","K","2","","","197","main_expt"
"173","","bandit","276","1460232","0.0-237.0-0.0","93240998","wem/bandit_either","A1Z3NTRGIUZ240","either","7","","","","","","","1","0","0","0.4144042571","","0.2","0.8","0.4","0.6","","","","","0.2401118457","0.4434357272","0.4144042571","0.08863448313","","","","","","","75","K","2","","","198","main_expt"
"426","","bandit","277","1462191","0.0-238.0-0.0","93240998","wem/bandit_either","A1Z3NTRGIUZ240","either","7","","","","","","","0","1","0","","0.4081775392","0.2","0.8","0.4","0.6","0.2673724497","0.4245114622","0.4081775392","0.1082179128","","","","","","","","","","","75","K","2","","","199","main_expt"
"161","","bandit","278","1463886","0.0-239.0-0.0","93240998","wem/bandit_either","A1Z3NTRGIUZ240","either","7","","","","","","","0","0","1","","0.4166156547","0.2","0.8","0.4","0.6","0.3125307902","0.4087100315","0.4166156547","0.09350688576","","","","","","","","","","","75","K","2","","","200","main_expt"
"1036","","bandit","279","1466462","0.0-240.0-0.0","93240998","wem/bandit_either","A1Z3NTRGIUZ240","either","7","","","","","","","1","0","0","0.4306537176","","0.2","0.8","0.4","0.6","","","","","0.2914574258","0.4361521275","0.4306537176","0.1036625099","","","","","","","75","K","2","","","201","main_expt"
"923","","bandit","280","1468901","0.0-241.0-0.0","93240998","wem/bandit_either","A1Z3NTRGIUZ240","either","7","","","","","","","0","0","1","","0.449382563","0.2","0.8","0.4","0.6","0.2550600684","0.3332596158","0.449382563","0.1216733889","","","","","","","","","","","75","K","2","","","202","main_expt"
"14354","","bandit","281","1484797","0.0-242.0-0.0","93240998","wem/bandit_either","A1Z3NTRGIUZ240","either","7","","","","","","","0","0","1","","0.4506576586","0.2","0.8","0.4","0.6","0.2769745997","0.3581848779","0.4506576586","0.120655788","","","","","","","","","","","75","K","2","","","203","main_expt"
"289","","bandit","282","1486639","0.0-243.0-0.0","93240998","wem/bandit_either","A1Z3NTRGIUZ240","either","7","","","","","","","0","1","0","","0.454839243","0.2","0.8","0.4","0.6","0.2752990059","0.3597133043","0.454839243","0.1082970726","","","","","","","","","","","75","K","2","","","204","main_expt"
"354","","bandit","283","1488547","0.0-244.0-0.0","93240998","wem/bandit_either","A1Z3NTRGIUZ240","either","7","","","","","","","0","0","1","","0.4512889682","0.2","0.8","0.4","0.6","0.2901512169","0.3630183988","0.4512889682","0.09143681274","","","","","","","","","","","75","K","2","","","205","main_expt"
"323","","bandit","284","1490422","0.0-245.0-0.0","93240998","wem/bandit_either","A1Z3NTRGIUZ240","either","7","","","","","","","0","1","0","","0.4591490044","0.2","0.8","0.4","0.6","0.2823763913","0.3737494834","0.4591490044","0.08377413986","","","","","","","","","","","75","K","2","","","206","main_expt"
"3867","","bandit","285","1495833","0.0-246.0-0.0","93240998","wem/bandit_either","A1Z3NTRGIUZ240","either","7","","","","","","","0","0","1","0.4650593633","","0.2","0.8","0.4","0.6","","","","","0.2708062506","0.3668784438","0.4650593633","0.1585073664","","","","","","","75","K","2","","","207","main_expt"
"508","","bandit","286","1497893","0.0-247.0-0.0","93240998","wem/bandit_either","A1Z3NTRGIUZ240","either","7","","","","","","","0","0","1","","0.4641513068","0.2","0.8","0.4","0.6","0.2641553663","0.4045351895","0.4641513068","0.162299901","","","","","","","","","","","75","K","2","","","208","main_expt"
"348","","bandit","287","1499776","0.0-248.0-0.0","93240998","wem/bandit_either","A1Z3NTRGIUZ240","either","7","","","","","","","0","1","0","","0.4567807332","0.2","0.8","0.4","0.6","0.2704675845","0.4402386934","0.4567807332","0.1542266077","","","","","","","","","","","75","K","2","","","209","main_expt"
"1787","","bandit","288","1503128","0.0-249.0-0.0","93240998","wem/bandit_either","A1Z3NTRGIUZ240","either","7","","","","","","","0","0","1","","0.428253188","0.2","0.8","0.4","0.6","0.3420868926","0.4483623408","0.428253188","0.1890415559","","","","","","","","","","","75","K","2","","","210","main_expt"
"494","","bandit","289","1505181","0.0-250.0-0.0","93240998","wem/bandit_either","A1Z3NTRGIUZ240","either","7","","","","","","","0","0","1","","0.410271385","0.2","0.8","0.4","0.6","0.3069688952","0.4471415093","0.410271385","0.1818133019","","","","","","","","","","","75","K","2","","","211","main_expt"
"451","","bandit","290","1507182","0.0-251.0-0.0","93240998","wem/bandit_either","A1Z3NTRGIUZ240","either","7","","","","","","","0","1","0","","0.4065587724","0.2","0.8","0.4","0.6","0.3005379093","0.4374655127","0.4065587724","0.1782747956","","","","","","","","","","","75","K","2","","","212","main_expt"
"2","","bandit","291","1508741","0.0-252.0-0.0","93240998","wem/bandit_either","A1Z3NTRGIUZ240","either","7","","","","","","","0","0","1","0.4007116542","","0.2","0.8","0.4","0.6","","","","","0.213882915","0.4381457257","0.4007116542","0.1935195711","","","","","","","75","K","2","","","213","main_expt"
"236","","bandit","292","1510514","0.0-253.0-0.0","93240998","wem/bandit_either","A1Z3NTRGIUZ240","either","7","","","","","","","0","1","0","","0.4246209323","0.2","0.8","0.4","0.6","0.2138557204","0.4643769008","0.4246209323","0.2421176173","","","","","","","","","","","75","K","2","","","214","main_expt"
"429","","bandit","293","1512491","0.0-254.0-0.0","93240998","wem/bandit_either","A1Z3NTRGIUZ240","either","7","","","","","","","0","0","1","","0.3993057066","0.2","0.8","0.4","0.6","0.2142566612","0.4328812357","0.3993057066","0.2629876012","","","","","","","","","","","75","K","2","","","215","main_expt"
"628","","bandit","294","1514659","0.0-255.0-0.0","93240998","wem/bandit_either","A1Z3NTRGIUZ240","either","7","","","","","","","0","1","0","","0.3987772474","0.2","0.8","0.4","0.6","0.1900351118","0.4064507999","0.3987772474","0.2977714141","","","","","","","","","","","75","K","2","","","216","main_expt"
"1121","","bandit","295","1517321","0.0-256.0-0.0","93240998","wem/bandit_either","A1Z3NTRGIUZ240","either","7","","","","","","","0","1","0","","0.4101433534","0.2","0.8","0.4","0.6","0.2185169477","0.4197961641","0.4101433534","0.3017601552","","","","","","","","","","","75","K","2","","","217","main_expt"
"267","","bandit","296","1519134","0.0-257.0-0.0","93240998","wem/bandit_either","A1Z3NTRGIUZ240","either","7","","","","","","","1","0","0","0.4448029092","","0.2","0.8","0.4","0.6","","","","","0.2240895604","0.4167397569","0.4448029092","0.2888566207","","","","","","","75","K","2","","","218","main_expt"
"1104","","bandit","297","1521782","0.0-258.0-0.0","93240998","wem/bandit_either","A1Z3NTRGIUZ240","either","7","","","","","","","0","0","1","","0.4454766299","0.2","0.8","0.4","0.6","0.1990808675","0.4250944588","0.4454766299","0.2844008008","","","","","","","","","","","75","K","2","","","219","main_expt"
"510","","bandit","298","1523837","0.0-259.0-0.0","93240998","wem/bandit_either","A1Z3NTRGIUZ240","either","7","","","","","","","0","0","1","0.4610997771","","0.2","0.8","0.4","0.6","","","","","0.266602996","0.4173336587","0.4610997771","0.2225062479","","","","","","","75","K","2","","","220","main_expt"
"358","","bandit","299","1525738","0.0-260.0-0.0","93240998","wem/bandit_either","A1Z3NTRGIUZ240","either","7","","","","","","","0","1","0","","0.4642289789","0.2","0.8","0.4","0.6","0.2443661227","0.3944711005","0.4642289789","0.2409900116","","","","","","","","","","","75","K","2","","","221","main_expt"
"522","","bandit","300","1527792","0.0-261.0-0.0","93240998","wem/bandit_either","A1Z3NTRGIUZ240","either","7","","","","","","","0","0","1","","0.4641270597","0.2","0.8","0.4","0.6","0.2205922116","0.3619306912","0.4641270597","0.1989678636","","","","","","","","","","","75","K","2","","","222","main_expt"
"592","","bandit","301","1529903","0.0-262.0-0.0","93240998","wem/bandit_either","A1Z3NTRGIUZ240","either","7","","","","","","","1","0","0","0.4697433819","","0.2","0.8","0.4","0.6","","","","","0.1861223506","0.4117842179","0.4697433819","0.1902867071","","","","","","","75","K","2","","","223","main_expt"
"437","","bandit","302","1531870","0.0-263.0-0.0","93240998","wem/bandit_either","A1Z3NTRGIUZ240","either","7","","","","","","","1","0","0","0.460898083","","0.2","0.8","0.4","0.6","","","","","0.1668884863","0.3965092367","0.460898083","0.2076415522","","","","","","","75","K","2","","","224","main_expt"
"208","","bandit","303","1533640","0.0-264.0-0.0","93240998","wem/bandit_either","A1Z3NTRGIUZ240","either","7","","","","","","","0","0","1","0.4394890665","","0.2","0.8","0.4","0.6","","","","","0.1481472712","0.4084477862","0.4394890665","0.2393469174","","","","","","","75","K","2","","","225","main_expt"
"1829","","bandit","304","1537018","0.0-265.0-0.0","93240998","wem/bandit_either","A1Z3NTRGIUZ240","either","7","","","","","","","0","1","0","","0.4520955237","0.2","0.8","0.4","0.6","0.1140846591","0.4104601526","0.4520955237","0.2425440376","","","","","","","","","","","75","K","2","","","226","main_expt"
"1157","","bandit","305","1539724","0.0-266.0-0.0","93240998","wem/bandit_either","A1Z3NTRGIUZ240","either","7","","","","","","","0","0","1","0.4324220164","","0.2","0.8","0.4","0.6","","","","","0.1074218354","0.3899733519","0.4324220164","0.2365603363","","","","","","","75","K","2","","","227","main_expt"
"596","","bandit","306","1541866","0.0-267.0-0.0","93240998","wem/bandit_either","A1Z3NTRGIUZ240","either","7","","","","","","","0","0","1","0.4220482421","","0.2","0.8","0.4","0.6","","","","","0.08065165665","0.3796730737","0.4220482421","0.2127958296","","","","","","","75","K","2","","","228","main_expt"
"366","","bandit","307","1543774","0.0-268.0-0.0","93240998","wem/bandit_either","A1Z3NTRGIUZ240","either","7","","","","","","","0","0","1","0.2207861463","","0.2","0.8","0.4","0.6","","","","","0.07774059362","0.4046866514","0.3885749154","0.2207861463","","","","","","","76","L","3","","","229","main_expt"
"180","","bandit","308","1545493","0.0-269.0-0.0","93240998","wem/bandit_either","A1Z3NTRGIUZ240","either","7","","","","","","","0","0","1","0.3988793555","","0.2","0.8","0.4","0.6","","","","","0.1109483114","0.3988793555","0.4023755806","0.2589226453","","","","","","","74","J","1","","","230","main_expt"
"400","","bandit","309","1547451","0.0-270.0-0.0","93240998","wem/bandit_either","A1Z3NTRGIUZ240","either","7","","","","","","","0","0","1","","0.3981898202","0.2","0.8","0.4","0.6","0.05902300203","0.3981898202","0.3768725222","0.2956158432","","","","","","","","","","","74","J","1","","","231","main_expt"
"1039","","bandit","310","1550036","0.0-271.0-0.0","93240998","wem/bandit_either","A1Z3NTRGIUZ240","either","7","","","","","","","0","0","1","0.4411941832","","0.2","0.8","0.4","0.6","","","","","0.06675855664","0.4411941832","0.3619917427","0.3202484073","","","","","","","74","J","1","","","232","main_expt"
"1179","","bandit","311","1552767","0.0-272.0-0.0","93240998","wem/bandit_either","A1Z3NTRGIUZ240","either","7","","","","","","","0","0","1","0.42967461","","0.2","0.8","0.4","0.6","","","","","0.06703699679","0.42967461","0.3833578816","0.2933644042","","","","","","","74","J","1","","","233","main_expt"
"223","","bandit","312","1554543","0.0-273.0-0.0","93240998","wem/bandit_either","A1Z3NTRGIUZ240","either","7","","","","","","","0","0","1","0.4242798354","","0.2","0.8","0.4","0.6","","","","","0.05331023031","0.4242798354","0.3552131768","0.3106154811","","","","","","","74","J","1","","","234","main_expt"
"1229","","bandit","313","1557325","0.0-274.0-0.0","93240998","wem/bandit_either","A1Z3NTRGIUZ240","either","7","","","","","","","1","0","0","0.4617388459","","0.2","0.8","0.4","0.6","","","","","0.05187545802","0.4617388459","0.3135084543","0.3158990995","","","","","","","74","J","1","","","235","main_expt"
"427","","bandit","314","1559316","0.0-275.0-0.0","93240998","wem/bandit_either","A1Z3NTRGIUZ240","either","7","","","","","","","1","0","0","0.4619510484","","0.2","0.8","0.4","0.6","","","","","0.06939909985","0.4619510484","0.244945467","0.3036927748","","","","","","","74","J","1","","","236","main_expt"
"369","","bandit","315","1561233","0.0-276.0-0.0","93240998","wem/bandit_either","A1Z3NTRGIUZ240","either","7","","","","","","","1","0","0","0.4482398789","","0.2","0.8","0.4","0.6","","","","","0.1210409879","0.4482398789","0.1823839079","0.3491021326","","","","","","","74","J","1","","","237","main_expt"
"292","","bandit","316","1563077","0.0-277.0-0.0","93240998","wem/bandit_either","A1Z3NTRGIUZ240","either","7","","","","","","","0","0","1","0.4193969143","","0.2","0.8","0.4","0.6","","","","","0.1147840357","0.4193969143","0.1685050226","0.3939254097","","","","","","","74","J","1","","","238","main_expt"
"460","","bandit","317","1565077","0.0-278.0-0.0","93240998","wem/bandit_either","A1Z3NTRGIUZ240","either","7","","","","","","","0","0","1","0.4203848948","","0.2","0.8","0.4","0.6","","","","","0.1006463842","0.4203848948","0.1606472637","0.379108978","","","","","","","74","J","1","","","239","main_expt"
"376","","bandit","318","1567008","0.0-279.0-0.0","93240998","wem/bandit_either","A1Z3NTRGIUZ240","either","7","","","","","","","0","0","1","","0.4489383263","0.2","0.8","0.4","0.6","0.1008771133","0.4489383263","0.1512795466","0.3876209848","","","","","","","","","","","74","J","1","","","240","main_expt"
"206","","bandit","319","1568772","0.0-280.0-0.0","93240998","wem/bandit_either","A1Z3NTRGIUZ240","either","7","","","","","","","0","1","0","","0.4636195567","0.2","0.8","0.4","0.6","0.09981833296","0.4636195567","0.1916219391","0.3839625774","","","","","","","","","","","74","J","1","","","241","main_expt"
"614","","bandit","320","1570926","0.0-281.0-0.0","93240998","wem/bandit_either","A1Z3NTRGIUZ240","either","7","","","","","","","0","0","1","0.4575307695","","0.2","0.8","0.4","0.6","","","","","0.1171772993","0.4575307695","0.1641013935","0.3477958629","","","","","","","74","J","1","","","242","main_expt"
"455","","bandit","321","1572933","0.0-282.0-0.0","93240998","wem/bandit_either","A1Z3NTRGIUZ240","either","7","","","","","","","0","0","1","","0.4449554393","0.2","0.8","0.4","0.6","0.1239984651","0.4449554393","0.2064320789","0.3500658948","","","","","","","","","","","74","J","1","","","243","main_expt"
"220","","bandit","322","1574708","0.0-283.0-0.0","93240998","wem/bandit_either","A1Z3NTRGIUZ240","either","7","","","","","","","0","0","1","","0.4525763452","0.2","0.8","0.4","0.6","0.1126152289","0.4525763452","0.2205496082","0.3452717574","","","","","","","","","","","74","J","1","","","244","main_expt"
"548","","bandit","323","1576795","0.0-284.0-0.0","93240998","wem/bandit_either","A1Z3NTRGIUZ240","either","7","","","","","","","1","0","0","0.4753838692","","0.2","0.8","0.4","0.6","","","","","0.1524829061","0.4753838692","0.214276823","0.3162288444","","","","","","","74","J","1","","","245","main_expt"
"294","","bandit","324","1578640","0.0-285.0-0.0","93240998","wem/bandit_either","A1Z3NTRGIUZ240","either","7","","","","","","","0","0","1","0.4623654582","","0.2","0.8","0.4","0.6","","","","","0.1921750243","0.4623654582","0.2084567316","0.2894596967","","","","","","","74","J","1","","","246","main_expt"
"385","","bandit","325","1580568","0.0-286.0-0.0","93240998","wem/bandit_either","A1Z3NTRGIUZ240","either","7","","","","","","","1","0","0","0.4331165165","","0.2","0.8","0.4","0.6","","","","","0.1931065189","0.4331165165","0.2232303491","0.2642296388","","","","","","","74","J","1","","","247","main_expt"
"368","","bandit","326","1582484","0.0-287.0-0.0","93240998","wem/bandit_either","A1Z3NTRGIUZ240","either","7","","","","","","","1","0","0","0.4401602984","","0.2","0.8","0.4","0.6","","","","","0.2189994516","0.4401602984","0.2541796534","0.2534255255","","","","","","","74","J","1","","","248","main_expt"
"188","","bandit","327","1584195","0.0-288.0-0.0","93240998","wem/bandit_either","A1Z3NTRGIUZ240","either","7","","","","","","","0","0","1","0.430892824","","0.2","0.8","0.4","0.6","","","","","0.1989243371","0.430892824","0.232462199","0.2252980971","","","","","","","74","J","1","","","249","main_expt"
"713","","bandit","328","1586470","0.0-289.0-0.0","93240998","wem/bandit_either","A1Z3NTRGIUZ240","either","7","","","","","","","1","0","0","0.4282509168","","0.2","0.8","0.4","0.6","","","","","0.1635706079","0.4282509168","0.2877664065","0.298830738","","","","","","","74","J","1","","","250","main_expt"
"728","","bandit","329","1588752","0.0-290.0-0.0","93240998","wem/bandit_either","A1Z3NTRGIUZ240","either","7","","","","","","","1","0","0","0.4499649657","","0.2","0.8","0.4","0.6","","","","","0.1738575253","0.4499649657","0.2947451014","0.3113207693","","","","","","","74","J","1","","","251","main_expt"
