"rt","responses","trial_type","trial_index","time_elapsed","internal_node_id","subjID","study","MID","cond","drift","key_press","expt_phase","target","like","value","connected","gems","bombs","no_reward","GemPrChosen","BombPrChosen","GainOverPainPr_0","GainOverPainPr_1","GainOverPainPr_2","GainOverPainPr_3","LosePr_0","LosePr_1","LosePr_2","LosePr_3","WinPr_0","WinPr_1","WinPr_2","WinPr_3","Q0","Q1","Q2","gender","age","ethnicity","respCharCode","respKey","respChoiceNum","respChoice","practice","trial_counter","trial_label"
"5236","{""Q0"":""A10BH9PYCYUKDJ""}","survey-text","0","5251","0.0-0.0","94027982","wem/bandit_either","A10BH9PYCYUKDJ","either","1","","","","","","","","","","","","","","","","","","","","","","","","","","","","","","","","","","","",""
"16311","","text","1","22569","0.0-1.0","94027982","wem/bandit_either","A10BH9PYCYUKDJ","either","1","32","","","","","","","","","","","","","","","","","","","","","","","","","","","","","","","","","","",""
"10977","","text","2","33550","0.0-2.0","94027982","wem/bandit_either","A10BH9PYCYUKDJ","either","1","32","","","","","","","","","","","","","","","","","","","","","","","","","","","","","","","","","","",""
"27692","","text","3","61246","0.0-3.0","94027982","wem/bandit_either","A10BH9PYCYUKDJ","either","1","32","","","","","","","","","","","","","","","","","","","","","","","","","","","","","","","","","","",""
"22714","","text","4","83962","0.0-4.0","94027982","wem/bandit_either","A10BH9PYCYUKDJ","either","1","32","","","","","","","","","","","","","","","","","","","","","","","","","","","","","","","","","","",""
"23918","","text","5","107883","0.0-5.0","94027982","wem/bandit_either","A10BH9PYCYUKDJ","either","1","32","","","","","","","","","","","","","","","","","","","","","","","","","","","","","","","","","","",""
"8260","","text","6","116146","0.0-6.0","94027982","wem/bandit_either","A10BH9PYCYUKDJ","either","1","32","","","","","","","","","","","","","","","","","","","","","","","","","","","","","","","","","","",""
"6444","","text","7","122594","0.0-7.0","94027982","wem/bandit_either","A10BH9PYCYUKDJ","either","1","32","","","","","","","","","","","","","","","","","","","","","","","","","","","","","","","","","","",""
"8182","","identification","8","130848","0.0-8.0-0.0","94027982","wem/bandit_either","A10BH9PYCYUKDJ","either","1","","identification_pre","the village of Zur","","","","","","","","","","","","","","","","","","","","","","","","","","","","","","","","",""
"7766","","identification","9","139653","0.0-8.0-1.0","94027982","wem/bandit_either","A10BH9PYCYUKDJ","either","1","","identification_pre","the village of Nyx","","","","","","","","","","","","","","","","","","","","","","","","","","","","","","","","",""
"8591","","text","10","149247","0.0-9.0","94027982","wem/bandit_either","A10BH9PYCYUKDJ","either","1","32","","","","","","","","","","","","","","","","","","","","","","","","","","","","","","","","","","",""
"4328","","text","11","153577","0.0-10.0","94027982","wem/bandit_either","A10BH9PYCYUKDJ","either","1","32","","","","","","","","","","","","","","","","","","","","","","","","","","","","","","","","","","",""
"4291","","text","12","157871","0.0-11.0","94027982","wem/bandit_either","A10BH9PYCYUKDJ","either","1","32","","","","","","","","","","","","","","","","","","","","","","","","","","","","","","","","","","",""
"6729","","text","13","164602","0.0-12.0","94027982","wem/bandit_either","A10BH9PYCYUKDJ","either","1","32","","","","","","","","","","","","","","","","","","","","","","","","","","","","","","","","","","",""
"1618","","bandit","14","167734","0.0-13.0-0.0","94027982","wem/bandit_either","A10BH9PYCYUKDJ","either","1","","","","","","","0","0","1","0","0","","","","","0","","","","0","","","","","","","","","","74","J","0","img/none_selected_demo.jpg","true","0",""
"178","","bandit","15","169424","0.0-14.0-0.0","94027982","wem/bandit_either","A10BH9PYCYUKDJ","either","1","","","","","","","0","0","1","0","0","","","","","0","","","","0","","","","","","","","","","75","K","0","img/none_selected_demo.jpg","true","0",""
"12509","","text","16","181936","0.0-15.0","94027982","wem/bandit_either","A10BH9PYCYUKDJ","either","1","32","","","","","","","","","","","","","","","","","","","","","","","","","","","","","","","","","","",""
"21269","","text","17","203212","0.0-16.0","94027982","wem/bandit_either","A10BH9PYCYUKDJ","either","1","32","","","","","","","","","","","","","","","","","","","","","","","","","","","","","","","","","","",""
"10373","","text","18","213588","0.0-17.0","94027982","wem/bandit_either","A10BH9PYCYUKDJ","either","1","32","","","","","","","","","","","","","","","","","","","","","","","","","","","","","","","","","","",""
"6535","","text","19","220126","0.0-18.0","94027982","wem/bandit_either","A10BH9PYCYUKDJ","either","1","32","","","","","","","","","","","","","","","","","","","","","","","","","","","","","","","","","","",""
"1249","","bandit","20","222884","0.0-19.0-0.0","94027982","wem/bandit_either","A10BH9PYCYUKDJ","either","1","","","","","","","0","1","0","","0.8","0.5","0.5","","","0.8","0.2","","","","","","","","","","","","","74","J","0","img/none_selected_demo.jpg","true","0","80_20_practice"
"310","","bandit","21","224704","0.0-19.0-1.0","94027982","wem/bandit_either","A10BH9PYCYUKDJ","either","1","","","","","","","1","0","0","0.2","","0.5","0.5","","","","","","","0.8","0.2","","","","","","","","","75","K","1","","true","0","80_20_practice"
"263","","bandit","22","226481","0.0-19.0-2.0","94027982","wem/bandit_either","A10BH9PYCYUKDJ","either","1","","","","","","","0","0","1","","0.2","0.5","0.5","","","0.8","0.2","","","","","","","","","","","","","75","K","1","","true","0","80_20_practice"
"260","","bandit","23","228249","0.0-19.0-3.0","94027982","wem/bandit_either","A10BH9PYCYUKDJ","either","1","","","","","","","0","0","1","","0.2","0.5","0.5","","","0.8","0.2","","","","","","","","","","","","","75","K","1","","true","0","80_20_practice"
"1140","","bandit","24","230900","0.0-19.0-4.0","94027982","wem/bandit_either","A10BH9PYCYUKDJ","either","1","","","","","","","1","0","0","0.8","","0.5","0.5","","","","","","","0.8","0.2","","","","","","","","","74","J","0","img/none_selected_demo.jpg","true","0","80_20_practice"
"352","","bandit","25","232762","0.0-19.0-5.0","94027982","wem/bandit_either","A10BH9PYCYUKDJ","either","1","","","","","","","0","1","0","","0.8","0.5","0.5","","","0.8","0.2","","","","","","","","","","","","","74","J","0","img/none_selected_demo.jpg","true","0","80_20_practice"
"338","","bandit","26","234608","0.0-19.0-6.0","94027982","wem/bandit_either","A10BH9PYCYUKDJ","either","1","","","","","","","0","0","1","0.2","","0.5","0.5","","","","","","","0.8","0.2","","","","","","","","","75","K","1","","true","0","80_20_practice"
"216","","bandit","27","236334","0.0-19.0-7.0","94027982","wem/bandit_either","A10BH9PYCYUKDJ","either","1","","","","","","","0","1","0","","0.8","0.5","0.5","","","0.8","0.2","","","","","","","","","","","","","74","J","0","img/none_selected_demo.jpg","true","0","80_20_practice"
"339","","bandit","28","238183","0.0-19.0-8.0","94027982","wem/bandit_either","A10BH9PYCYUKDJ","either","1","","","","","","","1","0","0","0.8","","0.5","0.5","","","","","","","0.8","0.2","","","","","","","","","74","J","0","img/none_selected_demo.jpg","true","0","80_20_practice"
"277","","bandit","29","239971","0.0-19.0-9.0","94027982","wem/bandit_either","A10BH9PYCYUKDJ","either","1","","","","","","","0","1","0","","0.8","0.5","0.5","","","0.8","0.2","","","","","","","","","","","","","74","J","0","img/none_selected_demo.jpg","true","0","80_20_practice"
"317","","bandit","30","241796","0.0-19.0-10.0","94027982","wem/bandit_either","A10BH9PYCYUKDJ","either","1","","","","","","","0","0","1","","0.8","0.5","0.5","","","0.8","0.2","","","","","","","","","","","","","74","J","0","img/none_selected_demo.jpg","true","0","80_20_practice"
"259","","bandit","31","243569","0.0-19.0-11.0","94027982","wem/bandit_either","A10BH9PYCYUKDJ","either","1","","","","","","","0","1","0","","0.2","0.5","0.5","","","0.8","0.2","","","","","","","","","","","","","75","K","1","","true","0","80_20_practice"
"284","","bandit","32","245364","0.0-19.0-12.0","94027982","wem/bandit_either","A10BH9PYCYUKDJ","either","1","","","","","","","0","0","1","","0.2","0.5","0.5","","","0.8","0.2","","","","","","","","","","","","","75","K","1","","true","0","80_20_practice"
"237","","bandit","33","247112","0.0-19.0-13.0","94027982","wem/bandit_either","A10BH9PYCYUKDJ","either","1","","","","","","","0","1","0","","0.8","0.5","0.5","","","0.8","0.2","","","","","","","","","","","","","74","J","0","img/none_selected_demo.jpg","true","0","80_20_practice"
"258","","bandit","34","248884","0.0-19.0-14.0","94027982","wem/bandit_either","A10BH9PYCYUKDJ","either","1","","","","","","","1","0","0","0.8","","0.5","0.5","","","","","","","0.8","0.2","","","","","","","","","74","J","0","img/none_selected_demo.jpg","true","0","80_20_practice"
"229","","bandit","35","250625","0.0-19.0-15.0","94027982","wem/bandit_either","A10BH9PYCYUKDJ","either","1","","","","","","","1","0","0","0.8","","0.5","0.5","","","","","","","0.8","0.2","","","","","","","","","74","J","0","img/none_selected_demo.jpg","true","0","80_20_practice"
"237","","bandit","36","252371","0.0-19.0-16.0","94027982","wem/bandit_either","A10BH9PYCYUKDJ","either","1","","","","","","","0","1","0","","0.8","0.5","0.5","","","0.8","0.2","","","","","","","","","","","","","74","J","0","img/none_selected_demo.jpg","true","0","80_20_practice"
"279","","bandit","37","254162","0.0-19.0-17.0","94027982","wem/bandit_either","A10BH9PYCYUKDJ","either","1","","","","","","","0","1","0","","0.8","0.5","0.5","","","0.8","0.2","","","","","","","","","","","","","74","J","0","img/none_selected_demo.jpg","true","0","80_20_practice"
"123","","bandit","38","255795","0.0-19.0-18.0","94027982","wem/bandit_either","A10BH9PYCYUKDJ","either","1","","","","","","","1","0","0","0.8","","0.5","0.5","","","","","","","0.8","0.2","","","","","","","","","74","J","0","img/none_selected_demo.jpg","true","0","80_20_practice"
"230","","bandit","39","257536","0.0-19.0-19.0","94027982","wem/bandit_either","A10BH9PYCYUKDJ","either","1","","","","","","","1","0","0","0.8","","0.5","0.5","","","","","","","0.8","0.2","","","","","","","","","74","J","0","img/none_selected_demo.jpg","true","0","80_20_practice"
"5584","","text","40","263125","0.0-20.0","94027982","wem/bandit_either","A10BH9PYCYUKDJ","either","1","32","","","","","","","","","","","","","","","","","","","","","","","","","","","","","","","","","","",""
"1889","","bandit","41","266524","0.0-21.0-0.0","94027982","wem/bandit_either","A10BH9PYCYUKDJ","either","1","","","","","","","1","0","0","1","0","","","","","0","1","","","1","0","","","","","","","","","74","J","0","img/none_selected_demo.jpg","true","0",""
"13869","","text","42","280396","0.0-22.0","94027982","wem/bandit_either","A10BH9PYCYUKDJ","either","1","32","","","","","","","","","","","","","","","","","","","","","","","","","","","","","","","","","","",""
"9239","","text","43","289640","0.0-23.0","94027982","wem/bandit_either","A10BH9PYCYUKDJ","either","1","32","","","","","","","","","","","","","","","","","","","","","","","","","","","","","","","","","","",""
"9053","","text","44","298696","0.0-24.0","94027982","wem/bandit_either","A10BH9PYCYUKDJ","either","1","32","","","","","","","","","","","","","","","","","","","","","","","","","","","","","","","","","","",""
"4214","","text","45","302921","0.0-25.0","94027982","wem/bandit_either","A10BH9PYCYUKDJ","either","1","32","","","","","","","","","","","","","","","","","","","","","","","","","","","","","","","","","","",""
"17327","","text","46","320251","0.0-26.0","94027982","wem/bandit_either","A10BH9PYCYUKDJ","either","1","32","","","","","","","","","","","","","","","","","","","","","","","","","","","","","","","","","","",""
"7016","","text","47","327270","0.0-27.0","94027982","wem/bandit_either","A10BH9PYCYUKDJ","either","1","32","","","","","","","","","","","","","","","","","","","","","","","","","","","","","","","","","","",""
"8366","","text","48","335639","0.0-28.0","94027982","wem/bandit_either","A10BH9PYCYUKDJ","either","1","32","","","","","","","","","","","","","","","","","","","","","","","","","","","","","","","","","","",""
"7264","","text","49","342907","0.0-29.0","94027982","wem/bandit_either","A10BH9PYCYUKDJ","either","1","32","","","","","","","","","","","","","","","","","","","","","","","","","","","","","","","","","","",""
"21447","","text","50","364358","0.0-30.0","94027982","wem/bandit_either","A10BH9PYCYUKDJ","either","1","32","","","","","","","","","","","","","","","","","","","","","","","","","","","","","","","","","","",""
"2496","","text","51","366858","0.0-31.0","94027982","wem/bandit_either","A10BH9PYCYUKDJ","either","1","32","","","","","","","","","","","","","","","","","","","","","","","","","","","","","","","","","","",""
"6440","","text","52","373302","0.0-32.0","94027982","wem/bandit_either","A10BH9PYCYUKDJ","either","1","32","","","","","","","","","","","","","","","","","","","","","","","","","","","","","","","","","","",""
"725","","bandit","53","375540","0.0-33.0-0.0","94027982","wem/bandit_either","A10BH9PYCYUKDJ","either","1","","","","","","","0","1","0","","0.8","0.5","0.5","0.5","0.5","0.8","0.2","0.6","0.2","","","","","","","","","","","72","H","0","img/none_selected.jpg","true","0","full_practice"
"267","","bandit","54","377324","0.0-33.0-1.0","94027982","wem/bandit_either","A10BH9PYCYUKDJ","either","1","","","","","","","0","1","0","","0.8","0.5","0.5","0.5","0.5","0.8","0.2","0.6","0.2","","","","","","","","","","","72","H","0","img/none_selected.jpg","true","0","full_practice"
"267","","bandit","55","379103","0.0-33.0-2.0","94027982","wem/bandit_either","A10BH9PYCYUKDJ","either","1","","","","","","","0","1","0","","0.8","0.5","0.5","0.5","0.5","0.8","0.2","0.6","0.2","","","","","","","","","","","72","H","0","img/none_selected.jpg","true","0","full_practice"
"374","","bandit","56","380987","0.0-33.0-3.0","94027982","wem/bandit_either","A10BH9PYCYUKDJ","either","1","","","","","","","0","1","0","","0.8","0.5","0.5","0.5","0.5","0.8","0.2","0.6","0.2","","","","","","","","","","","72","H","0","img/none_selected.jpg","true","0","full_practice"
"222","","bandit","57","382723","0.0-33.0-4.0","94027982","wem/bandit_either","A10BH9PYCYUKDJ","either","1","","","","","","","0","0","1","","0.2","0.5","0.5","0.5","0.5","0.8","0.2","0.6","0.2","","","","","","","","","","","74","J","1","","true","0","full_practice"
"337","","bandit","58","384574","0.0-33.0-5.0","94027982","wem/bandit_either","A10BH9PYCYUKDJ","either","1","","","","","","","1","0","0","0.6","","0.5","0.5","0.5","0.5","","","","","0.8","0.2","0.6","0.2","","","","","","","75","K","2","","true","0","full_practice"
"315","","bandit","59","386402","0.0-33.0-6.0","94027982","wem/bandit_either","A10BH9PYCYUKDJ","either","1","","","","","","","1","0","0","0.6","","0.5","0.5","0.5","0.5","","","","","0.8","0.2","0.6","0.2","","","","","","","75","K","2","","true","0","full_practice"
"309","","bandit","60","388222","0.0-33.0-7.0","94027982","wem/bandit_either","A10BH9PYCYUKDJ","either","1","","","","","","","1","0","0","0.6","","0.5","0.5","0.5","0.5","","","","","0.8","0.2","0.6","0.2","","","","","","","75","K","2","","true","0","full_practice"
"315","","bandit","61","390049","0.0-33.0-8.0","94027982","wem/bandit_either","A10BH9PYCYUKDJ","either","1","","","","","","","1","0","0","0.6","","0.5","0.5","0.5","0.5","","","","","0.8","0.2","0.6","0.2","","","","","","","75","K","2","","true","0","full_practice"
"585","","bandit","62","392144","0.0-33.0-9.0","94027982","wem/bandit_either","A10BH9PYCYUKDJ","either","1","","","","","","","1","0","0","0.8","","0.5","0.5","0.5","0.5","","","","","0.8","0.2","0.6","0.2","","","","","","","72","H","0","img/none_selected.jpg","true","0","full_practice"
"274","","bandit","63","393930","0.0-33.0-10.0","94027982","wem/bandit_either","A10BH9PYCYUKDJ","either","1","","","","","","","0","1","0","","0.6","0.5","0.5","0.5","0.5","0.8","0.2","0.6","0.2","","","","","","","","","","","75","K","2","","true","0","full_practice"
"317","","bandit","64","395758","0.0-33.0-11.0","94027982","wem/bandit_either","A10BH9PYCYUKDJ","either","1","","","","","","","0","1","0","","0.8","0.5","0.5","0.5","0.5","0.8","0.2","0.6","0.2","","","","","","","","","","","72","H","0","img/none_selected.jpg","true","0","full_practice"
"253","","bandit","65","397523","0.0-33.0-12.0","94027982","wem/bandit_either","A10BH9PYCYUKDJ","either","1","","","","","","","0","1","0","","0.6","0.5","0.5","0.5","0.5","0.8","0.2","0.6","0.2","","","","","","","","","","","75","K","2","","true","0","full_practice"
"295","","bandit","66","399332","0.0-33.0-13.0","94027982","wem/bandit_either","A10BH9PYCYUKDJ","either","1","","","","","","","0","1","0","","0.8","0.5","0.5","0.5","0.5","0.8","0.2","0.6","0.2","","","","","","","","","","","72","H","0","img/none_selected.jpg","true","0","full_practice"
"294","","bandit","67","401137","0.0-33.0-14.0","94027982","wem/bandit_either","A10BH9PYCYUKDJ","either","1","","","","","","","0","0","1","","0.6","0.5","0.5","0.5","0.5","0.8","0.2","0.6","0.2","","","","","","","","","","","75","K","2","","true","0","full_practice"
"231","","bandit","68","402883","0.0-33.0-15.0","94027982","wem/bandit_either","A10BH9PYCYUKDJ","either","1","","","","","","","0","0","1","","0.2","0.5","0.5","0.5","0.5","0.8","0.2","0.6","0.2","","","","","","","","","","","76","L","3","","true","0","full_practice"
"92","","bandit","69","404488","0.0-33.0-16.0","94027982","wem/bandit_either","A10BH9PYCYUKDJ","either","1","","","","","","","0","0","1","0.2","","0.5","0.5","0.5","0.5","","","","","0.8","0.2","0.6","0.2","","","","","","","74","J","1","","true","0","full_practice"
"149","","bandit","70","406148","0.0-33.0-17.0","94027982","wem/bandit_either","A10BH9PYCYUKDJ","either","1","","","","","","","1","0","0","0.8","","0.5","0.5","0.5","0.5","","","","","0.8","0.2","0.6","0.2","","","","","","","72","H","0","img/none_selected.jpg","true","0","full_practice"
"266","","bandit","71","407924","0.0-33.0-18.0","94027982","wem/bandit_either","A10BH9PYCYUKDJ","either","1","","","","","","","0","1","0","","0.8","0.5","0.5","0.5","0.5","0.8","0.2","0.6","0.2","","","","","","","","","","","72","H","0","img/none_selected.jpg","true","0","full_practice"
"427","","bandit","72","409863","0.0-33.0-19.0","94027982","wem/bandit_either","A10BH9PYCYUKDJ","either","1","","","","","","","0","1","0","","0.8","0.5","0.5","0.5","0.5","0.8","0.2","0.6","0.2","","","","","","","","","","","72","H","0","img/none_selected.jpg","true","0","full_practice"
"4456","","text","73","414331","0.0-34.0","94027982","wem/bandit_either","A10BH9PYCYUKDJ","either","1","32","","","","","","","","","","","","","","","","","","","","","","","","","","","","","","","","","","",""
"17456","","text","74","432793","0.0-35.0","94027982","wem/bandit_either","A10BH9PYCYUKDJ","either","1","32","","","","","","","","","","","","","","","","","","","","","","","","","","","","","","","","","","",""
"14882","","text","75","447681","0.0-36.0","94027982","wem/bandit_either","A10BH9PYCYUKDJ","either","1","32","","","","","","","","","","","","","","","","","","","","","","","","","","","","","","","","","","",""
"12544","","text","76","460230","0.0-37.0","94027982","wem/bandit_either","A10BH9PYCYUKDJ","either","1","32","","","","","","","","","","","","","","","","","","","","","","","","","","","","","","","","","","",""
"10176","","text","77","470412","0.0-38.0","94027982","wem/bandit_either","A10BH9PYCYUKDJ","either","1","32","","","","","","","","","","","","","","","","","","","","","","","","","","","","","","","","","","",""
"8592","","text","78","479012","0.0-39.0","94027982","wem/bandit_either","A10BH9PYCYUKDJ","either","1","32","","","","","","","","","","","","","","","","","","","","","","","","","","","","","","","","","","",""
"471","","bandit","79","480995","0.0-40.0-0.0","94027982","wem/bandit_either","A10BH9PYCYUKDJ","either","1","","","","","","","0","0","1","","0.4269289603","0.2","0.8","0.6","0.4","0.4269289603","0.0798457429","0.3592836462","0.02943109976","","","","","","","","","","","72","H","0","img/none_selected.jpg","","1","main_expt"
"257","","bandit","80","482765","0.0-41.0-0.0","94027982","wem/bandit_either","A10BH9PYCYUKDJ","either","1","","","","","","","0","0","1","","0.07621336767","0.2","0.8","0.6","0.4","0.4660243271","0.07621336767","0.3454903542","0.06336112212","","","","","","","","","","","74","J","1","","","2","main_expt"
"113","","bandit","81","484396","0.0-42.0-0.0","94027982","wem/bandit_either","A10BH9PYCYUKDJ","either","1","","","","","","","0","0","1","0.07335687118","","0.2","0.8","0.6","0.4","","","","","0.4738503749","0.07476295528","0.2941512374","0.07335687118","","","","","","","76","L","3","","","3","main_expt"
"165","","bandit","82","486075","0.0-43.0-0.0","94027982","wem/bandit_either","A10BH9PYCYUKDJ","either","1","","","","","","","0","0","1","","0.2851241965","0.2","0.8","0.6","0.4","0.4618500418","0.06526985361","0.2851241965","0.06156305515","","","","","","","","","","","75","K","2","","","4","main_expt"
"119","","bandit","83","487707","0.0-44.0-0.0","94027982","wem/bandit_either","A10BH9PYCYUKDJ","either","1","","","","","","","0","0","1","","0.4488935273","0.2","0.8","0.6","0.4","0.4488935273","0.05487735528","0.3172925843","0.08141194251","","","","","","","","","","","72","H","0","img/none_selected.jpg","","5","main_expt"
"246","","bandit","84","489467","0.0-45.0-0.0","94027982","wem/bandit_either","A10BH9PYCYUKDJ","either","1","","","","","","","1","0","0","0.4437832297","","0.2","0.8","0.6","0.4","","","","","0.4437832297","0.04340015571","0.3319153021","0.1104821702","","","","","","","72","H","0","img/none_selected.jpg","","6","main_expt"
"261","","bandit","85","491241","0.0-46.0-0.0","94027982","wem/bandit_either","A10BH9PYCYUKDJ","either","1","","","","","","","0","0","1","","0.4310077805","0.2","0.8","0.6","0.4","0.4310077805","0.04575060371","0.3553039772","0.1191408541","","","","","","","","","","","72","H","0","img/none_selected.jpg","","7","main_expt"
"934","","bandit","86","493687","0.0-47.0-0.0","94027982","wem/bandit_either","A10BH9PYCYUKDJ","either","1","","","","","","","0","0","1","0.06112087539","","0.2","0.8","0.6","0.4","","","","","0.4480386191","0.06112087539","0.3868093767","0.1517570037","","","","","","","74","J","1","","","8","main_expt"
"246","","bandit","87","495447","0.0-48.0-0.0","94027982","wem/bandit_either","A10BH9PYCYUKDJ","either","1","","","","","","","0","0","1","","0.07854191076","0.2","0.8","0.6","0.4","0.4460224538","0.07854191076","0.3754406694","0.1738087075","","","","","","","","","","","74","J","1","","","9","main_expt"
"787","","bandit","88","497746","0.0-49.0-0.0","94027982","wem/bandit_either","A10BH9PYCYUKDJ","either","1","","","","","","","0","0","1","","0.3537433427","0.2","0.8","0.6","0.4","0.3954493452","0.06865483858","0.3537433427","0.2033535465","","","","","","","","","","","75","K","2","","","10","main_expt"
"244","","bandit","89","499504","0.0-50.0-0.0","94027982","wem/bandit_either","A10BH9PYCYUKDJ","either","1","","","","","","","0","0","1","","0.1751631116","0.2","0.8","0.6","0.4","0.4064238371","0.05083805298","0.3793358735","0.1751631116","","","","","","","","","","","76","L","3","","","11","main_expt"
"585","","bandit","90","501603","0.0-51.0-0.0","94027982","wem/bandit_either","A10BH9PYCYUKDJ","either","1","","","","","","","0","0","1","0.1787487179","","0.2","0.8","0.6","0.4","","","","","0.3800839449","0.1038792476","0.3800428212","0.1787487179","","","","","","","76","L","3","","","12","main_expt"
"408","","bandit","91","503522","0.0-52.0-0.0","94027982","wem/bandit_either","A10BH9PYCYUKDJ","either","1","","","","","","","0","1","0","","0.3866628193","0.2","0.8","0.6","0.4","0.3866628193","0.1197284353","0.3647981021","0.1794712961","","","","","","","","","","","72","H","0","img/none_selected.jpg","","13","main_expt"
"376","","bandit","92","505411","0.0-53.0-0.0","94027982","wem/bandit_either","A10BH9PYCYUKDJ","either","1","","","","","","","0","0","1","","0.326509825","0.2","0.8","0.6","0.4","0.326509825","0.135681701","0.3646471907","0.2482140722","","","","","","","","","","","72","H","0","img/none_selected.jpg","","14","main_expt"
"538","","bandit","93","507461","0.0-54.0-0.0","94027982","wem/bandit_either","A10BH9PYCYUKDJ","either","1","","","","","","","0","0","1","0.2428529647","","0.2","0.8","0.6","0.4","","","","","0.2428529647","0.125153919","0.3549291363","0.2859415589","","","","","","","72","H","0","img/none_selected.jpg","","15","main_expt"
"373","","bandit","94","509345","0.0-55.0-0.0","94027982","wem/bandit_either","A10BH9PYCYUKDJ","either","1","","","","","","","0","1","0","","0.2332962783","0.2","0.8","0.6","0.4","0.2332962783","0.1096891688","0.3727350689","0.26587149","","","","","","","","","","","72","H","0","img/none_selected.jpg","","16","main_expt"
"352","","bandit","95","511208","0.0-56.0-0.0","94027982","wem/bandit_either","A10BH9PYCYUKDJ","either","1","","","","","","","0","0","1","","0.2271032234","0.2","0.8","0.6","0.4","0.2271032234","0.1051581447","0.3112083829","0.2776265896","","","","","","","","","","","72","H","0","img/none_selected.jpg","","17","main_expt"
"260","","bandit","96","512979","0.0-57.0-0.0","94027982","wem/bandit_either","A10BH9PYCYUKDJ","either","1","","","","","","","0","0","1","","0.1701710303","0.2","0.8","0.6","0.4","0.1701710303","0.1437943492","0.2403081055","0.3223387563","","","","","","","","","","","72","H","0","img/none_selected.jpg","","18","main_expt"
"251","","bandit","97","514741","0.0-58.0-0.0","94027982","wem/bandit_either","A10BH9PYCYUKDJ","either","1","","","","","","","0","0","1","","0.2070198111","0.2","0.8","0.6","0.4","0.2070198111","0.1405615485","0.2377482675","0.3192918255","","","","","","","","","","","72","H","0","img/none_selected.jpg","","19","main_expt"
"348","","bandit","98","516604","0.0-59.0-0.0","94027982","wem/bandit_either","A10BH9PYCYUKDJ","either","1","","","","","","","0","0","1","","0.2412547966","0.2","0.8","0.6","0.4","0.2412547966","0.1063334751","0.2607530295","0.2739159796","","","","","","","","","","","72","H","0","img/none_selected.jpg","","20","main_expt"
"309","","bandit","99","518422","0.0-60.0-0.0","94027982","wem/bandit_either","A10BH9PYCYUKDJ","either","1","","","","","","","0","0","1","0.07848250716","","0.2","0.8","0.6","0.4","","","","","0.2184758186","0.07848250716","0.2919400674","0.2454385858","","","","","","","74","J","1","","","21","main_expt"
"234","","bandit","100","520168","0.0-61.0-0.0","94027982","wem/bandit_either","A10BH9PYCYUKDJ","either","1","","","","","","","0","0","1","0.1005082742","","0.2","0.8","0.6","0.4","","","","","0.1849325376","0.1005082742","0.2995681058","0.2340842041","","","","","","","74","J","1","","","22","main_expt"
"298","","bandit","101","521979","0.0-62.0-0.0","94027982","wem/bandit_either","A10BH9PYCYUKDJ","either","1","","","","","","","0","0","1","0.0792694407","","0.2","0.8","0.6","0.4","","","","","0.1521197653","0.0792694407","0.292554742","0.1840173947","","","","","","","74","J","1","","","23","main_expt"
"332","","bandit","102","523826","0.0-63.0-0.0","94027982","wem/bandit_either","A10BH9PYCYUKDJ","either","1","","","","","","","0","0","1","","0.3616894364","0.2","0.8","0.6","0.4","0.1759403195","0.07358699385","0.3616894364","0.1745529383","","","","","","","","","","","75","K","2","","","24","main_expt"
"327","","bandit","103","525666","0.0-64.0-0.0","94027982","wem/bandit_either","A10BH9PYCYUKDJ","either","1","","","","","","","1","0","0","0.3575757263","","0.2","0.8","0.6","0.4","","","","","0.09479311865","0.142208116","0.3575757263","0.1756582033","","","","","","","75","K","2","","","25","main_expt"
"266","","bandit","104","527442","0.0-65.0-0.0","94027982","wem/bandit_either","A10BH9PYCYUKDJ","either","1","","","","","","","0","0","1","0.3635346368","","0.2","0.8","0.6","0.4","","","","","0.08156123497","0.1245113583","0.3635346368","0.2086365416","","","","","","","75","K","2","","","26","main_expt"
"379","","bandit","105","529334","0.0-66.0-0.0","94027982","wem/bandit_either","A10BH9PYCYUKDJ","either","1","","","","","","","0","1","0","","0.4109801844","0.2","0.8","0.6","0.4","0.1102307873","0.118364605","0.4109801844","0.2139763749","","","","","","","","","","","75","K","2","","","27","main_expt"
"291","","bandit","106","531137","0.0-67.0-0.0","94027982","wem/bandit_either","A10BH9PYCYUKDJ","either","1","","","","","","","0","0","1","0.3772962545","","0.2","0.8","0.6","0.4","","","","","0.08274430796","0.1105930361","0.3772962545","0.1613483267","","","","","","","75","K","2","","","28","main_expt"
"269","","bandit","107","532917","0.0-68.0-0.0","94027982","wem/bandit_either","A10BH9PYCYUKDJ","either","1","","","","","","","0","0","1","0.3875745016","","0.2","0.8","0.6","0.4","","","","","0.1086911099","0.1118713044","0.3875745016","0.1712488152","","","","","","","75","K","2","","","29","main_expt"
"293","","bandit","108","534723","0.0-69.0-0.0","94027982","wem/bandit_either","A10BH9PYCYUKDJ","either","1","","","","","","","0","0","1","","0.3780019893","0.2","0.8","0.6","0.4","0.1116575632","0.1914750456","0.3780019893","0.1675524316","","","","","","","","","","","75","K","2","","","30","main_expt"
"292","","bandit","109","536526","0.0-70.0-0.0","94027982","wem/bandit_either","A10BH9PYCYUKDJ","either","1","","","","","","","0","0","1","","0.07828091442","0.2","0.8","0.6","0.4","0.07828091442","0.2367730164","0.416860241","0.140325158","","","","","","","","","","","72","H","0","img/none_selected.jpg","","31","main_expt"
"390","","bandit","110","538427","0.0-71.0-0.0","94027982","wem/bandit_either","A10BH9PYCYUKDJ","either","1","","","","","","","0","0","1","0.4242573056","","0.2","0.8","0.6","0.4","","","","","0.07550395781","0.2109574779","0.4242573056","0.1553940025","","","","","","","75","K","2","","","32","main_expt"
"116","","bandit","111","540056","0.0-72.0-0.0","94027982","wem/bandit_either","A10BH9PYCYUKDJ","either","1","","","","","","","0","0","1","","0.1925614924","0.2","0.8","0.6","0.4","0.1445529326","0.2005542758","0.4185546122","0.1925614924","","","","","","","","","","","76","L","3","","","33","main_expt"
"284","","bandit","112","541852","0.0-73.0-0.0","94027982","wem/bandit_either","A10BH9PYCYUKDJ","either","1","","","","","","","0","1","0","","0.2150530123","0.2","0.8","0.6","0.4","0.1091775744","0.180377021","0.4268308419","0.2150530123","","","","","","","","","","","76","L","3","","","34","main_expt"
"250","","bandit","113","543619","0.0-74.0-0.0","94027982","wem/bandit_either","A10BH9PYCYUKDJ","either","1","","","","","","","0","0","1","0.2688968874","","0.2","0.8","0.6","0.4","","","","","0.1297995116","0.2111187229","0.4265642185","0.2688968874","","","","","","","76","L","3","","","35","main_expt"
"252","","bandit","114","545381","0.0-75.0-0.0","94027982","wem/bandit_either","A10BH9PYCYUKDJ","either","1","","","","","","","1","0","0","0.4066287969","","0.2","0.8","0.6","0.4","","","","","0.09468550628","0.2119332756","0.4066287969","0.2977459964","","","","","","","75","K","2","","","36","main_expt"
"261","","bandit","115","547153","0.0-76.0-0.0","94027982","wem/bandit_either","A10BH9PYCYUKDJ","either","1","","","","","","","0","0","1","","0.09396978408","0.2","0.8","0.6","0.4","0.09396978408","0.2256131965","0.4611471687","0.2684429955","","","","","","","","","","","72","H","0","img/none_selected.jpg","","37","main_expt"
"198","","bandit","116","548865","0.0-77.0-0.0","94027982","wem/bandit_either","A10BH9PYCYUKDJ","either","1","","","","","","","0","0","1","0.4482708269","","0.2","0.8","0.6","0.4","","","","","0.1062257399","0.1975147253","0.4482708269","0.2490186117","","","","","","","75","K","2","","","38","main_expt"
"258","","bandit","117","550636","0.0-78.0-0.0","94027982","wem/bandit_either","A10BH9PYCYUKDJ","either","1","","","","","","","0","0","1","0.2548033483","","0.2","0.8","0.6","0.4","","","","","0.09676453159","0.1595648847","0.4402774387","0.2548033483","","","","","","","76","L","3","","","39","main_expt"
"42","","bandit","118","552191","0.0-79.0-0.0","94027982","wem/bandit_either","A10BH9PYCYUKDJ","either","1","","","","","","","0","0","1","","0.2688720753","0.2","0.8","0.6","0.4","0.08197179495","0.1626610004","0.4385128538","0.2688720753","","","","","","","","","","","76","L","3","","","40","main_expt"
"245","","bandit","119","553950","0.0-80.0-0.0","94027982","wem/bandit_either","A10BH9PYCYUKDJ","either","1","","","","","","","0","0","1","0.1982402655","","0.2","0.8","0.6","0.4","","","","","0.14416382","0.1982402655","0.4380640779","0.297778532","","","","","","","74","J","1","","","41","main_expt"
"299","","bandit","120","555767","0.0-81.0-0.0","94027982","wem/bandit_either","A10BH9PYCYUKDJ","either","1","","","","","","","0","0","1","","0.1863610343","0.2","0.8","0.6","0.4","0.1070927036","0.1863610343","0.4265224768","0.2449207522","","","","","","","","","","","74","J","1","","","42","main_expt"
"366","","bandit","121","557644","0.0-82.0-0.0","94027982","wem/bandit_either","A10BH9PYCYUKDJ","either","1","","","","","","","0","0","1","","0.2418389683","0.2","0.8","0.6","0.4","0.1214526226","0.2418389683","0.435880106","0.2457567503","","","","","","","","","","","74","J","1","","","43","main_expt"
"6","","bandit","122","559165","0.0-83.0-0.0","94027982","wem/bandit_either","A10BH9PYCYUKDJ","either","1","","","","","","","0","0","1","0.1943491227","","0.2","0.8","0.6","0.4","","","","","0.1450738833","0.1943491227","0.4450576882","0.2432732657","","","","","","","74","J","1","","","44","main_expt"
"376","","bandit","123","561055","0.0-84.0-0.0","94027982","wem/bandit_either","A10BH9PYCYUKDJ","either","1","","","","","","","0","1","0","","0.4382030275","0.2","0.8","0.6","0.4","0.09632230927","0.1543250971","0.4382030275","0.2656772236","","","","","","","","","","","75","K","2","","","45","main_expt"
"257","","bandit","124","562827","0.0-85.0-0.0","94027982","wem/bandit_either","A10BH9PYCYUKDJ","either","1","","","","","","","1","0","0","0.4412369426","","0.2","0.8","0.6","0.4","","","","","0.103211431","0.09719433791","0.4412369426","0.2432112423","","","","","","","75","K","2","","","46","main_expt"
"269","","bandit","125","564611","0.0-86.0-0.0","94027982","wem/bandit_either","A10BH9PYCYUKDJ","either","1","","","","","","","0","0","1","","0.4588863431","0.2","0.8","0.6","0.4","0.09916324924","0.1228880329","0.4588863431","0.2992745976","","","","","","","","","","","75","K","2","","","47","main_expt"
"538","","bandit","126","566663","0.0-87.0-0.0","94027982","wem/bandit_either","A10BH9PYCYUKDJ","either","1","","","","","","","0","0","1","","0.1090242341","0.2","0.8","0.6","0.4","0.1090242341","0.1068532567","0.4408788818","0.2594611615","","","","","","","","","","","72","H","0","img/none_selected.jpg","","48","main_expt"
"228","","bandit","127","568406","0.0-88.0-0.0","94027982","wem/bandit_either","A10BH9PYCYUKDJ","either","1","","","","","","","1","0","0","0.4232064109","","0.2","0.8","0.6","0.4","","","","","0.1265186769","0.1044048509","0.4232064109","0.2767916858","","","","","","","75","K","2","","","49","main_expt"
"323","","bandit","128","570246","0.0-89.0-0.0","94027982","wem/bandit_either","A10BH9PYCYUKDJ","either","1","","","","","","","0","0","1","","0.4210883962","0.2","0.8","0.6","0.4","0.1397440907","0.1072026782","0.4210883962","0.2762534014","","","","","","","","","","","75","K","2","","","50","main_expt"
"437","","bandit","129","572198","0.0-90.0-0.0","94027982","wem/bandit_either","A10BH9PYCYUKDJ","either","1","","","","","","","0","1","0","","0.3379376541","0.2","0.8","0.6","0.4","0.153600331","0.1287882573","0.4225635581","0.3379376541","","","","","","","","","","","76","L","3","","","51","main_expt"
"363","","bandit","130","574075","0.0-91.0-0.0","94027982","wem/bandit_either","A10BH9PYCYUKDJ","either","1","","","","","","","0","0","1","","0.4146237098","0.2","0.8","0.6","0.4","0.1718407591","0.1298059469","0.4146237098","0.3395267946","","","","","","","","","","","75","K","2","","","52","main_expt"
"272","","bandit","131","575862","0.0-92.0-0.0","94027982","wem/bandit_either","A10BH9PYCYUKDJ","either","1","","","","","","","0","1","0","","0.29674647","0.2","0.8","0.6","0.4","0.1945727614","0.07423060895","0.3763623321","0.29674647","","","","","","","","","","","76","L","3","","","53","main_expt"
"382","","bandit","132","577761","0.0-93.0-0.0","94027982","wem/bandit_either","A10BH9PYCYUKDJ","either","1","","","","","","","0","0","1","","0.3372955831","0.2","0.8","0.6","0.4","0.2450542523","0.08562383645","0.3289081181","0.3372955831","","","","","","","","","","","76","L","3","","","54","main_expt"
"264","","bandit","133","579536","0.0-94.0-0.0","94027982","wem/bandit_either","A10BH9PYCYUKDJ","either","1","","","","","","","0","0","1","","0.3506099842","0.2","0.8","0.6","0.4","0.2547241938","0.0757818623","0.3025984711","0.3506099842","","","","","","","","","","","76","L","3","","","55","main_expt"
"410","","bandit","134","581464","0.0-95.0-0.0","94027982","wem/bandit_either","A10BH9PYCYUKDJ","either","1","","","","","","","0","0","1","0.3418029788","","0.2","0.8","0.6","0.4","","","","","0.2595112895","0.09897923035","0.2921333137","0.3418029788","","","","","","","76","L","3","","","56","main_expt"
"257","","bandit","135","583235","0.0-96.0-0.0","94027982","wem/bandit_either","A10BH9PYCYUKDJ","either","1","","","","","","","0","0","1","","0.2610276213","0.2","0.8","0.6","0.4","0.2610276213","0.1160875525","0.3317177772","0.3162475816","","","","","","","","","","","72","H","0","img/none_selected.jpg","","57","main_expt"
"749","","bandit","136","585501","0.0-97.0-0.0","94027982","wem/bandit_either","A10BH9PYCYUKDJ","either","1","","","","","","","0","0","1","","0.1134641846","0.2","0.8","0.6","0.4","0.2354201416","0.1134641846","0.3240244649","0.3269881105","","","","","","","","","","","74","J","1","","","58","main_expt"
"283","","bandit","137","587298","0.0-98.0-0.0","94027982","wem/bandit_either","A10BH9PYCYUKDJ","either","1","","","","","","","0","0","1","0.1177083384","","0.2","0.8","0.6","0.4","","","","","0.2346370837","0.1177083384","0.2988076671","0.2901324944","","","","","","","74","J","1","","","59","main_expt"
"337","","bandit","138","589153","0.0-99.0-0.0","94027982","wem/bandit_either","A10BH9PYCYUKDJ","either","1","","","","","","","0","0","1","0.3096792726","","0.2","0.8","0.6","0.4","","","","","0.2315637733","0.1125723432","0.3096792726","0.289588464","","","","","","","75","K","2","","","60","main_expt"
"76","","bandit","139","590742","0.0-100.0-0.0","94027982","wem/bandit_either","A10BH9PYCYUKDJ","either","1","","","","","","","0","0","1","","0.2821336973","0.2","0.8","0.6","0.4","0.2599537756","0.09911093426","0.2821336973","0.2782845563","","","","","","","","","","","75","K","2","","","61","main_expt"
"281","","bandit","140","592536","0.0-101.0-0.0","94027982","wem/bandit_either","A10BH9PYCYUKDJ","either","1","","","","","","","0","1","0","","0.2414244345","0.2","0.8","0.6","0.4","0.2594941563","0.09440438105","0.2414244345","0.3165490401","","","","","","","","","","","75","K","2","","","62","main_expt"
"315","","bandit","141","594366","0.0-102.0-0.0","94027982","wem/bandit_either","A10BH9PYCYUKDJ","either","1","","","","","","","0","0","1","","0.213639373","0.2","0.8","0.6","0.4","0.2660839385","0.1015409351","0.213639373","0.3034564924","","","","","","","","","","","75","K","2","","","63","main_expt"
"405","","bandit","142","596284","0.0-103.0-0.0","94027982","wem/bandit_either","A10BH9PYCYUKDJ","either","1","","","","","","","0","0","1","","0.2506654962","0.2","0.8","0.6","0.4","0.2426585031","0.07049798599","0.1876308072","0.2506654962","","","","","","","","","","","76","L","3","","","64","main_expt"
"390","","bandit","143","598189","0.0-104.0-0.0","94027982","wem/bandit_either","A10BH9PYCYUKDJ","either","1","","","","","","","0","0","1","","0.2581047566","0.2","0.8","0.6","0.4","0.2581047566","0.05735603507","0.1841803182","0.253414466","","","","","","","","","","","72","H","0","img/none_selected.jpg","","65","main_expt"
"325","","bandit","144","600026","0.0-105.0-0.0","94027982","wem/bandit_either","A10BH9PYCYUKDJ","either","1","","","","","","","0","1","0","","0.187417598","0.2","0.8","0.6","0.4","0.2872127433","0.0621258055","0.187417598","0.2836500186","","","","","","","","","","","75","K","2","","","66","main_expt"
"273","","bandit","145","601812","0.0-106.0-0.0","94027982","wem/bandit_either","A10BH9PYCYUKDJ","either","1","","","","","","","1","0","0","0.1395950637","","0.2","0.8","0.6","0.4","","","","","0.3232337643","0.06966106928","0.1395950637","0.3217852231","","","","","","","75","K","2","","","67","main_expt"
"330","","bandit","146","603659","0.0-107.0-0.0","94027982","wem/bandit_either","A10BH9PYCYUKDJ","either","1","","","","","","","0","0","1","0.1363519197","","0.2","0.8","0.6","0.4","","","","","0.3376006622","0.09965709916","0.1363519197","0.3574581916","","","","","","","75","K","2","","","68","main_expt"
"252","","bandit","147","605424","0.0-108.0-0.0","94027982","wem/bandit_either","A10BH9PYCYUKDJ","either","1","","","","","","","0","0","1","","0.1117144852","0.2","0.8","0.6","0.4","0.2917609244","0.1428217854","0.1117144852","0.3884563005","","","","","","","","","","","75","K","2","","","69","main_expt"
"260","","bandit","148","607201","0.0-109.0-0.0","94027982","wem/bandit_either","A10BH9PYCYUKDJ","either","1","","","","","","","1","0","0","0.09667493602","","0.2","0.8","0.6","0.4","","","","","0.2218665627","0.1866845388","0.09667493602","0.3920047773","","","","","","","75","K","2","","","70","main_expt"
"302","","bandit","149","609019","0.0-110.0-0.0","94027982","wem/bandit_either","A10BH9PYCYUKDJ","either","1","","","","","","","0","0","1","","0.09186933139","0.2","0.8","0.6","0.4","0.2409383839","0.1702545286","0.09186933139","0.4066376731","","","","","","","","","","","75","K","2","","","71","main_expt"
"349","","bandit","150","610883","0.0-111.0-0.0","94027982","wem/bandit_either","A10BH9PYCYUKDJ","either","1","","","","","","","0","0","1","0.09472009463","","0.2","0.8","0.6","0.4","","","","","0.1920783453","0.1836279043","0.09472009463","0.3443789926","","","","","","","75","K","2","","","72","main_expt"
"264","","bandit","151","612663","0.0-112.0-0.0","94027982","wem/bandit_either","A10BH9PYCYUKDJ","either","1","","","","","","","0","0","1","","0.1167805336","0.2","0.8","0.6","0.4","0.1905254877","0.1644348242","0.1167805336","0.3227553012","","","","","","","","","","","75","K","2","","","73","main_expt"
"256","","bandit","152","614432","0.0-113.0-0.0","94027982","wem/bandit_either","A10BH9PYCYUKDJ","either","1","","","","","","","0","0","1","","0.184198213","0.2","0.8","0.6","0.4","0.184198213","0.1833421201","0.1465151254","0.3336652139","","","","","","","","","","","72","H","0","img/none_selected.jpg","","74","main_expt"
"290","","bandit","153","616235","0.0-114.0-0.0","94027982","wem/bandit_either","A10BH9PYCYUKDJ","either","1","","","","","","","0","0","1","","0.2890150868","0.2","0.8","0.6","0.4","0.1881920243","0.1519653276","0.123285719","0.2890150868","","","","","","","","","","","76","L","3","","","75","main_expt"
"271","","bandit","154","618019","0.0-115.0-0.0","94027982","wem/bandit_either","A10BH9PYCYUKDJ","either","1","","","","","","","0","0","1","0.1506622639","","0.2","0.8","0.6","0.4","","","","","0.1988930589","0.1506622639","0.1392606081","0.2673490463","","","","","","","74","J","1","","","76","main_expt"
"261","","bandit","155","619798","0.0-116.0-0.0","94027982","wem/bandit_either","A10BH9PYCYUKDJ","either","1","","","","","","","0","0","1","0.1860897766","","0.2","0.8","0.6","0.4","","","","","0.2255968657","0.1860897766","0.099337717","0.2858541315","","","","","","","74","J","1","","","77","main_expt"
"260","","bandit","156","621574","0.0-117.0-0.0","94027982","wem/bandit_either","A10BH9PYCYUKDJ","either","1","","","","","","","0","0","1","0.1618556875","","0.2","0.8","0.6","0.4","","","","","0.1917014014","0.1618556875","0.09666605973","0.2639968829","","","","","","","74","J","1","","","78","main_expt"
"308","","bandit","157","623398","0.0-118.0-0.0","94027982","wem/bandit_either","A10BH9PYCYUKDJ","either","1","","","","","","","0","0","1","0.1976853889","","0.2","0.8","0.6","0.4","","","","","0.2092129429","0.1976853889","0.09639353985","0.2304888896","","","","","","","74","J","1","","","79","main_expt"
"951","","bandit","158","625864","0.0-119.0-0.0","94027982","wem/bandit_either","A10BH9PYCYUKDJ","either","1","","","","","","","0","1","0","","0.1991809665","0.2","0.8","0.6","0.4","0.1974306726","0.2198838985","0.09566996791","0.1991809665","","","","","","","","","","","76","L","3","","","80","main_expt"
"574","","bandit","159","627953","0.0-120.0-0.0","94027982","wem/bandit_either","A10BH9PYCYUKDJ","either","1","","","","","","","0","0","1","","0.1627434897","0.2","0.8","0.6","0.4","0.1414754506","0.2167005254","0.07958501382","0.1627434897","","","","","","","","","","","76","L","3","","","81","main_expt"
"240","","bandit","160","629708","0.0-121.0-0.0","94027982","wem/bandit_either","A10BH9PYCYUKDJ","either","1","","","","","","","0","0","1","","0.1624637972","0.2","0.8","0.6","0.4","0.1422587364","0.2527486409","0.08833774835","0.1624637972","","","","","","","","","","","76","L","3","","","82","main_expt"
"275","","bandit","161","631495","0.0-122.0-0.0","94027982","wem/bandit_either","A10BH9PYCYUKDJ","either","1","","","","","","","0","1","0","","0.1900332","0.2","0.8","0.6","0.4","0.1079415531","0.2569721607","0.09109006352","0.1900332","","","","","","","","","","","76","L","3","","","83","main_expt"
"258","","bandit","162","633271","0.0-123.0-0.0","94027982","wem/bandit_either","A10BH9PYCYUKDJ","either","1","","","","","","","0","0","1","","0.1705646391","0.2","0.8","0.6","0.4","0.07696487024","0.2535394321","0.05321730921","0.1705646391","","","","","","","","","","","76","L","3","","","84","main_expt"
"298","","bandit","163","635081","0.0-124.0-0.0","94027982","wem/bandit_either","A10BH9PYCYUKDJ","either","1","","","","","","","0","0","1","","0.2053302659","0.2","0.8","0.6","0.4","0.08313016423","0.2255799186","0.03321009489","0.2053302659","","","","","","","","","","","76","L","3","","","85","main_expt"
"491","","bandit","164","637084","0.0-125.0-0.0","94027982","wem/bandit_either","A10BH9PYCYUKDJ","either","1","","","","","","","0","0","1","","0.2128685413","0.2","0.8","0.6","0.4","0.102083396","0.2197080914","0.04864990798","0.2128685413","","","","","","","","","","","76","L","3","","","86","main_expt"
"81","","bandit","165","638681","0.0-126.0-0.0","94027982","wem/bandit_either","A10BH9PYCYUKDJ","either","1","","","","","","","0","0","1","","0.07919268752","0.2","0.8","0.6","0.4","0.09067070718","0.2230338057","0.07919268752","0.213778815","","","","","","","","","","","75","K","2","","","87","main_expt"
"627","","bandit","166","640822","0.0-127.0-0.0","94027982","wem/bandit_either","A10BH9PYCYUKDJ","either","1","","","","","","","0","0","1","0.05835116993","","0.2","0.8","0.6","0.4","","","","","0.1421970704","0.2484269739","0.05835116993","0.2102340809","","","","","","","75","K","2","","","88","main_expt"
"544","","bandit","167","642888","0.0-128.0-0.0","94027982","wem/bandit_either","A10BH9PYCYUKDJ","either","1","","","","","","","0","0","1","","0.05115519592","0.2","0.8","0.6","0.4","0.219142046","0.2733562597","0.05115519592","0.1809358483","","","","","","","","","","","75","K","2","","","89","main_expt"
"331","","bandit","168","644737","0.0-129.0-0.0","94027982","wem/bandit_either","A10BH9PYCYUKDJ","either","1","","","","","","","0","0","1","","0.07819273649","0.2","0.8","0.6","0.4","0.2806923657","0.2973868449","0.07819273649","0.1293356972","","","","","","","","","","","75","K","2","","","90","main_expt"
"499","","bandit","169","646753","0.0-130.0-0.0","94027982","wem/bandit_either","A10BH9PYCYUKDJ","either","1","","","","","","","0","0","1","0.05564661524","","0.2","0.8","0.6","0.4","","","","","0.2819660137","0.3067689268","0.05564661524","0.1136224352","","","","","","","75","K","2","","","91","main_expt"
"41","","bandit","170","648310","0.0-131.0-0.0","94027982","wem/bandit_either","A10BH9PYCYUKDJ","either","1","","","","","","","0","0","1","0.2719776188","","0.2","0.8","0.6","0.4","","","","","0.3370305887","0.2719776188","0.05914103421","0.07539152519","","","","","","","74","J","1","","","92","main_expt"
"255","","bandit","171","650076","0.0-132.0-0.0","94027982","wem/bandit_either","A10BH9PYCYUKDJ","either","1","","","","","","","0","0","1","0.3081791896","","0.2","0.8","0.6","0.4","","","","","0.3722719914","0.3081791896","0.03944324463","0.08243558305","","","","","","","74","J","1","","","93","main_expt"
"84","","bandit","172","651674","0.0-133.0-0.0","94027982","wem/bandit_either","A10BH9PYCYUKDJ","either","1","","","","","","","1","0","0","0.356667856","","0.2","0.8","0.6","0.4","","","","","0.3840030774","0.356667856","0.05023017475","0.09807673793","","","","","","","74","J","1","","","94","main_expt"
"260","","bandit","173","653450","0.0-134.0-0.0","94027982","wem/bandit_either","A10BH9PYCYUKDJ","either","1","","","","","","","0","0","1","","0.3300765204","0.2","0.8","0.6","0.4","0.4050844552","0.3300765204","0.07311956304","0.09746204728","","","","","","","","","","","74","J","1","","","95","main_expt"
"284","","bandit","174","655250","0.0-135.0-0.0","94027982","wem/bandit_either","A10BH9PYCYUKDJ","either","1","","","","","","","0","0","1","0.3642735905","","0.2","0.8","0.6","0.4","","","","","0.4081076376","0.3642735905","0.09573717159","0.08559835745","","","","","","","74","J","1","","","96","main_expt"
"359","","bandit","175","657126","0.0-136.0-0.0","94027982","wem/bandit_either","A10BH9PYCYUKDJ","either","1","","","","","","","0","0","1","0.3885664579","","0.2","0.8","0.6","0.4","","","","","0.4142780263","0.3885664579","0.1235519285","0.0732645996","","","","","","","74","J","1","","","97","main_expt"
"263","","bandit","176","658904","0.0-137.0-0.0","94027982","wem/bandit_either","A10BH9PYCYUKDJ","either","1","","","","","","","0","1","0","","0.4162912028","0.2","0.8","0.6","0.4","0.4131193208","0.4162912028","0.1274282425","0.05343209845","","","","","","","","","","","74","J","1","","","98","main_expt"
"225","","bandit","177","660645","0.0-138.0-0.0","94027982","wem/bandit_either","A10BH9PYCYUKDJ","either","1","","","","","","","1","0","0","0.4074153657","","0.2","0.8","0.6","0.4","","","","","0.428944851","0.4074153657","0.1457321849","0.05144299931","","","","","","","74","J","1","","","99","main_expt"
"941","","bandit","178","663101","0.0-139.0-0.0","94027982","wem/bandit_either","A10BH9PYCYUKDJ","either","1","","","","","","","0","0","1","0.3349137267","","0.2","0.8","0.6","0.4","","","","","0.4279797645","0.3349137267","0.1492128348","0.03934302155","","","","","","","74","J","1","","","100","main_expt"
"486","","bandit","179","665101","0.0-140.0-0.0","94027982","wem/bandit_either","A10BH9PYCYUKDJ","either","1","","","","","","","0","0","1","0.2732947861","","0.2","0.8","0.6","0.4","","","","","0.4189249443","0.2732947861","0.125019219","0.05783306622","","","","","","","74","J","1","","","101","main_expt"
"285","","bandit","180","666905","0.0-141.0-0.0","94027982","wem/bandit_either","A10BH9PYCYUKDJ","either","1","","","","","","","0","0","1","0.2584454073","","0.2","0.8","0.6","0.4","","","","","0.4279241466","0.2584454073","0.1008510245","0.06484492547","","","","","","","74","J","1","","","102","main_expt"
"341","","bandit","181","668763","0.0-142.0-0.0","94027982","wem/bandit_either","A10BH9PYCYUKDJ","either","1","","","","","","","0","0","1","0.419390052","","0.2","0.8","0.6","0.4","","","","","0.419390052","0.2143891894","0.1087281004","0.0701259157","","","","","","","72","H","0","img/none_selected.jpg","","103","main_expt"
"270","","bandit","182","670546","0.0-143.0-0.0","94027982","wem/bandit_either","A10BH9PYCYUKDJ","either","1","","","","","","","0","0","1","0.1354346047","","0.2","0.8","0.6","0.4","","","","","0.3761202226","0.1354346047","0.143855427","0.06922647753","","","","","","","74","J","1","","","104","main_expt"
"429","","bandit","183","672491","0.0-144.0-0.0","94027982","wem/bandit_either","A10BH9PYCYUKDJ","either","1","","","","","","","0","0","1","0.1615963473","","0.2","0.8","0.6","0.4","","","","","0.4229881466","0.1615963473","0.1606853024","0.07802312096","","","","","","","74","J","1","","","105","main_expt"
"454","","bandit","184","674458","0.0-145.0-0.0","94027982","wem/bandit_either","A10BH9PYCYUKDJ","either","1","","","","","","","0","0","1","0.1738621023","","0.2","0.8","0.6","0.4","","","","","0.4110558218","0.1738621023","0.1612939645","0.08930313369","","","","","","","74","J","1","","","106","main_expt"
"306","","bandit","185","676281","0.0-146.0-0.0","94027982","wem/bandit_either","A10BH9PYCYUKDJ","either","1","","","","","","","0","0","1","0.1799671425","","0.2","0.8","0.6","0.4","","","","","0.4176599015","0.1799671425","0.1778053335","0.1397733654","","","","","","","74","J","1","","","107","main_expt"
"345","","bandit","186","678143","0.0-147.0-0.0","94027982","wem/bandit_either","A10BH9PYCYUKDJ","either","1","","","","","","","0","0","1","0.1844274074","","0.2","0.8","0.6","0.4","","","","","0.4210396584","0.1844274074","0.1826465361","0.1505899732","","","","","","","74","J","1","","","108","main_expt"
"265","","bandit","187","679925","0.0-148.0-0.0","94027982","wem/bandit_either","A10BH9PYCYUKDJ","either","1","","","","","","","0","0","1","","0.4328015469","0.2","0.8","0.6","0.4","0.4328015469","0.1702708828","0.1737022726","0.1162436109","","","","","","","","","","","72","H","0","img/none_selected.jpg","","109","main_expt"
"293","","bandit","188","681732","0.0-149.0-0.0","94027982","wem/bandit_either","A10BH9PYCYUKDJ","either","1","","","","","","","0","0","1","0.1658344406","","0.2","0.8","0.6","0.4","","","","","0.4495585744","0.1964407335","0.1658344406","0.08267976014","","","","","","","75","K","2","","","110","main_expt"
"290","","bandit","189","683539","0.0-150.0-0.0","94027982","wem/bandit_either","A10BH9PYCYUKDJ","either","1","","","","","","","0","1","0","","0.09389793805","0.2","0.8","0.6","0.4","0.4237631325","0.1777579569","0.240619448","0.09389793805","","","","","","","","","","","76","L","3","","","111","main_expt"
"262","","bandit","190","685315","0.0-151.0-0.0","94027982","wem/bandit_either","A10BH9PYCYUKDJ","either","1","","","","","","","0","0","1","","0.07903418564","0.2","0.8","0.6","0.4","0.4521571561","0.1395994444","0.1927397719","0.07903418564","","","","","","","","","","","76","L","3","","","112","main_expt"
"401","","bandit","191","687231","0.0-152.0-0.0","94027982","wem/bandit_either","A10BH9PYCYUKDJ","either","1","","","","","","","0","0","1","0.05501139052","","0.2","0.8","0.6","0.4","","","","","0.4350762846","0.1205999431","0.234725565","0.05501139052","","","","","","","76","L","3","","","113","main_expt"
"651","","bandit","192","689397","0.0-153.0-0.0","94027982","wem/bandit_either","A10BH9PYCYUKDJ","either","1","","","","","","","0","0","1","","0.07627702456","0.2","0.8","0.6","0.4","0.4315824664","0.09123355482","0.1950215869","0.07627702456","","","","","","","","","","","76","L","3","","","114","main_expt"
"502","","bandit","193","691415","0.0-154.0-0.0","94027982","wem/bandit_either","A10BH9PYCYUKDJ","either","1","","","","","","","0","0","1","0.03985247356","","0.2","0.8","0.6","0.4","","","","","0.4127349624","0.09554471192","0.2575833325","0.03985247356","","","","","","","76","L","3","","","115","main_expt"
"1289","","bandit","194","694221","0.0-155.0-0.0","94027982","wem/bandit_either","A10BH9PYCYUKDJ","either","1","","","","","","","0","0","1","","0.0683792979","0.2","0.8","0.6","0.4","0.4468356006","0.1942182492","0.2296468005","0.0683792979","","","","","","","","","","","76","L","3","","","116","main_expt"
"376","","bandit","195","696116","0.0-156.0-0.0","94027982","wem/bandit_either","A10BH9PYCYUKDJ","either","1","","","","","","","0","0","1","0.2816483341","","0.2","0.8","0.6","0.4","","","","","0.4458703805","0.2208250117","0.2816483341","0.03956212276","","","","","","","75","K","2","","","117","main_expt"
"644","","bandit","196","698274","0.0-157.0-0.0","94027982","wem/bandit_either","A10BH9PYCYUKDJ","either","1","","","","","","","0","1","0","","0.2626769985","0.2","0.8","0.6","0.4","0.4500370674","0.1687975443","0.2626769985","0.04459229253","","","","","","","","","","","75","K","2","","","118","main_expt"
"576","","bandit","197","700367","0.0-158.0-0.0","94027982","wem/bandit_either","A10BH9PYCYUKDJ","either","1","","","","","","","1","0","0","0.2418090277","","0.2","0.8","0.6","0.4","","","","","0.4704359259","0.1546105485","0.2418090277","0.03386957434","","","","","","","75","K","2","","","119","main_expt"
"412","","bandit","198","702297","0.0-159.0-0.0","94027982","wem/bandit_either","A10BH9PYCYUKDJ","either","1","","","","","","","0","0","1","0.2603236095","","0.2","0.8","0.6","0.4","","","","","0.4578798539","0.143668411","0.2603236095","0.03305427522","","","","","","","75","K","2","","","120","main_expt"
"543","","bandit","199","704357","0.0-160.0-0.0","94027982","wem/bandit_either","A10BH9PYCYUKDJ","either","1","","","","","","","0","0","1","0.2381785671","","0.2","0.8","0.6","0.4","","","","","0.4591190262","0.1098317425","0.2381785671","0.03146098963","","","","","","","75","K","2","","","121","main_expt"
"354","","bandit","200","706232","0.0-161.0-0.0","94027982","wem/bandit_either","A10BH9PYCYUKDJ","either","1","","","","","","","0","0","1","0.2388462554","","0.2","0.8","0.6","0.4","","","","","0.4643737298","0.1097832873","0.2388462554","0.02311797033","","","","","","","75","K","2","","","122","main_expt"
"375","","bandit","201","708123","0.0-162.0-0.0","94027982","wem/bandit_either","A10BH9PYCYUKDJ","either","1","","","","","","","0","0","1","","0.2079929623","0.2","0.8","0.6","0.4","0.451586091","0.1145900252","0.2079929623","0.0171261738","","","","","","","","","","","75","K","2","","","123","main_expt"
"303","","bandit","202","709942","0.0-163.0-0.0","94027982","wem/bandit_either","A10BH9PYCYUKDJ","either","1","","","","","","","0","0","1","","0.4456906556","0.2","0.8","0.6","0.4","0.4456906556","0.1137783892","0.2148400852","0.03468299263","","","","","","","","","","","72","H","0","img/none_selected.jpg","","124","main_expt"
"318","","bandit","203","711775","0.0-164.0-0.0","94027982","wem/bandit_either","A10BH9PYCYUKDJ","either","1","","","","","","","0","0","1","","0.4240876494","0.2","0.8","0.6","0.4","0.4240876494","0.145605256","0.2185056602","0.02544516396","","","","","","","","","","","72","H","0","img/none_selected.jpg","","125","main_expt"
"287","","bandit","204","713574","0.0-165.0-0.0","94027982","wem/bandit_either","A10BH9PYCYUKDJ","either","1","","","","","","","0","1","0","","0.4008501573","0.2","0.8","0.6","0.4","0.4008501573","0.1443839055","0.2152323899","0.03059506073","","","","","","","","","","","72","H","0","img/none_selected.jpg","","126","main_expt"
"479","","bandit","205","715567","0.0-166.0-0.0","94027982","wem/bandit_either","A10BH9PYCYUKDJ","either","1","","","","","","","0","0","1","","0.4066073101","0.2","0.8","0.6","0.4","0.4066073101","0.1434222382","0.1699446714","0.0339638967","","","","","","","","","","","72","H","0","img/none_selected.jpg","","127","main_expt"
"486","","bandit","206","717568","0.0-167.0-0.0","94027982","wem/bandit_either","A10BH9PYCYUKDJ","either","1","","","","","","","0","0","1","0.4270302575","","0.2","0.8","0.6","0.4","","","","","0.4270302575","0.1412168693","0.1299446217","0.02632978063","","","","","","","72","H","0","img/none_selected.jpg","","128","main_expt"
"311","","bandit","207","719395","0.0-168.0-0.0","94027982","wem/bandit_either","A10BH9PYCYUKDJ","either","1","","","","","","","0","0","1","","0.4401824822","0.2","0.8","0.6","0.4","0.4401824822","0.1086871361","0.1299487573","0.02640977482","","","","","","","","","","","72","H","0","img/none_selected.jpg","","129","main_expt"
"103","","bandit","208","721013","0.0-169.0-0.0","94027982","wem/bandit_either","A10BH9PYCYUKDJ","either","1","","","","","","","0","0","1","","0.1172580566","0.2","0.8","0.6","0.4","0.4160959849","0.1672766288","0.1172580566","0.03646961518","","","","","","","","","","","75","K","2","","","130","main_expt"
"298","","bandit","209","722827","0.0-170.0-0.0","94027982","wem/bandit_either","A10BH9PYCYUKDJ","either","1","","","","","","","0","0","1","0.157110596","","0.2","0.8","0.6","0.4","","","","","0.4374535298","0.157110596","0.1289979545","0.02171712127","","","","","","","74","J","1","","","131","main_expt"
"344","","bandit","210","724686","0.0-171.0-0.0","94027982","wem/bandit_either","A10BH9PYCYUKDJ","either","1","","","","","","","0","0","1","0.1338697581","","0.2","0.8","0.6","0.4","","","","","0.4382483821","0.1338697581","0.1243754988","0.01004766493","","","","","","","74","J","1","","","132","main_expt"
"428","","bandit","211","726627","0.0-172.0-0.0","94027982","wem/bandit_either","A10BH9PYCYUKDJ","either","1","","","","","","","0","0","1","0.1101669797","","0.2","0.8","0.6","0.4","","","","","0.3913946914","0.1101669797","0.1189203389","0.005153708139","","","","","","","74","J","1","","","133","main_expt"
"518","","bandit","212","728663","0.0-173.0-0.0","94027982","wem/bandit_either","A10BH9PYCYUKDJ","either","1","","","","","","","0","0","1","0.060775537","","0.2","0.8","0.6","0.4","","","","","0.4280120537","0.060775537","0.07075860378","0.01308543257","","","","","","","74","J","1","","","134","main_expt"
"380","","bandit","213","730557","0.0-174.0-0.0","94027982","wem/bandit_either","A10BH9PYCYUKDJ","either","1","","","","","","","0","0","1","0.0714416082","","0.2","0.8","0.6","0.4","","","","","0.4385213509","0.0714416082","0.1073185777","0.02634180281","","","","","","","74","J","1","","","135","main_expt"
"339","","bandit","214","732412","0.0-175.0-0.0","94027982","wem/bandit_either","A10BH9PYCYUKDJ","either","1","","","","","","","0","0","1","0.1115096907","","0.2","0.8","0.6","0.4","","","","","0.4605212521","0.1115096907","0.1001442491","0.04122629063","","","","","","","74","J","1","","","136","main_expt"
"340","","bandit","215","734266","0.0-176.0-0.0","94027982","wem/bandit_either","A10BH9PYCYUKDJ","either","1","","","","","","","1","0","0","0.1307091067","","0.2","0.8","0.6","0.4","","","","","0.4729500637","0.1307091067","0.1736681681","0.05517648788","","","","","","","74","J","1","","","137","main_expt"
"565","","bandit","216","736345","0.0-177.0-0.0","94027982","wem/bandit_either","A10BH9PYCYUKDJ","either","1","","","","","","","0","0","1","","0.05929415862","0.2","0.8","0.6","0.4","0.4705425907","0.1289533412","0.1839908368","0.05929415862","","","","","","","","","","","76","L","3","","","138","main_expt"
"281","","bandit","217","738144","0.0-178.0-0.0","94027982","wem/bandit_either","A10BH9PYCYUKDJ","either","1","","","","","","","0","0","1","","0.05470710098","0.2","0.8","0.6","0.4","0.465423541","0.1215972271","0.1500833973","0.05470710098","","","","","","","","","","","76","L","3","","","139","main_expt"
"379","","bandit","218","740039","0.0-179.0-0.0","94027982","wem/bandit_either","A10BH9PYCYUKDJ","either","1","","","","","","","0","0","1","0.1158179575","","0.2","0.8","0.6","0.4","","","","","0.4486857012","0.1158179575","0.1718879457","0.06062538604","","","","","","","74","J","1","","","140","main_expt"
"312","","bandit","219","741868","0.0-180.0-0.0","94027982","wem/bandit_either","A10BH9PYCYUKDJ","either","1","","","","","","","0","0","1","","0.4053061298","0.2","0.8","0.6","0.4","0.4053061298","0.08691297649","0.2025036279","0.05819772386","","","","","","","","","","","72","H","0","img/none_selected.jpg","","141","main_expt"
"350","","bandit","220","743734","0.0-181.0-0.0","94027982","wem/bandit_either","A10BH9PYCYUKDJ","either","1","","","","","","","0","0","1","0.3989731656","","0.2","0.8","0.6","0.4","","","","","0.3989731656","0.1425267255","0.1872564568","0.05329701838","","","","","","","72","H","0","img/none_selected.jpg","","142","main_expt"
"441","","bandit","221","745692","0.0-182.0-0.0","94027982","wem/bandit_either","A10BH9PYCYUKDJ","either","1","","","","","","","0","1","0","","0.3783570596","0.2","0.8","0.6","0.4","0.3783570596","0.1425141192","0.1676641842","0.06209903385","","","","","","","","","","","72","H","0","img/none_selected.jpg","","143","main_expt"
"309","","bandit","222","747516","0.0-183.0-0.0","94027982","wem/bandit_either","A10BH9PYCYUKDJ","either","1","","","","","","","0","1","0","","0.3485663762","0.2","0.8","0.6","0.4","0.3485663762","0.1362652721","0.1502987652","0.06954729647","","","","","","","","","","","72","H","0","img/none_selected.jpg","","144","main_expt"
"294","","bandit","223","749325","0.0-184.0-0.0","94027982","wem/bandit_either","A10BH9PYCYUKDJ","either","1","","","","","","","0","0","1","","0.3534190037","0.2","0.8","0.6","0.4","0.3534190037","0.1335650053","0.1050568962","0.062760129","","","","","","","","","","","72","H","0","img/none_selected.jpg","","145","main_expt"
"290","","bandit","224","751130","0.0-185.0-0.0","94027982","wem/bandit_either","A10BH9PYCYUKDJ","either","1","","","","","","","0","0","1","","0.1266784727","0.2","0.8","0.6","0.4","0.342282706","0.1392461982","0.1266784727","0.05014677947","","","","","","","","","","","75","K","2","","","146","main_expt"
"275","","bandit","225","752921","0.0-186.0-0.0","94027982","wem/bandit_either","A10BH9PYCYUKDJ","either","1","","","","","","","0","0","1","0.1121887101","","0.2","0.8","0.6","0.4","","","","","0.3497384939","0.1060810453","0.1121887101","0.04801868921","","","","","","","75","K","2","","","147","main_expt"
"790","","bandit","226","755223","0.0-187.0-0.0","94027982","wem/bandit_either","A10BH9PYCYUKDJ","either","1","","","","","","","0","0","1","","0.1050077765","0.2","0.8","0.6","0.4","0.3507348305","0.1076054289","0.1050077765","0.05298179562","","","","","","","","","","","75","K","2","","","148","main_expt"
"225","","bandit","227","756964","0.0-188.0-0.0","94027982","wem/bandit_either","A10BH9PYCYUKDJ","either","1","","","","","","","0","0","1","","0.08725679698","0.2","0.8","0.6","0.4","0.306786392","0.09143227578","0.08725679698","0.05271587927","","","","","","","","","","","75","K","2","","","149","main_expt"
"292","","bandit","228","758771","0.0-189.0-0.0","94027982","wem/bandit_either","A10BH9PYCYUKDJ","either","1","","","","","","","0","0","1","0.06153260368","","0.2","0.8","0.6","0.4","","","","","0.3289077467","0.08361181256","0.04813781364","0.06153260368","","","","","","","76","L","3","","","150","main_expt"
"412","","bandit","229","760699","0.0-190.0-0.0","94027982","wem/bandit_either","A10BH9PYCYUKDJ","either","1","","","","","","","0","0","1","0.1038450747","","0.2","0.8","0.6","0.4","","","","","0.2844912386","0.1038450747","0.04690393958","0.07716317934","","","","","","","74","J","1","","","151","main_expt"
"576","","bandit","230","762788","0.0-191.0-0.0","94027982","wem/bandit_either","A10BH9PYCYUKDJ","either","1","","","","","","","0","0","1","0.1311897928","","0.2","0.8","0.6","0.4","","","","","0.3221551402","0.1311897928","0.05051779207","0.08370894892","","","","","","","74","J","1","","","152","main_expt"
"619","","bandit","231","764926","0.0-192.0-0.0","94027982","wem/bandit_either","A10BH9PYCYUKDJ","either","1","","","","","","","0","0","1","0.1106636196","","0.2","0.8","0.6","0.4","","","","","0.288581716","0.1106636196","0.0417019452","0.06235129306","","","","","","","74","J","1","","","153","main_expt"
"414","","bandit","232","766859","0.0-193.0-0.0","94027982","wem/bandit_either","A10BH9PYCYUKDJ","either","1","","","","","","","0","0","1","0.08044616817","","0.2","0.8","0.6","0.4","","","","","0.3674714493","0.08044616817","0.04565059468","0.08808261531","","","","","","","74","J","1","","","154","main_expt"
"483","","bandit","233","768864","0.0-194.0-0.0","94027982","wem/bandit_either","A10BH9PYCYUKDJ","either","1","","","","","","","1","0","0","0.09849608375","","0.2","0.8","0.6","0.4","","","","","0.3836765626","0.09849608375","0.0249337719","0.08415746701","","","","","","","74","J","1","","","155","main_expt"
"379","","bandit","234","770759","0.0-195.0-0.0","94027982","wem/bandit_either","A10BH9PYCYUKDJ","either","1","","","","","","","0","0","1","0.0207568711","","0.2","0.8","0.6","0.4","","","","","0.3499766022","0.0679626842","0.0207568711","0.1363215429","","","","","","","75","K","2","","","156","main_expt"
"381","","bandit","235","772654","0.0-196.0-0.0","94027982","wem/bandit_either","A10BH9PYCYUKDJ","either","1","","","","","","","0","0","1","0.01044871803","","0.2","0.8","0.6","0.4","","","","","0.3083455354","0.06316877849","0.01044871803","0.176329139","","","","","","","75","K","2","","","157","main_expt"
"430","","bandit","236","774603","0.0-197.0-0.0","94027982","wem/bandit_either","A10BH9PYCYUKDJ","either","1","","","","","","","0","0","1","","0.008486032171","0.2","0.8","0.6","0.4","0.2780985587","0.06381796224","0.008486032171","0.2239815039","","","","","","","","","","","75","K","2","","","158","main_expt"
"324","","bandit","237","776445","0.0-198.0-0.0","94027982","wem/bandit_either","A10BH9PYCYUKDJ","either","1","","","","","","","0","0","1","0.006770001311","","0.2","0.8","0.6","0.4","","","","","0.2721424699","0.09986374221","0.006770001311","0.1754735631","","","","","","","75","K","2","","","159","main_expt"
"276","","bandit","238","778236","0.0-199.0-0.0","94027982","wem/bandit_either","A10BH9PYCYUKDJ","either","1","","","","","","","0","0","1","","0.005009972043","0.2","0.8","0.6","0.4","0.3005636977","0.08334790929","0.005009972043","0.1820859676","","","","","","","","","","","75","K","2","","","160","main_expt"
"338","","bandit","239","780091","0.0-200.0-0.0","94027982","wem/bandit_either","A10BH9PYCYUKDJ","either","1","","","","","","","0","0","1","0.003825417776","","0.2","0.8","0.6","0.4","","","","","0.2481613967","0.1094566723","0.003825417776","0.1771527669","","","","","","","75","K","2","","","161","main_expt"
"288","","bandit","240","781897","0.0-201.0-0.0","94027982","wem/bandit_either","A10BH9PYCYUKDJ","either","1","","","","","","","0","0","1","0.006458278423","","0.2","0.8","0.6","0.4","","","","","0.2040880477","0.1287108975","0.006458278423","0.209245514","","","","","","","75","K","2","","","162","main_expt"
"553","","bandit","241","783966","0.0-202.0-0.0","94027982","wem/bandit_either","A10BH9PYCYUKDJ","either","1","","","","","","","0","0","1","0.01344146107","","0.2","0.8","0.6","0.4","","","","","0.256608811","0.1811808859","0.01344146107","0.1864252411","","","","","","","75","K","2","","","163","main_expt"
"278","","bandit","242","785762","0.0-203.0-0.0","94027982","wem/bandit_either","A10BH9PYCYUKDJ","either","1","","","","","","","0","0","1","0.004940614731","","0.2","0.8","0.6","0.4","","","","","0.2798468236","0.1374611454","0.004940614731","0.1662237337","","","","","","","75","K","2","","","164","main_expt"
"287","","bandit","243","787568","0.0-204.0-0.0","94027982","wem/bandit_either","A10BH9PYCYUKDJ","either","1","","","","","","","1","0","0","0.1375661656","","0.2","0.8","0.6","0.4","","","","","0.2689568899","0.1640313333","0.007349038951","0.1375661656","","","","","","","76","L","3","","","165","main_expt"
"422","","bandit","244","789504","0.0-205.0-0.0","94027982","wem/bandit_either","A10BH9PYCYUKDJ","either","1","","","","","","","0","0","1","","0.1416727521","0.2","0.8","0.6","0.4","0.2786045926","0.20052236","0.005679103294","0.1416727521","","","","","","","","","","","76","L","3","","","166","main_expt"
"304","","bandit","245","791323","0.0-206.0-0.0","94027982","wem/bandit_either","A10BH9PYCYUKDJ","either","1","","","","","","","0","0","1","0.1497541138","","0.2","0.8","0.6","0.4","","","","","0.2507583434","0.1945206589","0.004037182679","0.1497541138","","","","","","","76","L","3","","","167","main_expt"
"240","","bandit","246","793080","0.0-207.0-0.0","94027982","wem/bandit_either","A10BH9PYCYUKDJ","either","1","","","","","","","0","0","1","0.1761460581","","0.2","0.8","0.6","0.4","","","","","0.1827624484","0.1902154162","0.007111326723","0.1761460581","","","","","","","76","L","3","","","168","main_expt"
"248","","bandit","247","794847","0.0-208.0-0.0","94027982","wem/bandit_either","A10BH9PYCYUKDJ","either","1","","","","","","","0","0","1","","0.1558723634","0.2","0.8","0.6","0.4","0.1558723634","0.1931964682","0.01708305062","0.2248215173","","","","","","","","","","","72","H","0","img/none_selected.jpg","","169","main_expt"
"252","","bandit","248","796619","0.0-209.0-0.0","94027982","wem/bandit_either","A10BH9PYCYUKDJ","either","1","","","","","","","0","0","1","","0.1757164868","0.2","0.8","0.6","0.4","0.1757164868","0.236179436","0.02105388628","0.2503105048","","","","","","","","","","","72","H","0","img/none_selected.jpg","","170","main_expt"
"318","","bandit","249","798455","0.0-210.0-0.0","94027982","wem/bandit_either","A10BH9PYCYUKDJ","either","1","","","","","","","0","0","1","","0.1985597056","0.2","0.8","0.6","0.4","0.1985597056","0.2229285478","0.01477187034","0.2515708499","","","","","","","","","","","72","H","0","img/none_selected.jpg","","171","main_expt"
"328","","bandit","250","800298","0.0-211.0-0.0","94027982","wem/bandit_either","A10BH9PYCYUKDJ","either","1","","","","","","","0","0","1","","0.1725269859","0.2","0.8","0.6","0.4","0.1725269859","0.1805811295","0.00639283578","0.2601117771","","","","","","","","","","","72","H","0","img/none_selected.jpg","","172","main_expt"
"1005","","bandit","251","802823","0.0-212.0-0.0","94027982","wem/bandit_either","A10BH9PYCYUKDJ","either","1","","","","","","","1","0","0","0.2203049146","","0.2","0.8","0.6","0.4","","","","","0.1955807132","0.2203049146","0.008503536177","0.2277859889","","","","","","","74","J","1","","","173","main_expt"
"271","","bandit","252","804611","0.0-213.0-0.0","94027982","wem/bandit_either","A10BH9PYCYUKDJ","either","1","","","","","","","1","0","0","0.2079245196","","0.2","0.8","0.6","0.4","","","","","0.1712969398","0.2079245196","0.01512836446","0.204090619","","","","","","","74","J","1","","","174","main_expt"
"269","","bandit","253","806399","0.0-214.0-0.0","94027982","wem/bandit_either","A10BH9PYCYUKDJ","either","1","","","","","","","0","0","1","0.1904909119","","0.2","0.8","0.6","0.4","","","","","0.2145566876","0.1904909119","0.034550241","0.2264282848","","","","","","","74","J","1","","","175","main_expt"
"285","","bandit","254","808198","0.0-215.0-0.0","94027982","wem/bandit_either","A10BH9PYCYUKDJ","either","1","","","","","","","0","0","1","0.1611975006","","0.2","0.8","0.6","0.4","","","","","0.1987050603","0.1611975006","0.01969997198","0.2263436383","","","","","","","74","J","1","","","176","main_expt"
"300","","bandit","255","810013","0.0-216.0-0.0","94027982","wem/bandit_either","A10BH9PYCYUKDJ","either","1","","","","","","","0","0","1","0.02558747067","","0.2","0.8","0.6","0.4","","","","","0.2161967517","0.1747210449","0.02558747067","0.2449632337","","","","","","","75","K","2","","","177","main_expt"
"284","","bandit","256","811814","0.0-217.0-0.0","94027982","wem/bandit_either","A10BH9PYCYUKDJ","either","1","","","","","","","0","0","1","0.1923885174","","0.2","0.8","0.6","0.4","","","","","0.1790488899","0.1667690144","0.02865462312","0.1923885174","","","","","","","76","L","3","","","178","main_expt"
"448","","bandit","257","813780","0.0-218.0-0.0","94027982","wem/bandit_either","A10BH9PYCYUKDJ","either","1","","","","","","","0","0","1","","0.1254539317","0.2","0.8","0.6","0.4","0.1254539317","0.248539666","0.05873937836","0.1791230597","","","","","","","","","","","72","H","0","img/none_selected.jpg","","179","main_expt"
"331","","bandit","258","815624","0.0-219.0-0.0","94027982","wem/bandit_either","A10BH9PYCYUKDJ","either","1","","","","","","","1","0","0","0.2393284063","","0.2","0.8","0.6","0.4","","","","","0.1761702366","0.2393284063","0.04996702027","0.1641305094","","","","","","","74","J","1","","","180","main_expt"
"324","","bandit","259","817466","0.0-220.0-0.0","94027982","wem/bandit_either","A10BH9PYCYUKDJ","either","1","","","","","","","0","0","1","0.2450765022","","0.2","0.8","0.6","0.4","","","","","0.2307221343","0.2450765022","0.06192223509","0.1567194189","","","","","","","74","J","1","","","181","main_expt"
"319","","bandit","260","819304","0.0-221.0-0.0","94027982","wem/bandit_either","A10BH9PYCYUKDJ","either","1","","","","","","","0","0","1","0.2898963007","","0.2","0.8","0.6","0.4","","","","","0.1656926355","0.2898963007","0.07865608963","0.1805899487","","","","","","","74","J","1","","","182","main_expt"
"350","","bandit","261","821173","0.0-222.0-0.0","94027982","wem/bandit_either","A10BH9PYCYUKDJ","either","1","","","","","","","0","0","1","0.337419987","","0.2","0.8","0.6","0.4","","","","","0.1997223474","0.337419987","0.0695036973","0.1381226487","","","","","","","74","J","1","","","183","main_expt"
"463","","bandit","262","823153","0.0-223.0-0.0","94027982","wem/bandit_either","A10BH9PYCYUKDJ","either","1","","","","","","","0","0","1","0.3334404967","","0.2","0.8","0.6","0.4","","","","","0.1936006223","0.3334404967","0.09883674892","0.1157029232","","","","","","","74","J","1","","","184","main_expt"
"392","","bandit","263","825065","0.0-224.0-0.0","94027982","wem/bandit_either","A10BH9PYCYUKDJ","either","1","","","","","","","0","0","1","0.3049781316","","0.2","0.8","0.6","0.4","","","","","0.1794548994","0.3049781316","0.1344132801","0.09007466759","","","","","","","74","J","1","","","185","main_expt"
"1588","","bandit","264","828168","0.0-225.0-0.0","94027982","wem/bandit_either","A10BH9PYCYUKDJ","either","1","","","","","","","0","0","1","0.322039184","","0.2","0.8","0.6","0.4","","","","","0.1679588243","0.322039184","0.1194183803","0.07784091677","","","","","","","74","J","1","","","186","main_expt"
"607","","bandit","265","830293","0.0-226.0-0.0","94027982","wem/bandit_either","A10BH9PYCYUKDJ","either","1","","","","","","","0","0","1","0.1456002269","","0.2","0.8","0.6","0.4","","","","","0.1692259204","0.2898485093","0.1456002269","0.1332261693","","","","","","","75","K","2","","","187","main_expt"
"1398","","bandit","266","833210","0.0-227.0-0.0","94027982","wem/bandit_either","A10BH9PYCYUKDJ","either","1","","","","","","","0","0","1","0.1008589119","","0.2","0.8","0.6","0.4","","","","","0.1796926114","0.3046836684","0.1008589119","0.1302169342","","","","","","","75","K","2","","","188","main_expt"
"407","","bandit","267","835137","0.0-228.0-0.0","94027982","wem/bandit_either","A10BH9PYCYUKDJ","either","1","","","","","","","0","0","1","","0.1459867673","0.2","0.8","0.6","0.4","0.1463090895","0.3437642557","0.09109327247","0.1459867673","","","","","","","","","","","76","L","3","","","189","main_expt"
"1158","","bandit","268","837815","0.0-229.0-0.0","94027982","wem/bandit_either","A10BH9PYCYUKDJ","either","1","","","","","","","0","0","1","","0.1930387326","0.2","0.8","0.6","0.4","0.1670442817","0.3685715368","0.133333279","0.1930387326","","","","","","","","","","","76","L","3","","","190","main_expt"
"347","","bandit","269","839683","0.0-230.0-0.0","94027982","wem/bandit_either","A10BH9PYCYUKDJ","either","1","","","","","","","0","0","1","0.1447045196","","0.2","0.8","0.6","0.4","","","","","0.2148667481","0.4063368095","0.1253338948","0.1447045196","","","","","","","76","L","3","","","191","main_expt"
"370","","bandit","270","841567","0.0-231.0-0.0","94027982","wem/bandit_either","A10BH9PYCYUKDJ","either","1","","","","","","","0","0","1","0.1521301445","","0.2","0.8","0.6","0.4","","","","","0.1891029698","0.4194789623","0.1371372983","0.1521301445","","","","","","","76","L","3","","","192","main_expt"
"349","","bandit","271","843437","0.0-232.0-0.0","94027982","wem/bandit_either","A10BH9PYCYUKDJ","either","1","","","","","","","0","0","1","","0.1818436489","0.2","0.8","0.6","0.4","0.1818436489","0.3914453041","0.1269519223","0.1216552598","","","","","","","","","","","72","H","0","img/none_selected.jpg","","193","main_expt"
"3994","","bandit","272","848950","0.0-233.0-0.0","94027982","wem/bandit_either","A10BH9PYCYUKDJ","either","1","","","","","","","0","0","1","0.3988429791","","0.2","0.8","0.6","0.4","","","","","0.2036833838","0.3988429791","0.1253972088","0.07681554104","","","","","","","74","J","1","","","194","main_expt"
"629","","bandit","273","851097","0.0-234.0-0.0","94027982","wem/bandit_either","A10BH9PYCYUKDJ","either","1","","","","","","","0","1","0","","0.2189502041","0.2","0.8","0.6","0.4","0.2189502041","0.4212514022","0.1231557279","0.07468822185","","","","","","","","","","","72","H","0","img/none_selected.jpg","","195","main_expt"
"369","","bandit","274","852983","0.0-235.0-0.0","94027982","wem/bandit_either","A10BH9PYCYUKDJ","either","1","","","","","","","0","0","1","0.2011136523","","0.2","0.8","0.6","0.4","","","","","0.2011136523","0.4128950903","0.2304226507","0.07634526252","","","","","","","72","H","0","img/none_selected.jpg","","196","main_expt"
"456","","bandit","275","854958","0.0-236.0-0.0","94027982","wem/bandit_either","A10BH9PYCYUKDJ","either","1","","","","","","","0","0","1","","0.2295646827","0.2","0.8","0.6","0.4","0.2295646827","0.3979973083","0.3102822931","0.06680697181","","","","","","","","","","","72","H","0","img/none_selected.jpg","","197","main_expt"
"659","","bandit","276","857136","0.0-237.0-0.0","94027982","wem/bandit_either","A10BH9PYCYUKDJ","either","1","","","","","","","1","0","0","0.3153467244","","0.2","0.8","0.6","0.4","","","","","0.2570874699","0.3153467244","0.3222054514","0.05107679344","","","","","","","74","J","1","","","198","main_expt"
"936","","bandit","277","859592","0.0-238.0-0.0","94027982","wem/bandit_either","A10BH9PYCYUKDJ","either","1","","","","","","","0","0","1","","0.3121882746","0.2","0.8","0.6","0.4","0.2215013189","0.3121882746","0.3416159467","0.06140804873","","","","","","","","","","","74","J","1","","","199","main_expt"
"58013","","bandit","278","919121","0.0-239.0-0.0","94027982","wem/bandit_either","A10BH9PYCYUKDJ","either","1","","","","","","","0","0","1","0.3826655938","","0.2","0.8","0.6","0.4","","","","","0.1681318695","0.3789620948","0.3826655938","0.05697288244","","","","","","","75","K","2","","","200","main_expt"
"251","","bandit","279","920892","0.0-240.0-0.0","94027982","wem/bandit_either","A10BH9PYCYUKDJ","either","1","","","","","","","0","1","0","","0.4117435103","0.2","0.8","0.6","0.4","0.1787039029","0.3575696279","0.4117435103","0.04802221103","","","","","","","","","","","75","K","2","","","201","main_expt"
"597","","bandit","280","923012","0.0-241.0-0.0","94027982","wem/bandit_either","A10BH9PYCYUKDJ","either","1","","","","","","","1","0","0","0.4023622846","","0.2","0.8","0.6","0.4","","","","","0.2180442152","0.3937046418","0.4023622846","0.04583536071","","","","","","","75","K","2","","","202","main_expt"
"774","","bandit","281","925303","0.0-242.0-0.0","94027982","wem/bandit_either","A10BH9PYCYUKDJ","either","1","","","","","","","0","1","0","","0.4225273878","0.2","0.8","0.6","0.4","0.262784421","0.3901943722","0.4225273878","0.03655969434","","","","","","","","","","","75","K","2","","","203","main_expt"
"1059","","bandit","282","927876","0.0-243.0-0.0","94027982","wem/bandit_either","A10BH9PYCYUKDJ","either","1","","","","","","","0","1","0","","0.4151046429","0.2","0.8","0.6","0.4","0.2843732649","0.4099131859","0.4151046429","0.05773518339","","","","","","","","","","","75","K","2","","","204","main_expt"
"603","","bandit","283","929995","0.0-244.0-0.0","94027982","wem/bandit_either","A10BH9PYCYUKDJ","either","1","","","","","","","0","0","1","","0.4288165897","0.2","0.8","0.6","0.4","0.2549063301","0.4238238901","0.4288165897","0.06616346658","","","","","","","","","","","75","K","2","","","205","main_expt"
"354","","bandit","284","931865","0.0-245.0-0.0","94027982","wem/bandit_either","A10BH9PYCYUKDJ","either","1","","","","","","","0","0","1","0.436745712","","0.2","0.8","0.6","0.4","","","","","0.2982701688","0.4139837541","0.436745712","0.09055598832","","","","","","","75","K","2","","","206","main_expt"
"789","","bandit","285","934176","0.0-246.0-0.0","94027982","wem/bandit_either","A10BH9PYCYUKDJ","either","1","","","","","","","0","1","0","","0.3544894801","0.2","0.8","0.6","0.4","0.3423773839","0.3544894801","0.4484652972","0.07583085731","","","","","","","","","","","74","J","1","","","207","main_expt"
"723","","bandit","286","936425","0.0-247.0-0.0","94027982","wem/bandit_either","A10BH9PYCYUKDJ","either","1","","","","","","","0","0","1","0.3703609936","","0.2","0.8","0.6","0.4","","","","","0.3321535101","0.3703609936","0.4516947584","0.09768014643","","","","","","","74","J","1","","","208","main_expt"
"1054","","bandit","287","938996","0.0-248.0-0.0","94027982","wem/bandit_either","A10BH9PYCYUKDJ","either","1","","","","","","","0","0","1","","0.3467721984","0.2","0.8","0.6","0.4","0.3467721984","0.3590511704","0.4590139285","0.08389795445","","","","","","","","","","","72","H","0","img/none_selected.jpg","","209","main_expt"
"243","","bandit","288","940765","0.0-249.0-0.0","94027982","wem/bandit_either","A10BH9PYCYUKDJ","either","1","","","","","","","0","0","1","0.3781523972","","0.2","0.8","0.6","0.4","","","","","0.3513447539","0.3781523972","0.4378910613","0.07846525543","","","","","","","74","J","1","","","210","main_expt"
"281","","bandit","289","942563","0.0-250.0-0.0","94027982","wem/bandit_either","A10BH9PYCYUKDJ","either","1","","","","","","","0","0","1","0.3895188655","","0.2","0.8","0.6","0.4","","","","","0.4003692624","0.3895188655","0.4139384991","0.05906932722","","","","","","","74","J","1","","","211","main_expt"
"500","","bandit","290","944582","0.0-251.0-0.0","94027982","wem/bandit_either","A10BH9PYCYUKDJ","either","1","","","","","","","0","0","1","0.4075098947","","0.2","0.8","0.6","0.4","","","","","0.3949660502","0.4075098947","0.3659234609","0.04754192311","","","","","","","74","J","1","","","212","main_expt"
"342","","bandit","291","946441","0.0-252.0-0.0","94027982","wem/bandit_either","A10BH9PYCYUKDJ","either","1","","","","","","","1","0","0","0.3180572988","","0.2","0.8","0.6","0.4","","","","","0.4233479157","0.4191075236","0.3180572988","0.05481920189","","","","","","","75","K","2","","","213","main_expt"
"318","","bandit","292","948283","0.0-253.0-0.0","94027982","wem/bandit_either","A10BH9PYCYUKDJ","either","1","","","","","","","0","0","1","","0.2611162072","0.2","0.8","0.6","0.4","0.4182751871","0.3799529118","0.2611162072","0.07954578011","","","","","","","","","","","75","K","2","","","214","main_expt"
"302","","bandit","293","950103","0.0-254.0-0.0","94027982","wem/bandit_either","A10BH9PYCYUKDJ","either","1","","","","","","","1","0","0","0.1078137614","","0.2","0.8","0.6","0.4","","","","","0.3745823719","0.3924699069","0.2331309726","0.1078137614","","","","","","","76","L","3","","","215","main_expt"
"415","","bandit","294","952035","0.0-255.0-0.0","94027982","wem/bandit_either","A10BH9PYCYUKDJ","either","1","","","","","","","0","0","1","","0.1269525553","0.2","0.8","0.6","0.4","0.3809837923","0.3556657658","0.2428402293","0.1269525553","","","","","","","","","","","76","L","3","","","216","main_expt"
"41","","bandit","295","953598","0.0-256.0-0.0","94027982","wem/bandit_either","A10BH9PYCYUKDJ","either","1","","","","","","","0","0","1","0.4144294186","","0.2","0.8","0.6","0.4","","","","","0.4144294186","0.3870416945","0.2317762644","0.1849794572","","","","","","","72","H","0","img/none_selected.jpg","","217","main_expt"
"303","","bandit","296","955428","0.0-257.0-0.0","94027982","wem/bandit_either","A10BH9PYCYUKDJ","either","1","","","","","","","1","0","0","0.3944581396","","0.2","0.8","0.6","0.4","","","","","0.4090742927","0.3944581396","0.204309912","0.1903787706","","","","","","","74","J","1","","","218","main_expt"
"461","","bandit","297","957405","0.0-258.0-0.0","94027982","wem/bandit_either","A10BH9PYCYUKDJ","either","1","","","","","","","1","0","0","0.1685596251","","0.2","0.8","0.6","0.4","","","","","0.3869695378","0.4256173987","0.1685596251","0.1768508397","","","","","","","75","K","2","","","219","main_expt"
"289","","bandit","298","959213","0.0-259.0-0.0","94027982","wem/bandit_either","A10BH9PYCYUKDJ","either","1","","","","","","","0","0","1","","0.2176561852","0.2","0.8","0.6","0.4","0.3814250035","0.4240862242","0.2488487331","0.2176561852","","","","","","","","","","","76","L","3","","","220","main_expt"
"257","","bandit","299","960993","0.0-260.0-0.0","94027982","wem/bandit_either","A10BH9PYCYUKDJ","either","1","","","","","","","1","0","0","0.4364702466","","0.2","0.8","0.6","0.4","","","","","0.3560431311","0.4364702466","0.2789816034","0.2075488201","","","","","","","74","J","1","","","221","main_expt"
"279","","bandit","300","962789","0.0-261.0-0.0","94027982","wem/bandit_either","A10BH9PYCYUKDJ","either","1","","","","","","","1","0","0","0.242729834","","0.2","0.8","0.6","0.4","","","","","0.3424215647","0.4512924842","0.242729834","0.2260831429","","","","","","","75","K","2","","","222","main_expt"
"255","","bandit","301","964564","0.0-262.0-0.0","94027982","wem/bandit_either","A10BH9PYCYUKDJ","either","1","","","","","","","0","0","1","0.4649948574","","0.2","0.8","0.6","0.4","","","","","0.3118962833","0.4649948574","0.196538567","0.2512075751","","","","","","","74","J","1","","","223","main_expt"
"249","","bandit","302","966336","0.0-263.0-0.0","94027982","wem/bandit_either","A10BH9PYCYUKDJ","either","1","","","","","","","0","0","1","","0.2189223785","0.2","0.8","0.6","0.4","0.261290028","0.4692106987","0.2189223785","0.3072691987","","","","","","","","","","","75","K","2","","","224","main_expt"
"98","","bandit","303","967951","0.0-264.0-0.0","94027982","wem/bandit_either","A10BH9PYCYUKDJ","either","1","","","","","","","0","0","1","0.3358063032","","0.2","0.8","0.6","0.4","","","","","0.2748104332","0.4772226815","0.2131207899","0.3358063032","","","","","","","76","L","3","","","225","main_expt"
"15","","bandit","304","969484","0.0-265.0-0.0","94027982","wem/bandit_either","A10BH9PYCYUKDJ","either","1","","","","","","","0","0","1","0.2112523614","","0.2","0.8","0.6","0.4","","","","","0.2112523614","0.4828013869","0.187439681","0.2994610032","","","","","","","72","H","0","img/none_selected.jpg","","226","main_expt"
"395","","bandit","305","971401","0.0-266.0-0.0","94027982","wem/bandit_either","A10BH9PYCYUKDJ","either","1","","","","","","","1","0","0","0.4805292857","","0.2","0.8","0.6","0.4","","","","","0.1879164098","0.4805292857","0.1522087394","0.2719992041","","","","","","","74","J","1","","","227","main_expt"
"268","","bandit","306","973191","0.0-267.0-0.0","94027982","wem/bandit_either","A10BH9PYCYUKDJ","either","1","","","","","","","0","1","0","","0.1975586059","0.2","0.8","0.6","0.4","0.1857646906","0.4770879938","0.1975586059","0.2601066631","","","","","","","","","","","75","K","2","","","228","main_expt"
"216","","bandit","307","974921","0.0-268.0-0.0","94027982","wem/bandit_either","A10BH9PYCYUKDJ","either","1","","","","","","","1","0","0","0.4830225504","","0.2","0.8","0.6","0.4","","","","","0.1608888173","0.4830225504","0.2280604414","0.2333982712","","","","","","","74","J","1","","","229","main_expt"
"256","","bandit","308","976692","0.0-269.0-0.0","94027982","wem/bandit_either","A10BH9PYCYUKDJ","either","1","","","","","","","0","0","1","0.2120359748","","0.2","0.8","0.6","0.4","","","","","0.1139945837","0.4827210916","0.2120359748","0.2179366985","","","","","","","75","K","2","","","230","main_expt"
"235","","bandit","309","978446","0.0-270.0-0.0","94027982","wem/bandit_either","A10BH9PYCYUKDJ","either","1","","","","","","","1","0","0","0.4764813513","","0.2","0.8","0.6","0.4","","","","","0.1071229599","0.4764813513","0.2260377558","0.210335649","","","","","","","74","J","1","","","231","main_expt"
"220","","bandit","310","980181","0.0-271.0-0.0","94027982","wem/bandit_either","A10BH9PYCYUKDJ","either","1","","","","","","","1","0","0","0.4794978353","","0.2","0.8","0.6","0.4","","","","","0.1250262501","0.4794978353","0.2810037348","0.2154905401","","","","","","","74","J","1","","","232","main_expt"
"223","","bandit","311","981925","0.0-272.0-0.0","94027982","wem/bandit_either","A10BH9PYCYUKDJ","either","1","","","","","","","1","0","0","0.4717583679","","0.2","0.8","0.6","0.4","","","","","0.1262657767","0.4717583679","0.3371590923","0.2199054097","","","","","","","74","J","1","","","233","main_expt"
"379","","bandit","312","983820","0.0-273.0-0.0","94027982","wem/bandit_either","A10BH9PYCYUKDJ","either","1","","","","","","","0","0","1","","0.4801470087","0.2","0.8","0.6","0.4","0.1436583916","0.4801470087","0.2614597929","0.2116885818","","","","","","","","","","","74","J","1","","","234","main_expt"
"181","","bandit","313","985521","0.0-274.0-0.0","94027982","wem/bandit_either","A10BH9PYCYUKDJ","either","1","","","","","","","0","0","1","","0.2855471023","0.2","0.8","0.6","0.4","0.1776605917","0.4698449305","0.2855471023","0.2037112673","","","","","","","","","","","75","K","2","","","235","main_expt"
"988","","bandit","314","988029","0.0-275.0-0.0","94027982","wem/bandit_either","A10BH9PYCYUKDJ","either","1","","","","","","","0","0","1","","0.2295670059","0.2","0.8","0.6","0.4","0.2039581082","0.4750890902","0.2806831757","0.2295670059","","","","","","","","","","","76","L","3","","","236","main_expt"
"352","","bandit","315","989896","0.0-276.0-0.0","94027982","wem/bandit_either","A10BH9PYCYUKDJ","either","1","","","","","","","0","0","1","","0.1898025468","0.2","0.8","0.6","0.4","0.1898025468","0.490873849","0.3314479917","0.2602584061","","","","","","","","","","","72","H","0","img/none_selected.jpg","","237","main_expt"
"341","","bandit","316","991759","0.0-277.0-0.0","94027982","wem/bandit_either","A10BH9PYCYUKDJ","either","1","","","","","","","1","0","0","0.4658125052","","0.2","0.8","0.6","0.4","","","","","0.20274426","0.4658125052","0.3495093658","0.2505035884","","","","","","","74","J","1","","","238","main_expt"
"281","","bandit","317","993555","0.0-278.0-0.0","94027982","wem/bandit_either","A10BH9PYCYUKDJ","either","1","","","","","","","1","0","0","0.4717810478","","0.2","0.8","0.6","0.4","","","","","0.2051086292","0.4717810478","0.3413466471","0.209031891","","","","","","","74","J","1","","","239","main_expt"
"319","","bandit","318","995393","0.0-279.0-0.0","94027982","wem/bandit_either","A10BH9PYCYUKDJ","either","1","","","","","","","0","0","1","0.4751676635","","0.2","0.8","0.6","0.4","","","","","0.1823871945","0.4751676635","0.3848911707","0.2203826704","","","","","","","74","J","1","","","240","main_expt"
"292","","bandit","319","997204","0.0-280.0-0.0","94027982","wem/bandit_either","A10BH9PYCYUKDJ","either","1","","","","","","","0","0","1","0.4782176083","","0.2","0.8","0.6","0.4","","","","","0.2206124516","0.4782176083","0.3352713547","0.2502218434","","","","","","","74","J","1","","","241","main_expt"
"265","","bandit","320","998986","0.0-281.0-0.0","94027982","wem/bandit_either","A10BH9PYCYUKDJ","either","1","","","","","","","1","0","0","0.4842593171","","0.2","0.8","0.6","0.4","","","","","0.1822231347","0.4842593171","0.3898112853","0.2465850657","","","","","","","74","J","1","","","242","main_expt"
"256","","bandit","321","1000760","0.0-282.0-0.0","94027982","wem/bandit_either","A10BH9PYCYUKDJ","either","1","","","","","","","0","0","1","0.4877308522","","0.2","0.8","0.6","0.4","","","","","0.1782216913","0.4877308522","0.3746092993","0.2768687636","","","","","","","74","J","1","","","243","main_expt"
"231","","bandit","322","1002513","0.0-283.0-0.0","94027982","wem/bandit_either","A10BH9PYCYUKDJ","either","1","","","","","","","0","0","1","0.4867000748","","0.2","0.8","0.6","0.4","","","","","0.1683297066","0.4867000748","0.3551642001","0.3318130554","","","","","","","74","J","1","","","244","main_expt"
"275","","bandit","323","1004308","0.0-284.0-0.0","94027982","wem/bandit_either","A10BH9PYCYUKDJ","either","1","","","","","","","0","0","1","0.4779689664","","0.2","0.8","0.6","0.4","","","","","0.2394915997","0.4779689664","0.3556023966","0.3549389872","","","","","","","74","J","1","","","245","main_expt"
"340","","bandit","324","1006168","0.0-285.0-0.0","94027982","wem/bandit_either","A10BH9PYCYUKDJ","either","1","","","","","","","0","0","1","","0.3265039954","0.2","0.8","0.6","0.4","0.2279590519","0.4691428495","0.3265039954","0.333301522","","","","","","","","","","","75","K","2","","","246","main_expt"
"249","","bandit","325","1007939","0.0-286.0-0.0","94027982","wem/bandit_either","A10BH9PYCYUKDJ","either","1","","","","","","","0","0","1","","0.3514606933","0.2","0.8","0.6","0.4","0.2464238951","0.4726686318","0.2868106963","0.3514606933","","","","","","","","","","","76","L","3","","","247","main_expt"
"295","","bandit","326","1009755","0.0-287.0-0.0","94027982","wem/bandit_either","A10BH9PYCYUKDJ","either","1","","","","","","","0","0","1","","0.2743013104","0.2","0.8","0.6","0.4","0.2743013104","0.4803067915","0.3185934195","0.3714826816","","","","","","","","","","","72","H","0","img/none_selected.jpg","","248","main_expt"
"267","","bandit","327","1011543","0.0-288.0-0.0","94027982","wem/bandit_either","A10BH9PYCYUKDJ","either","1","","","","","","","0","0","1","","0.265015958","0.2","0.8","0.6","0.4","0.265015958","0.4711679289","0.358181829","0.386783615","","","","","","","","","","","72","H","0","img/none_selected.jpg","","249","main_expt"
"241","","bandit","328","1013304","0.0-289.0-0.0","94027982","wem/bandit_either","A10BH9PYCYUKDJ","either","1","","","","","","","0","0","1","0.401921917","","0.2","0.8","0.6","0.4","","","","","0.2414596854","0.4353456883","0.3548152509","0.401921917","","","","","","","76","L","3","","","250","main_expt"
"291","","bandit","329","1015115","0.0-290.0-0.0","94027982","wem/bandit_either","A10BH9PYCYUKDJ","either","1","","","","","","","0","0","1","0.4224206017","","0.2","0.8","0.6","0.4","","","","","0.2747351927","0.4224206017","0.3481631732","0.4214807698","","","","","","","74","J","1","","","251","main_expt"
"136","","bandit","330","1016775","0.0-291.0-0.0","94027982","wem/bandit_either","A10BH9PYCYUKDJ","either","1","","","","","","","0","0","1","0.3357984296","","0.2","0.8","0.6","0.4","","","","","0.2814651432","0.4171240554","0.3357984296","0.3562017588","","","","","","","75","K","2","","","252","main_expt"
"266","","bandit","331","1018568","0.0-292.0-0.0","94027982","wem/bandit_either","A10BH9PYCYUKDJ","either","1","","","","","","","0","0","1","0.2585495719","","0.2","0.8","0.6","0.4","","","","","0.2185424791","0.4255780754","0.2585495719","0.2749590952","","","","","","","75","K","2","","","253","main_expt"
"267","","bandit","332","1020352","0.0-293.0-0.0","94027982","wem/bandit_either","A10BH9PYCYUKDJ","either","1","","","","","","","0","0","1","0.2503838878","","0.2","0.8","0.6","0.4","","","","","0.1714714561","0.4183488494","0.2503838878","0.2898909049","","","","","","","75","K","2","","","254","main_expt"
