"rt","responses","trial_type","trial_index","time_elapsed","internal_node_id","subjID","study","MID","cond","drift","key_press","expt_phase","target","like","value","connected","gems","bombs","no_reward","GemPrChosen","BombPrChosen","GainOverPainPr_0","GainOverPainPr_1","GainOverPainPr_2","GainOverPainPr_3","LosePr_0","LosePr_1","LosePr_2","LosePr_3","WinPr_0","WinPr_1","WinPr_2","WinPr_3","Q0","Q1","Q2","gender","age","ethnicity","respCharCode","respKey","respChoiceNum","respChoice","practice","trial_counter","trial_label"
"1834","{""Q0"":""A1ZN6V0PU8VVAH""}","survey-text","0","1850","0.0-0.0","95871759","wem/bandit_either","A1ZN6V0PU8VVAH","either","7","","","","","","","","","","","","","","","","","","","","","","","","","","","","","","","","","","","",""
"10999","","text","1","13857","0.0-1.0","95871759","wem/bandit_either","A1ZN6V0PU8VVAH","either","7","32","","","","","","","","","","","","","","","","","","","","","","","","","","","","","","","","","","",""
"4503","","text","2","18367","0.0-2.0","95871759","wem/bandit_either","A1ZN6V0PU8VVAH","either","7","32","","","","","","","","","","","","","","","","","","","","","","","","","","","","","","","","","","",""
"15309","","text","3","33682","0.0-3.0","95871759","wem/bandit_either","A1ZN6V0PU8VVAH","either","7","32","","","","","","","","","","","","","","","","","","","","","","","","","","","","","","","","","","",""
"6984","","text","4","40673","0.0-4.0","95871759","wem/bandit_either","A1ZN6V0PU8VVAH","either","7","32","","","","","","","","","","","","","","","","","","","","","","","","","","","","","","","","","","",""
"14052","","text","5","54732","0.0-5.0","95871759","wem/bandit_either","A1ZN6V0PU8VVAH","either","7","32","","","","","","","","","","","","","","","","","","","","","","","","","","","","","","","","","","",""
"6200","","text","6","60939","0.0-6.0","95871759","wem/bandit_either","A1ZN6V0PU8VVAH","either","7","32","","","","","","","","","","","","","","","","","","","","","","","","","","","","","","","","","","",""
"3657","","text","7","64604","0.0-7.0","95871759","wem/bandit_either","A1ZN6V0PU8VVAH","either","7","32","","","","","","","","","","","","","","","","","","","","","","","","","","","","","","","","","","",""
"23432","","identification","8","88088","0.0-8.0-0.0","95871759","wem/bandit_either","A1ZN6V0PU8VVAH","either","7","","identification_pre","the village of Zur","","","","","","","","","","","","","","","","","","","","","","","","","","","","","","","","",""
"5535","","identification","9","94671","0.0-8.0-1.0","95871759","wem/bandit_either","A1ZN6V0PU8VVAH","either","7","","identification_pre","the village of Nyx","","","","","","","","","","","","","","","","","","","","","","","","","","","","","","","","",""
"7739","","text","10","103417","0.0-9.0","95871759","wem/bandit_either","A1ZN6V0PU8VVAH","either","7","32","","","","","","","","","","","","","","","","","","","","","","","","","","","","","","","","","","",""
"2406","","text","11","105832","0.0-10.0","95871759","wem/bandit_either","A1ZN6V0PU8VVAH","either","7","32","","","","","","","","","","","","","","","","","","","","","","","","","","","","","","","","","","",""
"1689","","text","12","107528","0.0-11.0","95871759","wem/bandit_either","A1ZN6V0PU8VVAH","either","7","32","","","","","","","","","","","","","","","","","","","","","","","","","","","","","","","","","","",""
"2257","","text","13","109790","0.0-12.0","95871759","wem/bandit_either","A1ZN6V0PU8VVAH","either","7","32","","","","","","","","","","","","","","","","","","","","","","","","","","","","","","","","","","",""
"1812","","bandit","14","113436","0.0-13.0-0.0","95871759","wem/bandit_either","A1ZN6V0PU8VVAH","either","7","","","","","","","0","0","1","0","0","","","","","0","","","","0","","","","","","","","","","74","J","0","img/none_selected_demo.jpg","true","0",""
"1612","","bandit","15","116561","0.0-14.0-0.0","95871759","wem/bandit_either","A1ZN6V0PU8VVAH","either","7","","","","","","","0","0","1","0","0","","","","","0","","","","0","","","","","","","","","","75","K","0","img/none_selected_demo.jpg","true","0",""
"5267","","text","16","121834","0.0-15.0","95871759","wem/bandit_either","A1ZN6V0PU8VVAH","either","7","32","","","","","","","","","","","","","","","","","","","","","","","","","","","","","","","","","","",""
"18323","","text","17","140165","0.0-16.0","95871759","wem/bandit_either","A1ZN6V0PU8VVAH","either","7","32","","","","","","","","","","","","","","","","","","","","","","","","","","","","","","","","","","",""
"5040","","text","18","145213","0.0-17.0","95871759","wem/bandit_either","A1ZN6V0PU8VVAH","either","7","32","","","","","","","","","","","","","","","","","","","","","","","","","","","","","","","","","","",""
"2921","","text","19","148141","0.0-18.0","95871759","wem/bandit_either","A1ZN6V0PU8VVAH","either","7","32","","","","","","","","","","","","","","","","","","","","","","","","","","","","","","","","","","",""
"611","","bandit","20","150279","0.0-19.0-0.0","95871759","wem/bandit_either","A1ZN6V0PU8VVAH","either","7","","","","","","","1","0","0","0.8","","0.5","0.5","","","","","","","0.8","0.2","","","","","","","","","74","J","0","img/none_selected_demo.jpg","true","0","80_20_practice"
"381","","bandit","21","152179","0.0-19.0-1.0","95871759","wem/bandit_either","A1ZN6V0PU8VVAH","either","7","","","","","","","1","0","0","0.8","","0.5","0.5","","","","","","","0.8","0.2","","","","","","","","","74","J","0","img/none_selected_demo.jpg","true","0","80_20_practice"
"373","","bandit","22","154065","0.0-19.0-2.0","95871759","wem/bandit_either","A1ZN6V0PU8VVAH","either","7","","","","","","","1","0","0","0.8","","0.5","0.5","","","","","","","0.8","0.2","","","","","","","","","74","J","0","img/none_selected_demo.jpg","true","0","80_20_practice"
"325","","bandit","23","156293","0.0-19.0-3.0","95871759","wem/bandit_either","A1ZN6V0PU8VVAH","either","7","","","","","","","1","0","0","0.8","","0.5","0.5","","","","","","","0.8","0.2","","","","","","","","","74","J","0","img/none_selected_demo.jpg","true","0","80_20_practice"
"345","","bandit","24","158149","0.0-19.0-4.0","95871759","wem/bandit_either","A1ZN6V0PU8VVAH","either","7","","","","","","","0","0","1","","0.8","0.5","0.5","","","0.8","0.2","","","","","","","","","","","","","74","J","0","img/none_selected_demo.jpg","true","0","80_20_practice"
"317","","bandit","25","159982","0.0-19.0-5.0","95871759","wem/bandit_either","A1ZN6V0PU8VVAH","either","7","","","","","","","1","0","0","0.8","","0.5","0.5","","","","","","","0.8","0.2","","","","","","","","","74","J","0","img/none_selected_demo.jpg","true","0","80_20_practice"
"273","","bandit","26","162058","0.0-19.0-6.0","95871759","wem/bandit_either","A1ZN6V0PU8VVAH","either","7","","","","","","","0","1","0","","0.8","0.5","0.5","","","0.8","0.2","","","","","","","","","","","","","74","J","0","img/none_selected_demo.jpg","true","0","80_20_practice"
"130","","bandit","27","163701","0.0-19.0-7.0","95871759","wem/bandit_either","A1ZN6V0PU8VVAH","either","7","","","","","","","1","0","0","0.8","","0.5","0.5","","","","","","","0.8","0.2","","","","","","","","","74","J","0","img/none_selected_demo.jpg","true","0","80_20_practice"
"301","","bandit","28","165516","0.0-19.0-8.0","95871759","wem/bandit_either","A1ZN6V0PU8VVAH","either","7","","","","","","","0","1","0","","0.8","0.5","0.5","","","0.8","0.2","","","","","","","","","","","","","74","J","0","img/none_selected_demo.jpg","true","0","80_20_practice"
"287","","bandit","29","167575","0.0-19.0-9.0","95871759","wem/bandit_either","A1ZN6V0PU8VVAH","either","7","","","","","","","0","1","0","","0.8","0.5","0.5","","","0.8","0.2","","","","","","","","","","","","","74","J","0","img/none_selected_demo.jpg","true","0","80_20_practice"
"287","","bandit","30","169378","0.0-19.0-10.0","95871759","wem/bandit_either","A1ZN6V0PU8VVAH","either","7","","","","","","","1","0","0","0.8","","0.5","0.5","","","","","","","0.8","0.2","","","","","","","","","74","J","0","img/none_selected_demo.jpg","true","0","80_20_practice"
"300","","bandit","31","171196","0.0-19.0-11.0","95871759","wem/bandit_either","A1ZN6V0PU8VVAH","either","7","","","","","","","0","1","0","","0.8","0.5","0.5","","","0.8","0.2","","","","","","","","","","","","","74","J","0","img/none_selected_demo.jpg","true","0","80_20_practice"
"155","","bandit","32","172870","0.0-19.0-12.0","95871759","wem/bandit_either","A1ZN6V0PU8VVAH","either","7","","","","","","","1","0","0","0.8","","0.5","0.5","","","","","","","0.8","0.2","","","","","","","","","74","J","0","img/none_selected_demo.jpg","true","0","80_20_practice"
"208","","bandit","33","174611","0.0-19.0-13.0","95871759","wem/bandit_either","A1ZN6V0PU8VVAH","either","7","","","","","","","1","0","0","0.8","","0.5","0.5","","","","","","","0.8","0.2","","","","","","","","","74","J","0","img/none_selected_demo.jpg","true","0","80_20_practice"
"111","","bandit","34","176242","0.0-19.0-14.0","95871759","wem/bandit_either","A1ZN6V0PU8VVAH","either","7","","","","","","","0","1","0","","0.8","0.5","0.5","","","0.8","0.2","","","","","","","","","","","","","74","J","0","img/none_selected_demo.jpg","true","0","80_20_practice"
"590","","bandit","35","178353","0.0-19.0-15.0","95871759","wem/bandit_either","A1ZN6V0PU8VVAH","either","7","","","","","","","0","0","1","0.2","","0.5","0.5","","","","","","","0.8","0.2","","","","","","","","","75","K","1","","true","0","80_20_practice"
"7","","bandit","36","179884","0.0-19.0-16.0","95871759","wem/bandit_either","A1ZN6V0PU8VVAH","either","7","","","","","","","0","0","1","0.2","","0.5","0.5","","","","","","","0.8","0.2","","","","","","","","","75","K","1","","true","0","80_20_practice"
"413","","bandit","37","181809","0.0-19.0-17.0","95871759","wem/bandit_either","A1ZN6V0PU8VVAH","either","7","","","","","","","0","0","1","0.2","","0.5","0.5","","","","","","","0.8","0.2","","","","","","","","","75","K","1","","true","0","80_20_practice"
"608","","bandit","38","184145","0.0-19.0-18.0","95871759","wem/bandit_either","A1ZN6V0PU8VVAH","either","7","","","","","","","0","1","0","","0.2","0.5","0.5","","","0.8","0.2","","","","","","","","","","","","","75","K","1","","true","0","80_20_practice"
"163","","bandit","39","185824","0.0-19.0-19.0","95871759","wem/bandit_either","A1ZN6V0PU8VVAH","either","7","","","","","","","0","0","1","0.2","","0.5","0.5","","","","","","","0.8","0.2","","","","","","","","","75","K","1","","true","0","80_20_practice"
"2433","","text","40","188265","0.0-20.0","95871759","wem/bandit_either","A1ZN6V0PU8VVAH","either","7","32","","","","","","","","","","","","","","","","","","","","","","","","","","","","","","","","","","",""
"498","","bandit","41","190292","0.0-21.0-0.0","95871759","wem/bandit_either","A1ZN6V0PU8VVAH","either","7","","","","","","","1","0","0","1","0","","","","","0","1","","","1","0","","","","","","","","","74","J","0","img/none_selected_demo.jpg","true","0",""
"3818","","text","42","194121","0.0-22.0","95871759","wem/bandit_either","A1ZN6V0PU8VVAH","either","7","32","","","","","","","","","","","","","","","","","","","","","","","","","","","","","","","","","","",""
"1310","","text","43","195440","0.0-23.0","95871759","wem/bandit_either","A1ZN6V0PU8VVAH","either","7","32","","","","","","","","","","","","","","","","","","","","","","","","","","","","","","","","","","",""
"1766","","text","44","197214","0.0-24.0","95871759","wem/bandit_either","A1ZN6V0PU8VVAH","either","7","32","","","","","","","","","","","","","","","","","","","","","","","","","","","","","","","","","","",""
"2701","","text","45","199923","0.0-25.0","95871759","wem/bandit_either","A1ZN6V0PU8VVAH","either","7","32","","","","","","","","","","","","","","","","","","","","","","","","","","","","","","","","","","",""
"11140","","text","46","211070","0.0-26.0","95871759","wem/bandit_either","A1ZN6V0PU8VVAH","either","7","32","","","","","","","","","","","","","","","","","","","","","","","","","","","","","","","","","","",""
"1966","","text","47","213043","0.0-27.0","95871759","wem/bandit_either","A1ZN6V0PU8VVAH","either","7","32","","","","","","","","","","","","","","","","","","","","","","","","","","","","","","","","","","",""
"3926","","text","48","216979","0.0-28.0","95871759","wem/bandit_either","A1ZN6V0PU8VVAH","either","7","32","","","","","","","","","","","","","","","","","","","","","","","","","","","","","","","","","","",""
"2551","","text","49","219538","0.0-29.0","95871759","wem/bandit_either","A1ZN6V0PU8VVAH","either","7","32","","","","","","","","","","","","","","","","","","","","","","","","","","","","","","","","","","",""
"2809","","text","50","222356","0.0-30.0","95871759","wem/bandit_either","A1ZN6V0PU8VVAH","either","7","32","","","","","","","","","","","","","","","","","","","","","","","","","","","","","","","","","","",""
"1772","","text","51","224141","0.0-31.0","95871759","wem/bandit_either","A1ZN6V0PU8VVAH","either","7","32","","","","","","","","","","","","","","","","","","","","","","","","","","","","","","","","","","",""
"2212","","text","52","226363","0.0-32.0","95871759","wem/bandit_either","A1ZN6V0PU8VVAH","either","7","32","","","","","","","","","","","","","","","","","","","","","","","","","","","","","","","","","","",""
"551","","bandit","53","228514","0.0-33.0-0.0","95871759","wem/bandit_either","A1ZN6V0PU8VVAH","either","7","","","","","","","0","0","1","0.2","","0.5","0.5","0.5","0.5","","","","","0.8","0.2","0.6","0.2","","","","","","","74","J","1","","true","0","full_practice"
"67","","bandit","54","230099","0.0-33.0-1.0","95871759","wem/bandit_either","A1ZN6V0PU8VVAH","either","7","","","","","","","0","0","1","0.2","","0.5","0.5","0.5","0.5","","","","","0.8","0.2","0.6","0.2","","","","","","","74","J","1","","true","0","full_practice"
"75","","bandit","55","231923","0.0-33.0-2.0","95871759","wem/bandit_either","A1ZN6V0PU8VVAH","either","7","","","","","","","0","0","1","","0.2","0.5","0.5","0.5","0.5","0.8","0.2","0.6","0.2","","","","","","","","","","","74","J","1","","true","0","full_practice"
"79","","bandit","56","233524","0.0-33.0-3.0","95871759","wem/bandit_either","A1ZN6V0PU8VVAH","either","7","","","","","","","0","0","1","0.2","","0.5","0.5","0.5","0.5","","","","","0.8","0.2","0.6","0.2","","","","","","","74","J","1","","true","0","full_practice"
"618","","bandit","57","235662","0.0-33.0-4.0","95871759","wem/bandit_either","A1ZN6V0PU8VVAH","either","7","","","","","","","1","0","0","0.8","","0.5","0.5","0.5","0.5","","","","","0.8","0.2","0.6","0.2","","","","","","","72","H","0","img/none_selected.jpg","true","0","full_practice"
"213","","bandit","58","237397","0.0-33.0-5.0","95871759","wem/bandit_either","A1ZN6V0PU8VVAH","either","7","","","","","","","0","0","1","0.8","","0.5","0.5","0.5","0.5","","","","","0.8","0.2","0.6","0.2","","","","","","","72","H","0","img/none_selected.jpg","true","0","full_practice"
"145","","bandit","59","239061","0.0-33.0-6.0","95871759","wem/bandit_either","A1ZN6V0PU8VVAH","either","7","","","","","","","0","1","0","","0.8","0.5","0.5","0.5","0.5","0.8","0.2","0.6","0.2","","","","","","","","","","","72","H","0","img/none_selected.jpg","true","0","full_practice"
"208","","bandit","60","240782","0.0-33.0-7.0","95871759","wem/bandit_either","A1ZN6V0PU8VVAH","either","7","","","","","","","0","1","0","","0.8","0.5","0.5","0.5","0.5","0.8","0.2","0.6","0.2","","","","","","","","","","","72","H","0","img/none_selected.jpg","true","0","full_practice"
"115","","bandit","61","242413","0.0-33.0-8.0","95871759","wem/bandit_either","A1ZN6V0PU8VVAH","either","7","","","","","","","0","0","1","0.8","","0.5","0.5","0.5","0.5","","","","","0.8","0.2","0.6","0.2","","","","","","","72","H","0","img/none_selected.jpg","true","0","full_practice"
"40","","bandit","62","243975","0.0-33.0-9.0","95871759","wem/bandit_either","A1ZN6V0PU8VVAH","either","7","","","","","","","0","1","0","","0.8","0.5","0.5","0.5","0.5","0.8","0.2","0.6","0.2","","","","","","","","","","","72","H","0","img/none_selected.jpg","true","0","full_practice"
"79","","bandit","63","245874","0.0-33.0-10.0","95871759","wem/bandit_either","A1ZN6V0PU8VVAH","either","7","","","","","","","0","1","0","","0.8","0.5","0.5","0.5","0.5","0.8","0.2","0.6","0.2","","","","","","","","","","","72","H","0","img/none_selected.jpg","true","0","full_practice"
"80","","bandit","64","247467","0.0-33.0-11.0","95871759","wem/bandit_either","A1ZN6V0PU8VVAH","either","7","","","","","","","0","1","0","","0.8","0.5","0.5","0.5","0.5","0.8","0.2","0.6","0.2","","","","","","","","","","","72","H","0","img/none_selected.jpg","true","0","full_practice"
"388","","bandit","65","249377","0.0-33.0-12.0","95871759","wem/bandit_either","A1ZN6V0PU8VVAH","either","7","","","","","","","1","0","0","0.8","","0.5","0.5","0.5","0.5","","","","","0.8","0.2","0.6","0.2","","","","","","","72","H","0","img/none_selected.jpg","true","0","full_practice"
"111","","bandit","66","251002","0.0-33.0-13.0","95871759","wem/bandit_either","A1ZN6V0PU8VVAH","either","7","","","","","","","0","0","1","0.6","","0.5","0.5","0.5","0.5","","","","","0.8","0.2","0.6","0.2","","","","","","","75","K","2","","true","0","full_practice"
"452","","bandit","67","252974","0.0-33.0-14.0","95871759","wem/bandit_either","A1ZN6V0PU8VVAH","either","7","","","","","","","1","0","0","0.6","","0.5","0.5","0.5","0.5","","","","","0.8","0.2","0.6","0.2","","","","","","","75","K","2","","true","0","full_practice"
"182","","bandit","68","254671","0.0-33.0-15.0","95871759","wem/bandit_either","A1ZN6V0PU8VVAH","either","7","","","","","","","1","0","0","0.6","","0.5","0.5","0.5","0.5","","","","","0.8","0.2","0.6","0.2","","","","","","","75","K","2","","true","0","full_practice"
"87","","bandit","69","256280","0.0-33.0-16.0","95871759","wem/bandit_either","A1ZN6V0PU8VVAH","either","7","","","","","","","0","0","1","0.6","","0.5","0.5","0.5","0.5","","","","","0.8","0.2","0.6","0.2","","","","","","","75","K","2","","true","0","full_practice"
"1","","bandit","70","257796","0.0-33.0-17.0","95871759","wem/bandit_either","A1ZN6V0PU8VVAH","either","7","","","","","","","0","0","1","","0.6","0.5","0.5","0.5","0.5","0.8","0.2","0.6","0.2","","","","","","","","","","","75","K","2","","true","0","full_practice"
"285","","bandit","71","259859","0.0-33.0-18.0","95871759","wem/bandit_either","A1ZN6V0PU8VVAH","either","7","","","","","","","0","1","0","","0.6","0.5","0.5","0.5","0.5","0.8","0.2","0.6","0.2","","","","","","","","","","","75","K","2","","true","0","full_practice"
"83","","bandit","72","261455","0.0-33.0-19.0","95871759","wem/bandit_either","A1ZN6V0PU8VVAH","either","7","","","","","","","0","0","1","","0.6","0.5","0.5","0.5","0.5","0.8","0.2","0.6","0.2","","","","","","","","","","","75","K","2","","true","0","full_practice"
"2146","","text","73","263621","0.0-34.0","95871759","wem/bandit_either","A1ZN6V0PU8VVAH","either","7","32","","","","","","","","","","","","","","","","","","","","","","","","","","","","","","","","","","",""
"9367","","text","74","273996","0.0-35.0","95871759","wem/bandit_either","A1ZN6V0PU8VVAH","either","7","32","","","","","","","","","","","","","","","","","","","","","","","","","","","","","","","","","","",""
"7399","","text","75","281402","0.0-36.0","95871759","wem/bandit_either","A1ZN6V0PU8VVAH","either","7","32","","","","","","","","","","","","","","","","","","","","","","","","","","","","","","","","","","",""
"6654","","text","76","288062","0.0-37.0","95871759","wem/bandit_either","A1ZN6V0PU8VVAH","either","7","32","","","","","","","","","","","","","","","","","","","","","","","","","","","","","","","","","","",""
"4716","","text","77","292785","0.0-38.0","95871759","wem/bandit_either","A1ZN6V0PU8VVAH","either","7","32","","","","","","","","","","","","","","","","","","","","","","","","","","","","","","","","","","",""
"2626","","text","78","295419","0.0-39.0","95871759","wem/bandit_either","A1ZN6V0PU8VVAH","either","7","32","","","","","","","","","","","","","","","","","","","","","","","","","","","","","","","","","","",""
"1616","","bandit","79","298569","0.0-40.0-0.0","95871759","wem/bandit_either","A1ZN6V0PU8VVAH","either","7","","","","","","","0","0","1","","0.06530018083","0.8","0.2","0.6","0.4","0.1952616071","0.01738065524","0.1480066451","0.06530018083","","","","","","","","","","","76","L","3","","","1","main_expt"
"327","","bandit","80","300422","0.0-41.0-0.0","95871759","wem/bandit_either","A1ZN6V0PU8VVAH","either","7","","","","","","","0","0","1","0.1011701763","","0.8","0.2","0.6","0.4","","","","","0.1652234336","0.0196943787","0.1053714073","0.1011701763","","","","","","","76","L","3","","","2","main_expt"
"347","","bandit","81","302294","0.0-42.0-0.0","95871759","wem/bandit_either","A1ZN6V0PU8VVAH","either","7","","","","","","","0","1","0","","0.09486719381","0.8","0.2","0.6","0.4","0.1347382479","0.01678573497","0.1460078221","0.09486719381","","","","","","","","","","","76","L","3","","","3","main_expt"
"302","","bandit","82","304116","0.0-43.0-0.0","95871759","wem/bandit_either","A1ZN6V0PU8VVAH","either","7","","","","","","","0","0","1","","0.06705802814","0.8","0.2","0.6","0.4","0.1684625442","0.02981965743","0.1866138214","0.06705802814","","","","","","","","","","","76","L","3","","","4","main_expt"
"288","","bandit","83","305931","0.0-44.0-0.0","95871759","wem/bandit_either","A1ZN6V0PU8VVAH","either","7","","","","","","","0","0","1","","0.0822298525","0.8","0.2","0.6","0.4","0.1792029032","0.02600208211","0.2445348717","0.0822298525","","","","","","","","","","","76","L","3","","","5","main_expt"
"166","","bandit","84","307612","0.0-45.0-0.0","95871759","wem/bandit_either","A1ZN6V0PU8VVAH","either","7","","","","","","","0","0","1","0.2546962146","","0.8","0.2","0.6","0.4","","","","","0.2153873139","0.02332436933","0.2546962146","0.09162209411","","","","","","","75","K","2","","","6","main_expt"
"149","","bandit","85","309579","0.0-46.0-0.0","95871759","wem/bandit_either","A1ZN6V0PU8VVAH","either","7","","","","","","","0","0","1","","0.2344841702","0.8","0.2","0.6","0.4","0.1757762721","0.02864040813","0.2344841702","0.1028820098","","","","","","","","","","","75","K","2","","","7","main_expt"
"104","","bandit","86","311203","0.0-47.0-0.0","95871759","wem/bandit_either","A1ZN6V0PU8VVAH","either","7","","","","","","","1","0","0","0.2473344203","","0.8","0.2","0.6","0.4","","","","","0.2241229746","0.02951264166","0.2473344203","0.1532270122","","","","","","","75","K","2","","","8","main_expt"
"250","","bandit","87","312972","0.0-48.0-0.0","95871759","wem/bandit_either","A1ZN6V0PU8VVAH","either","7","","","","","","","0","0","1","0.2642160399","","0.8","0.2","0.6","0.4","","","","","0.2199426203","0.02997011939","0.2642160399","0.2131450397","","","","","","","75","K","2","","","9","main_expt"
"291","","bandit","88","314781","0.0-49.0-0.0","95871759","wem/bandit_either","A1ZN6V0PU8VVAH","either","7","","","","","","","0","0","1","","0.02489651457","0.8","0.2","0.6","0.4","0.1520686932","0.02489651457","0.2104627424","0.2985754635","","","","","","","","","","","74","J","1","","","10","main_expt"
"543","","bandit","89","316919","0.0-50.0-0.0","95871759","wem/bandit_either","A1ZN6V0PU8VVAH","either","7","","","","","","","0","0","1","","0.01651058827","0.8","0.2","0.6","0.4","0.2013349999","0.01651058827","0.219372878","0.2924640086","","","","","","","","","","","74","J","1","","","11","main_expt"
"267","","bandit","90","318708","0.0-51.0-0.0","95871759","wem/bandit_either","A1ZN6V0PU8VVAH","either","7","","","","","","","0","0","1","","0.02341729431","0.8","0.2","0.6","0.4","0.2156800105","0.02341729431","0.2105839871","0.3264291113","","","","","","","","","","","74","J","1","","","12","main_expt"
"789","","bandit","91","321023","0.0-52.0-0.0","95871759","wem/bandit_either","A1ZN6V0PU8VVAH","either","7","","","","","","","0","0","1","","0.1833947696","0.8","0.2","0.6","0.4","0.1833947696","0.0257410372","0.2511698571","0.3254913314","","","","","","","","","","","72","H","0","img/none_selected.jpg","","13","main_expt"
"258","","bandit","92","322870","0.0-53.0-0.0","95871759","wem/bandit_either","A1ZN6V0PU8VVAH","either","7","","","","","","","0","1","0","","0.243643366","0.8","0.2","0.6","0.4","0.243643366","0.02570014082","0.2158977649","0.3428504842","","","","","","","","","","","72","H","0","img/none_selected.jpg","","14","main_expt"
"246","","bandit","93","324630","0.0-54.0-0.0","95871759","wem/bandit_either","A1ZN6V0PU8VVAH","either","7","","","","","","","1","0","0","0.2265365198","","0.8","0.2","0.6","0.4","","","","","0.2265365198","0.04268316416","0.2762480727","0.3244047679","","","","","","","72","H","0","img/none_selected.jpg","","15","main_expt"
"248","","bandit","94","326398","0.0-55.0-0.0","95871759","wem/bandit_either","A1ZN6V0PU8VVAH","either","7","","","","","","","0","0","1","0.2484951132","","0.8","0.2","0.6","0.4","","","","","0.2484951132","0.04667408308","0.3202890724","0.3025313629","","","","","","","72","H","0","img/none_selected.jpg","","16","main_expt"
"298","","bandit","95","328231","0.0-56.0-0.0","95871759","wem/bandit_either","A1ZN6V0PU8VVAH","either","7","","","","","","","0","0","1","0.2570267238","","0.8","0.2","0.6","0.4","","","","","0.2570267238","0.0506688767","0.3680552247","0.3291216938","","","","","","","72","H","0","img/none_selected.jpg","","17","main_expt"
"219","","bandit","96","329973","0.0-57.0-0.0","95871759","wem/bandit_either","A1ZN6V0PU8VVAH","either","7","","","","","","","0","0","1","0.287418789","","0.8","0.2","0.6","0.4","","","","","0.287418789","0.02988526167","0.3968593921","0.2987881532","","","","","","","72","H","0","img/none_selected.jpg","","18","main_expt"
"279","","bandit","97","331766","0.0-58.0-0.0","95871759","wem/bandit_either","A1ZN6V0PU8VVAH","either","7","","","","","","","0","0","1","0.4192996399","","0.8","0.2","0.6","0.4","","","","","0.2338710899","0.03476350355","0.4192996399","0.281207523","","","","","","","75","K","2","","","19","main_expt"
"280","","bandit","98","333567","0.0-59.0-0.0","95871759","wem/bandit_either","A1ZN6V0PU8VVAH","either","7","","","","","","","0","1","0","","0.4362768361","0.8","0.2","0.6","0.4","0.2335293464","0.0233687216","0.4362768361","0.291129981","","","","","","","","","","","75","K","2","","","20","main_expt"
"334","","bandit","99","335427","0.0-60.0-0.0","95871759","wem/bandit_either","A1ZN6V0PU8VVAH","either","7","","","","","","","0","0","1","","0.4599691003","0.8","0.2","0.6","0.4","0.2434826965","0.01272547494","0.4599691003","0.2729578326","","","","","","","","","","","75","K","2","","","21","main_expt"
"114","","bandit","100","337063","0.0-61.0-0.0","95871759","wem/bandit_either","A1ZN6V0PU8VVAH","either","7","","","","","","","0","1","0","","0.44353765","0.8","0.2","0.6","0.4","0.2702300591","0.01739491555","0.44353765","0.2805141014","","","","","","","","","","","75","K","2","","","22","main_expt"
"313","","bandit","101","338895","0.0-62.0-0.0","95871759","wem/bandit_either","A1ZN6V0PU8VVAH","either","7","","","","","","","0","0","1","0.4105594395","","0.8","0.2","0.6","0.4","","","","","0.2424740502","0.006692102231","0.4105594395","0.3016389313","","","","","","","75","K","2","","","23","main_expt"
"150","","bandit","102","340567","0.0-63.0-0.0","95871759","wem/bandit_either","A1ZN6V0PU8VVAH","either","7","","","","","","","0","0","1","","0.4243351486","0.8","0.2","0.6","0.4","0.1754503809","0.01209419849","0.4243351486","0.2475621169","","","","","","","","","","","75","K","2","","","24","main_expt"
"75","","bandit","103","342184","0.0-64.0-0.0","95871759","wem/bandit_either","A1ZN6V0PU8VVAH","either","7","","","","","","","0","0","1","","0.4172780312","0.8","0.2","0.6","0.4","0.2023019753","0.009734580702","0.4172780312","0.2607476102","","","","","","","","","","","75","K","2","","","25","main_expt"
"590","","bandit","104","344288","0.0-65.0-0.0","95871759","wem/bandit_either","A1ZN6V0PU8VVAH","either","7","","","","","","","1","0","0","0.292589008","","0.8","0.2","0.6","0.4","","","","","0.1887270612","0.008596148908","0.3981062588","0.292589008","","","","","","","76","L","3","","","26","main_expt"
"227","","bandit","105","346041","0.0-66.0-0.0","95871759","wem/bandit_either","A1ZN6V0PU8VVAH","either","7","","","","","","","0","0","1","0.2978950393","","0.8","0.2","0.6","0.4","","","","","0.2526986378","0.01380650739","0.3889188119","0.2978950393","","","","","","","76","L","3","","","27","main_expt"
"592","","bandit","106","348150","0.0-67.0-0.0","95871759","wem/bandit_either","A1ZN6V0PU8VVAH","either","7","","","","","","","0","0","1","","0.01160852189","0.8","0.2","0.6","0.4","0.2536033627","0.01160852189","0.3699095679","0.337392419","","","","","","","","","","","74","J","1","","","28","main_expt"
"255","","bandit","107","349922","0.0-68.0-0.0","95871759","wem/bandit_either","A1ZN6V0PU8VVAH","either","7","","","","","","","0","0","1","0.02858314752","","0.8","0.2","0.6","0.4","","","","","0.258258936","0.02858314752","0.4087832773","0.3830759015","","","","","","","74","J","1","","","29","main_expt"
"186","","bandit","108","351786","0.0-69.0-0.0","95871759","wem/bandit_either","A1ZN6V0PU8VVAH","either","7","","","","","","","0","0","1","","0.0265596094","0.8","0.2","0.6","0.4","0.3152574144","0.0265596094","0.4162513677","0.3778881599","","","","","","","","","","","74","J","1","","","30","main_expt"
"52","","bandit","109","353360","0.0-70.0-0.0","95871759","wem/bandit_either","A1ZN6V0PU8VVAH","either","7","","","","","","","0","0","1","0.02828816112","","0.8","0.2","0.6","0.4","","","","","0.3508579725","0.02828816112","0.43337534","0.3585458117","","","","","","","74","J","1","","","31","main_expt"
"279","","bandit","110","355163","0.0-71.0-0.0","95871759","wem/bandit_either","A1ZN6V0PU8VVAH","either","7","","","","","","","0","0","1","","0.4399105216","0.8","0.2","0.6","0.4","0.3902021543","0.03857304495","0.4399105216","0.3511664436","","","","","","","","","","","75","K","2","","","32","main_expt"
"442","","bandit","111","357176","0.0-72.0-0.0","95871759","wem/bandit_either","A1ZN6V0PU8VVAH","either","7","","","","","","","0","0","1","","0.4112626521","0.8","0.2","0.6","0.4","0.4112626521","0.02642959278","0.3859623535","0.3924960189","","","","","","","","","","","72","H","0","img/none_selected.jpg","","33","main_expt"
"48","","bandit","112","358801","0.0-73.0-0.0","95871759","wem/bandit_either","A1ZN6V0PU8VVAH","either","7","","","","","","","1","0","0","0.3912589523","","0.8","0.2","0.6","0.4","","","","","0.3912589523","0.06800028167","0.4231921331","0.3713907517","","","","","","","72","H","0","img/none_selected.jpg","","34","main_expt"
"265","","bandit","113","360663","0.0-74.0-0.0","95871759","wem/bandit_either","A1ZN6V0PU8VVAH","either","7","","","","","","","0","0","1","0.3663646496","","0.8","0.2","0.6","0.4","","","","","0.3663646496","0.05710280771","0.3950458867","0.3929004689","","","","","","","72","H","0","img/none_selected.jpg","","35","main_expt"
"114","","bandit","114","362296","0.0-75.0-0.0","95871759","wem/bandit_either","A1ZN6V0PU8VVAH","either","7","","","","","","","0","0","1","0.3045225128","","0.8","0.2","0.6","0.4","","","","","0.3045225128","0.07756943076","0.4005306787","0.3820467604","","","","","","","72","H","0","img/none_selected.jpg","","36","main_expt"
"125","","bandit","115","364056","0.0-76.0-0.0","95871759","wem/bandit_either","A1ZN6V0PU8VVAH","either","7","","","","","","","0","0","1","0.2806474599","","0.8","0.2","0.6","0.4","","","","","0.2806474599","0.06074629621","0.3972735937","0.3948022939","","","","","","","72","H","0","img/none_selected.jpg","","37","main_expt"
"49","","bandit","116","365911","0.0-77.0-0.0","95871759","wem/bandit_either","A1ZN6V0PU8VVAH","either","7","","","","","","","0","0","1","0.38339591","","0.8","0.2","0.6","0.4","","","","","0.3558759705","0.07063042774","0.38339591","0.3769579019","","","","","","","75","K","2","","","38","main_expt"
"199","","bandit","117","367626","0.0-78.0-0.0","95871759","wem/bandit_either","A1ZN6V0PU8VVAH","either","7","","","","","","","0","1","0","","0.3906354184","0.8","0.2","0.6","0.4","0.3194138052","0.06209293178","0.3906354184","0.4030344636","","","","","","","","","","","75","K","2","","","39","main_expt"
"287","","bandit","118","369433","0.0-79.0-0.0","95871759","wem/bandit_either","A1ZN6V0PU8VVAH","either","7","","","","","","","0","0","1","","0.3623676206","0.8","0.2","0.6","0.4","0.3549086085","0.06952578958","0.3623676206","0.3622335218","","","","","","","","","","","75","K","2","","","40","main_expt"
"171","","bandit","119","371121","0.0-80.0-0.0","95871759","wem/bandit_either","A1ZN6V0PU8VVAH","either","7","","","","","","","0","0","1","","0.3873704927","0.8","0.2","0.6","0.4","0.3452113815","0.1291245709","0.3873704927","0.3911596719","","","","","","","","","","","75","K","2","","","41","main_expt"
"120","","bandit","120","373024","0.0-81.0-0.0","95871759","wem/bandit_either","A1ZN6V0PU8VVAH","either","7","","","","","","","0","0","1","0.359823116","","0.8","0.2","0.6","0.4","","","","","0.3522960267","0.1174523948","0.359823116","0.3921858285","","","","","","","75","K","2","","","42","main_expt"
"629","","bandit","121","375178","0.0-82.0-0.0","95871759","wem/bandit_either","A1ZN6V0PU8VVAH","either","7","","","","","","","1","0","0","0.3710191411","","0.8","0.2","0.6","0.4","","","","","0.3093122096","0.1201484523","0.3710191411","0.3831213528","","","","","","","75","K","2","","","43","main_expt"
"263","","bandit","122","377002","0.0-83.0-0.0","95871759","wem/bandit_either","A1ZN6V0PU8VVAH","either","7","","","","","","","0","0","1","","0.3874065465","0.8","0.2","0.6","0.4","0.3026159556","0.09958360536","0.3874065465","0.3518708159","","","","","","","","","","","75","K","2","","","44","main_expt"
"26","","bandit","123","378553","0.0-84.0-0.0","95871759","wem/bandit_either","A1ZN6V0PU8VVAH","either","7","","","","","","","0","0","1","","0.3851533971","0.8","0.2","0.6","0.4","0.3336294247","0.05173655998","0.3851533971","0.3122870636","","","","","","","","","","","75","K","2","","","45","main_expt"
"209","","bandit","124","380286","0.0-85.0-0.0","95871759","wem/bandit_either","A1ZN6V0PU8VVAH","either","7","","","","","","","0","0","1","","0.4055883719","0.8","0.2","0.6","0.4","0.3400222736","0.05945041096","0.4055883719","0.2635721956","","","","","","","","","","","75","K","2","","","46","main_expt"
"233","","bandit","125","382042","0.0-86.0-0.0","95871759","wem/bandit_either","A1ZN6V0PU8VVAH","either","7","","","","","","","1","0","0","0.3671593179","","0.8","0.2","0.6","0.4","","","","","0.328707825","0.04375763727","0.3671593179","0.2856785865","","","","","","","75","K","2","","","47","main_expt"
"185","","bandit","126","383754","0.0-87.0-0.0","95871759","wem/bandit_either","A1ZN6V0PU8VVAH","either","7","","","","","","","0","1","0","","0.3198203038","0.8","0.2","0.6","0.4","0.3307690822","0.0666370861","0.3198203038","0.2649087478","","","","","","","","","","","75","K","2","","","48","main_expt"
"261","","bandit","127","385535","0.0-88.0-0.0","95871759","wem/bandit_either","A1ZN6V0PU8VVAH","either","7","","","","","","","0","0","1","0.3111357295","","0.8","0.2","0.6","0.4","","","","","0.3438067684","0.08266213623","0.3111357295","0.2462979357","","","","","","","75","K","2","","","49","main_expt"
"1067","","bandit","128","388128","0.0-89.0-0.0","95871759","wem/bandit_either","A1ZN6V0PU8VVAH","either","7","","","","","","","0","0","1","0.4037002216","","0.8","0.2","0.6","0.4","","","","","0.4037002216","0.08795051988","0.3196682981","0.2490076798","","","","","","","72","H","0","img/none_selected.jpg","","50","main_expt"
"207","","bandit","129","389858","0.0-90.0-0.0","95871759","wem/bandit_either","A1ZN6V0PU8VVAH","either","7","","","","","","","0","0","1","","0.3557518394","0.8","0.2","0.6","0.4","0.3557518394","0.07533366945","0.3088596379","0.305209751","","","","","","","","","","","72","H","0","img/none_selected.jpg","","51","main_expt"
"177","","bandit","130","391559","0.0-91.0-0.0","95871759","wem/bandit_either","A1ZN6V0PU8VVAH","either","7","","","","","","","0","1","0","","0.3254324358","0.8","0.2","0.6","0.4","0.3254324358","0.06506638851","0.3060924957","0.3087204988","","","","","","","","","","","72","H","0","img/none_selected.jpg","","52","main_expt"
"272","","bandit","131","393356","0.0-92.0-0.0","95871759","wem/bandit_either","A1ZN6V0PU8VVAH","either","7","","","","","","","0","0","1","0.2952150256","","0.8","0.2","0.6","0.4","","","","","0.2952150256","0.06562792832","0.3229319808","0.2984188648","","","","","","","72","H","0","img/none_selected.jpg","","53","main_expt"
"239","","bandit","132","395111","0.0-93.0-0.0","95871759","wem/bandit_either","A1ZN6V0PU8VVAH","either","7","","","","","","","0","1","0","","0.3353917468","0.8","0.2","0.6","0.4","0.300320608","0.04630081711","0.3280138586","0.3353917468","","","","","","","","","","","76","L","3","","","54","main_expt"
"277","","bandit","133","396907","0.0-94.0-0.0","95871759","wem/bandit_either","A1ZN6V0PU8VVAH","either","7","","","","","","","0","0","1","0.3259144651","","0.8","0.2","0.6","0.4","","","","","0.2985084879","0.03868373719","0.2777260571","0.3259144651","","","","","","","76","L","3","","","55","main_expt"
"457","","bandit","134","398896","0.0-95.0-0.0","95871759","wem/bandit_either","A1ZN6V0PU8VVAH","either","7","","","","","","","0","0","1","","0.3259049121","0.8","0.2","0.6","0.4","0.2607009345","0.06235362297","0.1791004868","0.3259049121","","","","","","","","","","","76","L","3","","","56","main_expt"
"63","","bandit","135","400501","0.0-96.0-0.0","95871759","wem/bandit_either","A1ZN6V0PU8VVAH","either","7","","","","","","","0","0","1","","0.3687904078","0.8","0.2","0.6","0.4","0.2565854794","0.04639461243","0.2182265394","0.3687904078","","","","","","","","","","","76","L","3","","","57","main_expt"
"473","","bandit","136","402489","0.0-97.0-0.0","95871759","wem/bandit_either","A1ZN6V0PU8VVAH","either","7","","","","","","","0","0","1","","0.08954448139","0.8","0.2","0.6","0.4","0.319121847","0.08954448139","0.2970860181","0.3422038875","","","","","","","","","","","74","J","1","","","58","main_expt"
"147","","bandit","137","404263","0.0-98.0-0.0","95871759","wem/bandit_either","A1ZN6V0PU8VVAH","either","7","","","","","","","0","0","1","","0.07390342289","0.8","0.2","0.6","0.4","0.3269923399","0.07390342289","0.3249685468","0.3771421139","","","","","","","","","","","74","J","1","","","59","main_expt"
"20","","bandit","138","405798","0.0-99.0-0.0","95871759","wem/bandit_either","A1ZN6V0PU8VVAH","either","7","","","","","","","0","0","1","0.05801548519","","0.8","0.2","0.6","0.4","","","","","0.3150968823","0.05801548519","0.2931470039","0.3620124399","","","","","","","74","J","1","","","60","main_expt"
"267","","bandit","139","407592","0.0-100.0-0.0","95871759","wem/bandit_either","A1ZN6V0PU8VVAH","either","7","","","","","","","0","0","1","","0.07333263924","0.8","0.2","0.6","0.4","0.324539239","0.07333263924","0.2646536279","0.3958116198","","","","","","","","","","","74","J","1","","","61","main_expt"
"551","","bandit","140","409672","0.0-101.0-0.0","95871759","wem/bandit_either","A1ZN6V0PU8VVAH","either","7","","","","","","","0","0","1","0.242461968","","0.8","0.2","0.6","0.4","","","","","0.3066306166","0.07563430262","0.242461968","0.3615218546","","","","","","","75","K","2","","","62","main_expt"
"92","","bandit","141","411525","0.0-102.0-0.0","95871759","wem/bandit_either","A1ZN6V0PU8VVAH","either","7","","","","","","","0","0","1","","0.2206683029","0.8","0.2","0.6","0.4","0.3068900116","0.06826526778","0.2206683029","0.3574266064","","","","","","","","","","","75","K","2","","","63","main_expt"
"52","","bandit","142","413095","0.0-103.0-0.0","95871759","wem/bandit_either","A1ZN6V0PU8VVAH","either","7","","","","","","","0","0","1","0.2288959862","","0.8","0.2","0.6","0.4","","","","","0.2936494982","0.1175271989","0.2288959862","0.3541915859","","","","","","","75","K","2","","","64","main_expt"
"395","","bandit","143","415015","0.0-104.0-0.0","95871759","wem/bandit_either","A1ZN6V0PU8VVAH","either","7","","","","","","","0","0","1","0.2346523549","","0.8","0.2","0.6","0.4","","","","","0.290236101","0.1273865191","0.2346523549","0.3339820985","","","","","","","75","K","2","","","65","main_expt"
"232","","bandit","144","416775","0.0-105.0-0.0","95871759","wem/bandit_either","A1ZN6V0PU8VVAH","either","7","","","","","","","0","0","1","0.1881688105","","0.8","0.2","0.6","0.4","","","","","0.2512036594","0.09075088943","0.1881688105","0.3195467083","","","","","","","75","K","2","","","66","main_expt"
"694","","bandit","145","419036","0.0-106.0-0.0","95871759","wem/bandit_either","A1ZN6V0PU8VVAH","either","7","","","","","","","0","0","1","0.263747572","","0.8","0.2","0.6","0.4","","","","","0.263747572","0.08077075725","0.231043846","0.3477383846","","","","","","","72","H","0","img/none_selected.jpg","","67","main_expt"
"136","","bandit","146","420702","0.0-107.0-0.0","95871759","wem/bandit_either","A1ZN6V0PU8VVAH","either","7","","","","","","","0","0","1","","0.2892519303","0.8","0.2","0.6","0.4","0.2892519303","0.08810311296","0.2576664243","0.3365352069","","","","","","","","","","","72","H","0","img/none_selected.jpg","","68","main_expt"
"239","","bandit","147","422693","0.0-108.0-0.0","95871759","wem/bandit_either","A1ZN6V0PU8VVAH","either","7","","","","","","","0","0","1","0.2383664846","","0.8","0.2","0.6","0.4","","","","","0.2383664846","0.1260156682","0.2183283259","0.3148812039","","","","","","","72","H","0","img/none_selected.jpg","","69","main_expt"
"428","","bandit","148","424652","0.0-109.0-0.0","95871759","wem/bandit_either","A1ZN6V0PU8VVAH","either","7","","","","","","","0","0","1","0.2497111545","","0.8","0.2","0.6","0.4","","","","","0.2497111545","0.08773951932","0.2260484764","0.3154014692","","","","","","","72","H","0","img/none_selected.jpg","","70","main_expt"
"226","","bandit","149","426484","0.0-110.0-0.0","95871759","wem/bandit_either","A1ZN6V0PU8VVAH","either","7","","","","","","","0","0","1","0.2095843002","","0.8","0.2","0.6","0.4","","","","","0.2095843002","0.1154304285","0.3196469567","0.219815459","","","","","","","72","H","0","img/none_selected.jpg","","71","main_expt"
"110","","bandit","150","428121","0.0-111.0-0.0","95871759","wem/bandit_either","A1ZN6V0PU8VVAH","either","7","","","","","","","0","0","1","0.2623730272","","0.8","0.2","0.6","0.4","","","","","0.1972488467","0.10097247","0.3644141189","0.2623730272","","","","","","","76","L","3","","","72","main_expt"
"148","","bandit","151","429793","0.0-112.0-0.0","95871759","wem/bandit_either","A1ZN6V0PU8VVAH","either","7","","","","","","","0","1","0","","0.2639805735","0.8","0.2","0.6","0.4","0.15494396","0.0746930591","0.4081842109","0.2639805735","","","","","","","","","","","76","L","3","","","73","main_expt"
"331","","bandit","152","431642","0.0-113.0-0.0","95871759","wem/bandit_either","A1ZN6V0PU8VVAH","either","7","","","","","","","0","0","1","","0.2770925356","0.8","0.2","0.6","0.4","0.1324790415","0.1124392477","0.4506698749","0.2770925356","","","","","","","","","","","76","L","3","","","74","main_expt"
"207","","bandit","153","433392","0.0-114.0-0.0","95871759","wem/bandit_either","A1ZN6V0PU8VVAH","either","7","","","","","","","0","0","1","0.2796652475","","0.8","0.2","0.6","0.4","","","","","0.179195356","0.113494578","0.454520075","0.2796652475","","","","","","","76","L","3","","","75","main_expt"
"224","","bandit","154","435138","0.0-115.0-0.0","95871759","wem/bandit_either","A1ZN6V0PU8VVAH","either","7","","","","","","","0","0","1","","0.3153427244","0.8","0.2","0.6","0.4","0.215808919","0.1469344428","0.466199952","0.3153427244","","","","","","","","","","","76","L","3","","","76","main_expt"
"403","","bandit","155","437192","0.0-116.0-0.0","95871759","wem/bandit_either","A1ZN6V0PU8VVAH","either","7","","","","","","","0","0","1","","0.3676911864","0.8","0.2","0.6","0.4","0.2312347408","0.2152215887","0.4402141775","0.3676911864","","","","","","","","","","","76","L","3","","","77","main_expt"
"251","","bandit","156","438967","0.0-117.0-0.0","95871759","wem/bandit_either","A1ZN6V0PU8VVAH","either","7","","","","","","","0","0","1","","0.3434277392","0.8","0.2","0.6","0.4","0.2197025874","0.2055177618","0.4525957793","0.3434277392","","","","","","","","","","","76","L","3","","","78","main_expt"
"304","","bandit","157","440797","0.0-118.0-0.0","95871759","wem/bandit_either","A1ZN6V0PU8VVAH","either","7","","","","","","","0","0","1","0.3758616161","","0.8","0.2","0.6","0.4","","","","","0.2227420924","0.222262525","0.4630799716","0.3758616161","","","","","","","76","L","3","","","79","main_expt"
"205","","bandit","158","442793","0.0-119.0-0.0","95871759","wem/bandit_either","A1ZN6V0PU8VVAH","either","7","","","","","","","0","0","1","","0.3862393514","0.8","0.2","0.6","0.4","0.2283057493","0.2700860438","0.423693353","0.3862393514","","","","","","","","","","","76","L","3","","","80","main_expt"
"13","","bandit","159","444319","0.0-120.0-0.0","95871759","wem/bandit_either","A1ZN6V0PU8VVAH","either","7","","","","","","","0","0","1","","0.3593770893","0.8","0.2","0.6","0.4","0.2721525977","0.2642688004","0.4319112677","0.3593770893","","","","","","","","","","","76","L","3","","","81","main_expt"
"734","","bandit","160","446614","0.0-121.0-0.0","95871759","wem/bandit_either","A1ZN6V0PU8VVAH","either","7","","","","","","","0","0","1","","0.441827487","0.8","0.2","0.6","0.4","0.2850237184","0.2824164754","0.441827487","0.4035110645","","","","","","","","","","","75","K","2","","","82","main_expt"
"189","","bandit","161","448327","0.0-122.0-0.0","95871759","wem/bandit_either","A1ZN6V0PU8VVAH","either","7","","","","","","","0","0","1","","0.4288861504","0.8","0.2","0.6","0.4","0.3236436683","0.2819095575","0.4288861504","0.3719627038","","","","","","","","","","","75","K","2","","","83","main_expt"
"170","","bandit","162","450029","0.0-123.0-0.0","95871759","wem/bandit_either","A1ZN6V0PU8VVAH","either","7","","","","","","","1","0","0","0.4350385517","","0.8","0.2","0.6","0.4","","","","","0.3339638593","0.2589745902","0.4350385517","0.3349288927","","","","","","","75","K","2","","","84","main_expt"
"212","","bandit","163","451770","0.0-124.0-0.0","95871759","wem/bandit_either","A1ZN6V0PU8VVAH","either","7","","","","","","","0","0","1","0.4255505645","","0.8","0.2","0.6","0.4","","","","","0.3795022601","0.3626504113","0.4255505645","0.3247899262","","","","","","","75","K","2","","","85","main_expt"
"232","","bandit","164","453531","0.0-125.0-0.0","95871759","wem/bandit_either","A1ZN6V0PU8VVAH","either","7","","","","","","","0","0","1","","0.4330938692","0.8","0.2","0.6","0.4","0.3835523064","0.3598915268","0.4330938692","0.3443557019","","","","","","","","","","","75","K","2","","","86","main_expt"
"112","","bandit","165","455172","0.0-126.0-0.0","95871759","wem/bandit_either","A1ZN6V0PU8VVAH","either","7","","","","","","","0","0","1","0.4548398529","","0.8","0.2","0.6","0.4","","","","","0.3772514457","0.3433052933","0.4548398529","0.3648776167","","","","","","","75","K","2","","","87","main_expt"
"114","","bandit","166","456812","0.0-127.0-0.0","95871759","wem/bandit_either","A1ZN6V0PU8VVAH","either","7","","","","","","","0","0","1","0.4493124031","","0.8","0.2","0.6","0.4","","","","","0.3766830519","0.4022938878","0.4493124031","0.3609631839","","","","","","","75","K","2","","","88","main_expt"
"129","","bandit","167","458469","0.0-128.0-0.0","95871759","wem/bandit_either","A1ZN6V0PU8VVAH","either","7","","","","","","","0","0","1","0.4161110063","","0.8","0.2","0.6","0.4","","","","","0.3537755119","0.4141493151","0.4161110063","0.3636167192","","","","","","","75","K","2","","","89","main_expt"
"73","","bandit","168","460059","0.0-129.0-0.0","95871759","wem/bandit_either","A1ZN6V0PU8VVAH","either","7","","","","","","","1","0","0","0.405260856","","0.8","0.2","0.6","0.4","","","","","0.3014761449","0.4136124289","0.405260856","0.3563441379","","","","","","","75","K","2","","","90","main_expt"
"50","","bandit","169","461786","0.0-130.0-0.0","95871759","wem/bandit_either","A1ZN6V0PU8VVAH","either","7","","","","","","","0","0","1","","0.3827048226","0.8","0.2","0.6","0.4","0.2694038268","0.4184852842","0.3827048226","0.3389138503","","","","","","","","","","","75","K","2","","","91","main_expt"
"17","","bandit","170","463331","0.0-131.0-0.0","95871759","wem/bandit_either","A1ZN6V0PU8VVAH","either","7","","","","","","","0","1","0","","0.3552182969","0.8","0.2","0.6","0.4","0.2651536323","0.4456808576","0.3552182969","0.3263360165","","","","","","","","","","","75","K","2","","","92","main_expt"
"170","","bandit","171","465028","0.0-132.0-0.0","95871759","wem/bandit_either","A1ZN6V0PU8VVAH","either","7","","","","","","","1","0","0","0.3286897504","","0.8","0.2","0.6","0.4","","","","","0.1997208586","0.4355219805","0.3286897504","0.2844131911","","","","","","","75","K","2","","","93","main_expt"
"150","","bandit","172","466710","0.0-133.0-0.0","95871759","wem/bandit_either","A1ZN6V0PU8VVAH","either","7","","","","","","","0","0","1","","0.3422490236","0.8","0.2","0.6","0.4","0.2442555344","0.4609821192","0.3422490236","0.2978465223","","","","","","","","","","","75","K","2","","","94","main_expt"
"1090","","bandit","173","469329","0.0-134.0-0.0","95871759","wem/bandit_either","A1ZN6V0PU8VVAH","either","7","","","","","","","1","0","0","0.3160161054","","0.8","0.2","0.6","0.4","","","","","0.2638839348","0.4419374505","0.3160161054","0.2638723705","","","","","","","75","K","2","","","95","main_expt"
"51","","bandit","174","470910","0.0-135.0-0.0","95871759","wem/bandit_either","A1ZN6V0PU8VVAH","either","7","","","","","","","0","0","1","0.2945538732","","0.8","0.2","0.6","0.4","","","","","0.2265245807","0.39438674","0.2945538732","0.2276010735","","","","","","","75","K","2","","","96","main_expt"
"459","","bandit","175","472898","0.0-136.0-0.0","95871759","wem/bandit_either","A1ZN6V0PU8VVAH","either","7","","","","","","","0","1","0","","0.393563827","0.8","0.2","0.6","0.4","0.1969189177","0.3617668419","0.393563827","0.2045446072","","","","","","","","","","","75","K","2","","","97","main_expt"
"169","","bandit","176","474667","0.0-137.0-0.0","95871759","wem/bandit_either","A1ZN6V0PU8VVAH","either","7","","","","","","","0","0","1","","0.4046254927","0.8","0.2","0.6","0.4","0.1761144245","0.3737913853","0.4046254927","0.2436418828","","","","","","","","","","","75","K","2","","","98","main_expt"
"49","","bandit","177","476249","0.0-138.0-0.0","95871759","wem/bandit_either","A1ZN6V0PU8VVAH","either","7","","","","","","","1","0","0","0.3659012549","","0.8","0.2","0.6","0.4","","","","","0.1211630765","0.4221129479","0.3659012549","0.2473144087","","","","","","","75","K","2","","","99","main_expt"
"167","","bandit","178","477951","0.0-139.0-0.0","95871759","wem/bandit_either","A1ZN6V0PU8VVAH","either","7","","","","","","","0","0","1","0.400368336","","0.8","0.2","0.6","0.4","","","","","0.1257326749","0.3857893684","0.400368336","0.2707360286","","","","","","","75","K","2","","","100","main_expt"
"389","","bandit","179","479875","0.0-140.0-0.0","95871759","wem/bandit_either","A1ZN6V0PU8VVAH","either","7","","","","","","","1","0","0","0.4367931528","","0.8","0.2","0.6","0.4","","","","","0.09975532208","0.3635527264","0.4367931528","0.3250409822","","","","","","","75","K","2","","","101","main_expt"
"481","","bandit","180","481910","0.0-141.0-0.0","95871759","wem/bandit_either","A1ZN6V0PU8VVAH","either","7","","","","","","","0","0","1","","0.4371155326","0.8","0.2","0.6","0.4","0.1127414424","0.3738375489","0.4371155326","0.3088580598","","","","","","","","","","","75","K","2","","","102","main_expt"
"256","","bandit","181","483686","0.0-142.0-0.0","95871759","wem/bandit_either","A1ZN6V0PU8VVAH","either","7","","","","","","","0","0","1","0.388648264","","0.8","0.2","0.6","0.4","","","","","0.1232600734","0.3860163181","0.388648264","0.2901001995","","","","","","","75","K","2","","","103","main_expt"
"182","","bandit","182","485421","0.0-143.0-0.0","95871759","wem/bandit_either","A1ZN6V0PU8VVAH","either","7","","","","","","","1","0","0","0.3718469433","","0.8","0.2","0.6","0.4","","","","","0.08156843846","0.390692362","0.3718469433","0.309645936","","","","","","","75","K","2","","","104","main_expt"
"20","","bandit","183","486957","0.0-144.0-0.0","95871759","wem/bandit_either","A1ZN6V0PU8VVAH","either","7","","","","","","","1","0","0","0.3920304628","","0.8","0.2","0.6","0.4","","","","","0.08245659199","0.4139082553","0.3920304628","0.3386062745","","","","","","","75","K","2","","","105","main_expt"
"250","","bandit","184","488797","0.0-145.0-0.0","95871759","wem/bandit_either","A1ZN6V0PU8VVAH","either","7","","","","","","","0","0","1","0.3733497125","","0.8","0.2","0.6","0.4","","","","","0.1276639339","0.3295275825","0.3733497125","0.3827539061","","","","","","","75","K","2","","","106","main_expt"
"51","","bandit","185","490371","0.0-146.0-0.0","95871759","wem/bandit_either","A1ZN6V0PU8VVAH","either","7","","","","","","","1","0","0","0.3878439861","","0.8","0.2","0.6","0.4","","","","","0.1812689745","0.3499712774","0.3878439861","0.3401355396","","","","","","","75","K","2","","","107","main_expt"
"229","","bandit","186","492139","0.0-147.0-0.0","95871759","wem/bandit_either","A1ZN6V0PU8VVAH","either","7","","","","","","","0","0","1","0.3529013302","","0.8","0.2","0.6","0.4","","","","","0.2187982558","0.2666891207","0.3529013302","0.3258039352","","","","","","","75","K","2","","","108","main_expt"
"283","","bandit","187","493956","0.0-148.0-0.0","95871759","wem/bandit_either","A1ZN6V0PU8VVAH","either","7","","","","","","","0","0","1","0.3457683734","","0.8","0.2","0.6","0.4","","","","","0.2201216928","0.2575067634","0.3457683734","0.374919859","","","","","","","75","K","2","","","109","main_expt"
"173","","bandit","188","495792","0.0-149.0-0.0","95871759","wem/bandit_either","A1ZN6V0PU8VVAH","either","7","","","","","","","0","0","1","","0.3316873257","0.8","0.2","0.6","0.4","0.1789817232","0.2664913793","0.3316873257","0.3656186065","","","","","","","","","","","75","K","2","","","110","main_expt"
"187","","bandit","189","497538","0.0-150.0-0.0","95871759","wem/bandit_either","A1ZN6V0PU8VVAH","either","7","","","","","","","1","0","0","0.3434945318","","0.8","0.2","0.6","0.4","","","","","0.2404947452","0.2233446911","0.3434945318","0.3649701027","","","","","","","75","K","2","","","111","main_expt"
"107","","bandit","190","499412","0.0-151.0-0.0","95871759","wem/bandit_either","A1ZN6V0PU8VVAH","either","7","","","","","","","0","0","1","0.2729480053","","0.8","0.2","0.6","0.4","","","","","0.2959558532","0.2170082082","0.2729480053","0.3371716456","","","","","","","75","K","2","","","112","main_expt"
"72","","bandit","191","501003","0.0-152.0-0.0","95871759","wem/bandit_either","A1ZN6V0PU8VVAH","either","7","","","","","","","0","0","1","","0.2579672073","0.8","0.2","0.6","0.4","0.2966985553","0.1912277411","0.2579672073","0.2587224119","","","","","","","","","","","75","K","2","","","113","main_expt"
"301","","bandit","192","502831","0.0-153.0-0.0","95871759","wem/bandit_either","A1ZN6V0PU8VVAH","either","7","","","","","","","0","0","1","0.24654084","","0.8","0.2","0.6","0.4","","","","","0.3289730608","0.1691995451","0.24654084","0.2384324947","","","","","","","75","K","2","","","114","main_expt"
"321","","bandit","193","504671","0.0-154.0-0.0","95871759","wem/bandit_either","A1ZN6V0PU8VVAH","either","7","","","","","","","0","0","1","","0.2705755989","0.8","0.2","0.6","0.4","0.2783705844","0.1263730162","0.246649757","0.2705755989","","","","","","","","","","","76","L","3","","","115","main_expt"
"150","","bandit","194","506506","0.0-155.0-0.0","95871759","wem/bandit_either","A1ZN6V0PU8VVAH","either","7","","","","","","","0","0","1","","0.2666822","0.8","0.2","0.6","0.4","0.2990421824","0.1130092975","0.2190482835","0.2666822","","","","","","","","","","","76","L","3","","","116","main_expt"
"134","","bandit","195","508159","0.0-156.0-0.0","95871759","wem/bandit_either","A1ZN6V0PU8VVAH","either","7","","","","","","","0","0","1","","0.1317362661","0.8","0.2","0.6","0.4","0.3214730448","0.1317362661","0.1860086181","0.2664749026","","","","","","","","","","","74","J","1","","","117","main_expt"
"280","","bandit","196","509968","0.0-157.0-0.0","95871759","wem/bandit_either","A1ZN6V0PU8VVAH","either","7","","","","","","","0","0","1","","0.08460291254","0.8","0.2","0.6","0.4","0.3996160597","0.08460291254","0.1765749983","0.285497096","","","","","","","","","","","74","J","1","","","118","main_expt"
"338","","bandit","197","511823","0.0-158.0-0.0","95871759","wem/bandit_either","A1ZN6V0PU8VVAH","either","7","","","","","","","0","0","1","0.4143362638","","0.8","0.2","0.6","0.4","","","","","0.4143362638","0.09168363065","0.1840588368","0.3004427434","","","","","","","72","H","0","img/none_selected.jpg","","119","main_expt"
"166","","bandit","198","513630","0.0-159.0-0.0","95871759","wem/bandit_either","A1ZN6V0PU8VVAH","either","7","","","","","","","0","0","1","0.372340151","","0.8","0.2","0.6","0.4","","","","","0.372340151","0.06729372802","0.1988357929","0.2419855731","","","","","","","72","H","0","img/none_selected.jpg","","120","main_expt"
"50","","bandit","199","515206","0.0-160.0-0.0","95871759","wem/bandit_either","A1ZN6V0PU8VVAH","either","7","","","","","","","0","0","1","","0.2315674","0.8","0.2","0.6","0.4","0.3910424524","0.08346408207","0.2315674","0.3054132847","","","","","","","","","","","75","K","2","","","121","main_expt"
"152","","bandit","200","517001","0.0-161.0-0.0","95871759","wem/bandit_either","A1ZN6V0PU8VVAH","either","7","","","","","","","0","1","0","","0.2041322171","0.8","0.2","0.6","0.4","0.3813410711","0.05632743158","0.2041322171","0.2473202095","","","","","","","","","","","75","K","2","","","122","main_expt"
"102","","bandit","201","518629","0.0-162.0-0.0","95871759","wem/bandit_either","A1ZN6V0PU8VVAH","either","7","","","","","","","0","0","1","0.1945268209","","0.8","0.2","0.6","0.4","","","","","0.4247291795","0.05516745574","0.1945268209","0.2909195989","","","","","","","75","K","2","","","123","main_expt"
"112","","bandit","202","520716","0.0-163.0-0.0","95871759","wem/bandit_either","A1ZN6V0PU8VVAH","either","7","","","","","","","0","0","1","0.2206749142","","0.8","0.2","0.6","0.4","","","","","0.4311179713","0.05528311039","0.2206749142","0.3493750294","","","","","","","75","K","2","","","124","main_expt"
"41","","bandit","203","522276","0.0-164.0-0.0","95871759","wem/bandit_either","A1ZN6V0PU8VVAH","either","7","","","","","","","1","0","0","0.212012295","","0.8","0.2","0.6","0.4","","","","","0.4085782939","0.07149807259","0.212012295","0.3883668019","","","","","","","75","K","2","","","125","main_expt"
"446","","bandit","204","524250","0.0-165.0-0.0","95871759","wem/bandit_either","A1ZN6V0PU8VVAH","either","7","","","","","","","0","0","1","0.1656684785","","0.8","0.2","0.6","0.4","","","","","0.4110861309","0.1137803622","0.1656684785","0.3888129637","","","","","","","75","K","2","","","126","main_expt"
"60","","bandit","205","525852","0.0-166.0-0.0","95871759","wem/bandit_either","A1ZN6V0PU8VVAH","either","7","","","","","","","0","0","1","","0.1685301808","0.8","0.2","0.6","0.4","0.4214671818","0.1003054442","0.1685301808","0.3659195129","","","","","","","","","","","75","K","2","","","127","main_expt"
"483","","bandit","206","527868","0.0-167.0-0.0","95871759","wem/bandit_either","A1ZN6V0PU8VVAH","either","7","","","","","","","0","1","0","","0.1703551811","0.8","0.2","0.6","0.4","0.36889317","0.1378169536","0.1703551811","0.3689954399","","","","","","","","","","","75","K","2","","","128","main_expt"
"306","","bandit","207","529708","0.0-168.0-0.0","95871759","wem/bandit_either","A1ZN6V0PU8VVAH","either","7","","","","","","","0","0","1","","0.1624753709","0.8","0.2","0.6","0.4","0.3840267129","0.1333081235","0.1624753709","0.3600340942","","","","","","","","","","","75","K","2","","","129","main_expt"
"108","","bandit","208","531345","0.0-169.0-0.0","95871759","wem/bandit_either","A1ZN6V0PU8VVAH","either","7","","","","","","","0","0","1","","0.2335662737","0.8","0.2","0.6","0.4","0.3809677701","0.1682212827","0.2335662737","0.3580797835","","","","","","","","","","","75","K","2","","","130","main_expt"
"140","","bandit","209","533004","0.0-170.0-0.0","95871759","wem/bandit_either","A1ZN6V0PU8VVAH","either","7","","","","","","","0","0","1","0.240441026","","0.8","0.2","0.6","0.4","","","","","0.3681933818","0.2193829955","0.240441026","0.3785893338","","","","","","","75","K","2","","","131","main_expt"
"91","","bandit","210","534674","0.0-171.0-0.0","95871759","wem/bandit_either","A1ZN6V0PU8VVAH","either","7","","","","","","","0","0","1","0.2266699971","","0.8","0.2","0.6","0.4","","","","","0.3664045944","0.2693349046","0.2266699971","0.3764735404","","","","","","","75","K","2","","","132","main_expt"
"74","","bandit","211","536266","0.0-172.0-0.0","95871759","wem/bandit_either","A1ZN6V0PU8VVAH","either","7","","","","","","","0","0","1","0.1994193025","","0.8","0.2","0.6","0.4","","","","","0.4046437197","0.2576546077","0.1994193025","0.3433534211","","","","","","","75","K","2","","","133","main_expt"
"155","","bandit","212","538087","0.0-173.0-0.0","95871759","wem/bandit_either","A1ZN6V0PU8VVAH","either","7","","","","","","","0","0","1","","0.1891464922","0.8","0.2","0.6","0.4","0.364490756","0.2412372273","0.1891464922","0.3606247271","","","","","","","","","","","75","K","2","","","134","main_expt"
"50","","bandit","213","539670","0.0-174.0-0.0","95871759","wem/bandit_either","A1ZN6V0PU8VVAH","either","7","","","","","","","0","0","1","","0.1614798668","0.8","0.2","0.6","0.4","0.311914316","0.2198641054","0.1614798668","0.3268624306","","","","","","","","","","","75","K","2","","","135","main_expt"
"104","","bandit","214","541309","0.0-175.0-0.0","95871759","wem/bandit_either","A1ZN6V0PU8VVAH","either","7","","","","","","","0","0","1","","0.1880386222","0.8","0.2","0.6","0.4","0.2653901568","0.2504132697","0.1880386222","0.2854606769","","","","","","","","","","","75","K","2","","","136","main_expt"
"411","","bandit","215","543240","0.0-176.0-0.0","95871759","wem/bandit_either","A1ZN6V0PU8VVAH","either","7","","","","","","","0","0","1","0.1961818793","","0.8","0.2","0.6","0.4","","","","","0.2413295316","0.1912230989","0.1961818793","0.3311747399","","","","","","","75","K","2","","","137","main_expt"
"122","","bandit","216","545057","0.0-177.0-0.0","95871759","wem/bandit_either","A1ZN6V0PU8VVAH","either","7","","","","","","","0","0","1","","0.2857678963","0.8","0.2","0.6","0.4","0.2060295423","0.1576256809","0.2857678963","0.2570785188","","","","","","","","","","","75","K","2","","","138","main_expt"
"63","","bandit","217","546639","0.0-178.0-0.0","95871759","wem/bandit_either","A1ZN6V0PU8VVAH","either","7","","","","","","","1","0","0","0.3449131854","","0.8","0.2","0.6","0.4","","","","","0.1809645164","0.1019788138","0.3449131854","0.2858060749","","","","","","","75","K","2","","","139","main_expt"
"47","","bandit","218","548219","0.0-179.0-0.0","95871759","wem/bandit_either","A1ZN6V0PU8VVAH","either","7","","","","","","","1","0","0","0.2537716732","","0.8","0.2","0.6","0.4","","","","","0.1843216893","0.07754087054","0.2537716732","0.2975559752","","","","","","","75","K","2","","","140","main_expt"
"450","","bandit","219","550187","0.0-180.0-0.0","95871759","wem/bandit_either","A1ZN6V0PU8VVAH","either","7","","","","","","","0","0","1","0.2858111263","","0.8","0.2","0.6","0.4","","","","","0.1651876155","0.09489610577","0.2858111263","0.2802168405","","","","","","","75","K","2","","","141","main_expt"
"639","","bandit","220","552439","0.0-181.0-0.0","95871759","wem/bandit_either","A1ZN6V0PU8VVAH","either","7","","","","","","","0","0","1","0.303049367","","0.8","0.2","0.6","0.4","","","","","0.1536427928","0.09601428546","0.303049367","0.2231986748","","","","","","","75","K","2","","","142","main_expt"
"182","","bandit","221","554140","0.0-182.0-0.0","95871759","wem/bandit_either","A1ZN6V0PU8VVAH","either","7","","","","","","","1","0","0","0.2969419413","","0.8","0.2","0.6","0.4","","","","","0.1546140226","0.08301142993","0.2969419413","0.2032880393","","","","","","","75","K","2","","","143","main_expt"
"235","","bandit","222","556136","0.0-183.0-0.0","95871759","wem/bandit_either","A1ZN6V0PU8VVAH","either","7","","","","","","","0","0","1","","0.3128690494","0.8","0.2","0.6","0.4","0.1746031107","0.09599686985","0.3128690494","0.1967741464","","","","","","","","","","","75","K","2","","","144","main_expt"
"120","","bandit","223","557789","0.0-184.0-0.0","95871759","wem/bandit_either","A1ZN6V0PU8VVAH","either","7","","","","","","","0","1","0","","0.2991796355","0.8","0.2","0.6","0.4","0.2021387556","0.07499383622","0.2991796355","0.2283154954","","","","","","","","","","","75","K","2","","","145","main_expt"
"205","","bandit","224","559532","0.0-185.0-0.0","95871759","wem/bandit_either","A1ZN6V0PU8VVAH","either","7","","","","","","","0","0","1","0.3163763193","","0.8","0.2","0.6","0.4","","","","","0.2504344391","0.09566861","0.3163763193","0.2118700154","","","","","","","75","K","2","","","146","main_expt"
"74","","bandit","225","561136","0.0-186.0-0.0","95871759","wem/bandit_either","A1ZN6V0PU8VVAH","either","7","","","","","","","0","0","1","","0.3198025905","0.8","0.2","0.6","0.4","0.2437718569","0.08578591382","0.3198025905","0.210437557","","","","","","","","","","","75","K","2","","","147","main_expt"
"294","","bandit","226","563069","0.0-187.0-0.0","95871759","wem/bandit_either","A1ZN6V0PU8VVAH","either","7","","","","","","","0","0","1","0.2588245921","","0.8","0.2","0.6","0.4","","","","","0.2446677265","0.1147887709","0.2588245921","0.2370661354","","","","","","","75","K","2","","","148","main_expt"
"125","","bandit","227","564728","0.0-188.0-0.0","95871759","wem/bandit_either","A1ZN6V0PU8VVAH","either","7","","","","","","","0","0","1","","0.248712437","0.8","0.2","0.6","0.4","0.2911002833","0.1378203382","0.248712437","0.2430363771","","","","","","","","","","","75","K","2","","","149","main_expt"
"291","","bandit","228","566551","0.0-189.0-0.0","95871759","wem/bandit_either","A1ZN6V0PU8VVAH","either","7","","","","","","","0","0","1","0.2242182381","","0.8","0.2","0.6","0.4","","","","","0.3529655025","0.1414499273","0.179144869","0.2242182381","","","","","","","76","L","3","","","150","main_expt"
"52","","bandit","229","568133","0.0-190.0-0.0","95871759","wem/bandit_either","A1ZN6V0PU8VVAH","either","7","","","","","","","0","0","1","","0.1997145133","0.8","0.2","0.6","0.4","0.3885741111","0.07852348772","0.1545669956","0.1997145133","","","","","","","","","","","76","L","3","","","151","main_expt"
"177","","bandit","230","570055","0.0-191.0-0.0","95871759","wem/bandit_either","A1ZN6V0PU8VVAH","either","7","","","","","","","0","0","1","","0.2195927633","0.8","0.2","0.6","0.4","0.3690499696","0.08485793113","0.1651714415","0.2195927633","","","","","","","","","","","76","L","3","","","152","main_expt"
"144","","bandit","231","571735","0.0-192.0-0.0","95871759","wem/bandit_either","A1ZN6V0PU8VVAH","either","7","","","","","","","0","0","1","0.1083789561","","0.8","0.2","0.6","0.4","","","","","0.3710492515","0.1083789561","0.2396245514","0.2121816628","","","","","","","74","J","1","","","153","main_expt"
"147","","bandit","232","573419","0.0-193.0-0.0","95871759","wem/bandit_either","A1ZN6V0PU8VVAH","either","7","","","","","","","0","1","0","","0.109098481","0.8","0.2","0.6","0.4","0.3483335413","0.109098481","0.2085838567","0.1830588608","","","","","","","","","","","74","J","1","","","154","main_expt"
"287","","bandit","233","575241","0.0-194.0-0.0","95871759","wem/bandit_either","A1ZN6V0PU8VVAH","either","7","","","","","","","0","0","1","","0.1758262092","0.8","0.2","0.6","0.4","0.3343760247","0.1758262092","0.1864274254","0.2031423662","","","","","","","","","","","74","J","1","","","155","main_expt"
"138","","bandit","234","576954","0.0-195.0-0.0","95871759","wem/bandit_either","A1ZN6V0PU8VVAH","either","7","","","","","","","0","0","1","","0.2046597001","0.8","0.2","0.6","0.4","0.3742013553","0.2046597001","0.1750870897","0.2022731065","","","","","","","","","","","74","J","1","","","156","main_expt"
"95","","bandit","235","578583","0.0-196.0-0.0","95871759","wem/bandit_either","A1ZN6V0PU8VVAH","either","7","","","","","","","1","0","0","0.1774751899","","0.8","0.2","0.6","0.4","","","","","0.3620366094","0.1774751899","0.1321985386","0.1826661219","","","","","","","74","J","1","","","157","main_expt"
"206","","bandit","236","580330","0.0-197.0-0.0","95871759","wem/bandit_either","A1ZN6V0PU8VVAH","either","7","","","","","","","0","0","1","0.1612033886","","0.8","0.2","0.6","0.4","","","","","0.3671714071","0.1612033886","0.1341899746","0.1658993888","","","","","","","74","J","1","","","158","main_expt"
"12","","bandit","237","581864","0.0-198.0-0.0","95871759","wem/bandit_either","A1ZN6V0PU8VVAH","either","7","","","","","","","0","0","1","","0.1586838935","0.8","0.2","0.6","0.4","0.4015988616","0.1586838935","0.1567784951","0.1620079643","","","","","","","","","","","74","J","1","","","159","main_expt"
"89","","bandit","238","583488","0.0-199.0-0.0","95871759","wem/bandit_either","A1ZN6V0PU8VVAH","either","7","","","","","","","0","0","1","0.2159944071","","0.8","0.2","0.6","0.4","","","","","0.4004877553","0.2159944071","0.1615549635","0.2453635642","","","","","","","74","J","1","","","160","main_expt"
"294","","bandit","239","585318","0.0-200.0-0.0","95871759","wem/bandit_either","A1ZN6V0PU8VVAH","either","7","","","","","","","0","0","1","","0.2105769377","0.8","0.2","0.6","0.4","0.4095849454","0.2105769377","0.1854631015","0.2456373749","","","","","","","","","","","74","J","1","","","161","main_expt"
"404","","bandit","240","587284","0.0-201.0-0.0","95871759","wem/bandit_either","A1ZN6V0PU8VVAH","either","7","","","","","","","0","0","1","","0.2006925765","0.8","0.2","0.6","0.4","0.3978002783","0.2006925765","0.21229469","0.2460125232","","","","","","","","","","","74","J","1","","","162","main_expt"
"155","","bandit","241","588965","0.0-202.0-0.0","95871759","wem/bandit_either","A1ZN6V0PU8VVAH","either","7","","","","","","","0","0","1","","0.2365124807","0.8","0.2","0.6","0.4","0.4180552148","0.2365124807","0.162194177","0.2013568893","","","","","","","","","","","74","J","1","","","163","main_expt"
"507","","bandit","242","591003","0.0-203.0-0.0","95871759","wem/bandit_either","A1ZN6V0PU8VVAH","either","7","","","","","","","0","0","1","","0.2157370886","0.8","0.2","0.6","0.4","0.4407560021","0.2157370886","0.1535707797","0.1933595846","","","","","","","","","","","74","J","1","","","164","main_expt"
"180","","bandit","243","592713","0.0-204.0-0.0","95871759","wem/bandit_either","A1ZN6V0PU8VVAH","either","7","","","","","","","0","0","1","","0.2166787898","0.8","0.2","0.6","0.4","0.4582960521","0.2166787898","0.2315934193","0.167552211","","","","","","","","","","","74","J","1","","","165","main_expt"
"205","","bandit","244","594442","0.0-205.0-0.0","95871759","wem/bandit_either","A1ZN6V0PU8VVAH","either","7","","","","","","","0","0","1","","0.1846262972","0.8","0.2","0.6","0.4","0.4337500892","0.1846262972","0.2579087381","0.1311237951","","","","","","","","","","","74","J","1","","","166","main_expt"
"208","","bandit","245","596188","0.0-206.0-0.0","95871759","wem/bandit_either","A1ZN6V0PU8VVAH","either","7","","","","","","","1","0","0","0.4537582576","","0.8","0.2","0.6","0.4","","","","","0.4537582576","0.1888750078","0.2496457694","0.1714029316","","","","","","","72","H","0","img/none_selected.jpg","","167","main_expt"
"102","","bandit","246","597829","0.0-207.0-0.0","95871759","wem/bandit_either","A1ZN6V0PU8VVAH","either","7","","","","","","","0","0","1","0.4473485534","","0.8","0.2","0.6","0.4","","","","","0.4473485534","0.2315683769","0.234558796","0.1494402723","","","","","","","72","H","0","img/none_selected.jpg","","168","main_expt"
"52","","bandit","247","599419","0.0-208.0-0.0","95871759","wem/bandit_either","A1ZN6V0PU8VVAH","either","7","","","","","","","1","0","0","0.4471591033","","0.8","0.2","0.6","0.4","","","","","0.4471591033","0.2018123945","0.2458600006","0.1819888556","","","","","","","72","H","0","img/none_selected.jpg","","169","main_expt"
"201","","bandit","248","601152","0.0-209.0-0.0","95871759","wem/bandit_either","A1ZN6V0PU8VVAH","either","7","","","","","","","0","0","1","0.4581839475","","0.8","0.2","0.6","0.4","","","","","0.4581839475","0.139238222","0.2214583157","0.2329206984","","","","","","","72","H","0","img/none_selected.jpg","","170","main_expt"
"65","","bandit","249","602740","0.0-210.0-0.0","95871759","wem/bandit_either","A1ZN6V0PU8VVAH","either","7","","","","","","","1","0","0","0.4674995421","","0.8","0.2","0.6","0.4","","","","","0.4674995421","0.1466511374","0.296208115","0.2000607923","","","","","","","72","H","0","img/none_selected.jpg","","171","main_expt"
"68","","bandit","250","604702","0.0-211.0-0.0","95871759","wem/bandit_either","A1ZN6V0PU8VVAH","either","7","","","","","","","1","0","0","0.4455620345","","0.8","0.2","0.6","0.4","","","","","0.4455620345","0.1348290388","0.3062379281","0.2342957318","","","","","","","72","H","0","img/none_selected.jpg","","172","main_expt"
"78","","bandit","251","606299","0.0-212.0-0.0","95871759","wem/bandit_either","A1ZN6V0PU8VVAH","either","7","","","","","","","1","0","0","0.4471610379","","0.8","0.2","0.6","0.4","","","","","0.4471610379","0.1521691919","0.2498067723","0.2189308077","","","","","","","72","H","0","img/none_selected.jpg","","173","main_expt"
"245","","bandit","252","608108","0.0-213.0-0.0","95871759","wem/bandit_either","A1ZN6V0PU8VVAH","either","7","","","","","","","0","0","1","0.4496576915","","0.8","0.2","0.6","0.4","","","","","0.4496576915","0.2191935525","0.1803522277","0.2373932689","","","","","","","72","H","0","img/none_selected.jpg","","174","main_expt"
"122","","bandit","253","609748","0.0-214.0-0.0","95871759","wem/bandit_either","A1ZN6V0PU8VVAH","either","7","","","","","","","1","0","0","0.4715297358","","0.8","0.2","0.6","0.4","","","","","0.4715297358","0.219961305","0.2014319342","0.2160264752","","","","","","","72","H","0","img/none_selected.jpg","","175","main_expt"
"241","","bandit","254","611732","0.0-215.0-0.0","95871759","wem/bandit_either","A1ZN6V0PU8VVAH","either","7","","","","","","","0","0","1","0.477956151","","0.8","0.2","0.6","0.4","","","","","0.477956151","0.1882485239","0.2122003168","0.1990604306","","","","","","","72","H","0","img/none_selected.jpg","","176","main_expt"
"40","","bandit","255","613298","0.0-216.0-0.0","95871759","wem/bandit_either","A1ZN6V0PU8VVAH","either","7","","","","","","","0","0","1","0.4563721206","","0.8","0.2","0.6","0.4","","","","","0.4563721206","0.1644902553","0.2629069455","0.1729978196","","","","","","","72","H","0","img/none_selected.jpg","","177","main_expt"
"212","","bandit","256","615140","0.0-217.0-0.0","95871759","wem/bandit_either","A1ZN6V0PU8VVAH","either","7","","","","","","","0","0","1","0.4409869931","","0.8","0.2","0.6","0.4","","","","","0.4409869931","0.1713669852","0.2336104206","0.1633080779","","","","","","","72","H","0","img/none_selected.jpg","","178","main_expt"
"29","","bandit","257","616684","0.0-218.0-0.0","95871759","wem/bandit_either","A1ZN6V0PU8VVAH","either","7","","","","","","","1","0","0","0.4243126063","","0.8","0.2","0.6","0.4","","","","","0.4243126063","0.2263400462","0.1887504226","0.1243251356","","","","","","","72","H","0","img/none_selected.jpg","","179","main_expt"
"94","","bandit","258","618313","0.0-219.0-0.0","95871759","wem/bandit_either","A1ZN6V0PU8VVAH","either","7","","","","","","","0","0","1","0.4312830743","","0.8","0.2","0.6","0.4","","","","","0.4312830743","0.2036870175","0.138376641","0.1150149055","","","","","","","72","H","0","img/none_selected.jpg","","180","main_expt"
"810","","bandit","259","620652","0.0-220.0-0.0","95871759","wem/bandit_either","A1ZN6V0PU8VVAH","either","7","","","","","","","1","0","0","0.4433127893","","0.8","0.2","0.6","0.4","","","","","0.4433127893","0.1934599198","0.1883992559","0.1407924877","","","","","","","72","H","0","img/none_selected.jpg","","181","main_expt"
"186","","bandit","260","622371","0.0-221.0-0.0","95871759","wem/bandit_either","A1ZN6V0PU8VVAH","either","7","","","","","","","1","0","0","0.440136403","","0.8","0.2","0.6","0.4","","","","","0.440136403","0.2424515525","0.128889003","0.09672650852","","","","","","","72","H","0","img/none_selected.jpg","","182","main_expt"
"287","","bandit","261","624204","0.0-222.0-0.0","95871759","wem/bandit_either","A1ZN6V0PU8VVAH","either","7","","","","","","","1","0","0","0.4347693449","","0.8","0.2","0.6","0.4","","","","","0.4347693449","0.1961777535","0.1748769843","0.09888002855","","","","","","","72","H","0","img/none_selected.jpg","","183","main_expt"
"153","","bandit","262","626076","0.0-223.0-0.0","95871759","wem/bandit_either","A1ZN6V0PU8VVAH","either","7","","","","","","","1","0","0","0.4277130926","","0.8","0.2","0.6","0.4","","","","","0.4277130926","0.1489283113","0.1945994373","0.07200145298","","","","","","","72","H","0","img/none_selected.jpg","","184","main_expt"
"244","","bandit","263","627861","0.0-224.0-0.0","95871759","wem/bandit_either","A1ZN6V0PU8VVAH","either","7","","","","","","","0","0","1","0.3956248437","","0.8","0.2","0.6","0.4","","","","","0.3956248437","0.1499965078","0.1644748654","0.09476413333","","","","","","","72","H","0","img/none_selected.jpg","","185","main_expt"
"169","","bandit","264","629565","0.0-225.0-0.0","95871759","wem/bandit_either","A1ZN6V0PU8VVAH","either","7","","","","","","","0","0","1","0.3748928266","","0.8","0.2","0.6","0.4","","","","","0.3748928266","0.2169832988","0.1504635592","0.06556422103","","","","","","","72","H","0","img/none_selected.jpg","","186","main_expt"
"126","","bandit","265","631229","0.0-226.0-0.0","95871759","wem/bandit_either","A1ZN6V0PU8VVAH","either","7","","","","","","","0","1","0","","0.3848139325","0.8","0.2","0.6","0.4","0.3848139325","0.2655186329","0.1760039214","0.08901149072","","","","","","","","","","","72","H","0","img/none_selected.jpg","","187","main_expt"
"141","","bandit","266","632907","0.0-227.0-0.0","95871759","wem/bandit_either","A1ZN6V0PU8VVAH","either","7","","","","","","","0","1","0","","0.3990176401","0.8","0.2","0.6","0.4","0.3990176401","0.2738785118","0.1203267588","0.09471428588","","","","","","","","","","","72","H","0","img/none_selected.jpg","","188","main_expt"
"245","","bandit","267","634686","0.0-228.0-0.0","95871759","wem/bandit_either","A1ZN6V0PU8VVAH","either","7","","","","","","","0","0","1","","0.3581396838","0.8","0.2","0.6","0.4","0.3581396838","0.3041874674","0.1171540391","0.05118235823","","","","","","","","","","","72","H","0","img/none_selected.jpg","","189","main_expt"
"119","","bandit","268","636331","0.0-229.0-0.0","95871759","wem/bandit_either","A1ZN6V0PU8VVAH","either","7","","","","","","","1","0","0","0.2882972244","","0.8","0.2","0.6","0.4","","","","","0.2882972244","0.3229453735","0.1535230761","0.05788318751","","","","","","","72","H","0","img/none_selected.jpg","","190","main_expt"
"168","","bandit","269","638028","0.0-230.0-0.0","95871759","wem/bandit_either","A1ZN6V0PU8VVAH","either","7","","","","","","","0","0","1","","0.3145326233","0.8","0.2","0.6","0.4","0.3145326233","0.3818249757","0.1372750947","0.08736915481","","","","","","","","","","","72","H","0","img/none_selected.jpg","","191","main_expt"
"132","","bandit","270","639695","0.0-231.0-0.0","95871759","wem/bandit_either","A1ZN6V0PU8VVAH","either","7","","","","","","","0","1","0","","0.3270603702","0.8","0.2","0.6","0.4","0.3270603702","0.4157726243","0.1047771501","0.08251019118","","","","","","","","","","","72","H","0","img/none_selected.jpg","","192","main_expt"
"274","","bandit","271","641502","0.0-232.0-0.0","95871759","wem/bandit_either","A1ZN6V0PU8VVAH","either","7","","","","","","","0","0","1","","0.3604030797","0.8","0.2","0.6","0.4","0.3604030797","0.4611608212","0.1100845432","0.06897628064","","","","","","","","","","","72","H","0","img/none_selected.jpg","","193","main_expt"
"250","","bandit","272","643329","0.0-233.0-0.0","95871759","wem/bandit_either","A1ZN6V0PU8VVAH","either","7","","","","","","","0","0","1","0.357423186","","0.8","0.2","0.6","0.4","","","","","0.357423186","0.4508818777","0.1468163818","0.06801266305","","","","","","","72","H","0","img/none_selected.jpg","","194","main_expt"
"202","","bandit","273","645072","0.0-234.0-0.0","95871759","wem/bandit_either","A1ZN6V0PU8VVAH","either","7","","","","","","","1","0","0","0.3697779856","","0.8","0.2","0.6","0.4","","","","","0.3697779856","0.4278921451","0.1495594621","0.09923709358","","","","","","","72","H","0","img/none_selected.jpg","","195","main_expt"
"338","","bandit","274","646944","0.0-235.0-0.0","95871759","wem/bandit_either","A1ZN6V0PU8VVAH","either","7","","","","","","","0","0","1","0.3617177512","","0.8","0.2","0.6","0.4","","","","","0.3617177512","0.4256293003","0.2263220537","0.1103063831","","","","","","","72","H","0","img/none_selected.jpg","","196","main_expt"
"141","","bandit","275","648622","0.0-236.0-0.0","95871759","wem/bandit_either","A1ZN6V0PU8VVAH","either","7","","","","","","","0","0","1","0.3775990084","","0.8","0.2","0.6","0.4","","","","","0.3775990084","0.4476975038","0.2204718804","0.07377144043","","","","","","","72","H","0","img/none_selected.jpg","","197","main_expt"
"112","","bandit","276","650291","0.0-237.0-0.0","95871759","wem/bandit_either","A1ZN6V0PU8VVAH","either","7","","","","","","","1","0","0","0.4144042571","","0.8","0.2","0.6","0.4","","","","","0.4144042571","0.4434357272","0.2401118457","0.08863448313","","","","","","","72","H","0","img/none_selected.jpg","","198","main_expt"
"232","","bandit","277","652139","0.0-238.0-0.0","95871759","wem/bandit_either","A1ZN6V0PU8VVAH","either","7","","","","","","","0","0","1","","0.4081775392","0.8","0.2","0.6","0.4","0.4081775392","0.4245114622","0.2673724497","0.1082179128","","","","","","","","","","","72","H","0","img/none_selected.jpg","","199","main_expt"
"156","","bandit","278","653815","0.0-239.0-0.0","95871759","wem/bandit_either","A1ZN6V0PU8VVAH","either","7","","","","","","","0","0","1","0.4166156547","","0.8","0.2","0.6","0.4","","","","","0.4166156547","0.4087100315","0.3125307902","0.09350688576","","","","","","","72","H","0","img/none_selected.jpg","","200","main_expt"
"266","","bandit","279","655615","0.0-240.0-0.0","95871759","wem/bandit_either","A1ZN6V0PU8VVAH","either","7","","","","","","","0","0","1","0.4306537176","","0.8","0.2","0.6","0.4","","","","","0.4306537176","0.4361521275","0.2914574258","0.1036625099","","","","","","","72","H","0","img/none_selected.jpg","","201","main_expt"
"144","","bandit","280","657294","0.0-241.0-0.0","95871759","wem/bandit_either","A1ZN6V0PU8VVAH","either","7","","","","","","","1","0","0","0.449382563","","0.8","0.2","0.6","0.4","","","","","0.449382563","0.3332596158","0.2550600684","0.1216733889","","","","","","","72","H","0","img/none_selected.jpg","","202","main_expt"
"276","","bandit","281","659201","0.0-242.0-0.0","95871759","wem/bandit_either","A1ZN6V0PU8VVAH","either","7","","","","","","","0","0","1","0.4506576586","","0.8","0.2","0.6","0.4","","","","","0.4506576586","0.3581848779","0.2769745997","0.120655788","","","","","","","72","H","0","img/none_selected.jpg","","203","main_expt"
"15","","bandit","282","660748","0.0-243.0-0.0","95871759","wem/bandit_either","A1ZN6V0PU8VVAH","either","7","","","","","","","1","0","0","0.454839243","","0.8","0.2","0.6","0.4","","","","","0.454839243","0.3597133043","0.2752990059","0.1082970726","","","","","","","72","H","0","img/none_selected.jpg","","204","main_expt"
"168","","bandit","283","662447","0.0-244.0-0.0","95871759","wem/bandit_either","A1ZN6V0PU8VVAH","either","7","","","","","","","1","0","0","0.4512889682","","0.8","0.2","0.6","0.4","","","","","0.4512889682","0.3630183988","0.2901512169","0.09143681274","","","","","","","72","H","0","img/none_selected.jpg","","205","main_expt"
"194","","bandit","284","664454","0.0-245.0-0.0","95871759","wem/bandit_either","A1ZN6V0PU8VVAH","either","7","","","","","","","0","0","1","0.4591490044","","0.8","0.2","0.6","0.4","","","","","0.4591490044","0.3737494834","0.2823763913","0.08377413986","","","","","","","72","H","0","img/none_selected.jpg","","206","main_expt"
"761","","bandit","285","666867","0.0-246.0-0.0","95871759","wem/bandit_either","A1ZN6V0PU8VVAH","either","7","","","","","","","0","1","0","","0.4650593633","0.8","0.2","0.6","0.4","0.4650593633","0.3668784438","0.2708062506","0.1585073664","","","","","","","","","","","72","H","0","img/none_selected.jpg","","207","main_expt"
"236","","bandit","286","668625","0.0-247.0-0.0","95871759","wem/bandit_either","A1ZN6V0PU8VVAH","either","7","","","","","","","0","0","1","0.4641513068","","0.8","0.2","0.6","0.4","","","","","0.4641513068","0.4045351895","0.2641553663","0.162299901","","","","","","","72","H","0","img/none_selected.jpg","","208","main_expt"
"207","","bandit","287","670368","0.0-248.0-0.0","95871759","wem/bandit_either","A1ZN6V0PU8VVAH","either","7","","","","","","","0","0","1","","0.4567807332","0.8","0.2","0.6","0.4","0.4567807332","0.4402386934","0.2704675845","0.1542266077","","","","","","","","","","","72","H","0","img/none_selected.jpg","","209","main_expt"
"269","","bandit","288","672181","0.0-249.0-0.0","95871759","wem/bandit_either","A1ZN6V0PU8VVAH","either","7","","","","","","","0","0","1","","0.428253188","0.8","0.2","0.6","0.4","0.428253188","0.4483623408","0.3420868926","0.1890415559","","","","","","","","","","","72","H","0","img/none_selected.jpg","","210","main_expt"
"129","","bandit","289","673856","0.0-250.0-0.0","95871759","wem/bandit_either","A1ZN6V0PU8VVAH","either","7","","","","","","","0","0","1","0.410271385","","0.8","0.2","0.6","0.4","","","","","0.410271385","0.4471415093","0.3069688952","0.1818133019","","","","","","","72","H","0","img/none_selected.jpg","","211","main_expt"
"104","","bandit","290","675482","0.0-251.0-0.0","95871759","wem/bandit_either","A1ZN6V0PU8VVAH","either","7","","","","","","","0","0","1","0.4065587724","","0.8","0.2","0.6","0.4","","","","","0.4065587724","0.4374655127","0.3005379093","0.1782747956","","","","","","","72","H","0","img/none_selected.jpg","","212","main_expt"
"108","","bandit","291","677166","0.0-252.0-0.0","95871759","wem/bandit_either","A1ZN6V0PU8VVAH","either","7","","","","","","","0","1","0","","0.4007116542","0.8","0.2","0.6","0.4","0.4007116542","0.4381457257","0.213882915","0.1935195711","","","","","","","","","","","72","H","0","img/none_selected.jpg","","213","main_expt"
"158","","bandit","292","678857","0.0-253.0-0.0","95871759","wem/bandit_either","A1ZN6V0PU8VVAH","either","7","","","","","","","0","0","1","0.4246209323","","0.8","0.2","0.6","0.4","","","","","0.4246209323","0.4643769008","0.2138557204","0.2421176173","","","","","","","72","H","0","img/none_selected.jpg","","214","main_expt"
"201","","bandit","293","680588","0.0-254.0-0.0","95871759","wem/bandit_either","A1ZN6V0PU8VVAH","either","7","","","","","","","0","0","1","0.3993057066","","0.8","0.2","0.6","0.4","","","","","0.3993057066","0.4328812357","0.2142566612","0.2629876012","","","","","","","72","H","0","img/none_selected.jpg","","215","main_expt"
"335","","bandit","294","682468","0.0-255.0-0.0","95871759","wem/bandit_either","A1ZN6V0PU8VVAH","either","7","","","","","","","0","0","1","0.3987772474","","0.8","0.2","0.6","0.4","","","","","0.3987772474","0.4064507999","0.1900351118","0.2977714141","","","","","","","72","H","0","img/none_selected.jpg","","216","main_expt"
"303","","bandit","295","684331","0.0-256.0-0.0","95871759","wem/bandit_either","A1ZN6V0PU8VVAH","either","7","","","","","","","0","0","1","0.4101433534","","0.8","0.2","0.6","0.4","","","","","0.4101433534","0.4197961641","0.2185169477","0.3017601552","","","","","","","72","H","0","img/none_selected.jpg","","217","main_expt"
"387","","bandit","296","686244","0.0-257.0-0.0","95871759","wem/bandit_either","A1ZN6V0PU8VVAH","either","7","","","","","","","1","0","0","0.4167397569","","0.8","0.2","0.6","0.4","","","","","0.4448029092","0.4167397569","0.2240895604","0.2888566207","","","","","","","74","J","1","","","218","main_expt"
"37","","bandit","297","687858","0.0-258.0-0.0","95871759","wem/bandit_either","A1ZN6V0PU8VVAH","either","7","","","","","","","0","1","0","","0.4250944588","0.8","0.2","0.6","0.4","0.4454766299","0.4250944588","0.1990808675","0.2844008008","","","","","","","","","","","74","J","1","","","219","main_expt"
"231","","bandit","298","689612","0.0-259.0-0.0","95871759","wem/bandit_either","A1ZN6V0PU8VVAH","either","7","","","","","","","0","0","1","","0.4173336587","0.8","0.2","0.6","0.4","0.4610997771","0.4173336587","0.266602996","0.2225062479","","","","","","","","","","","74","J","1","","","220","main_expt"
"104","","bandit","299","691250","0.0-260.0-0.0","95871759","wem/bandit_either","A1ZN6V0PU8VVAH","either","7","","","","","","","0","0","1","","0.3944711005","0.8","0.2","0.6","0.4","0.4642289789","0.3944711005","0.2443661227","0.2409900116","","","","","","","","","","","74","J","1","","","221","main_expt"
"173","","bandit","300","692951","0.0-261.0-0.0","95871759","wem/bandit_either","A1ZN6V0PU8VVAH","either","7","","","","","","","0","1","0","","0.3619306912","0.8","0.2","0.6","0.4","0.4641270597","0.3619306912","0.2205922116","0.1989678636","","","","","","","","","","","74","J","1","","","222","main_expt"
"214","","bandit","301","694829","0.0-262.0-0.0","95871759","wem/bandit_either","A1ZN6V0PU8VVAH","either","7","","","","","","","1","0","0","0.4117842179","","0.8","0.2","0.6","0.4","","","","","0.4697433819","0.4117842179","0.1861223506","0.1902867071","","","","","","","74","J","1","","","223","main_expt"
"46","","bandit","302","696398","0.0-263.0-0.0","95871759","wem/bandit_either","A1ZN6V0PU8VVAH","either","7","","","","","","","0","1","0","","0.3965092367","0.8","0.2","0.6","0.4","0.460898083","0.3965092367","0.1668884863","0.2076415522","","","","","","","","","","","74","J","1","","","224","main_expt"
"224","","bandit","303","698263","0.0-264.0-0.0","95871759","wem/bandit_either","A1ZN6V0PU8VVAH","either","7","","","","","","","0","1","0","","0.4084477862","0.8","0.2","0.6","0.4","0.4394890665","0.4084477862","0.1481472712","0.2393469174","","","","","","","","","","","74","J","1","","","225","main_expt"
"50","","bandit","304","699842","0.0-265.0-0.0","95871759","wem/bandit_either","A1ZN6V0PU8VVAH","either","7","","","","","","","0","0","1","","0.4104601526","0.8","0.2","0.6","0.4","0.4520955237","0.4104601526","0.1140846591","0.2425440376","","","","","","","","","","","74","J","1","","","226","main_expt"
"241","","bandit","305","701628","0.0-266.0-0.0","95871759","wem/bandit_either","A1ZN6V0PU8VVAH","either","7","","","","","","","0","1","0","","0.3899733519","0.8","0.2","0.6","0.4","0.4324220164","0.3899733519","0.1074218354","0.2365603363","","","","","","","","","","","74","J","1","","","227","main_expt"
"325","","bandit","306","703495","0.0-267.0-0.0","95871759","wem/bandit_either","A1ZN6V0PU8VVAH","either","7","","","","","","","0","0","1","0.3796730737","","0.8","0.2","0.6","0.4","","","","","0.4220482421","0.3796730737","0.08065165665","0.2127958296","","","","","","","74","J","1","","","228","main_expt"
"165","","bandit","307","705311","0.0-268.0-0.0","95871759","wem/bandit_either","A1ZN6V0PU8VVAH","either","7","","","","","","","1","0","0","0.4046866514","","0.8","0.2","0.6","0.4","","","","","0.3885749154","0.4046866514","0.07774059362","0.2207861463","","","","","","","74","J","1","","","229","main_expt"
"198","","bandit","308","707039","0.0-269.0-0.0","95871759","wem/bandit_either","A1ZN6V0PU8VVAH","either","7","","","","","","","0","0","1","","0.3988793555","0.8","0.2","0.6","0.4","0.4023755806","0.3988793555","0.1109483114","0.2589226453","","","","","","","","","","","74","J","1","","","230","main_expt"
"148","","bandit","309","708921","0.0-270.0-0.0","95871759","wem/bandit_either","A1ZN6V0PU8VVAH","either","7","","","","","","","0","0","1","","0.3981898202","0.8","0.2","0.6","0.4","0.3768725222","0.3981898202","0.05902300203","0.2956158432","","","","","","","","","","","74","J","1","","","231","main_expt"
"39","","bandit","310","710484","0.0-271.0-0.0","95871759","wem/bandit_either","A1ZN6V0PU8VVAH","either","7","","","","","","","0","0","1","","0.4411941832","0.8","0.2","0.6","0.4","0.3619917427","0.4411941832","0.06675855664","0.3202484073","","","","","","","","","","","74","J","1","","","232","main_expt"
"136","","bandit","311","712327","0.0-272.0-0.0","95871759","wem/bandit_either","A1ZN6V0PU8VVAH","either","7","","","","","","","0","0","1","","0.42967461","0.8","0.2","0.6","0.4","0.3833578816","0.42967461","0.06703699679","0.2933644042","","","","","","","","","","","74","J","1","","","233","main_expt"
"52","","bandit","312","713909","0.0-273.0-0.0","95871759","wem/bandit_either","A1ZN6V0PU8VVAH","either","7","","","","","","","0","0","1","","0.4242798354","0.8","0.2","0.6","0.4","0.3552131768","0.4242798354","0.05331023031","0.3106154811","","","","","","","","","","","74","J","1","","","234","main_expt"
"251","","bandit","313","715701","0.0-274.0-0.0","95871759","wem/bandit_either","A1ZN6V0PU8VVAH","either","7","","","","","","","0","0","1","0.3135084543","","0.8","0.2","0.6","0.4","","","","","0.3135084543","0.4617388459","0.05187545802","0.3158990995","","","","","","","72","H","0","img/none_selected.jpg","","235","main_expt"
"315","","bandit","314","717560","0.0-275.0-0.0","95871759","wem/bandit_either","A1ZN6V0PU8VVAH","either","7","","","","","","","0","0","1","0.244945467","","0.8","0.2","0.6","0.4","","","","","0.244945467","0.4619510484","0.06939909985","0.3036927748","","","","","","","72","H","0","img/none_selected.jpg","","236","main_expt"
"215","","bandit","315","719414","0.0-276.0-0.0","95871759","wem/bandit_either","A1ZN6V0PU8VVAH","either","7","","","","","","","0","0","1","0.1823839079","","0.8","0.2","0.6","0.4","","","","","0.1823839079","0.4482398789","0.1210409879","0.3491021326","","","","","","","72","H","0","img/none_selected.jpg","","237","main_expt"
"144","","bandit","316","721096","0.0-277.0-0.0","95871759","wem/bandit_either","A1ZN6V0PU8VVAH","either","7","","","","","","","0","0","1","","0.1147840357","0.8","0.2","0.6","0.4","0.1685050226","0.4193969143","0.1147840357","0.3939254097","","","","","","","","","","","75","K","2","","","238","main_expt"
"117","","bandit","317","722869","0.0-278.0-0.0","95871759","wem/bandit_either","A1ZN6V0PU8VVAH","either","7","","","","","","","0","0","1","0.1006463842","","0.8","0.2","0.6","0.4","","","","","0.1606472637","0.4203848948","0.1006463842","0.379108978","","","","","","","75","K","2","","","239","main_expt"
"35","","bandit","318","724428","0.0-279.0-0.0","95871759","wem/bandit_either","A1ZN6V0PU8VVAH","either","7","","","","","","","0","0","1","","0.1008771133","0.8","0.2","0.6","0.4","0.1512795466","0.4489383263","0.1008771133","0.3876209848","","","","","","","","","","","75","K","2","","","240","main_expt"
"176","","bandit","319","726316","0.0-280.0-0.0","95871759","wem/bandit_either","A1ZN6V0PU8VVAH","either","7","","","","","","","0","0","1","","0.09981833296","0.8","0.2","0.6","0.4","0.1916219391","0.4636195567","0.09981833296","0.3839625774","","","","","","","","","","","75","K","2","","","241","main_expt"
"89","","bandit","320","727929","0.0-281.0-0.0","95871759","wem/bandit_either","A1ZN6V0PU8VVAH","either","7","","","","","","","0","0","1","0.3477958629","","0.8","0.2","0.6","0.4","","","","","0.1641013935","0.4575307695","0.1171772993","0.3477958629","","","","","","","76","L","3","","","242","main_expt"
"1834","","bandit","321","731306","0.0-282.0-0.0","95871759","wem/bandit_either","A1ZN6V0PU8VVAH","either","7","","","","","","","0","0","1","0.3500658948","","0.8","0.2","0.6","0.4","","","","","0.2064320789","0.4449554393","0.1239984651","0.3500658948","","","","","","","76","L","3","","","243","main_expt"
"284","","bandit","322","733242","0.0-283.0-0.0","95871759","wem/bandit_either","A1ZN6V0PU8VVAH","either","7","","","","","","","0","0","1","","0.3452717574","0.8","0.2","0.6","0.4","0.2205496082","0.4525763452","0.1126152289","0.3452717574","","","","","","","","","","","76","L","3","","","244","main_expt"
"113","","bandit","323","734881","0.0-284.0-0.0","95871759","wem/bandit_either","A1ZN6V0PU8VVAH","either","7","","","","","","","0","1","0","","0.4753838692","0.8","0.2","0.6","0.4","0.214276823","0.4753838692","0.1524829061","0.3162288444","","","","","","","","","","","74","J","1","","","245","main_expt"
"168","","bandit","324","736638","0.0-285.0-0.0","95871759","wem/bandit_either","A1ZN6V0PU8VVAH","either","7","","","","","","","0","0","1","","0.4623654582","0.8","0.2","0.6","0.4","0.2084567316","0.4623654582","0.1921750243","0.2894596967","","","","","","","","","","","74","J","1","","","246","main_expt"
"95","","bandit","325","738256","0.0-286.0-0.0","95871759","wem/bandit_either","A1ZN6V0PU8VVAH","either","7","","","","","","","0","0","1","0.4331165165","","0.8","0.2","0.6","0.4","","","","","0.2232303491","0.4331165165","0.1931065189","0.2642296388","","","","","","","74","J","1","","","247","main_expt"
"236","","bandit","326","740112","0.0-287.0-0.0","95871759","wem/bandit_either","A1ZN6V0PU8VVAH","either","7","","","","","","","0","0","1","","0.4401602984","0.8","0.2","0.6","0.4","0.2541796534","0.4401602984","0.2189994516","0.2534255255","","","","","","","","","","","74","J","1","","","248","main_expt"
"116","","bandit","327","741757","0.0-288.0-0.0","95871759","wem/bandit_either","A1ZN6V0PU8VVAH","either","7","","","","","","","0","0","1","0.232462199","","0.8","0.2","0.6","0.4","","","","","0.232462199","0.430892824","0.1989243371","0.2252980971","","","","","","","72","H","0","img/none_selected.jpg","","249","main_expt"
"8","","bandit","328","743317","0.0-289.0-0.0","95871759","wem/bandit_either","A1ZN6V0PU8VVAH","either","7","","","","","","","0","0","1","0.2877664065","","0.8","0.2","0.6","0.4","","","","","0.2877664065","0.4282509168","0.1635706079","0.298830738","","","","","","","72","H","0","img/none_selected.jpg","","250","main_expt"
"452","","bandit","329","745294","0.0-290.0-0.0","95871759","wem/bandit_either","A1ZN6V0PU8VVAH","either","7","","","","","","","0","0","1","0.1738575253","","0.8","0.2","0.6","0.4","","","","","0.2947451014","0.4499649657","0.1738575253","0.3113207693","","","","","","","75","K","2","","","251","main_expt"
"695","","bandit","330","747521","0.0-291.0-0.0","95871759","wem/bandit_either","A1ZN6V0PU8VVAH","either","7","","","","","","","0","0","1","","0.1868362494","0.8","0.2","0.6","0.4","0.2581410112","0.458069626","0.1868362494","0.2952600368","","","","","","","","","","","75","K","2","","","252","main_expt"
