"rt","responses","trial_type","trial_index","time_elapsed","internal_node_id","subjID","study","MID","cond","drift","key_press","expt_phase","target","like","value","connected","gems","bombs","no_reward","GemPrChosen","BombPrChosen","GainOverPainPr_0","GainOverPainPr_1","GainOverPainPr_2","GainOverPainPr_3","LosePr_0","LosePr_1","LosePr_2","LosePr_3","WinPr_0","WinPr_1","WinPr_2","WinPr_3","Q0","Q1","Q2","gender","age","ethnicity","respCharCode","respKey","respChoiceNum","respChoice","practice","trial_counter","trial_label"
"8737","{""Q0"":""A37PO5YNKE5D97""}","survey-text","0","8741","0.0-0.0","96012964","wem/bandit_either","A37PO5YNKE5D97","either","3","","","","","","","","","","","","","","","","","","","","","","","","","","","","","","","","","","","",""
"16247","","text","1","25996","0.0-1.0","96012964","wem/bandit_either","A37PO5YNKE5D97","either","3","32","","","","","","","","","","","","","","","","","","","","","","","","","","","","","","","","","","",""
"13023","","text","2","39020","0.0-2.0","96012964","wem/bandit_either","A37PO5YNKE5D97","either","3","32","","","","","","","","","","","","","","","","","","","","","","","","","","","","","","","","","","",""
"28798","","text","3","67818","0.0-3.0","96012964","wem/bandit_either","A37PO5YNKE5D97","either","3","32","","","","","","","","","","","","","","","","","","","","","","","","","","","","","","","","","","",""
"17910","","text","4","85730","0.0-4.0","96012964","wem/bandit_either","A37PO5YNKE5D97","either","3","32","","","","","","","","","","","","","","","","","","","","","","","","","","","","","","","","","","",""
"21200","","text","5","106930","0.0-5.0","96012964","wem/bandit_either","A37PO5YNKE5D97","either","3","32","","","","","","","","","","","","","","","","","","","","","","","","","","","","","","","","","","",""
"8247","","text","6","115177","0.0-6.0","96012964","wem/bandit_either","A37PO5YNKE5D97","either","3","32","","","","","","","","","","","","","","","","","","","","","","","","","","","","","","","","","","",""
"5103","","text","7","120282","0.0-7.0","96012964","wem/bandit_either","A37PO5YNKE5D97","either","3","32","","","","","","","","","","","","","","","","","","","","","","","","","","","","","","","","","","",""
"10707","","identification","8","131005","0.0-8.0-0.0","96012964","wem/bandit_either","A37PO5YNKE5D97","either","3","","identification_pre","the village of Zur","","","","","","","","","","","","","","","","","","","","","","","","","","","","","","","","",""
"8915","","identification","9","140932","0.0-8.0-1.0","96012964","wem/bandit_either","A37PO5YNKE5D97","either","3","","identification_pre","the village of Nyx","","","","","","","","","","","","","","","","","","","","","","","","","","","","","","","","",""
"10008","","text","10","151955","0.0-9.0","96012964","wem/bandit_either","A37PO5YNKE5D97","either","3","32","","","","","","","","","","","","","","","","","","","","","","","","","","","","","","","","","","",""
"2111","","text","11","154066","0.0-10.0","96012964","wem/bandit_either","A37PO5YNKE5D97","either","3","32","","","","","","","","","","","","","","","","","","","","","","","","","","","","","","","","","","",""
"3983","","text","12","158050","0.0-11.0","96012964","wem/bandit_either","A37PO5YNKE5D97","either","3","32","","","","","","","","","","","","","","","","","","","","","","","","","","","","","","","","","","",""
"5312","","text","13","163363","0.0-12.0","96012964","wem/bandit_either","A37PO5YNKE5D97","either","3","32","","","","","","","","","","","","","","","","","","","","","","","","","","","","","","","","","","",""
"1806","","bandit","14","166687","0.0-13.0-0.0","96012964","wem/bandit_either","A37PO5YNKE5D97","either","3","","","","","","","0","0","1","0","0","","","","","0","","","","0","","","","","","","","","","74","J","0","img/none_selected_demo.jpg","true","0",""
"1697","","bandit","15","169900","0.0-14.0-0.0","96012964","wem/bandit_either","A37PO5YNKE5D97","either","3","","","","","","","0","0","1","0","0","","","","","0","","","","0","","","","","","","","","","75","K","0","img/none_selected_demo.jpg","true","0",""
"10342","","text","16","180243","0.0-15.0","96012964","wem/bandit_either","A37PO5YNKE5D97","either","3","32","","","","","","","","","","","","","","","","","","","","","","","","","","","","","","","","","","",""
"11295","","text","17","191539","0.0-16.0","96012964","wem/bandit_either","A37PO5YNKE5D97","either","3","32","","","","","","","","","","","","","","","","","","","","","","","","","","","","","","","","","","",""
"9694","","text","18","201234","0.0-17.0","96012964","wem/bandit_either","A37PO5YNKE5D97","either","3","32","","","","","","","","","","","","","","","","","","","","","","","","","","","","","","","","","","",""
"6135","","text","19","207370","0.0-18.0","96012964","wem/bandit_either","A37PO5YNKE5D97","either","3","32","","","","","","","","","","","","","","","","","","","","","","","","","","","","","","","","","","",""
"1110","","bandit","20","209988","0.0-19.0-0.0","96012964","wem/bandit_either","A37PO5YNKE5D97","either","3","","","","","","","1","0","0","0.8","","0.5","0.5","","","","","","","0.8","0.2","","","","","","","","","74","J","0","img/none_selected_demo.jpg","true","0","80_20_practice"
"524","","bandit","21","212033","0.0-19.0-1.0","96012964","wem/bandit_either","A37PO5YNKE5D97","either","3","","","","","","","1","0","0","0.8","","0.5","0.5","","","","","","","0.8","0.2","","","","","","","","","74","J","0","img/none_selected_demo.jpg","true","0","80_20_practice"
"671","","bandit","22","214218","0.0-19.0-2.0","96012964","wem/bandit_either","A37PO5YNKE5D97","either","3","","","","","","","1","0","0","0.8","","0.5","0.5","","","","","","","0.8","0.2","","","","","","","","","74","J","0","img/none_selected_demo.jpg","true","0","80_20_practice"
"582","","bandit","23","216323","0.0-19.0-3.0","96012964","wem/bandit_either","A37PO5YNKE5D97","either","3","","","","","","","1","0","0","0.8","","0.5","0.5","","","","","","","0.8","0.2","","","","","","","","","74","J","0","img/none_selected_demo.jpg","true","0","80_20_practice"
"598","","bandit","24","218442","0.0-19.0-4.0","96012964","wem/bandit_either","A37PO5YNKE5D97","either","3","","","","","","","0","1","0","","0.8","0.5","0.5","","","0.8","0.2","","","","","","","","","","","","","74","J","0","img/none_selected_demo.jpg","true","0","80_20_practice"
"422","","bandit","25","220376","0.0-19.0-5.0","96012964","wem/bandit_either","A37PO5YNKE5D97","either","3","","","","","","","0","1","0","","0.8","0.5","0.5","","","0.8","0.2","","","","","","","","","","","","","74","J","0","img/none_selected_demo.jpg","true","0","80_20_practice"
"551","","bandit","26","222446","0.0-19.0-6.0","96012964","wem/bandit_either","A37PO5YNKE5D97","either","3","","","","","","","0","0","1","","0.2","0.5","0.5","","","0.8","0.2","","","","","","","","","","","","","75","K","1","","true","0","80_20_practice"
"323","","bandit","27","224277","0.0-19.0-7.0","96012964","wem/bandit_either","A37PO5YNKE5D97","either","3","","","","","","","0","0","1","","0.2","0.5","0.5","","","0.8","0.2","","","","","","","","","","","","","75","K","1","","true","0","80_20_practice"
"275","","bandit","28","226067","0.0-19.0-8.0","96012964","wem/bandit_either","A37PO5YNKE5D97","either","3","","","","","","","1","0","0","0.2","","0.5","0.5","","","","","","","0.8","0.2","","","","","","","","","75","K","1","","true","0","80_20_practice"
"309","","bandit","29","227892","0.0-19.0-9.0","96012964","wem/bandit_either","A37PO5YNKE5D97","either","3","","","","","","","0","0","1","","0.2","0.5","0.5","","","0.8","0.2","","","","","","","","","","","","","75","K","1","","true","0","80_20_practice"
"356","","bandit","30","229761","0.0-19.0-10.0","96012964","wem/bandit_either","A37PO5YNKE5D97","either","3","","","","","","","0","0","1","0.2","","0.5","0.5","","","","","","","0.8","0.2","","","","","","","","","75","K","1","","true","0","80_20_practice"
"791","","bandit","31","232071","0.0-19.0-11.0","96012964","wem/bandit_either","A37PO5YNKE5D97","either","3","","","","","","","0","1","0","","0.8","0.5","0.5","","","0.8","0.2","","","","","","","","","","","","","74","J","0","img/none_selected_demo.jpg","true","0","80_20_practice"
"457","","bandit","32","234035","0.0-19.0-12.0","96012964","wem/bandit_either","A37PO5YNKE5D97","either","3","","","","","","","1","0","0","0.2","","0.5","0.5","","","","","","","0.8","0.2","","","","","","","","","75","K","1","","true","0","80_20_practice"
"332","","bandit","33","235881","0.0-19.0-13.0","96012964","wem/bandit_either","A37PO5YNKE5D97","either","3","","","","","","","0","0","1","","0.2","0.5","0.5","","","0.8","0.2","","","","","","","","","","","","","75","K","1","","true","0","80_20_practice"
"295","","bandit","34","237686","0.0-19.0-14.0","96012964","wem/bandit_either","A37PO5YNKE5D97","either","3","","","","","","","0","0","1","","0.2","0.5","0.5","","","0.8","0.2","","","","","","","","","","","","","75","K","1","","true","0","80_20_practice"
"275","","bandit","35","239476","0.0-19.0-15.0","96012964","wem/bandit_either","A37PO5YNKE5D97","either","3","","","","","","","0","1","0","","0.2","0.5","0.5","","","0.8","0.2","","","","","","","","","","","","","75","K","1","","true","0","80_20_practice"
"469","","bandit","36","241456","0.0-19.0-16.0","96012964","wem/bandit_either","A37PO5YNKE5D97","either","3","","","","","","","1","0","0","0.8","","0.5","0.5","","","","","","","0.8","0.2","","","","","","","","","74","J","0","img/none_selected_demo.jpg","true","0","80_20_practice"
"360","","bandit","37","243329","0.0-19.0-17.0","96012964","wem/bandit_either","A37PO5YNKE5D97","either","3","","","","","","","1","0","0","0.8","","0.5","0.5","","","","","","","0.8","0.2","","","","","","","","","74","J","0","img/none_selected_demo.jpg","true","0","80_20_practice"
"503","","bandit","38","245341","0.0-19.0-18.0","96012964","wem/bandit_either","A37PO5YNKE5D97","either","3","","","","","","","1","0","0","0.8","","0.5","0.5","","","","","","","0.8","0.2","","","","","","","","","74","J","0","img/none_selected_demo.jpg","true","0","80_20_practice"
"475","","bandit","39","247326","0.0-19.0-19.0","96012964","wem/bandit_either","A37PO5YNKE5D97","either","3","","","","","","","1","0","0","0.8","","0.5","0.5","","","","","","","0.8","0.2","","","","","","","","","74","J","0","img/none_selected_demo.jpg","true","0","80_20_practice"
"8154","","text","40","255481","0.0-20.0","96012964","wem/bandit_either","A37PO5YNKE5D97","either","3","32","","","","","","","","","","","","","","","","","","","","","","","","","","","","","","","","","","",""
"2654","","bandit","41","259654","0.0-21.0-0.0","96012964","wem/bandit_either","A37PO5YNKE5D97","either","3","","","","","","","1","0","0","1","0","","","","","0","1","","","1","0","","","","","","","","","74","J","0","img/none_selected_demo.jpg","true","0",""
"11274","","text","42","270929","0.0-22.0","96012964","wem/bandit_either","A37PO5YNKE5D97","either","3","32","","","","","","","","","","","","","","","","","","","","","","","","","","","","","","","","","","",""
"5014","","text","43","275945","0.0-23.0","96012964","wem/bandit_either","A37PO5YNKE5D97","either","3","32","","","","","","","","","","","","","","","","","","","","","","","","","","","","","","","","","","",""
"3663","","text","44","279609","0.0-24.0","96012964","wem/bandit_either","A37PO5YNKE5D97","either","3","32","","","","","","","","","","","","","","","","","","","","","","","","","","","","","","","","","","",""
"4264","","text","45","283873","0.0-25.0","96012964","wem/bandit_either","A37PO5YNKE5D97","either","3","32","","","","","","","","","","","","","","","","","","","","","","","","","","","","","","","","","","",""
"14103","","text","46","297977","0.0-26.0","96012964","wem/bandit_either","A37PO5YNKE5D97","either","3","32","","","","","","","","","","","","","","","","","","","","","","","","","","","","","","","","","","",""
"22815","","text","47","320793","0.0-27.0","96012964","wem/bandit_either","A37PO5YNKE5D97","either","3","32","","","","","","","","","","","","","","","","","","","","","","","","","","","","","","","","","","",""
"7678","","text","48","328473","0.0-28.0","96012964","wem/bandit_either","A37PO5YNKE5D97","either","3","32","","","","","","","","","","","","","","","","","","","","","","","","","","","","","","","","","","",""
"7815","","text","49","336289","0.0-29.0","96012964","wem/bandit_either","A37PO5YNKE5D97","either","3","32","","","","","","","","","","","","","","","","","","","","","","","","","","","","","","","","","","",""
"6487","","text","50","342776","0.0-30.0","96012964","wem/bandit_either","A37PO5YNKE5D97","either","3","32","","","","","","","","","","","","","","","","","","","","","","","","","","","","","","","","","","",""
"2551","","text","51","345328","0.0-31.0","96012964","wem/bandit_either","A37PO5YNKE5D97","either","3","32","","","","","","","","","","","","","","","","","","","","","","","","","","","","","","","","","","",""
"4319","","text","52","349648","0.0-32.0","96012964","wem/bandit_either","A37PO5YNKE5D97","either","3","32","","","","","","","","","","","","","","","","","","","","","","","","","","","","","","","","","","",""
"990","","bandit","53","352143","0.0-33.0-0.0","96012964","wem/bandit_either","A37PO5YNKE5D97","either","3","","","","","","","0","0","1","","0.8","0.5","0.5","0.5","0.5","0.8","0.2","0.6","0.2","","","","","","","","","","","72","H","0","img/none_selected.jpg","true","0","full_practice"
"79","","bandit","54","353736","0.0-33.0-1.0","96012964","wem/bandit_either","A37PO5YNKE5D97","either","3","","","","","","","1","0","0","0.8","","0.5","0.5","0.5","0.5","","","","","0.8","0.2","0.6","0.2","","","","","","","72","H","0","img/none_selected.jpg","true","0","full_practice"
"823","","bandit","55","356072","0.0-33.0-2.0","96012964","wem/bandit_either","A37PO5YNKE5D97","either","3","","","","","","","0","1","0","","0.8","0.5","0.5","0.5","0.5","0.8","0.2","0.6","0.2","","","","","","","","","","","72","H","0","img/none_selected.jpg","true","0","full_practice"
"439","","bandit","56","358037","0.0-33.0-3.0","96012964","wem/bandit_either","A37PO5YNKE5D97","either","3","","","","","","","1","0","0","0.8","","0.5","0.5","0.5","0.5","","","","","0.8","0.2","0.6","0.2","","","","","","","72","H","0","img/none_selected.jpg","true","0","full_practice"
"617","","bandit","57","360159","0.0-33.0-4.0","96012964","wem/bandit_either","A37PO5YNKE5D97","either","3","","","","","","","0","0","1","0.8","","0.5","0.5","0.5","0.5","","","","","0.8","0.2","0.6","0.2","","","","","","","72","H","0","img/none_selected.jpg","true","0","full_practice"
"1287","","bandit","58","362974","0.0-33.0-5.0","96012964","wem/bandit_either","A37PO5YNKE5D97","either","3","","","","","","","0","0","1","0.2","","0.5","0.5","0.5","0.5","","","","","0.8","0.2","0.6","0.2","","","","","","","74","J","1","","true","0","full_practice"
"575","","bandit","59","365068","0.0-33.0-6.0","96012964","wem/bandit_either","A37PO5YNKE5D97","either","3","","","","","","","0","0","1","","0.2","0.5","0.5","0.5","0.5","0.8","0.2","0.6","0.2","","","","","","","","","","","74","J","1","","true","0","full_practice"
"283","","bandit","60","366863","0.0-33.0-7.0","96012964","wem/bandit_either","A37PO5YNKE5D97","either","3","","","","","","","0","0","1","","0.2","0.5","0.5","0.5","0.5","0.8","0.2","0.6","0.2","","","","","","","","","","","74","J","1","","true","0","full_practice"
"351","","bandit","61","368737","0.0-33.0-8.0","96012964","wem/bandit_either","A37PO5YNKE5D97","either","3","","","","","","","0","1","0","","0.6","0.5","0.5","0.5","0.5","0.8","0.2","0.6","0.2","","","","","","","","","","","75","K","2","","true","0","full_practice"
"301","","bandit","62","370555","0.0-33.0-9.0","96012964","wem/bandit_either","A37PO5YNKE5D97","either","3","","","","","","","0","1","0","","0.6","0.5","0.5","0.5","0.5","0.8","0.2","0.6","0.2","","","","","","","","","","","75","K","2","","true","0","full_practice"
"276","","bandit","63","372339","0.0-33.0-10.0","96012964","wem/bandit_either","A37PO5YNKE5D97","either","3","","","","","","","0","1","0","","0.6","0.5","0.5","0.5","0.5","0.8","0.2","0.6","0.2","","","","","","","","","","","75","K","2","","true","0","full_practice"
"267","","bandit","64","374128","0.0-33.0-11.0","96012964","wem/bandit_either","A37PO5YNKE5D97","either","3","","","","","","","1","0","0","0.6","","0.5","0.5","0.5","0.5","","","","","0.8","0.2","0.6","0.2","","","","","","","75","K","2","","true","0","full_practice"
"431","","bandit","65","376080","0.0-33.0-12.0","96012964","wem/bandit_either","A37PO5YNKE5D97","either","3","","","","","","","0","0","1","0.6","","0.5","0.5","0.5","0.5","","","","","0.8","0.2","0.6","0.2","","","","","","","75","K","2","","true","0","full_practice"
"934","","bandit","66","378535","0.0-33.0-13.0","96012964","wem/bandit_either","A37PO5YNKE5D97","either","3","","","","","","","0","0","1","0.6","","0.5","0.5","0.5","0.5","","","","","0.8","0.2","0.6","0.2","","","","","","","75","K","2","","true","0","full_practice"
"671","","bandit","67","380720","0.0-33.0-14.0","96012964","wem/bandit_either","A37PO5YNKE5D97","either","3","","","","","","","0","0","1","0.2","","0.5","0.5","0.5","0.5","","","","","0.8","0.2","0.6","0.2","","","","","","","76","L","3","","true","0","full_practice"
"1887","","bandit","68","384124","0.0-33.0-15.0","96012964","wem/bandit_either","A37PO5YNKE5D97","either","3","","","","","","","0","0","1","0.2","","0.5","0.5","0.5","0.5","","","","","0.8","0.2","0.6","0.2","","","","","","","76","L","3","","true","0","full_practice"
"667","","bandit","69","386307","0.0-33.0-16.0","96012964","wem/bandit_either","A37PO5YNKE5D97","either","3","","","","","","","1","0","0","0.8","","0.5","0.5","0.5","0.5","","","","","0.8","0.2","0.6","0.2","","","","","","","72","H","0","img/none_selected.jpg","true","0","full_practice"
"301","","bandit","70","388128","0.0-33.0-17.0","96012964","wem/bandit_either","A37PO5YNKE5D97","either","3","","","","","","","1","0","0","0.8","","0.5","0.5","0.5","0.5","","","","","0.8","0.2","0.6","0.2","","","","","","","72","H","0","img/none_selected.jpg","true","0","full_practice"
"407","","bandit","71","390059","0.0-33.0-18.0","96012964","wem/bandit_either","A37PO5YNKE5D97","either","3","","","","","","","0","0","1","","0.8","0.5","0.5","0.5","0.5","0.8","0.2","0.6","0.2","","","","","","","","","","","72","H","0","img/none_selected.jpg","true","0","full_practice"
"940","","bandit","72","392522","0.0-33.0-19.0","96012964","wem/bandit_either","A37PO5YNKE5D97","either","3","","","","","","","1","0","0","0.8","","0.5","0.5","0.5","0.5","","","","","0.8","0.2","0.6","0.2","","","","","","","72","H","0","img/none_selected.jpg","true","0","full_practice"
"18732","","text","73","411258","0.0-34.0","96012964","wem/bandit_either","A37PO5YNKE5D97","either","3","32","","","","","","","","","","","","","","","","","","","","","","","","","","","","","","","","","","",""
"20524","","text","74","432786","0.0-35.0","96012964","wem/bandit_either","A37PO5YNKE5D97","either","3","32","","","","","","","","","","","","","","","","","","","","","","","","","","","","","","","","","","",""
"13439","","text","75","446226","0.0-36.0","96012964","wem/bandit_either","A37PO5YNKE5D97","either","3","32","","","","","","","","","","","","","","","","","","","","","","","","","","","","","","","","","","",""
"7373","","text","76","453601","0.0-37.0","96012964","wem/bandit_either","A37PO5YNKE5D97","either","3","32","","","","","","","","","","","","","","","","","","","","","","","","","","","","","","","","","","",""
"10783","","text","77","464385","0.0-38.0","96012964","wem/bandit_either","A37PO5YNKE5D97","either","3","32","","","","","","","","","","","","","","","","","","","","","","","","","","","","","","","","","","",""
"194181","","text","78","658568","0.0-39.0","96012964","wem/bandit_either","A37PO5YNKE5D97","either","3","32","","","","","","","","","","","","","","","","","","","","","","","","","","","","","","","","","","",""
"2020","","bandit","79","662107","0.0-40.0-0.0","96012964","wem/bandit_either","A37PO5YNKE5D97","either","3","","","","","","","1","0","0","0.4870892339","","0.4","0.2","0.8","0.6","","","","","0.4870892339","0.1646489015","0.1426046982","0.07685641067","","","","","","","72","H","0","img/none_selected.jpg","","1","main_expt"
"417","","bandit","80","664041","0.0-41.0-0.0","96012964","wem/bandit_either","A37PO5YNKE5D97","either","3","","","","","","","1","0","0","0.4875162112","","0.4","0.2","0.8","0.6","","","","","0.4875162112","0.2180431119","0.1597004976","0.08388143876","","","","","","","72","H","0","img/none_selected.jpg","","2","main_expt"
"324","","bandit","81","665877","0.0-42.0-0.0","96012964","wem/bandit_either","A37PO5YNKE5D97","either","3","","","","","","","0","0","1","","0.4909945117","0.4","0.2","0.8","0.6","0.4909945117","0.2294217256","0.1381850853","0.06528774038","","","","","","","","","","","72","H","0","img/none_selected.jpg","","3","main_expt"
"935","","bandit","82","668328","0.0-43.0-0.0","96012964","wem/bandit_either","A37PO5YNKE5D97","either","3","","","","","","","0","1","0","","0.2162119515","0.4","0.2","0.8","0.6","0.482579304","0.2162119515","0.1787932262","0.07987899881","","","","","","","","","","","74","J","1","","","4","main_expt"
"621","","bandit","83","670461","0.0-44.0-0.0","96012964","wem/bandit_either","A37PO5YNKE5D97","either","3","","","","","","","0","0","1","","0.2246316054","0.4","0.2","0.8","0.6","0.4887913002","0.2246316054","0.1795032464","0.0432391811","","","","","","","","","","","74","J","1","","","5","main_expt"
"919","","bandit","84","672890","0.0-45.0-0.0","96012964","wem/bandit_either","A37PO5YNKE5D97","either","3","","","","","","","0","0","1","0.164375756","","0.4","0.2","0.8","0.6","","","","","0.4887860333","0.2061018479","0.164375756","0.03467601655","","","","","","","75","K","2","","","6","main_expt"
"769","","bandit","85","675182","0.0-46.0-0.0","96012964","wem/bandit_either","A37PO5YNKE5D97","either","3","","","","","","","0","0","1","0.204957223","","0.4","0.2","0.8","0.6","","","","","0.4901971563","0.1795347326","0.204957223","0.05033951668","","","","","","","75","K","2","","","7","main_expt"
"1014","","bandit","86","677701","0.0-47.0-0.0","96012964","wem/bandit_either","A37PO5YNKE5D97","either","3","","","","","","","0","0","1","","0.07676355645","0.4","0.2","0.8","0.6","0.4862230721","0.1290452752","0.2162036531","0.07676355645","","","","","","","","","","","76","L","3","","","8","main_expt"
"775","","bandit","87","679999","0.0-48.0-0.0","96012964","wem/bandit_either","A37PO5YNKE5D97","either","3","","","","","","","0","0","1","0.08620859221","","0.4","0.2","0.8","0.6","","","","","0.4759730645","0.1559184374","0.2167418122","0.08620859221","","","","","","","76","L","3","","","9","main_expt"
"750","","bandit","88","682269","0.0-49.0-0.0","96012964","wem/bandit_either","A37PO5YNKE5D97","either","3","","","","","","","0","0","1","0.4560980466","","0.4","0.2","0.8","0.6","","","","","0.4560980466","0.1381514788","0.1607923637","0.1103839657","","","","","","","72","H","0","img/none_selected.jpg","","10","main_expt"
"695","","bandit","89","684481","0.0-50.0-0.0","96012964","wem/bandit_either","A37PO5YNKE5D97","either","3","","","","","","","0","1","0","","0.4775116046","0.4","0.2","0.8","0.6","0.4775116046","0.1271140015","0.1386410957","0.1334948588","","","","","","","","","","","72","H","0","img/none_selected.jpg","","11","main_expt"
"619","","bandit","90","686618","0.0-51.0-0.0","96012964","wem/bandit_either","A37PO5YNKE5D97","either","3","","","","","","","0","0","1","0.4705073552","","0.4","0.2","0.8","0.6","","","","","0.4705073552","0.1854664659","0.1718380738","0.1535602519","","","","","","","72","H","0","img/none_selected.jpg","","12","main_expt"
"595","","bandit","91","688728","0.0-52.0-0.0","96012964","wem/bandit_either","A37PO5YNKE5D97","either","3","","","","","","","0","0","1","","0.1869952656","0.4","0.2","0.8","0.6","0.4851887342","0.1869952656","0.1686303413","0.127854239","","","","","","","","","","","74","J","1","","","13","main_expt"
"988","","bandit","92","691235","0.0-53.0-0.0","96012964","wem/bandit_either","A37PO5YNKE5D97","either","3","","","","","","","0","0","1","","0.2035171393","0.4","0.2","0.8","0.6","0.4731273917","0.2035171393","0.1460019496","0.1507911491","","","","","","","","","","","74","J","1","","","14","main_expt"
"1419","","bandit","93","694184","0.0-54.0-0.0","96012964","wem/bandit_either","A37PO5YNKE5D97","either","3","","","","","","","0","1","0","","0.4585867004","0.4","0.2","0.8","0.6","0.4585867004","0.2800299461","0.1667614464","0.1741212098","","","","","","","","","","","72","H","0","img/none_selected.jpg","","15","main_expt"
"925","","bandit","94","696624","0.0-55.0-0.0","96012964","wem/bandit_either","A37PO5YNKE5D97","either","3","","","","","","","0","1","0","","0.4366533258","0.4","0.2","0.8","0.6","0.4366533258","0.2725454461","0.1973644546","0.1918308831","","","","","","","","","","","72","H","0","img/none_selected.jpg","","16","main_expt"
"676","","bandit","95","698805","0.0-56.0-0.0","96012964","wem/bandit_either","A37PO5YNKE5D97","either","3","","","","","","","0","1","0","","0.4405228744","0.4","0.2","0.8","0.6","0.4405228744","0.1570621471","0.1873415792","0.1950212473","","","","","","","","","","","72","H","0","img/none_selected.jpg","","17","main_expt"
"535","","bandit","96","700854","0.0-57.0-0.0","96012964","wem/bandit_either","A37PO5YNKE5D97","either","3","","","","","","","0","0","1","","0.4678551263","0.4","0.2","0.8","0.6","0.4678551263","0.1968188506","0.1875860444","0.2094813194","","","","","","","","","","","72","H","0","img/none_selected.jpg","","18","main_expt"
"830","","bandit","97","703213","0.0-58.0-0.0","96012964","wem/bandit_either","A37PO5YNKE5D97","either","3","","","","","","","0","0","1","0.466140525","","0.4","0.2","0.8","0.6","","","","","0.466140525","0.2439518204","0.1988439388","0.2628959394","","","","","","","72","H","0","img/none_selected.jpg","","19","main_expt"
"609","","bandit","98","705327","0.0-59.0-0.0","96012964","wem/bandit_either","A37PO5YNKE5D97","either","3","","","","","","","0","0","1","","0.2806117898","0.4","0.2","0.8","0.6","0.4094087999","0.2806117898","0.1813993393","0.2116504525","","","","","","","","","","","74","J","1","","","20","main_expt"
"541","","bandit","99","707382","0.0-60.0-0.0","96012964","wem/bandit_either","A37PO5YNKE5D97","either","3","","","","","","","0","0","1","0.2012004452","","0.4","0.2","0.8","0.6","","","","","0.4386974508","0.2658005831","0.2012004452","0.1904426465","","","","","","","75","K","2","","","21","main_expt"
"438","","bandit","100","709331","0.0-61.0-0.0","96012964","wem/bandit_either","A37PO5YNKE5D97","either","3","","","","","","","0","0","1","","0.1581796968","0.4","0.2","0.8","0.6","0.4505723784","0.2774390086","0.1958646163","0.1581796968","","","","","","","","","","","76","L","3","","","22","main_expt"
"369","","bandit","101","711227","0.0-62.0-0.0","96012964","wem/bandit_either","A37PO5YNKE5D97","either","3","","","","","","","0","0","1","","0.4568000239","0.4","0.2","0.8","0.6","0.4568000239","0.2795917474","0.2626819079","0.2039009352","","","","","","","","","","","72","H","0","img/none_selected.jpg","","23","main_expt"
"433","","bandit","102","713175","0.0-63.0-0.0","96012964","wem/bandit_either","A37PO5YNKE5D97","either","3","","","","","","","0","0","1","0.4518339256","","0.4","0.2","0.8","0.6","","","","","0.4518339256","0.2981059477","0.2906682881","0.228339491","","","","","","","72","H","0","img/none_selected.jpg","","24","main_expt"
"1365","","bandit","103","716053","0.0-64.0-0.0","96012964","wem/bandit_either","A37PO5YNKE5D97","either","3","","","","","","","0","0","1","","0.4120159309","0.4","0.2","0.8","0.6","0.4120159309","0.3272059922","0.3270173502","0.2602465224","","","","","","","","","","","72","H","0","img/none_selected.jpg","","25","main_expt"
"439","","bandit","104","718020","0.0-65.0-0.0","96012964","wem/bandit_either","A37PO5YNKE5D97","either","3","","","","","","","1","0","0","0.4134154185","","0.4","0.2","0.8","0.6","","","","","0.4134154185","0.3369826645","0.2951289915","0.1939420306","","","","","","","72","H","0","img/none_selected.jpg","","26","main_expt"
"496","","bandit","105","720029","0.0-66.0-0.0","96012964","wem/bandit_either","A37PO5YNKE5D97","either","3","","","","","","","0","1","0","","0.4031068294","0.4","0.2","0.8","0.6","0.4031068294","0.2531212506","0.3520126272","0.2387331149","","","","","","","","","","","72","H","0","img/none_selected.jpg","","27","main_expt"
"783","","bandit","106","722333","0.0-67.0-0.0","96012964","wem/bandit_either","A37PO5YNKE5D97","either","3","","","","","","","0","0","1","0.4305883772","","0.4","0.2","0.8","0.6","","","","","0.4305883772","0.2170461037","0.3369287003","0.2183458617","","","","","","","72","H","0","img/none_selected.jpg","","28","main_expt"
"815","","bandit","107","724656","0.0-68.0-0.0","96012964","wem/bandit_either","A37PO5YNKE5D97","either","3","","","","","","","0","0","1","","0.2346211465","0.4","0.2","0.8","0.6","0.4383329838","0.2346211465","0.3591799128","0.2151501268","","","","","","","","","","","74","J","1","","","29","main_expt"
"365","","bandit","108","726545","0.0-69.0-0.0","96012964","wem/bandit_either","A37PO5YNKE5D97","either","3","","","","","","","0","0","1","","0.2450860663","0.4","0.2","0.8","0.6","0.4233276099","0.2450860663","0.3324285477","0.2267233056","","","","","","","","","","","74","J","1","","","30","main_expt"
"330","","bandit","109","728381","0.0-70.0-0.0","96012964","wem/bandit_either","A37PO5YNKE5D97","either","3","","","","","","","0","0","1","","0.2141169407","0.4","0.2","0.8","0.6","0.4016185005","0.2141169407","0.327032362","0.2663701676","","","","","","","","","","","74","J","1","","","31","main_expt"
"527","","bandit","110","730436","0.0-71.0-0.0","96012964","wem/bandit_either","A37PO5YNKE5D97","either","3","","","","","","","0","0","1","0.3230905041","","0.4","0.2","0.8","0.6","","","","","0.4134940178","0.2347854155","0.3230905041","0.275969473","","","","","","","75","K","2","","","32","main_expt"
"400","","bandit","111","732344","0.0-72.0-0.0","96012964","wem/bandit_either","A37PO5YNKE5D97","either","3","","","","","","","1","0","0","0.2969008969","","0.4","0.2","0.8","0.6","","","","","0.4331174495","0.246596708","0.2969008969","0.3365270118","","","","","","","75","K","2","","","33","main_expt"
"356","","bandit","112","734210","0.0-73.0-0.0","96012964","wem/bandit_either","A37PO5YNKE5D97","either","3","","","","","","","0","0","1","0.2536392951","","0.4","0.2","0.8","0.6","","","","","0.4454497031","0.1914370393","0.2536392951","0.2916301021","","","","","","","75","K","2","","","34","main_expt"
"323","","bandit","113","736041","0.0-74.0-0.0","96012964","wem/bandit_either","A37PO5YNKE5D97","either","3","","","","","","","0","0","1","0.2336030597","","0.4","0.2","0.8","0.6","","","","","0.4419706984","0.1408207185","0.2336030597","0.3236538836","","","","","","","75","K","2","","","35","main_expt"
"387","","bandit","114","737958","0.0-75.0-0.0","96012964","wem/bandit_either","A37PO5YNKE5D97","either","3","","","","","","","0","0","1","","0.3317439785","0.4","0.2","0.8","0.6","0.4205940312","0.09539735145","0.3110392291","0.3317439785","","","","","","","","","","","76","L","3","","","36","main_expt"
"623","","bandit","115","740111","0.0-76.0-0.0","96012964","wem/bandit_either","A37PO5YNKE5D97","either","3","","","","","","","1","0","0","0.3620900841","","0.4","0.2","0.8","0.6","","","","","0.4227305347","0.08867332122","0.3354302382","0.3620900841","","","","","","","76","L","3","","","37","main_expt"
"525","","bandit","116","742142","0.0-77.0-0.0","96012964","wem/bandit_either","A37PO5YNKE5D97","either","3","","","","","","","0","0","1","","0.3649119955","0.4","0.2","0.8","0.6","0.3904174821","0.0804097964","0.3359947902","0.3649119955","","","","","","","","","","","76","L","3","","","38","main_expt"
"423","","bandit","117","744073","0.0-78.0-0.0","96012964","wem/bandit_either","A37PO5YNKE5D97","either","3","","","","","","","0","0","1","","0.3993258453","0.4","0.2","0.8","0.6","0.3704092514","0.1092906338","0.3719467902","0.3993258453","","","","","","","","","","","76","L","3","","","39","main_expt"
"427","","bandit","118","746004","0.0-79.0-0.0","96012964","wem/bandit_either","A37PO5YNKE5D97","either","3","","","","","","","0","0","1","0.43145226","","0.4","0.2","0.8","0.6","","","","","0.3250394812","0.08771014895","0.37180955","0.43145226","","","","","","","76","L","3","","","40","main_expt"
"1033","","bandit","119","748556","0.0-80.0-0.0","96012964","wem/bandit_either","A37PO5YNKE5D97","either","3","","","","","","","0","0","1","0.3633775572","","0.4","0.2","0.8","0.6","","","","","0.3633775572","0.1065106481","0.3972707938","0.3925837484","","","","","","","72","H","0","img/none_selected.jpg","","41","main_expt"
"471","","bandit","120","750548","0.0-81.0-0.0","96012964","wem/bandit_either","A37PO5YNKE5D97","either","3","","","","","","","1","0","0","0.3708570881","","0.4","0.2","0.8","0.6","","","","","0.3708570881","0.0926848955","0.3981555674","0.4020613291","","","","","","","72","H","0","img/none_selected.jpg","","42","main_expt"
"400","","bandit","121","752460","0.0-82.0-0.0","96012964","wem/bandit_either","A37PO5YNKE5D97","either","3","","","","","","","1","0","0","0.3852030547","","0.4","0.2","0.8","0.6","","","","","0.3852030547","0.09213729174","0.3698022864","0.4199094288","","","","","","","72","H","0","img/none_selected.jpg","","43","main_expt"
"528","","bandit","122","754509","0.0-83.0-0.0","96012964","wem/bandit_either","A37PO5YNKE5D97","either","3","","","","","","","0","0","1","","0.3653477133","0.4","0.2","0.8","0.6","0.3653477133","0.0950319608","0.3278340923","0.4362917367","","","","","","","","","","","72","H","0","img/none_selected.jpg","","44","main_expt"
"455","","bandit","123","756484","0.0-84.0-0.0","96012964","wem/bandit_either","A37PO5YNKE5D97","either","3","","","","","","","0","1","0","","0.3423722135","0.4","0.2","0.8","0.6","0.3423722135","0.07917944011","0.4004869948","0.4310393502","","","","","","","","","","","72","H","0","img/none_selected.jpg","","45","main_expt"
"576","","bandit","124","758577","0.0-85.0-0.0","96012964","wem/bandit_either","A37PO5YNKE5D97","either","3","","","","","","","0","0","1","","0.2713785315","0.4","0.2","0.8","0.6","0.2713785315","0.08528552535","0.4389658195","0.4301719659","","","","","","","","","","","72","H","0","img/none_selected.jpg","","46","main_expt"
"410","","bandit","125","760506","0.0-86.0-0.0","96012964","wem/bandit_either","A37PO5YNKE5D97","either","3","","","","","","","1","0","0","0.2675382036","","0.4","0.2","0.8","0.6","","","","","0.2675382036","0.08303267599","0.4294918489","0.4274268526","","","","","","","72","H","0","img/none_selected.jpg","","47","main_expt"
"722","","bandit","126","762733","0.0-87.0-0.0","96012964","wem/bandit_either","A37PO5YNKE5D97","either","3","","","","","","","0","0","1","0.3006553151","","0.4","0.2","0.8","0.6","","","","","0.3006553151","0.1183490009","0.3948346084","0.4559220927","","","","","","","72","H","0","img/none_selected.jpg","","48","main_expt"
"599","","bandit","127","764849","0.0-88.0-0.0","96012964","wem/bandit_either","A37PO5YNKE5D97","either","3","","","","","","","1","0","0","0.2865645246","","0.4","0.2","0.8","0.6","","","","","0.2865645246","0.09831357925","0.4226663974","0.4362936898","","","","","","","72","H","0","img/none_selected.jpg","","49","main_expt"
"1114","","bandit","128","767491","0.0-89.0-0.0","96012964","wem/bandit_either","A37PO5YNKE5D97","either","3","","","","","","","0","0","1","","0.2842330123","0.4","0.2","0.8","0.6","0.2842330123","0.0896163698","0.3943232949","0.4001593617","","","","","","","","","","","72","H","0","img/none_selected.jpg","","50","main_expt"
"945","","bandit","129","769968","0.0-90.0-0.0","96012964","wem/bandit_either","A37PO5YNKE5D97","either","3","","","","","","","0","1","0","","0.08239790895","0.4","0.2","0.8","0.6","0.2933637591","0.08239790895","0.3911898034","0.3737598101","","","","","","","","","","","74","J","1","","","51","main_expt"
"355","","bandit","130","771836","0.0-91.0-0.0","96012964","wem/bandit_either","A37PO5YNKE5D97","either","3","","","","","","","0","0","1","","0.06509061927","0.4","0.2","0.8","0.6","0.2802127762","0.06509061927","0.3897106723","0.3490564905","","","","","","","","","","","74","J","1","","","52","main_expt"
"360","","bandit","131","773716","0.0-92.0-0.0","96012964","wem/bandit_either","A37PO5YNKE5D97","either","3","","","","","","","0","1","0","","0.05503049918","0.4","0.2","0.8","0.6","0.2567133084","0.05503049918","0.3977919118","0.3606416198","","","","","","","","","","","74","J","1","","","53","main_expt"
"631","","bandit","132","775862","0.0-93.0-0.0","96012964","wem/bandit_either","A37PO5YNKE5D97","either","3","","","","","","","0","0","1","","0.06606451817","0.4","0.2","0.8","0.6","0.304436262","0.06606451817","0.3803623479","0.3920172378","","","","","","","","","","","74","J","1","","","54","main_expt"
"677","","bandit","133","778070","0.0-94.0-0.0","96012964","wem/bandit_either","A37PO5YNKE5D97","either","3","","","","","","","0","0","1","","0.3898030924","0.4","0.2","0.8","0.6","0.3050376594","0.0812436444","0.3898030924","0.3841867886","","","","","","","","","","","75","K","2","","","55","main_expt"
"583","","bandit","134","780161","0.0-95.0-0.0","96012964","wem/bandit_either","A37PO5YNKE5D97","either","3","","","","","","","0","1","0","","0.4332266089","0.4","0.2","0.8","0.6","0.2874076515","0.05752214818","0.4332266089","0.3752679739","","","","","","","","","","","75","K","2","","","56","main_expt"
"388","","bandit","135","782069","0.0-96.0-0.0","96012964","wem/bandit_either","A37PO5YNKE5D97","either","3","","","","","","","1","0","0","0.4598680415","","0.4","0.2","0.8","0.6","","","","","0.2633226407","0.05957573693","0.4598680415","0.3595388075","","","","","","","75","K","2","","","57","main_expt"
"1704","","bandit","136","785291","0.0-97.0-0.0","96012964","wem/bandit_either","A37PO5YNKE5D97","either","3","","","","","","","1","0","0","0.4510058242","","0.4","0.2","0.8","0.6","","","","","0.282557186","0.08347810371","0.4510058242","0.2926617498","","","","","","","75","K","2","","","58","main_expt"
"897","","bandit","137","787708","0.0-98.0-0.0","96012964","wem/bandit_either","A37PO5YNKE5D97","either","3","","","","","","","0","0","1","0.4587464736","","0.4","0.2","0.8","0.6","","","","","0.2675679041","0.1166757522","0.4587464736","0.2854140482","","","","","","","75","K","2","","","59","main_expt"
"641","","bandit","138","789864","0.0-99.0-0.0","96012964","wem/bandit_either","A37PO5YNKE5D97","either","3","","","","","","","1","0","0","0.4534111386","","0.4","0.2","0.8","0.6","","","","","0.2654645802","0.1223048521","0.4534111386","0.2767785787","","","","","","","75","K","2","","","60","main_expt"
"741","","bandit","139","792117","0.0-100.0-0.0","96012964","wem/bandit_either","A37PO5YNKE5D97","either","3","","","","","","","1","0","0","0.4581751116","","0.4","0.2","0.8","0.6","","","","","0.2326588137","0.1341525672","0.4581751116","0.3110110239","","","","","","","75","K","2","","","61","main_expt"
"7336","","bandit","140","800976","0.0-101.0-0.0","96012964","wem/bandit_either","A37PO5YNKE5D97","either","3","","","","","","","1","0","0","0.4447189615","","0.4","0.2","0.8","0.6","","","","","0.2430345153","0.1748443247","0.4447189615","0.2739379344","","","","","","","75","K","2","","","62","main_expt"
"4766","","bandit","141","807271","0.0-102.0-0.0","96012964","wem/bandit_either","A37PO5YNKE5D97","either","3","","","","","","","1","0","0","0.4351057758","","0.4","0.2","0.8","0.6","","","","","0.2682261916","0.1872250423","0.4351057758","0.2518438402","","","","","","","75","K","2","","","63","main_expt"
"510","","bandit","142","809313","0.0-103.0-0.0","96012964","wem/bandit_either","A37PO5YNKE5D97","either","3","","","","","","","1","0","0","0.4559228662","","0.4","0.2","0.8","0.6","","","","","0.3136585585","0.1592276408","0.4559228662","0.216118181","","","","","","","75","K","2","","","64","main_expt"
"451","","bandit","143","811275","0.0-104.0-0.0","96012964","wem/bandit_either","A37PO5YNKE5D97","either","3","","","","","","","1","0","0","0.4526438492","","0.4","0.2","0.8","0.6","","","","","0.3208042698","0.1881419285","0.4526438492","0.1961712117","","","","","","","75","K","2","","","65","main_expt"
"545","","bandit","144","813339","0.0-105.0-0.0","96012964","wem/bandit_either","A37PO5YNKE5D97","either","3","","","","","","","0","0","1","0.4604690516","","0.4","0.2","0.8","0.6","","","","","0.3550213758","0.2075830042","0.4604690516","0.1821057022","","","","","","","75","K","2","","","66","main_expt"
"689","","bandit","145","815553","0.0-106.0-0.0","96012964","wem/bandit_either","A37PO5YNKE5D97","either","3","","","","","","","0","0","1","0.4479534522","","0.4","0.2","0.8","0.6","","","","","0.2883445083","0.210321401","0.4479534522","0.2221692745","","","","","","","75","K","2","","","67","main_expt"
"580","","bandit","146","817642","0.0-107.0-0.0","96012964","wem/bandit_either","A37PO5YNKE5D97","either","3","","","","","","","0","0","1","0.4420076102","","0.4","0.2","0.8","0.6","","","","","0.2492112051","0.1740681144","0.4420076102","0.2385328342","","","","","","","75","K","2","","","68","main_expt"
"1139","","bandit","147","820291","0.0-108.0-0.0","96012964","wem/bandit_either","A37PO5YNKE5D97","either","3","","","","","","","0","0","1","0.3840886122","","0.4","0.2","0.8","0.6","","","","","0.1725364023","0.1495678232","0.3840886122","0.2693988132","","","","","","","75","K","2","","","69","main_expt"
"586","","bandit","148","822387","0.0-109.0-0.0","96012964","wem/bandit_either","A37PO5YNKE5D97","either","3","","","","","","","1","0","0","0.3764426572","","0.4","0.2","0.8","0.6","","","","","0.2081322216","0.1594524764","0.3764426572","0.2633889128","","","","","","","75","K","2","","","70","main_expt"
"713","","bandit","149","824629","0.0-110.0-0.0","96012964","wem/bandit_either","A37PO5YNKE5D97","either","3","","","","","","","1","0","0","0.3925575972","","0.4","0.2","0.8","0.6","","","","","0.2222096595","0.1308665948","0.3925575972","0.2881785301","","","","","","","75","K","2","","","71","main_expt"
"783","","bandit","150","826935","0.0-111.0-0.0","96012964","wem/bandit_either","A37PO5YNKE5D97","either","3","","","","","","","1","0","0","0.4055717031","","0.4","0.2","0.8","0.6","","","","","0.2276413934","0.1413665491","0.4055717031","0.3496752211","","","","","","","75","K","2","","","72","main_expt"
"774","","bandit","151","829214","0.0-112.0-0.0","96012964","wem/bandit_either","A37PO5YNKE5D97","either","3","","","","","","","1","0","0","0.4313753627","","0.4","0.2","0.8","0.6","","","","","0.202726327","0.1562096843","0.4313753627","0.3662649551","","","","","","","75","K","2","","","73","main_expt"
"606","","bandit","152","831336","0.0-113.0-0.0","96012964","wem/bandit_either","A37PO5YNKE5D97","either","3","","","","","","","0","0","1","0.4294283137","","0.4","0.2","0.8","0.6","","","","","0.2465356434","0.1601549975","0.4294283137","0.3318597218","","","","","","","75","K","2","","","74","main_expt"
"461","","bandit","153","833323","0.0-114.0-0.0","96012964","wem/bandit_either","A37PO5YNKE5D97","either","3","","","","","","","1","0","0","0.4114775526","","0.4","0.2","0.8","0.6","","","","","0.2780880013","0.1962365409","0.4114775526","0.3129946244","","","","","","","75","K","2","","","75","main_expt"
"746","","bandit","154","835595","0.0-115.0-0.0","96012964","wem/bandit_either","A37PO5YNKE5D97","either","3","","","","","","","1","0","0","0.4038916894","","0.4","0.2","0.8","0.6","","","","","0.230570622","0.2315068675","0.4038916894","0.3299880354","","","","","","","75","K","2","","","76","main_expt"
"681","","bandit","155","837788","0.0-116.0-0.0","96012964","wem/bandit_either","A37PO5YNKE5D97","either","3","","","","","","","0","0","1","0.4028298088","","0.4","0.2","0.8","0.6","","","","","0.1747897532","0.1749603823","0.4028298088","0.2704336052","","","","","","","75","K","2","","","77","main_expt"
"545","","bandit","156","839853","0.0-117.0-0.0","96012964","wem/bandit_either","A37PO5YNKE5D97","either","3","","","","","","","0","0","1","","0.4004321452","0.4","0.2","0.8","0.6","0.2009150394","0.2091975686","0.4004321452","0.2489008917","","","","","","","","","","","75","K","2","","","78","main_expt"
"302","","bandit","157","841672","0.0-118.0-0.0","96012964","wem/bandit_either","A37PO5YNKE5D97","either","3","","","","","","","0","1","0","","0.3909827091","0.4","0.2","0.8","0.6","0.2090883318","0.2699334682","0.3909827091","0.2182462247","","","","","","","","","","","75","K","2","","","79","main_expt"
"611","","bandit","158","843804","0.0-119.0-0.0","96012964","wem/bandit_either","A37PO5YNKE5D97","either","3","","","","","","","1","0","0","0.4289339141","","0.4","0.2","0.8","0.6","","","","","0.215522018","0.2712134299","0.4289339141","0.1591694045","","","","","","","75","K","2","","","80","main_expt"
"543","","bandit","159","845864","0.0-120.0-0.0","96012964","wem/bandit_either","A37PO5YNKE5D97","either","3","","","","","","","1","0","0","0.4256341571","","0.4","0.2","0.8","0.6","","","","","0.2655955182","0.2563236188","0.4256341571","0.1661146317","","","","","","","75","K","2","","","81","main_expt"
"460","","bandit","160","847846","0.0-121.0-0.0","96012964","wem/bandit_either","A37PO5YNKE5D97","either","3","","","","","","","0","0","1","0.4153375647","","0.4","0.2","0.8","0.6","","","","","0.2642342948","0.2474856626","0.4153375647","0.2249160828","","","","","","","75","K","2","","","82","main_expt"
"431","","bandit","161","849794","0.0-122.0-0.0","96012964","wem/bandit_either","A37PO5YNKE5D97","either","3","","","","","","","0","0","1","0.4239102097","","0.4","0.2","0.8","0.6","","","","","0.2615040017","0.2338037125","0.4239102097","0.2194800234","","","","","","","75","K","2","","","83","main_expt"
"1306","","bandit","162","852619","0.0-123.0-0.0","96012964","wem/bandit_either","A37PO5YNKE5D97","either","3","","","","","","","0","0","1","0.2020024956","","0.4","0.2","0.8","0.6","","","","","0.3136368113","0.2929655049","0.4021041833","0.2020024956","","","","","","","76","L","3","","","84","main_expt"
"393","","bandit","163","854525","0.0-124.0-0.0","96012964","wem/bandit_either","A37PO5YNKE5D97","either","3","","","","","","","0","1","0","","0.1639230135","0.4","0.2","0.8","0.6","0.2433538552","0.2755572306","0.4322374594","0.1639230135","","","","","","","","","","","76","L","3","","","85","main_expt"
"662","","bandit","164","856707","0.0-125.0-0.0","96012964","wem/bandit_either","A37PO5YNKE5D97","either","3","","","","","","","0","0","1","0.1423092638","","0.4","0.2","0.8","0.6","","","","","0.2583740773","0.2706615249","0.4247618508","0.1423092638","","","","","","","76","L","3","","","86","main_expt"
"737","","bandit","165","858963","0.0-126.0-0.0","96012964","wem/bandit_either","A37PO5YNKE5D97","either","3","","","","","","","0","0","1","","0.2656778135","0.4","0.2","0.8","0.6","0.2656778135","0.3259805539","0.4130492334","0.1623313408","","","","","","","","","","","72","H","0","img/none_selected.jpg","","87","main_expt"
"392","","bandit","166","860873","0.0-127.0-0.0","96012964","wem/bandit_either","A37PO5YNKE5D97","either","3","","","","","","","0","0","1","","0.2565525481","0.4","0.2","0.8","0.6","0.2565525481","0.3471137027","0.3883747858","0.1459946163","","","","","","","","","","","72","H","0","img/none_selected.jpg","","88","main_expt"
"506","","bandit","167","862897","0.0-128.0-0.0","96012964","wem/bandit_either","A37PO5YNKE5D97","either","3","","","","","","","0","0","1","","0.3715311126","0.4","0.2","0.8","0.6","0.2471999074","0.3715311126","0.3950807547","0.1684807643","","","","","","","","","","","74","J","1","","","89","main_expt"
"316","","bandit","168","864717","0.0-129.0-0.0","96012964","wem/bandit_either","A37PO5YNKE5D97","either","3","","","","","","","0","0","1","","0.3571728809","0.4","0.2","0.8","0.6","0.2204199549","0.3571728809","0.420982679","0.1937692241","","","","","","","","","","","74","J","1","","","90","main_expt"
"325","","bandit","169","866561","0.0-130.0-0.0","96012964","wem/bandit_either","A37PO5YNKE5D97","either","3","","","","","","","0","0","1","","0.3348642023","0.4","0.2","0.8","0.6","0.2013548925","0.3348642023","0.4012606491","0.1670397906","","","","","","","","","","","74","J","1","","","91","main_expt"
"428","","bandit","170","868505","0.0-131.0-0.0","96012964","wem/bandit_either","A37PO5YNKE5D97","either","3","","","","","","","0","0","1","0.3950870333","","0.4","0.2","0.8","0.6","","","","","0.174921714","0.3551195155","0.3950870333","0.1936095216","","","","","","","75","K","2","","","92","main_expt"
"548","","bandit","171","870565","0.0-132.0-0.0","96012964","wem/bandit_either","A37PO5YNKE5D97","either","3","","","","","","","1","0","0","0.3797372222","","0.4","0.2","0.8","0.6","","","","","0.1972058505","0.3494458231","0.3797372222","0.2399824117","","","","","","","75","K","2","","","93","main_expt"
"596","","bandit","172","872693","0.0-133.0-0.0","96012964","wem/bandit_either","A37PO5YNKE5D97","either","3","","","","","","","0","1","0","","0.3346339076","0.4","0.2","0.8","0.6","0.2144007407","0.3759818745","0.3346339076","0.242536602","","","","","","","","","","","75","K","2","","","94","main_expt"
"423","","bandit","173","874627","0.0-134.0-0.0","96012964","wem/bandit_either","A37PO5YNKE5D97","either","3","","","","","","","0","0","1","0.3433005441","","0.4","0.2","0.8","0.6","","","","","0.2025691914","0.3467088588","0.3433005441","0.3081296623","","","","","","","75","K","2","","","95","main_expt"
"2112","","bandit","174","878256","0.0-135.0-0.0","96012964","wem/bandit_either","A37PO5YNKE5D97","either","3","","","","","","","0","1","0","","0.2900415689","0.4","0.2","0.8","0.6","0.1750118246","0.3520186383","0.2900415689","0.371766452","","","","","","","","","","","75","K","2","","","96","main_expt"
"491","","bandit","175","880256","0.0-136.0-0.0","96012964","wem/bandit_either","A37PO5YNKE5D97","either","3","","","","","","","0","0","1","0.3136050561","","0.4","0.2","0.8","0.6","","","","","0.2433812568","0.342216001","0.3136050561","0.3737721809","","","","","","","75","K","2","","","97","main_expt"
"619","","bandit","176","882399","0.0-137.0-0.0","96012964","wem/bandit_either","A37PO5YNKE5D97","either","3","","","","","","","0","0","1","0.3236610102","","0.4","0.2","0.8","0.6","","","","","0.1834100281","0.3775958225","0.3236610102","0.3662625892","","","","","","","75","K","2","","","98","main_expt"
"236","","bandit","177","884152","0.0-138.0-0.0","96012964","wem/bandit_either","A37PO5YNKE5D97","either","3","","","","","","","0","0","1","0.3912879072","","0.4","0.2","0.8","0.6","","","","","0.146161558","0.3490624926","0.3116662608","0.3912879072","","","","","","","76","L","3","","","99","main_expt"
"315","","bandit","178","885987","0.0-139.0-0.0","96012964","wem/bandit_either","A37PO5YNKE5D97","either","3","","","","","","","0","0","1","0.3916888764","","0.4","0.2","0.8","0.6","","","","","0.1186266926","0.3418910903","0.3806420769","0.3916888764","","","","","","","76","L","3","","","100","main_expt"
"1192","","bandit","179","888700","0.0-140.0-0.0","96012964","wem/bandit_either","A37PO5YNKE5D97","either","3","","","","","","","0","0","1","","0.1467879228","0.4","0.2","0.8","0.6","0.1467879228","0.3544055354","0.3825052475","0.3803758031","","","","","","","","","","","72","H","0","img/none_selected.jpg","","101","main_expt"
"455","","bandit","180","890684","0.0-141.0-0.0","96012964","wem/bandit_either","A37PO5YNKE5D97","either","3","","","","","","","0","0","1","","0.1336514036","0.4","0.2","0.8","0.6","0.1336514036","0.3580864163","0.3799327693","0.3685266224","","","","","","","","","","","72","H","0","img/none_selected.jpg","","102","main_expt"
"759","","bandit","181","892953","0.0-142.0-0.0","96012964","wem/bandit_either","A37PO5YNKE5D97","either","3","","","","","","","0","0","1","","0.336528594","0.4","0.2","0.8","0.6","0.1325092095","0.336528594","0.3502018886","0.3754978655","","","","","","","","","","","74","J","1","","","103","main_expt"
"362","","bandit","182","894846","0.0-143.0-0.0","96012964","wem/bandit_either","A37PO5YNKE5D97","either","3","","","","","","","0","0","1","","0.3190078166","0.4","0.2","0.8","0.6","0.1162839287","0.3190078166","0.3443431466","0.4033056484","","","","","","","","","","","74","J","1","","","104","main_expt"
"438","","bandit","183","896808","0.0-144.0-0.0","96012964","wem/bandit_either","A37PO5YNKE5D97","either","3","","","","","","","0","1","0","","0.3100940773","0.4","0.2","0.8","0.6","0.115620258","0.3100940773","0.3551378046","0.3617388181","","","","","","","","","","","74","J","1","","","105","main_expt"
"371","","bandit","184","898695","0.0-145.0-0.0","96012964","wem/bandit_either","A37PO5YNKE5D97","either","3","","","","","","","0","0","1","","0.2964842485","0.4","0.2","0.8","0.6","0.1102569517","0.2964842485","0.3177956882","0.3656875331","","","","","","","","","","","74","J","1","","","106","main_expt"
"1140","","bandit","185","901344","0.0-146.0-0.0","96012964","wem/bandit_either","A37PO5YNKE5D97","either","3","","","","","","","0","0","1","0.3463124521","","0.4","0.2","0.8","0.6","","","","","0.110599846","0.3224579283","0.3463124521","0.3478183852","","","","","","","75","K","2","","","107","main_expt"
"3524","","bandit","186","906384","0.0-147.0-0.0","96012964","wem/bandit_either","A37PO5YNKE5D97","either","3","","","","","","","0","0","1","0.330790185","","0.4","0.2","0.8","0.6","","","","","0.1647947233","0.3365568187","0.330790185","0.3715517583","","","","","","","75","K","2","","","108","main_expt"
"548","","bandit","187","908456","0.0-148.0-0.0","96012964","wem/bandit_either","A37PO5YNKE5D97","either","3","","","","","","","1","0","0","0.3259779601","","0.4","0.2","0.8","0.6","","","","","0.146095753","0.3200824859","0.3259779601","0.3713851569","","","","","","","75","K","2","","","109","main_expt"
"9004","","bandit","188","918967","0.0-149.0-0.0","96012964","wem/bandit_either","A37PO5YNKE5D97","either","3","","","","","","","0","0","1","0.3169053314","","0.4","0.2","0.8","0.6","","","","","0.1691954855","0.3179471713","0.3169053314","0.3401672382","","","","","","","75","K","2","","","110","main_expt"
"2044","","bandit","189","922518","0.0-150.0-0.0","96012964","wem/bandit_either","A37PO5YNKE5D97","either","3","","","","","","","1","0","0","0.342138516","","0.4","0.2","0.8","0.6","","","","","0.1690298198","0.3168158386","0.342138516","0.3242328008","","","","","","","75","K","2","","","111","main_expt"
"597","","bandit","190","924634","0.0-151.0-0.0","96012964","wem/bandit_either","A37PO5YNKE5D97","either","3","","","","","","","0","0","1","0.3597886873","","0.4","0.2","0.8","0.6","","","","","0.2196992501","0.3551606626","0.3597886873","0.2991119965","","","","","","","75","K","2","","","112","main_expt"
"1945","","bandit","191","928111","0.0-152.0-0.0","96012964","wem/bandit_either","A37PO5YNKE5D97","either","3","","","","","","","0","0","1","0.3364281798","","0.4","0.2","0.8","0.6","","","","","0.2723467559","0.3615444015","0.3580549124","0.3364281798","","","","","","","76","L","3","","","113","main_expt"
"588","","bandit","192","930219","0.0-153.0-0.0","96012964","wem/bandit_either","A37PO5YNKE5D97","either","3","","","","","","","0","0","1","0.3495122724","","0.4","0.2","0.8","0.6","","","","","0.2470985199","0.4043222556","0.3556181037","0.3495122724","","","","","","","76","L","3","","","114","main_expt"
"8857","","bandit","193","940583","0.0-154.0-0.0","96012964","wem/bandit_either","A37PO5YNKE5D97","either","3","","","","","","","1","0","0","0.324938203","","0.4","0.2","0.8","0.6","","","","","0.2482590513","0.4179696435","0.3489042174","0.324938203","","","","","","","76","L","3","","","115","main_expt"
"748","","bandit","194","942863","0.0-155.0-0.0","96012964","wem/bandit_either","A37PO5YNKE5D97","either","3","","","","","","","0","0","1","0.3227512736","","0.4","0.2","0.8","0.6","","","","","0.1992012358","0.4324393975","0.3466245191","0.3227512736","","","","","","","76","L","3","","","116","main_expt"
"474","","bandit","195","944854","0.0-156.0-0.0","96012964","wem/bandit_either","A37PO5YNKE5D97","either","3","","","","","","","0","0","1","0.2585209305","","0.4","0.2","0.8","0.6","","","","","0.216355905","0.4290779421","0.3581754781","0.2585209305","","","","","","","76","L","3","","","117","main_expt"
"893","","bandit","196","947264","0.0-157.0-0.0","96012964","wem/bandit_either","A37PO5YNKE5D97","either","3","","","","","","","0","0","1","","0.4459264202","0.4","0.2","0.8","0.6","0.1715453935","0.4459264202","0.283939031","0.2817260076","","","","","","","","","","","74","J","1","","","118","main_expt"
"419","","bandit","197","949204","0.0-158.0-0.0","96012964","wem/bandit_either","A37PO5YNKE5D97","either","3","","","","","","","0","0","1","0.436995295","","0.4","0.2","0.8","0.6","","","","","0.1843456939","0.436995295","0.2992634423","0.328214026","","","","","","","74","J","1","","","119","main_expt"
"368","","bandit","198","951086","0.0-159.0-0.0","96012964","wem/bandit_either","A37PO5YNKE5D97","either","3","","","","","","","0","0","1","","0.4151314625","0.4","0.2","0.8","0.6","0.1848061615","0.4151314625","0.1878150733","0.3355603121","","","","","","","","","","","74","J","1","","","120","main_expt"
"1116","","bandit","199","953718","0.0-160.0-0.0","96012964","wem/bandit_either","A37PO5YNKE5D97","either","3","","","","","","","0","0","1","0.1447458933","","0.4","0.2","0.8","0.6","","","","","0.1679578636","0.4384064527","0.1447458933","0.3829587724","","","","","","","75","K","2","","","121","main_expt"
"645","","bandit","200","955875","0.0-161.0-0.0","96012964","wem/bandit_either","A37PO5YNKE5D97","either","3","","","","","","","0","0","1","0.1176060398","","0.4","0.2","0.8","0.6","","","","","0.197295971","0.4417589501","0.1176060398","0.3995678287","","","","","","","75","K","2","","","122","main_expt"
"456","","bandit","201","957841","0.0-162.0-0.0","96012964","wem/bandit_either","A37PO5YNKE5D97","either","3","","","","","","","0","0","1","0.1097677055","","0.4","0.2","0.8","0.6","","","","","0.2184653352","0.4017154396","0.1097677055","0.3656739583","","","","","","","75","K","2","","","123","main_expt"
"378","","bandit","202","959741","0.0-163.0-0.0","96012964","wem/bandit_either","A37PO5YNKE5D97","either","3","","","","","","","0","0","1","","0.2147868977","0.4","0.2","0.8","0.6","0.2147868977","0.3619070526","0.08048168986","0.3862549257","","","","","","","","","","","72","H","0","img/none_selected.jpg","","124","main_expt"
"430","","bandit","203","961697","0.0-164.0-0.0","96012964","wem/bandit_either","A37PO5YNKE5D97","either","3","","","","","","","0","0","1","0.1667936559","","0.4","0.2","0.8","0.6","","","","","0.1667936559","0.3567490645","0.07842900555","0.3593796239","","","","","","","72","H","0","img/none_selected.jpg","","125","main_expt"
"306","","bandit","204","963512","0.0-165.0-0.0","96012964","wem/bandit_either","A37PO5YNKE5D97","either","3","","","","","","","0","0","1","","0.1453295256","0.4","0.2","0.8","0.6","0.1453295256","0.3558473019","0.08318363027","0.3413194209","","","","","","","","","","","72","H","0","img/none_selected.jpg","","126","main_expt"
"386","","bandit","205","965430","0.0-166.0-0.0","96012964","wem/bandit_either","A37PO5YNKE5D97","either","3","","","","","","","1","0","0","0.3369929262","","0.4","0.2","0.8","0.6","","","","","0.1635755653","0.3543069734","0.06812438963","0.3369929262","","","","","","","76","L","3","","","127","main_expt"
"613","","bandit","206","967566","0.0-167.0-0.0","96012964","wem/bandit_either","A37PO5YNKE5D97","either","3","","","","","","","0","0","1","0.2922989636","","0.4","0.2","0.8","0.6","","","","","0.1872639566","0.3328374851","0.08303766286","0.2922989636","","","","","","","76","L","3","","","128","main_expt"
"533","","bandit","207","969621","0.0-168.0-0.0","96012964","wem/bandit_either","A37PO5YNKE5D97","either","3","","","","","","","0","0","1","0.3095146075","","0.4","0.2","0.8","0.6","","","","","0.2032718864","0.3238683282","0.09047360051","0.3095146075","","","","","","","76","L","3","","","129","main_expt"
"574","","bandit","208","971716","0.0-169.0-0.0","96012964","wem/bandit_either","A37PO5YNKE5D97","either","3","","","","","","","0","0","1","0.3068425872","","0.4","0.2","0.8","0.6","","","","","0.2025864764","0.2750329062","0.131542256","0.3068425872","","","","","","","76","L","3","","","130","main_expt"
"639","","bandit","209","973861","0.0-170.0-0.0","96012964","wem/bandit_either","A37PO5YNKE5D97","either","3","","","","","","","1","0","0","0.3112504131","","0.4","0.2","0.8","0.6","","","","","0.2158584071","0.2751886228","0.1492019489","0.3112504131","","","","","","","76","L","3","","","131","main_expt"
"333","","bandit","210","975712","0.0-171.0-0.0","96012964","wem/bandit_either","A37PO5YNKE5D97","either","3","","","","","","","0","0","1","0.3595653039","","0.4","0.2","0.8","0.6","","","","","0.2105840197","0.2729729886","0.1571188116","0.3595653039","","","","","","","76","L","3","","","132","main_expt"
"386","","bandit","211","977614","0.0-172.0-0.0","96012964","wem/bandit_either","A37PO5YNKE5D97","either","3","","","","","","","0","0","1","","0.3873527377","0.4","0.2","0.8","0.6","0.2328486735","0.3248088544","0.2021073832","0.3873527377","","","","","","","","","","","76","L","3","","","133","main_expt"
"228","","bandit","212","979364","0.0-173.0-0.0","96012964","wem/bandit_either","A37PO5YNKE5D97","either","3","","","","","","","0","1","0","","0.3973884711","0.4","0.2","0.8","0.6","0.2589092944","0.3596446835","0.2693148074","0.3973884711","","","","","","","","","","","76","L","3","","","134","main_expt"
"630","","bandit","213","981525","0.0-174.0-0.0","96012964","wem/bandit_either","A37PO5YNKE5D97","either","3","","","","","","","0","0","1","","0.4080523157","0.4","0.2","0.8","0.6","0.2637326353","0.318377279","0.2625780805","0.4080523157","","","","","","","","","","","76","L","3","","","135","main_expt"
"439","","bandit","214","983484","0.0-175.0-0.0","96012964","wem/bandit_either","A37PO5YNKE5D97","either","3","","","","","","","1","0","0","0.4176503084","","0.4","0.2","0.8","0.6","","","","","0.2718680576","0.3160887017","0.2981707722","0.4176503084","","","","","","","76","L","3","","","136","main_expt"
"374","","bandit","215","985366","0.0-176.0-0.0","96012964","wem/bandit_either","A37PO5YNKE5D97","either","3","","","","","","","0","0","1","0.3859803947","","0.4","0.2","0.8","0.6","","","","","0.2919957672","0.2883225013","0.3148158286","0.3859803947","","","","","","","76","L","3","","","137","main_expt"
"365","","bandit","216","987255","0.0-177.0-0.0","96012964","wem/bandit_either","A37PO5YNKE5D97","either","3","","","","","","","0","0","1","","0.358492916","0.4","0.2","0.8","0.6","0.3193993407","0.3009152141","0.3111523267","0.358492916","","","","","","","","","","","76","L","3","","","138","main_expt"
"468","","bandit","217","989248","0.0-178.0-0.0","96012964","wem/bandit_either","A37PO5YNKE5D97","either","3","","","","","","","1","0","0","0.3608756281","","0.4","0.2","0.8","0.6","","","","","0.3404434035","0.293720077","0.3034593298","0.3608756281","","","","","","","76","L","3","","","139","main_expt"
"499","","bandit","218","991271","0.0-179.0-0.0","96012964","wem/bandit_either","A37PO5YNKE5D97","either","3","","","","","","","0","0","1","0.3421836092","","0.4","0.2","0.8","0.6","","","","","0.3278052243","0.286059761","0.2507495005","0.3421836092","","","","","","","76","L","3","","","140","main_expt"
"380","","bandit","219","993161","0.0-180.0-0.0","96012964","wem/bandit_either","A37PO5YNKE5D97","either","3","","","","","","","0","0","1","0.3737340371","","0.4","0.2","0.8","0.6","","","","","0.3038906839","0.2931724706","0.2220694513","0.3737340371","","","","","","","76","L","3","","","141","main_expt"
"466","","bandit","220","995133","0.0-181.0-0.0","96012964","wem/bandit_either","A37PO5YNKE5D97","either","3","","","","","","","0","1","0","","0.2119249064","0.4","0.2","0.8","0.6","0.2924195757","0.2182180164","0.2119249064","0.3461121542","","","","","","","","","","","75","K","2","","","142","main_expt"
"389","","bandit","221","997041","0.0-182.0-0.0","96012964","wem/bandit_either","A37PO5YNKE5D97","either","3","","","","","","","0","0","1","","0.2665135591","0.4","0.2","0.8","0.6","0.2816149275","0.2015475508","0.2665135591","0.3305931074","","","","","","","","","","","75","K","2","","","143","main_expt"
"345","","bandit","222","998909","0.0-183.0-0.0","96012964","wem/bandit_either","A37PO5YNKE5D97","either","3","","","","","","","0","0","1","0.2854155153","","0.4","0.2","0.8","0.6","","","","","0.2355525614","0.2074070562","0.2854155153","0.3561039987","","","","","","","75","K","2","","","144","main_expt"
"414","","bandit","223","1000829","0.0-184.0-0.0","96012964","wem/bandit_either","A37PO5YNKE5D97","either","3","","","","","","","0","0","1","","0.2521048148","0.4","0.2","0.8","0.6","0.2185662272","0.1415368311","0.2521048148","0.3648023512","","","","","","","","","","","75","K","2","","","145","main_expt"
"413","","bandit","224","1002756","0.0-185.0-0.0","96012964","wem/bandit_either","A37PO5YNKE5D97","either","3","","","","","","","1","0","0","0.2321266643","","0.4","0.2","0.8","0.6","","","","","0.2209315791","0.1549520657","0.2321266643","0.3450315","","","","","","","75","K","2","","","146","main_expt"
"693","","bandit","225","1004960","0.0-186.0-0.0","96012964","wem/bandit_either","A37PO5YNKE5D97","either","3","","","","","","","0","0","1","0.3159383216","","0.4","0.2","0.8","0.6","","","","","0.2889766311","0.1469310363","0.3159383216","0.2720321141","","","","","","","75","K","2","","","147","main_expt"
"435","","bandit","226","1006921","0.0-187.0-0.0","96012964","wem/bandit_either","A37PO5YNKE5D97","either","3","","","","","","","0","0","1","0.2673485129","","0.4","0.2","0.8","0.6","","","","","0.2859466156","0.1332828417","0.2673485129","0.2598972664","","","","","","","75","K","2","","","148","main_expt"
"273","","bandit","227","1008709","0.0-188.0-0.0","96012964","wem/bandit_either","A37PO5YNKE5D97","either","3","","","","","","","0","0","1","","0.3348600541","0.4","0.2","0.8","0.6","0.2588478233","0.1102010463","0.3348600541","0.2343157719","","","","","","","","","","","75","K","2","","","149","main_expt"
"717","","bandit","228","1010944","0.0-189.0-0.0","96012964","wem/bandit_either","A37PO5YNKE5D97","either","3","","","","","","","0","0","1","0.1356103494","","0.4","0.2","0.8","0.6","","","","","0.2224653457","0.1356103494","0.3659656834","0.2451363599","","","","","","","74","J","1","","","150","main_expt"
"754","","bandit","229","1013211","0.0-190.0-0.0","96012964","wem/bandit_either","A37PO5YNKE5D97","either","3","","","","","","","0","0","1","0.1621229287","","0.4","0.2","0.8","0.6","","","","","0.2387237716","0.1621229287","0.36397653","0.2053737132","","","","","","","74","J","1","","","151","main_expt"
"576","","bandit","230","1015297","0.0-191.0-0.0","96012964","wem/bandit_either","A37PO5YNKE5D97","either","3","","","","","","","0","0","1","","0.1412745606","0.4","0.2","0.8","0.6","0.2519133504","0.1412745606","0.3710672623","0.2396242378","","","","","","","","","","","74","J","1","","","152","main_expt"
"809","","bandit","231","1017623","0.0-192.0-0.0","96012964","wem/bandit_either","A37PO5YNKE5D97","either","3","","","","","","","0","0","1","","0.1707580034","0.4","0.2","0.8","0.6","0.3078499427","0.1707580034","0.3828607765","0.2923277395","","","","","","","","","","","74","J","1","","","153","main_expt"
"547","","bandit","232","1019680","0.0-193.0-0.0","96012964","wem/bandit_either","A37PO5YNKE5D97","either","3","","","","","","","0","0","1","","0.3283820497","0.4","0.2","0.8","0.6","0.3283820497","0.1717455462","0.3526468527","0.3166515581","","","","","","","","","","","72","H","0","img/none_selected.jpg","","154","main_expt"
"290","","bandit","233","1021496","0.0-194.0-0.0","96012964","wem/bandit_either","A37PO5YNKE5D97","either","3","","","","","","","1","0","0","0.3303057687","","0.4","0.2","0.8","0.6","","","","","0.3303057687","0.1785539081","0.3865981945","0.3194616596","","","","","","","72","H","0","img/none_selected.jpg","","155","main_expt"
"410","","bandit","234","1023430","0.0-195.0-0.0","96012964","wem/bandit_either","A37PO5YNKE5D97","either","3","","","","","","","0","0","1","","0.3178912443","0.4","0.2","0.8","0.6","0.3178912443","0.2175815231","0.4328422877","0.3767011333","","","","","","","","","","","72","H","0","img/none_selected.jpg","","156","main_expt"
"348","","bandit","235","1025299","0.0-196.0-0.0","96012964","wem/bandit_either","A37PO5YNKE5D97","either","3","","","","","","","0","0","1","0.3236874272","","0.4","0.2","0.8","0.6","","","","","0.3236874272","0.216674397","0.4224906378","0.3853144204","","","","","","","72","H","0","img/none_selected.jpg","","157","main_expt"
"326","","bandit","236","1027161","0.0-197.0-0.0","96012964","wem/bandit_either","A37PO5YNKE5D97","either","3","","","","","","","0","0","1","0.3731337511","","0.4","0.2","0.8","0.6","","","","","0.3731337511","0.2184316938","0.4428847078","0.3519128793","","","","","","","72","H","0","img/none_selected.jpg","","158","main_expt"
"345","","bandit","237","1029034","0.0-198.0-0.0","96012964","wem/bandit_either","A37PO5YNKE5D97","either","3","","","","","","","0","0","1","","0.3255157266","0.4","0.2","0.8","0.6","0.3758107074","0.2603966468","0.4498083842","0.3255157266","","","","","","","","","","","76","L","3","","","159","main_expt"
"361","","bandit","238","1030912","0.0-199.0-0.0","96012964","wem/bandit_either","A37PO5YNKE5D97","either","3","","","","","","","0","0","1","","0.379238532","0.4","0.2","0.8","0.6","0.3494215766","0.2242017374","0.4319550234","0.379238532","","","","","","","","","","","76","L","3","","","160","main_expt"
"346","","bandit","239","1032773","0.0-200.0-0.0","96012964","wem/bandit_either","A37PO5YNKE5D97","either","3","","","","","","","0","0","1","","0.3776335756","0.4","0.2","0.8","0.6","0.3327111917","0.2014027125","0.4417514389","0.3776335756","","","","","","","","","","","76","L","3","","","161","main_expt"
"806","","bandit","240","1035090","0.0-201.0-0.0","96012964","wem/bandit_either","A37PO5YNKE5D97","either","3","","","","","","","0","0","1","0.2955751891","","0.4","0.2","0.8","0.6","","","","","0.3171011618","0.2038621466","0.4081293495","0.2955751891","","","","","","","76","L","3","","","162","main_expt"
"344","","bandit","241","1036956","0.0-202.0-0.0","96012964","wem/bandit_either","A37PO5YNKE5D97","either","3","","","","","","","0","0","1","","0.30851492","0.4","0.2","0.8","0.6","0.364183239","0.1238136799","0.4265776113","0.30851492","","","","","","","","","","","76","L","3","","","163","main_expt"
"503","","bandit","242","1038969","0.0-203.0-0.0","96012964","wem/bandit_either","A37PO5YNKE5D97","either","3","","","","","","","0","0","1","0.427472809","","0.4","0.2","0.8","0.6","","","","","0.3917374524","0.1104941302","0.427472809","0.3074756362","","","","","","","75","K","2","","","164","main_expt"
"385","","bandit","243","1040878","0.0-204.0-0.0","96012964","wem/bandit_either","A37PO5YNKE5D97","either","3","","","","","","","1","0","0","0.4016343469","","0.4","0.2","0.8","0.6","","","","","0.3629360172","0.1099358877","0.4016343469","0.2743039079","","","","","","","75","K","2","","","165","main_expt"
"468","","bandit","244","1042870","0.0-205.0-0.0","96012964","wem/bandit_either","A37PO5YNKE5D97","either","3","","","","","","","0","0","1","0.3578169927","","0.4","0.2","0.8","0.6","","","","","0.3697042915","0.08082918558","0.3578169927","0.2900226329","","","","","","","75","K","2","","","166","main_expt"
"531","","bandit","245","1044917","0.0-206.0-0.0","96012964","wem/bandit_either","A37PO5YNKE5D97","either","3","","","","","","","0","0","1","0.3346076013","","0.4","0.2","0.8","0.6","","","","","0.3626443337","0.08539074978","0.3346076013","0.3444017494","","","","","","","75","K","2","","","167","main_expt"
"509","","bandit","246","1046949","0.0-207.0-0.0","96012964","wem/bandit_either","A37PO5YNKE5D97","either","3","","","","","","","1","0","0","0.36326211","","0.4","0.2","0.8","0.6","","","","","0.3488380128","0.1307687804","0.36326211","0.3934904689","","","","","","","75","K","2","","","168","main_expt"
"685","","bandit","247","1049146","0.0-208.0-0.0","96012964","wem/bandit_either","A37PO5YNKE5D97","either","3","","","","","","","0","0","1","0.3389060657","","0.4","0.2","0.8","0.6","","","","","0.3338465455","0.09435724838","0.3389060657","0.3712778229","","","","","","","75","K","2","","","169","main_expt"
"535","","bandit","248","1051202","0.0-209.0-0.0","96012964","wem/bandit_either","A37PO5YNKE5D97","either","3","","","","","","","0","1","0","","0.3820287301","0.4","0.2","0.8","0.6","0.3675902536","0.09371103674","0.3820287301","0.3348119161","","","","","","","","","","","75","K","2","","","170","main_expt"
"663","","bandit","249","1053400","0.0-210.0-0.0","96012964","wem/bandit_either","A37PO5YNKE5D97","either","3","","","","","","","0","1","0","","0.3738350687","0.4","0.2","0.8","0.6","0.3663425941","0.0912992704","0.3738350687","0.3697689907","","","","","","","","","","","75","K","2","","","171","main_expt"
"538","","bandit","250","1055454","0.0-211.0-0.0","96012964","wem/bandit_either","A37PO5YNKE5D97","either","3","","","","","","","0","0","1","0.3449486646","","0.4","0.2","0.8","0.6","","","","","0.3571019768","0.1053216192","0.3449486646","0.3438364448","","","","","","","75","K","2","","","172","main_expt"
"459","","bandit","251","1057425","0.0-212.0-0.0","96012964","wem/bandit_either","A37PO5YNKE5D97","either","3","","","","","","","0","0","1","","0.3754463001","0.4","0.2","0.8","0.6","0.383943734","0.1119971747","0.3754463001","0.4064517123","","","","","","","","","","","75","K","2","","","173","main_expt"
"392","","bandit","252","1059336","0.0-213.0-0.0","96012964","wem/bandit_either","A37PO5YNKE5D97","either","3","","","","","","","0","0","1","0.3983783957","","0.4","0.2","0.8","0.6","","","","","0.378453819","0.1049574405","0.3983783957","0.4266345201","","","","","","","75","K","2","","","174","main_expt"
"579","","bandit","253","1061435","0.0-214.0-0.0","96012964","wem/bandit_either","A37PO5YNKE5D97","either","3","","","","","","","0","0","1","","0.07351671593","0.4","0.2","0.8","0.6","0.3577460836","0.07351671593","0.4176958341","0.4413212306","","","","","","","","","","","74","J","1","","","175","main_expt"
"304","","bandit","254","1063267","0.0-215.0-0.0","96012964","wem/bandit_either","A37PO5YNKE5D97","either","3","","","","","","","0","0","1","","0.06097876817","0.4","0.2","0.8","0.6","0.3346789668","0.06097876817","0.4336280271","0.438548454","","","","","","","","","","","74","J","1","","","176","main_expt"
"350","","bandit","255","1065129","0.0-216.0-0.0","96012964","wem/bandit_either","A37PO5YNKE5D97","either","3","","","","","","","0","0","1","","0.05873143133","0.4","0.2","0.8","0.6","0.3720341948","0.05873143133","0.3863917124","0.4350726265","","","","","","","","","","","74","J","1","","","177","main_expt"
"377","","bandit","256","1067020","0.0-217.0-0.0","96012964","wem/bandit_either","A37PO5YNKE5D97","either","3","","","","","","","0","0","1","","0.4243236705","0.4","0.2","0.8","0.6","0.4243236705","0.07829718294","0.3826512014","0.4029859975","","","","","","","","","","","72","H","0","img/none_selected.jpg","","178","main_expt"
"293","","bandit","257","1068821","0.0-218.0-0.0","96012964","wem/bandit_either","A37PO5YNKE5D97","either","3","","","","","","","0","1","0","","0.4396564102","0.4","0.2","0.8","0.6","0.4396564102","0.05868413977","0.3681046487","0.3738585124","","","","","","","","","","","72","H","0","img/none_selected.jpg","","179","main_expt"
"452","","bandit","258","1070781","0.0-219.0-0.0","96012964","wem/bandit_either","A37PO5YNKE5D97","either","3","","","","","","","0","0","1","","0.4501825932","0.4","0.2","0.8","0.6","0.4501825932","0.04540529238","0.374340785","0.3884150149","","","","","","","","","","","72","H","0","img/none_selected.jpg","","180","main_expt"
"285","","bandit","259","1072583","0.0-220.0-0.0","96012964","wem/bandit_either","A37PO5YNKE5D97","either","3","","","","","","","0","0","1","","0.4527537228","0.4","0.2","0.8","0.6","0.4527537228","0.04810206047","0.3844034803","0.3977335033","","","","","","","","","","","72","H","0","img/none_selected.jpg","","181","main_expt"
"395","","bandit","260","1074496","0.0-221.0-0.0","96012964","wem/bandit_either","A37PO5YNKE5D97","either","3","","","","","","","0","0","1","","0.4733821952","0.4","0.2","0.8","0.6","0.4733821952","0.0564969073","0.3569363444","0.4194204302","","","","","","","","","","","72","H","0","img/none_selected.jpg","","182","main_expt"
"323","","bandit","261","1076342","0.0-222.0-0.0","96012964","wem/bandit_either","A37PO5YNKE5D97","either","3","","","","","","","0","0","1","","0.4741352064","0.4","0.2","0.8","0.6","0.4741352064","0.06674959941","0.3930074682","0.4050300101","","","","","","","","","","","72","H","0","img/none_selected.jpg","","183","main_expt"
"378","","bandit","262","1078249","0.0-223.0-0.0","96012964","wem/bandit_either","A37PO5YNKE5D97","either","3","","","","","","","1","0","0","0.4272992256","","0.4","0.2","0.8","0.6","","","","","0.4835015011","0.05730522946","0.4105724965","0.4272992256","","","","","","","76","L","3","","","184","main_expt"
"400","","bandit","263","1080163","0.0-224.0-0.0","96012964","wem/bandit_either","A37PO5YNKE5D97","either","3","","","","","","","1","0","0","0.4213026748","","0.4","0.2","0.8","0.6","","","","","0.4907566516","0.0759668512","0.4230276401","0.4213026748","","","","","","","76","L","3","","","185","main_expt"
"638","","bandit","264","1082321","0.0-225.0-0.0","96012964","wem/bandit_either","A37PO5YNKE5D97","either","3","","","","","","","0","1","0","","0.3729626057","0.4","0.2","0.8","0.6","0.4777100538","0.0736669194","0.4243078066","0.3729626057","","","","","","","","","","","76","L","3","","","186","main_expt"
"393","","bandit","265","1084220","0.0-226.0-0.0","96012964","wem/bandit_either","A37PO5YNKE5D97","either","3","","","","","","","0","0","1","","0.4022080601","0.4","0.2","0.8","0.6","0.4751658893","0.1020870739","0.419104652","0.4022080601","","","","","","","","","","","76","L","3","","","187","main_expt"
"446","","bandit","266","1086179","0.0-227.0-0.0","96012964","wem/bandit_either","A37PO5YNKE5D97","either","3","","","","","","","0","0","1","0.4218987807","","0.4","0.2","0.8","0.6","","","","","0.4711403756","0.110066606","0.3917910895","0.4218987807","","","","","","","76","L","3","","","188","main_expt"
"343","","bandit","267","1088041","0.0-228.0-0.0","96012964","wem/bandit_either","A37PO5YNKE5D97","either","3","","","","","","","1","0","0","0.4284519853","","0.4","0.2","0.8","0.6","","","","","0.4848283219","0.1616324423","0.3696037293","0.4284519853","","","","","","","76","L","3","","","189","main_expt"
"497","","bandit","268","1090060","0.0-229.0-0.0","96012964","wem/bandit_either","A37PO5YNKE5D97","either","3","","","","","","","0","0","1","0.4104863902","","0.4","0.2","0.8","0.6","","","","","0.4906713727","0.1401199573","0.3722688899","0.4104863902","","","","","","","76","L","3","","","190","main_expt"
"638","","bandit","269","1092209","0.0-230.0-0.0","96012964","wem/bandit_either","A37PO5YNKE5D97","either","3","","","","","","","0","0","1","","0.4071825693","0.4","0.2","0.8","0.6","0.4944082075","0.1782786715","0.3956575009","0.4071825693","","","","","","","","","","","76","L","3","","","191","main_expt"
"377","","bandit","270","1094097","0.0-231.0-0.0","96012964","wem/bandit_either","A37PO5YNKE5D97","either","3","","","","","","","1","0","0","0.4172763132","","0.4","0.2","0.8","0.6","","","","","0.4922337742","0.203517815","0.3843500594","0.4172763132","","","","","","","76","L","3","","","192","main_expt"
"553","","bandit","271","1096177","0.0-232.0-0.0","96012964","wem/bandit_either","A37PO5YNKE5D97","either","3","","","","","","","0","0","1","","0.3965334946","0.4","0.2","0.8","0.6","0.4887356563","0.172030281","0.3801723293","0.3965334946","","","","","","","","","","","76","L","3","","","193","main_expt"
"600","","bandit","272","1098294","0.0-233.0-0.0","96012964","wem/bandit_either","A37PO5YNKE5D97","either","3","","","","","","","0","0","1","0.383316574","","0.4","0.2","0.8","0.6","","","","","0.4850955297","0.1813301739","0.3871645121","0.383316574","","","","","","","76","L","3","","","194","main_expt"
"355","","bandit","273","1100181","0.0-234.0-0.0","96012964","wem/bandit_either","A37PO5YNKE5D97","either","3","","","","","","","0","0","1","0.3965345796","","0.4","0.2","0.8","0.6","","","","","0.4848341758","0.2284295163","0.3633903175","0.3965345796","","","","","","","76","L","3","","","195","main_expt"
"348","","bandit","274","1102046","0.0-235.0-0.0","96012964","wem/bandit_either","A37PO5YNKE5D97","either","3","","","","","","","0","0","1","","0.3978469093","0.4","0.2","0.8","0.6","0.490049139","0.2501246714","0.3811675741","0.3978469093","","","","","","","","","","","76","L","3","","","196","main_expt"
"387","","bandit","275","1103948","0.0-236.0-0.0","96012964","wem/bandit_either","A37PO5YNKE5D97","either","3","","","","","","","0","0","1","0.3172926233","","0.4","0.2","0.8","0.6","","","","","0.4912643012","0.3150809007","0.3487868089","0.3172926233","","","","","","","76","L","3","","","197","main_expt"
"372","","bandit","276","1105830","0.0-237.0-0.0","96012964","wem/bandit_either","A37PO5YNKE5D97","either","3","","","","","","","0","0","1","0.2986771554","","0.4","0.2","0.8","0.6","","","","","0.4793615714","0.3442077965","0.2986771554","0.3113170709","","","","","","","75","K","2","","","198","main_expt"
"412","","bandit","277","1107757","0.0-238.0-0.0","96012964","wem/bandit_either","A37PO5YNKE5D97","either","3","","","","","","","0","0","1","0.3481418533","","0.4","0.2","0.8","0.6","","","","","0.4661622676","0.3675051223","0.3481418533","0.3066116159","","","","","","","75","K","2","","","199","main_expt"
"443","","bandit","278","1109717","0.0-239.0-0.0","96012964","wem/bandit_either","A37PO5YNKE5D97","either","3","","","","","","","1","0","0","0.353319573","","0.4","0.2","0.8","0.6","","","","","0.4479238565","0.3044821291","0.353319573","0.2521122026","","","","","","","75","K","2","","","200","main_expt"
"540","","bandit","279","1111770","0.0-240.0-0.0","96012964","wem/bandit_either","A37PO5YNKE5D97","either","3","","","","","","","0","0","1","0.3676338631","","0.4","0.2","0.8","0.6","","","","","0.4429166455","0.3013824411","0.3676338631","0.2679963248","","","","","","","75","K","2","","","201","main_expt"
"606","","bandit","280","1113893","0.0-241.0-0.0","96012964","wem/bandit_either","A37PO5YNKE5D97","either","3","","","","","","","0","0","1","","0.311657493","0.4","0.2","0.8","0.6","0.442820363","0.3001954661","0.311657493","0.2076546236","","","","","","","","","","","75","K","2","","","202","main_expt"
"252","","bandit","281","1115671","0.0-242.0-0.0","96012964","wem/bandit_either","A37PO5YNKE5D97","either","3","","","","","","","0","0","1","","0.3189156814","0.4","0.2","0.8","0.6","0.4539008368","0.3189156814","0.3364041998","0.1881707852","","","","","","","","","","","74","J","1","","","203","main_expt"
"514","","bandit","282","1117706","0.0-243.0-0.0","96012964","wem/bandit_either","A37PO5YNKE5D97","either","3","","","","","","","0","0","1","","0.3162062407","0.4","0.2","0.8","0.6","0.4163307037","0.3162062407","0.3148670147","0.2057853427","","","","","","","","","","","74","J","1","","","204","main_expt"
"336","","bandit","283","1119556","0.0-244.0-0.0","96012964","wem/bandit_either","A37PO5YNKE5D97","either","3","","","","","","","0","1","0","","0.347278619","0.4","0.2","0.8","0.6","0.4045388199","0.347278619","0.3293187519","0.2564451259","","","","","","","","","","","74","J","1","","","205","main_expt"
"388","","bandit","284","1121463","0.0-245.0-0.0","96012964","wem/bandit_either","A37PO5YNKE5D97","either","3","","","","","","","0","1","0","","0.2970129147","0.4","0.2","0.8","0.6","0.4083422121","0.2970129147","0.2705077244","0.3082896296","","","","","","","","","","","74","J","1","","","206","main_expt"
"385","","bandit","285","1123367","0.0-246.0-0.0","96012964","wem/bandit_either","A37PO5YNKE5D97","either","3","","","","","","","0","0","1","","0.3331481178","0.4","0.2","0.8","0.6","0.4033585138","0.3331481178","0.3083591011","0.3235103938","","","","","","","","","","","74","J","1","","","207","main_expt"
"1402","","bandit","286","1126287","0.0-247.0-0.0","96012964","wem/bandit_either","A37PO5YNKE5D97","either","3","","","","","","","0","0","1","0.3195917859","","0.4","0.2","0.8","0.6","","","","","0.3753320851","0.3195917859","0.2489273718","0.3563539536","","","","","","","74","J","1","","","208","main_expt"
"625","","bandit","287","1128431","0.0-248.0-0.0","96012964","wem/bandit_either","A37PO5YNKE5D97","either","3","","","","","","","1","0","0","0.3864970555","","0.4","0.2","0.8","0.6","","","","","0.3864970555","0.3642345195","0.2224321457","0.3821305916","","","","","","","72","H","0","img/none_selected.jpg","","209","main_expt"
"475","","bandit","288","1130431","0.0-249.0-0.0","96012964","wem/bandit_either","A37PO5YNKE5D97","either","3","","","","","","","0","0","1","","0.3894881908","0.4","0.2","0.8","0.6","0.3894881908","0.3518797164","0.2184729634","0.4067483812","","","","","","","","","","","72","H","0","img/none_selected.jpg","","210","main_expt"
"498","","bandit","289","1132448","0.0-250.0-0.0","96012964","wem/bandit_either","A37PO5YNKE5D97","either","3","","","","","","","0","0","1","","0.4052823736","0.4","0.2","0.8","0.6","0.4052823736","0.3781537602","0.2178464352","0.376825818","","","","","","","","","","","72","H","0","img/none_selected.jpg","","211","main_expt"
"442","","bandit","290","1134401","0.0-251.0-0.0","96012964","wem/bandit_either","A37PO5YNKE5D97","either","3","","","","","","","0","0","1","","0.3783189977","0.4","0.2","0.8","0.6","0.3783189977","0.3773353051","0.1644702768","0.3481764155","","","","","","","","","","","72","H","0","img/none_selected.jpg","","212","main_expt"
"472","","bandit","291","1136386","0.0-252.0-0.0","96012964","wem/bandit_either","A37PO5YNKE5D97","either","3","","","","","","","0","0","1","0.3804187243","","0.4","0.2","0.8","0.6","","","","","0.3804187243","0.3448860985","0.1271660564","0.3239198888","","","","","","","72","H","0","img/none_selected.jpg","","213","main_expt"
"295","","bandit","292","1138202","0.0-253.0-0.0","96012964","wem/bandit_either","A37PO5YNKE5D97","either","3","","","","","","","0","0","1","","0.3964056757","0.4","0.2","0.8","0.6","0.3964056757","0.3622000499","0.1368129038","0.3592643085","","","","","","","","","","","72","H","0","img/none_selected.jpg","","214","main_expt"
"663","","bandit","293","1140387","0.0-254.0-0.0","96012964","wem/bandit_either","A37PO5YNKE5D97","either","3","","","","","","","0","0","1","0.3482739819","","0.4","0.2","0.8","0.6","","","","","0.3939862607","0.3408682726","0.07615368859","0.3482739819","","","","","","","76","L","3","","","215","main_expt"
"367","","bandit","294","1142261","0.0-255.0-0.0","96012964","wem/bandit_either","A37PO5YNKE5D97","either","3","","","","","","","0","1","0","","0.2972527025","0.4","0.2","0.8","0.6","0.4062496234","0.328819006","0.07711559412","0.2972527025","","","","","","","","","","","76","L","3","","","216","main_expt"
"540","","bandit","295","1144332","0.0-256.0-0.0","96012964","wem/bandit_either","A37PO5YNKE5D97","either","3","","","","","","","0","0","1","0.2850944341","","0.4","0.2","0.8","0.6","","","","","0.3440498305","0.3229374792","0.07728173513","0.2850944341","","","","","","","76","L","3","","","217","main_expt"
"419","","bandit","296","1146271","0.0-257.0-0.0","96012964","wem/bandit_either","A37PO5YNKE5D97","either","3","","","","","","","0","0","1","0.2483413171","","0.4","0.2","0.8","0.6","","","","","0.3198020565","0.3616220652","0.07919919155","0.2483413171","","","","","","","76","L","3","","","218","main_expt"
"417","","bandit","297","1148215","0.0-258.0-0.0","96012964","wem/bandit_either","A37PO5YNKE5D97","either","3","","","","","","","0","1","0","","0.2680513607","0.4","0.2","0.8","0.6","0.3078290176","0.3591176528","0.1270410367","0.2680513607","","","","","","","","","","","76","L","3","","","219","main_expt"
"537","","bandit","298","1150283","0.0-259.0-0.0","96012964","wem/bandit_either","A37PO5YNKE5D97","either","3","","","","","","","0","0","1","0.304668496","","0.4","0.2","0.8","0.6","","","","","0.2961895162","0.2758994579","0.1117499599","0.304668496","","","","","","","76","L","3","","","220","main_expt"
"549","","bandit","299","1152362","0.0-260.0-0.0","96012964","wem/bandit_either","A37PO5YNKE5D97","either","3","","","","","","","0","0","1","0.2773284289","","0.4","0.2","0.8","0.6","","","","","0.2658603678","0.3119987931","0.1186324211","0.2773284289","","","","","","","76","L","3","","","221","main_expt"
"438","","bandit","300","1154313","0.0-261.0-0.0","96012964","wem/bandit_either","A37PO5YNKE5D97","either","3","","","","","","","1","0","0","0.2152506718","","0.4","0.2","0.8","0.6","","","","","0.274695037","0.3106374463","0.1141050397","0.2152506718","","","","","","","76","L","3","","","222","main_expt"
"695","","bandit","301","1156529","0.0-262.0-0.0","96012964","wem/bandit_either","A37PO5YNKE5D97","either","3","","","","","","","0","0","1","0.2445797097","","0.4","0.2","0.8","0.6","","","","","0.2210940289","0.3131570504","0.1007228699","0.2445797097","","","","","","","76","L","3","","","223","main_expt"
"327","","bandit","302","1158363","0.0-263.0-0.0","96012964","wem/bandit_either","A37PO5YNKE5D97","either","3","","","","","","","0","0","1","0.2559263424","","0.4","0.2","0.8","0.6","","","","","0.1843933297","0.3025994915","0.1380584308","0.2559263424","","","","","","","76","L","3","","","224","main_expt"
"660","","bandit","303","1160546","0.0-264.0-0.0","96012964","wem/bandit_either","A37PO5YNKE5D97","either","3","","","","","","","0","0","1","0.1393521225","","0.4","0.2","0.8","0.6","","","","","0.212211923","0.2994132709","0.1393521225","0.2702522324","","","","","","","75","K","2","","","225","main_expt"
"357","","bandit","304","1162412","0.0-265.0-0.0","96012964","wem/bandit_either","A37PO5YNKE5D97","either","3","","","","","","","0","0","1","0.2094269877","","0.4","0.2","0.8","0.6","","","","","0.2315036379","0.2866794375","0.2094269877","0.2646860425","","","","","","","75","K","2","","","226","main_expt"
"603","","bandit","305","1164548","0.0-266.0-0.0","96012964","wem/bandit_either","A37PO5YNKE5D97","either","3","","","","","","","0","0","1","0.2959232149","","0.4","0.2","0.8","0.6","","","","","0.2646353212","0.2299222882","0.2959232149","0.269556559","","","","","","","75","K","2","","","227","main_expt"
"467","","bandit","306","1166548","0.0-267.0-0.0","96012964","wem/bandit_either","A37PO5YNKE5D97","either","3","","","","","","","0","0","1","0.2991813551","","0.4","0.2","0.8","0.6","","","","","0.2443517867","0.2991813551","0.374355758","0.2498152532","","","","","","","74","J","1","","","228","main_expt"
"387","","bandit","307","1168443","0.0-268.0-0.0","96012964","wem/bandit_either","A37PO5YNKE5D97","either","3","","","","","","","0","0","1","","0.3295538921","0.4","0.2","0.8","0.6","0.2569692975","0.3295538921","0.3876740502","0.2495566458","","","","","","","","","","","74","J","1","","","229","main_expt"
"508","","bandit","308","1170459","0.0-269.0-0.0","96012964","wem/bandit_either","A37PO5YNKE5D97","either","3","","","","","","","0","0","1","","0.2713593359","0.4","0.2","0.8","0.6","0.2490290172","0.2713593359","0.3341674595","0.2134382902","","","","","","","","","","","74","J","1","","","230","main_expt"
"396","","bandit","309","1172368","0.0-270.0-0.0","96012964","wem/bandit_either","A37PO5YNKE5D97","either","3","","","","","","","0","0","1","","0.2368643707","0.4","0.2","0.8","0.6","0.2368643707","0.2746975787","0.3558281537","0.2099205747","","","","","","","","","","","72","H","0","img/none_selected.jpg","","231","main_expt"
"673","","bandit","310","1174567","0.0-271.0-0.0","96012964","wem/bandit_either","A37PO5YNKE5D97","either","3","","","","","","","0","1","0","","0.2857324616","0.4","0.2","0.8","0.6","0.2857324616","0.2817934899","0.3293076861","0.1598609145","","","","","","","","","","","72","H","0","img/none_selected.jpg","","232","main_expt"
"376","","bandit","311","1176460","0.0-272.0-0.0","96012964","wem/bandit_either","A37PO5YNKE5D97","either","3","","","","","","","0","0","1","0.226619475","","0.4","0.2","0.8","0.6","","","","","0.226619475","0.3139736629","0.3271309306","0.1472569172","","","","","","","72","H","0","img/none_selected.jpg","","233","main_expt"
"339","","bandit","312","1178307","0.0-273.0-0.0","96012964","wem/bandit_either","A37PO5YNKE5D97","either","3","","","","","","","0","0","1","0.2448251662","","0.4","0.2","0.8","0.6","","","","","0.2448251662","0.3332560948","0.3510228885","0.1123375355","","","","","","","72","H","0","img/none_selected.jpg","","234","main_expt"
"316","","bandit","313","1180145","0.0-274.0-0.0","96012964","wem/bandit_either","A37PO5YNKE5D97","either","3","","","","","","","0","0","1","0.2996798263","","0.4","0.2","0.8","0.6","","","","","0.2996798263","0.3475281657","0.3346663699","0.1562424728","","","","","","","72","H","0","img/none_selected.jpg","","235","main_expt"
"493","","bandit","314","1182147","0.0-275.0-0.0","96012964","wem/bandit_either","A37PO5YNKE5D97","either","3","","","","","","","0","0","1","0.1623269298","","0.4","0.2","0.8","0.6","","","","","0.3220329496","0.3170984437","0.332043614","0.1623269298","","","","","","","76","L","3","","","236","main_expt"
"348","","bandit","315","1184013","0.0-276.0-0.0","96012964","wem/bandit_either","A37PO5YNKE5D97","either","3","","","","","","","0","0","1","0.1362759337","","0.4","0.2","0.8","0.6","","","","","0.3672390457","0.3611259067","0.2780661838","0.1362759337","","","","","","","76","L","3","","","237","main_expt"
"636","","bandit","316","1186171","0.0-277.0-0.0","96012964","wem/bandit_either","A37PO5YNKE5D97","either","3","","","","","","","0","0","1","","0.1282223372","0.4","0.2","0.8","0.6","0.3702030288","0.3449339383","0.3071002506","0.1282223372","","","","","","","","","","","76","L","3","","","238","main_expt"
"340","","bandit","317","1188035","0.0-278.0-0.0","96012964","wem/bandit_either","A37PO5YNKE5D97","either","3","","","","","","","0","0","1","","0.08262393641","0.4","0.2","0.8","0.6","0.3486367063","0.3006984684","0.3101279526","0.08262393641","","","","","","","","","","","76","L","3","","","239","main_expt"
"340","","bandit","318","1189909","0.0-279.0-0.0","96012964","wem/bandit_either","A37PO5YNKE5D97","either","3","","","","","","","0","0","1","0.09366491666","","0.4","0.2","0.8","0.6","","","","","0.3422639114","0.3355390738","0.3071576631","0.09366491666","","","","","","","76","L","3","","","240","main_expt"
"346","","bandit","319","1191769","0.0-280.0-0.0","96012964","wem/bandit_either","A37PO5YNKE5D97","either","3","","","","","","","0","0","1","0.3213727252","","0.4","0.2","0.8","0.6","","","","","0.3703795114","0.3513118525","0.3213727252","0.09778426954","","","","","","","75","K","2","","","241","main_expt"
"262","","bandit","320","1193549","0.0-281.0-0.0","96012964","wem/bandit_either","A37PO5YNKE5D97","either","3","","","","","","","0","0","1","0.3303042821","","0.4","0.2","0.8","0.6","","","","","0.3362310887","0.2871404103","0.3303042821","0.0684580113","","","","","","","75","K","2","","","242","main_expt"
"226","","bandit","321","1195305","0.0-282.0-0.0","96012964","wem/bandit_either","A37PO5YNKE5D97","either","3","","","","","","","1","0","0","0.386578507","","0.4","0.2","0.8","0.6","","","","","0.3855302341","0.2582353252","0.386578507","0.05756719403","","","","","","","75","K","2","","","243","main_expt"
"408","","bandit","322","1197231","0.0-283.0-0.0","96012964","wem/bandit_either","A37PO5YNKE5D97","either","3","","","","","","","0","0","1","0.3582196724","","0.4","0.2","0.8","0.6","","","","","0.3504604058","0.2108553612","0.3582196724","0.07954378931","","","","","","","75","K","2","","","244","main_expt"
"576","","bandit","323","1199331","0.0-284.0-0.0","96012964","wem/bandit_either","A37PO5YNKE5D97","either","3","","","","","","","0","0","1","0.3626170977","","0.4","0.2","0.8","0.6","","","","","0.3586275713","0.190308294","0.3626170977","0.07668718344","","","","","","","75","K","2","","","245","main_expt"
"437","","bandit","324","1201280","0.0-285.0-0.0","96012964","wem/bandit_either","A37PO5YNKE5D97","either","3","","","","","","","0","0","1","0.2778980274","","0.4","0.2","0.8","0.6","","","","","0.3202710015","0.2079876503","0.2778980274","0.08627194322","","","","","","","75","K","2","","","246","main_expt"
"344","","bandit","325","1203135","0.0-286.0-0.0","96012964","wem/bandit_either","A37PO5YNKE5D97","either","3","","","","","","","0","0","1","0.2864864277","","0.4","0.2","0.8","0.6","","","","","0.2874587678","0.2053262284","0.2864864277","0.1009858539","","","","","","","75","K","2","","","247","main_expt"
"359","","bandit","326","1205010","0.0-287.0-0.0","96012964","wem/bandit_either","A37PO5YNKE5D97","either","3","","","","","","","0","0","1","0.2883304048","","0.4","0.2","0.8","0.6","","","","","0.2703076155","0.2699327364","0.2883304048","0.1044033157","","","","","","","75","K","2","","","248","main_expt"
"350","","bandit","327","1206878","0.0-288.0-0.0","96012964","wem/bandit_either","A37PO5YNKE5D97","either","3","","","","","","","0","0","1","","0.2917851334","0.4","0.2","0.8","0.6","0.2212833967","0.2917851334","0.3034325887","0.07254640656","","","","","","","","","","","74","J","1","","","249","main_expt"
"0","","bandit","328","1208412","0.0-289.0-0.0","96012964","wem/bandit_either","A37PO5YNKE5D97","either","3","","","","","","","1","0","0","0.2530543584","","0.4","0.2","0.8","0.6","","","","","0.2174917034","0.2530543584","0.2582013927","0.09512939239","","","","","","","74","J","1","","","250","main_expt"
"749","","bandit","329","1210676","0.0-290.0-0.0","96012964","wem/bandit_either","A37PO5YNKE5D97","either","3","","","","","","","0","0","1","","0.2345859063","0.4","0.2","0.8","0.6","0.2008338107","0.2345859063","0.2337836179","0.06759478125","","","","","","","","","","","74","J","1","","","251","main_expt"
"292","","bandit","330","1212495","0.0-291.0-0.0","96012964","wem/bandit_either","A37PO5YNKE5D97","either","3","","","","","","","1","0","0","0.2407419433","","0.4","0.2","0.8","0.6","","","","","0.2294508047","0.2407419433","0.2477033955","0.05682902113","","","","","","","74","J","1","","","252","main_expt"
"425","","bandit","331","1214454","0.0-292.0-0.0","96012964","wem/bandit_either","A37PO5YNKE5D97","either","3","","","","","","","1","0","0","0.2016139721","","0.4","0.2","0.8","0.6","","","","","0.2678406235","0.2016139721","0.2187012899","0.04662337877","","","","","","","74","J","1","","","253","main_expt"
"402","","bandit","332","1216374","0.0-293.0-0.0","96012964","wem/bandit_either","A37PO5YNKE5D97","either","3","","","","","","","0","0","1","","0.2204455337","0.4","0.2","0.8","0.6","0.3248943382","0.2204455337","0.2247734494","0.05613237953","","","","","","","","","","","74","J","1","","","254","main_expt"
