"rt","responses","trial_type","trial_index","time_elapsed","internal_node_id","subjID","study","MID","cond","drift","key_press","expt_phase","target","like","value","connected","gems","bombs","no_reward","GemPrChosen","BombPrChosen","GainOverPainPr_0","GainOverPainPr_1","GainOverPainPr_2","GainOverPainPr_3","LosePr_0","LosePr_1","LosePr_2","LosePr_3","WinPr_0","WinPr_1","WinPr_2","WinPr_3","Q0","Q1","Q2","gender","age","ethnicity","respCharCode","respKey","respChoiceNum","respChoice","practice","trial_counter","trial_label"
"14735","{""Q0"":""A24LC97AU3QC7G""}","survey-text","0","14739","0.0-0.0","96420932","wem/bandit_either","A24LC97AU3QC7G","either","8","","","","","","","","","","","","","","","","","","","","","","","","","","","","","","","","","","","",""
"195882","","text","1","211623","0.0-1.0","96420932","wem/bandit_either","A24LC97AU3QC7G","either","8","32","","","","","","","","","","","","","","","","","","","","","","","","","","","","","","","","","","",""
"13880","","text","2","225505","0.0-2.0","96420932","wem/bandit_either","A24LC97AU3QC7G","either","8","32","","","","","","","","","","","","","","","","","","","","","","","","","","","","","","","","","","",""
"88882","","text","3","314388","0.0-3.0","96420932","wem/bandit_either","A24LC97AU3QC7G","either","8","32","","","","","","","","","","","","","","","","","","","","","","","","","","","","","","","","","","",""
"65523","","text","4","379911","0.0-4.0","96420932","wem/bandit_either","A24LC97AU3QC7G","either","8","32","","","","","","","","","","","","","","","","","","","","","","","","","","","","","","","","","","",""
"125810","","text","5","505723","0.0-5.0","96420932","wem/bandit_either","A24LC97AU3QC7G","either","8","32","","","","","","","","","","","","","","","","","","","","","","","","","","","","","","","","","","",""
"56167","","text","6","561892","0.0-6.0","96420932","wem/bandit_either","A24LC97AU3QC7G","either","8","32","","","","","","","","","","","","","","","","","","","","","","","","","","","","","","","","","","",""
"4320","","text","7","566213","0.0-7.0","96420932","wem/bandit_either","A24LC97AU3QC7G","either","8","32","","","","","","","","","","","","","","","","","","","","","","","","","","","","","","","","","","",""
"34904","","identification","8","601127","0.0-8.0-0.0","96420932","wem/bandit_either","A24LC97AU3QC7G","either","8","","identification_pre","the village of Zur","","","","","","","","","","","","","","","","","","","","","","","","","","","","","","","","",""
"20440","","identification","9","622575","0.0-8.0-1.0","96420932","wem/bandit_either","A24LC97AU3QC7G","either","8","","identification_pre","the village of Nyx","","","","","","","","","","","","","","","","","","","","","","","","","","","","","","","","",""
"6223","","text","10","629799","0.0-9.0","96420932","wem/bandit_either","A24LC97AU3QC7G","either","8","32","","","","","","","","","","","","","","","","","","","","","","","","","","","","","","","","","","",""
"3362","","text","11","633162","0.0-10.0","96420932","wem/bandit_either","A24LC97AU3QC7G","either","8","32","","","","","","","","","","","","","","","","","","","","","","","","","","","","","","","","","","",""
"3399","","text","12","636561","0.0-11.0","96420932","wem/bandit_either","A24LC97AU3QC7G","either","8","32","","","","","","","","","","","","","","","","","","","","","","","","","","","","","","","","","","",""
"32453","","text","13","669015","0.0-12.0","96420932","wem/bandit_either","A24LC97AU3QC7G","either","8","32","","","","","","","","","","","","","","","","","","","","","","","","","","","","","","","","","","",""
"5030","","bandit","14","675550","0.0-13.0-0.0","96420932","wem/bandit_either","A24LC97AU3QC7G","either","8","","","","","","","0","0","1","0","0","","","","","0","","","","0","","","","","","","","","","74","J","0","img/none_selected_demo.jpg","true","0",""
"4062","","bandit","15","681116","0.0-14.0-0.0","96420932","wem/bandit_either","A24LC97AU3QC7G","either","8","","","","","","","0","0","1","0","0","","","","","0","","","","0","","","","","","","","","","75","K","0","img/none_selected_demo.jpg","true","0",""
"16354","","text","16","697471","0.0-15.0","96420932","wem/bandit_either","A24LC97AU3QC7G","either","8","32","","","","","","","","","","","","","","","","","","","","","","","","","","","","","","","","","","",""
"48089","","text","17","745562","0.0-16.0","96420932","wem/bandit_either","A24LC97AU3QC7G","either","8","32","","","","","","","","","","","","","","","","","","","","","","","","","","","","","","","","","","",""
"56497","","text","18","802060","0.0-17.0","96420932","wem/bandit_either","A24LC97AU3QC7G","either","8","32","","","","","","","","","","","","","","","","","","","","","","","","","","","","","","","","","","",""
"5332","","text","19","807393","0.0-18.0","96420932","wem/bandit_either","A24LC97AU3QC7G","either","8","32","","","","","","","","","","","","","","","","","","","","","","","","","","","","","","","","","","",""
"2068","","bandit","20","810966","0.0-19.0-0.0","96420932","wem/bandit_either","A24LC97AU3QC7G","either","8","","","","","","","0","0","1","","0.2","0.5","0.5","","","0.8","0.2","","","","","","","","","","","","","75","K","1","","true","0","80_20_practice"
"2617","","bandit","21","815088","0.0-19.0-1.0","96420932","wem/bandit_either","A24LC97AU3QC7G","either","8","","","","","","","0","1","0","","0.8","0.5","0.5","","","0.8","0.2","","","","","","","","","","","","","74","J","0","img/none_selected_demo.jpg","true","0","80_20_practice"
"1595","","bandit","22","818186","0.0-19.0-2.0","96420932","wem/bandit_either","A24LC97AU3QC7G","either","8","","","","","","","0","0","1","0.2","","0.5","0.5","","","","","","","0.8","0.2","","","","","","","","","75","K","1","","true","0","80_20_practice"
"2156","","bandit","23","821847","0.0-19.0-3.0","96420932","wem/bandit_either","A24LC97AU3QC7G","either","8","","","","","","","1","0","0","0.8","","0.5","0.5","","","","","","","0.8","0.2","","","","","","","","","74","J","0","img/none_selected_demo.jpg","true","0","80_20_practice"
"1495","","bandit","24","824846","0.0-19.0-4.0","96420932","wem/bandit_either","A24LC97AU3QC7G","either","8","","","","","","","0","1","0","","0.8","0.5","0.5","","","0.8","0.2","","","","","","","","","","","","","74","J","0","img/none_selected_demo.jpg","true","0","80_20_practice"
"1398","","bandit","25","827747","0.0-19.0-5.0","96420932","wem/bandit_either","A24LC97AU3QC7G","either","8","","","","","","","1","0","0","0.8","","0.5","0.5","","","","","","","0.8","0.2","","","","","","","","","74","J","0","img/none_selected_demo.jpg","true","0","80_20_practice"
"715","","bandit","26","829965","0.0-19.0-6.0","96420932","wem/bandit_either","A24LC97AU3QC7G","either","8","","","","","","","0","1","0","","0.2","0.5","0.5","","","0.8","0.2","","","","","","","","","","","","","75","K","1","","true","0","80_20_practice"
"797","","bandit","27","832267","0.0-19.0-7.0","96420932","wem/bandit_either","A24LC97AU3QC7G","either","8","","","","","","","1","0","0","0.8","","0.5","0.5","","","","","","","0.8","0.2","","","","","","","","","74","J","0","img/none_selected_demo.jpg","true","0","80_20_practice"
"915","","bandit","28","834687","0.0-19.0-8.0","96420932","wem/bandit_either","A24LC97AU3QC7G","either","8","","","","","","","0","0","1","","0.2","0.5","0.5","","","0.8","0.2","","","","","","","","","","","","","75","K","1","","true","0","80_20_practice"
"956","","bandit","29","837147","0.0-19.0-9.0","96420932","wem/bandit_either","A24LC97AU3QC7G","either","8","","","","","","","1","0","0","0.2","","0.5","0.5","","","","","","","0.8","0.2","","","","","","","","","75","K","1","","true","0","80_20_practice"
"735","","bandit","30","839386","0.0-19.0-10.0","96420932","wem/bandit_either","A24LC97AU3QC7G","either","8","","","","","","","0","0","1","","0.2","0.5","0.5","","","0.8","0.2","","","","","","","","","","","","","75","K","1","","true","0","80_20_practice"
"516","","bandit","31","841406","0.0-19.0-11.0","96420932","wem/bandit_either","A24LC97AU3QC7G","either","8","","","","","","","0","1","0","","0.8","0.5","0.5","","","0.8","0.2","","","","","","","","","","","","","74","J","0","img/none_selected_demo.jpg","true","0","80_20_practice"
"476","","bandit","32","843386","0.0-19.0-12.0","96420932","wem/bandit_either","A24LC97AU3QC7G","either","8","","","","","","","1","0","0","0.8","","0.5","0.5","","","","","","","0.8","0.2","","","","","","","","","74","J","0","img/none_selected_demo.jpg","true","0","80_20_practice"
"475","","bandit","33","845366","0.0-19.0-13.0","96420932","wem/bandit_either","A24LC97AU3QC7G","either","8","","","","","","","0","1","0","","0.8","0.5","0.5","","","0.8","0.2","","","","","","","","","","","","","74","J","0","img/none_selected_demo.jpg","true","0","80_20_practice"
"636","","bandit","34","847506","0.0-19.0-14.0","96420932","wem/bandit_either","A24LC97AU3QC7G","either","8","","","","","","","1","0","0","0.8","","0.5","0.5","","","","","","","0.8","0.2","","","","","","","","","74","J","0","img/none_selected_demo.jpg","true","0","80_20_practice"
"518","","bandit","35","849529","0.0-19.0-15.0","96420932","wem/bandit_either","A24LC97AU3QC7G","either","8","","","","","","","0","0","1","0.2","","0.5","0.5","","","","","","","0.8","0.2","","","","","","","","","75","K","1","","true","0","80_20_practice"
"454","","bandit","36","851487","0.0-19.0-16.0","96420932","wem/bandit_either","A24LC97AU3QC7G","either","8","","","","","","","1","0","0","0.8","","0.5","0.5","","","","","","","0.8","0.2","","","","","","","","","74","J","0","img/none_selected_demo.jpg","true","0","80_20_practice"
"655","","bandit","37","853647","0.0-19.0-17.0","96420932","wem/bandit_either","A24LC97AU3QC7G","either","8","","","","","","","0","1","0","","0.8","0.5","0.5","","","0.8","0.2","","","","","","","","","","","","","74","J","0","img/none_selected_demo.jpg","true","0","80_20_practice"
"595","","bandit","38","855747","0.0-19.0-18.0","96420932","wem/bandit_either","A24LC97AU3QC7G","either","8","","","","","","","0","1","0","","0.8","0.5","0.5","","","0.8","0.2","","","","","","","","","","","","","74","J","0","img/none_selected_demo.jpg","true","0","80_20_practice"
"475","","bandit","39","857726","0.0-19.0-19.0","96420932","wem/bandit_either","A24LC97AU3QC7G","either","8","","","","","","","1","0","0","0.8","","0.5","0.5","","","","","","","0.8","0.2","","","","","","","","","74","J","0","img/none_selected_demo.jpg","true","0","80_20_practice"
"5354","","text","40","863082","0.0-20.0","96420932","wem/bandit_either","A24LC97AU3QC7G","either","8","32","","","","","","","","","","","","","","","","","","","","","","","","","","","","","","","","","","",""
"1800","","bandit","41","866388","0.0-21.0-0.0","96420932","wem/bandit_either","A24LC97AU3QC7G","either","8","","","","","","","1","0","0","1","0","","","","","0","1","","","1","0","","","","","","","","","74","J","0","img/none_selected_demo.jpg","true","0",""
"9758","","text","42","876147","0.0-22.0","96420932","wem/bandit_either","A24LC97AU3QC7G","either","8","32","","","","","","","","","","","","","","","","","","","","","","","","","","","","","","","","","","",""
"5361","","text","43","881510","0.0-23.0","96420932","wem/bandit_either","A24LC97AU3QC7G","either","8","32","","","","","","","","","","","","","","","","","","","","","","","","","","","","","","","","","","",""
"3416","","text","44","884927","0.0-24.0","96420932","wem/bandit_either","A24LC97AU3QC7G","either","8","32","","","","","","","","","","","","","","","","","","","","","","","","","","","","","","","","","","",""
"3638","","text","45","888567","0.0-25.0","96420932","wem/bandit_either","A24LC97AU3QC7G","either","8","32","","","","","","","","","","","","","","","","","","","","","","","","","","","","","","","","","","",""
"32160","","text","46","920729","0.0-26.0","96420932","wem/bandit_either","A24LC97AU3QC7G","either","8","32","","","","","","","","","","","","","","","","","","","","","","","","","","","","","","","","","","",""
"322348","","text","47","1243079","0.0-27.0","96420932","wem/bandit_either","A24LC97AU3QC7G","either","8","32","","","","","","","","","","","","","","","","","","","","","","","","","","","","","","","","","","",""
"4051","","text","48","1247132","0.0-28.0","96420932","wem/bandit_either","A24LC97AU3QC7G","either","8","32","","","","","","","","","","","","","","","","","","","","","","","","","","","","","","","","","","",""
"6577","","text","49","1253710","0.0-29.0","96420932","wem/bandit_either","A24LC97AU3QC7G","either","8","32","","","","","","","","","","","","","","","","","","","","","","","","","","","","","","","","","","",""
"2820","","text","50","1256531","0.0-30.0","96420932","wem/bandit_either","A24LC97AU3QC7G","either","8","32","","","","","","","","","","","","","","","","","","","","","","","","","","","","","","","","","","",""
"2480","","text","51","1259012","0.0-31.0","96420932","wem/bandit_either","A24LC97AU3QC7G","either","8","32","","","","","","","","","","","","","","","","","","","","","","","","","","","","","","","","","","",""
"21017","","text","52","1280031","0.0-32.0","96420932","wem/bandit_either","A24LC97AU3QC7G","either","8","32","","","","","","","","","","","","","","","","","","","","","","","","","","","","","","","","","","",""
"858","","bandit","53","1282393","0.0-33.0-0.0","96420932","wem/bandit_either","A24LC97AU3QC7G","either","8","","","","","","","0","0","1","","0.2","0.5","0.5","0.5","0.5","0.8","0.2","0.6","0.2","","","","","","","","","","","74","J","1","","true","0","full_practice"
"876","","bandit","54","1284775","0.0-33.0-1.0","96420932","wem/bandit_either","A24LC97AU3QC7G","either","8","","","","","","","1","0","0","0.2","","0.5","0.5","0.5","0.5","","","","","0.8","0.2","0.6","0.2","","","","","","","74","J","1","","true","0","full_practice"
"735","","bandit","55","1287014","0.0-33.0-2.0","96420932","wem/bandit_either","A24LC97AU3QC7G","either","8","","","","","","","0","0","1","0.2","","0.5","0.5","0.5","0.5","","","","","0.8","0.2","0.6","0.2","","","","","","","74","J","1","","true","0","full_practice"
"435","","bandit","56","1288954","0.0-33.0-3.0","96420932","wem/bandit_either","A24LC97AU3QC7G","either","8","","","","","","","0","0","1","","0.2","0.5","0.5","0.5","0.5","0.8","0.2","0.6","0.2","","","","","","","","","","","74","J","1","","true","0","full_practice"
"356","","bandit","57","1290813","0.0-33.0-4.0","96420932","wem/bandit_either","A24LC97AU3QC7G","either","8","","","","","","","1","0","0","0.8","","0.5","0.5","0.5","0.5","","","","","0.8","0.2","0.6","0.2","","","","","","","72","H","0","img/none_selected.jpg","true","0","full_practice"
"375","","bandit","58","1292692","0.0-33.0-5.0","96420932","wem/bandit_either","A24LC97AU3QC7G","either","8","","","","","","","0","1","0","","0.8","0.5","0.5","0.5","0.5","0.8","0.2","0.6","0.2","","","","","","","","","","","72","H","0","img/none_selected.jpg","true","0","full_practice"
"396","","bandit","59","1294593","0.0-33.0-6.0","96420932","wem/bandit_either","A24LC97AU3QC7G","either","8","","","","","","","0","1","0","","0.8","0.5","0.5","0.5","0.5","0.8","0.2","0.6","0.2","","","","","","","","","","","72","H","0","img/none_selected.jpg","true","0","full_practice"
"335","","bandit","60","1296433","0.0-33.0-7.0","96420932","wem/bandit_either","A24LC97AU3QC7G","either","8","","","","","","","1","0","0","0.8","","0.5","0.5","0.5","0.5","","","","","0.8","0.2","0.6","0.2","","","","","","","72","H","0","img/none_selected.jpg","true","0","full_practice"
"255","","bandit","61","1298193","0.0-33.0-8.0","96420932","wem/bandit_either","A24LC97AU3QC7G","either","8","","","","","","","0","1","0","","0.8","0.5","0.5","0.5","0.5","0.8","0.2","0.6","0.2","","","","","","","","","","","72","H","0","img/none_selected.jpg","true","0","full_practice"
"256","","bandit","62","1299953","0.0-33.0-9.0","96420932","wem/bandit_either","A24LC97AU3QC7G","either","8","","","","","","","1","0","0","0.6","","0.5","0.5","0.5","0.5","","","","","0.8","0.2","0.6","0.2","","","","","","","75","K","2","","true","0","full_practice"
"155","","bandit","63","1301612","0.0-33.0-10.0","96420932","wem/bandit_either","A24LC97AU3QC7G","either","8","","","","","","","0","1","0","","0.6","0.5","0.5","0.5","0.5","0.8","0.2","0.6","0.2","","","","","","","","","","","75","K","2","","true","0","full_practice"
"316","","bandit","64","1303434","0.0-33.0-11.0","96420932","wem/bandit_either","A24LC97AU3QC7G","either","8","","","","","","","0","1","0","","0.6","0.5","0.5","0.5","0.5","0.8","0.2","0.6","0.2","","","","","","","","","","","75","K","2","","true","0","full_practice"
"234","","bandit","65","1305173","0.0-33.0-12.0","96420932","wem/bandit_either","A24LC97AU3QC7G","either","8","","","","","","","1","0","0","0.6","","0.5","0.5","0.5","0.5","","","","","0.8","0.2","0.6","0.2","","","","","","","75","K","2","","true","0","full_practice"
"496","","bandit","66","1307174","0.0-33.0-13.0","96420932","wem/bandit_either","A24LC97AU3QC7G","either","8","","","","","","","0","0","1","","0.6","0.5","0.5","0.5","0.5","0.8","0.2","0.6","0.2","","","","","","","","","","","75","K","2","","true","0","full_practice"
"393","","bandit","67","1309074","0.0-33.0-14.0","96420932","wem/bandit_either","A24LC97AU3QC7G","either","8","","","","","","","0","0","1","","0.6","0.5","0.5","0.5","0.5","0.8","0.2","0.6","0.2","","","","","","","","","","","75","K","2","","true","0","full_practice"
"388","","bandit","68","1310973","0.0-33.0-15.0","96420932","wem/bandit_either","A24LC97AU3QC7G","either","8","","","","","","","1","0","0","0.6","","0.5","0.5","0.5","0.5","","","","","0.8","0.2","0.6","0.2","","","","","","","75","K","2","","true","0","full_practice"
"316","","bandit","69","1312794","0.0-33.0-16.0","96420932","wem/bandit_either","A24LC97AU3QC7G","either","8","","","","","","","0","0","1","0.2","","0.5","0.5","0.5","0.5","","","","","0.8","0.2","0.6","0.2","","","","","","","76","L","3","","true","0","full_practice"
"295","","bandit","70","1314593","0.0-33.0-17.0","96420932","wem/bandit_either","A24LC97AU3QC7G","either","8","","","","","","","0","0","1","0.2","","0.5","0.5","0.5","0.5","","","","","0.8","0.2","0.6","0.2","","","","","","","76","L","3","","true","0","full_practice"
"495","","bandit","71","1316593","0.0-33.0-18.0","96420932","wem/bandit_either","A24LC97AU3QC7G","either","8","","","","","","","0","0","1","","0.2","0.5","0.5","0.5","0.5","0.8","0.2","0.6","0.2","","","","","","","","","","","76","L","3","","true","0","full_practice"
"75","","bandit","72","1318173","0.0-33.0-19.0","96420932","wem/bandit_either","A24LC97AU3QC7G","either","8","","","","","","","0","0","1","0.2","","0.5","0.5","0.5","0.5","","","","","0.8","0.2","0.6","0.2","","","","","","","76","L","3","","true","0","full_practice"
"3070","","text","73","1321247","0.0-34.0","96420932","wem/bandit_either","A24LC97AU3QC7G","either","8","32","","","","","","","","","","","","","","","","","","","","","","","","","","","","","","","","","","",""
"17357","","text","74","1339607","0.0-35.0","96420932","wem/bandit_either","A24LC97AU3QC7G","either","8","32","","","","","","","","","","","","","","","","","","","","","","","","","","","","","","","","","","",""
"18322","","text","75","1357931","0.0-36.0","96420932","wem/bandit_either","A24LC97AU3QC7G","either","8","32","","","","","","","","","","","","","","","","","","","","","","","","","","","","","","","","","","",""
"10498","","text","76","1368430","0.0-37.0","96420932","wem/bandit_either","A24LC97AU3QC7G","either","8","32","","","","","","","","","","","","","","","","","","","","","","","","","","","","","","","","","","",""
"8196","","text","77","1376628","0.0-38.0","96420932","wem/bandit_either","A24LC97AU3QC7G","either","8","32","","","","","","","","","","","","","","","","","","","","","","","","","","","","","","","","","","",""
"11037","","text","78","1387667","0.0-39.0","96420932","wem/bandit_either","A24LC97AU3QC7G","either","8","32","","","","","","","","","","","","","","","","","","","","","","","","","","","","","","","","","","",""
"1783","","bandit","79","1390956","0.0-40.0-0.0","96420932","wem/bandit_either","A24LC97AU3QC7G","either","8","","","","","","","0","0","1","0.2928194041","","0.6","0.4","0.8","0.2","","","","","0.2928194041","0.1351790469","0.3540548627","0.2637293772","","","","","","","72","H","0","img/none_selected.jpg","","1","main_expt"
"653","","bandit","80","1393114","0.0-41.0-0.0","96420932","wem/bandit_either","A24LC97AU3QC7G","either","8","","","","","","","0","1","0","","0.3040419902","0.6","0.4","0.8","0.2","0.3040419902","0.125602744","0.3812516843","0.2760013096","","","","","","","","","","","72","H","0","img/none_selected.jpg","","2","main_expt"
"595","","bandit","81","1395214","0.0-42.0-0.0","96420932","wem/bandit_either","A24LC97AU3QC7G","either","8","","","","","","","0","0","1","0.2875251023","","0.6","0.4","0.8","0.2","","","","","0.2875251023","0.09574082279","0.3901316494","0.3240499928","","","","","","","72","H","0","img/none_selected.jpg","","3","main_expt"
"576","","bandit","82","1397294","0.0-43.0-0.0","96420932","wem/bandit_either","A24LC97AU3QC7G","either","8","","","","","","","0","1","0","","0.0913382225","0.6","0.4","0.8","0.2","0.2965567903","0.0913382225","0.3945399471","0.3510822359","","","","","","","","","","","74","J","1","","","4","main_expt"
"417","","bandit","83","1399215","0.0-44.0-0.0","96420932","wem/bandit_either","A24LC97AU3QC7G","either","8","","","","","","","0","1","0","","0.106177601","0.6","0.4","0.8","0.2","0.2681113314","0.106177601","0.3997977613","0.3522827721","","","","","","","","","","","74","J","1","","","5","main_expt"
"755","","bandit","84","1401476","0.0-45.0-0.0","96420932","wem/bandit_either","A24LC97AU3QC7G","either","8","","","","","","","0","0","1","0.08998955495","","0.6","0.4","0.8","0.2","","","","","0.2330443498","0.08998955495","0.390783501","0.382674005","","","","","","","74","J","1","","","6","main_expt"
"753","","bandit","85","1403735","0.0-46.0-0.0","96420932","wem/bandit_either","A24LC97AU3QC7G","either","8","","","","","","","0","0","1","","0.1077526668","0.6","0.4","0.8","0.2","0.1630509172","0.1077526668","0.3305693427","0.3998463606","","","","","","","","","","","74","J","1","","","7","main_expt"
"654","","bandit","86","1405895","0.0-47.0-0.0","96420932","wem/bandit_either","A24LC97AU3QC7G","either","8","","","","","","","0","0","1","","0.3056545716","0.6","0.4","0.8","0.2","0.2002468685","0.1243697388","0.3056545716","0.3832029687","","","","","","","","","","","75","K","2","","","8","main_expt"
"351","","bandit","87","1407756","0.0-48.0-0.0","96420932","wem/bandit_either","A24LC97AU3QC7G","either","8","","","","","","","1","0","0","0.3278889804","","0.6","0.4","0.8","0.2","","","","","0.1835034381","0.1698108096","0.3278889804","0.3796681134","","","","","","","75","K","2","","","9","main_expt"
"555","","bandit","88","1409816","0.0-49.0-0.0","96420932","wem/bandit_either","A24LC97AU3QC7G","either","8","","","","","","","1","0","0","0.3137855556","","0.6","0.4","0.8","0.2","","","","","0.1939723001","0.221757114","0.3137855556","0.3614311416","","","","","","","75","K","2","","","10","main_expt"
"473","","bandit","89","1411795","0.0-50.0-0.0","96420932","wem/bandit_either","A24LC97AU3QC7G","either","8","","","","","","","0","0","1","0.3253079181","","0.6","0.4","0.8","0.2","","","","","0.1949806013","0.1961062924","0.3253079181","0.3938737051","","","","","","","75","K","2","","","11","main_expt"
"315","","bandit","90","1413614","0.0-51.0-0.0","96420932","wem/bandit_either","A24LC97AU3QC7G","either","8","","","","","","","0","0","1","0.3298150516","","0.6","0.4","0.8","0.2","","","","","0.2587943474","0.1907056259","0.3298150516","0.3810544723","","","","","","","75","K","2","","","12","main_expt"
"716","","bandit","91","1415835","0.0-52.0-0.0","96420932","wem/bandit_either","A24LC97AU3QC7G","either","8","","","","","","","0","1","0","","0.3707046684","0.6","0.4","0.8","0.2","0.3085985727","0.2162865666","0.3673307406","0.3707046684","","","","","","","","","","","76","L","3","","","13","main_expt"
"395","","bandit","92","1417734","0.0-53.0-0.0","96420932","wem/bandit_either","A24LC97AU3QC7G","either","8","","","","","","","0","0","1","","0.3486531997","0.6","0.4","0.8","0.2","0.2464992766","0.2399362825","0.3679224674","0.3486531997","","","","","","","","","","","76","L","3","","","14","main_expt"
"256","","bandit","93","1419495","0.0-54.0-0.0","96420932","wem/bandit_either","A24LC97AU3QC7G","either","8","","","","","","","0","0","1","","0.3263578384","0.6","0.4","0.8","0.2","0.2474611475","0.1986859052","0.3062507314","0.3263578384","","","","","","","","","","","76","L","3","","","15","main_expt"
"355","","bandit","94","1421356","0.0-55.0-0.0","96420932","wem/bandit_either","A24LC97AU3QC7G","either","8","","","","","","","0","1","0","","0.2835538477","0.6","0.4","0.8","0.2","0.2835538477","0.1865641621","0.2892976033","0.3514189979","","","","","","","","","","","72","H","0","img/none_selected.jpg","","16","main_expt"
"314","","bandit","95","1423174","0.0-56.0-0.0","96420932","wem/bandit_either","A24LC97AU3QC7G","either","8","","","","","","","0","0","1","0.3256112075","","0.6","0.4","0.8","0.2","","","","","0.3256112075","0.2035525071","0.2861796528","0.3532592314","","","","","","","72","H","0","img/none_selected.jpg","","17","main_expt"
"234","","bandit","96","1424915","0.0-57.0-0.0","96420932","wem/bandit_either","A24LC97AU3QC7G","either","8","","","","","","","0","1","0","","0.2039336531","0.6","0.4","0.8","0.2","0.3802227677","0.2039336531","0.2958570682","0.3858608091","","","","","","","","","","","74","J","1","","","18","main_expt"
"295","","bandit","97","1426715","0.0-58.0-0.0","96420932","wem/bandit_either","A24LC97AU3QC7G","either","8","","","","","","","0","0","1","","0.1598579642","0.6","0.4","0.8","0.2","0.360566968","0.1598579642","0.3353028819","0.3837638756","","","","","","","","","","","74","J","1","","","19","main_expt"
"274","","bandit","98","1428495","0.0-59.0-0.0","96420932","wem/bandit_either","A24LC97AU3QC7G","either","8","","","","","","","0","0","1","0.1437622327","","0.6","0.4","0.8","0.2","","","","","0.3696799013","0.1437622327","0.3139704528","0.2872100501","","","","","","","74","J","1","","","20","main_expt"
"874","","bandit","99","1430874","0.0-60.0-0.0","96420932","wem/bandit_either","A24LC97AU3QC7G","either","8","","","","","","","0","1","0","","0.2524707143","0.6","0.4","0.8","0.2","0.4006907501","0.07974703335","0.2524707143","0.2975414498","","","","","","","","","","","75","K","2","","","21","main_expt"
"917","","bandit","100","1433296","0.0-61.0-0.0","96420932","wem/bandit_either","A24LC97AU3QC7G","either","8","","","","","","","0","0","1","0.248326021","","0.6","0.4","0.8","0.2","","","","","0.4081217326","0.1361132429","0.248326021","0.2741965999","","","","","","","75","K","2","","","22","main_expt"
"493","","bandit","101","1435296","0.0-62.0-0.0","96420932","wem/bandit_either","A24LC97AU3QC7G","either","8","","","","","","","0","0","1","0.2937153481","","0.6","0.4","0.8","0.2","","","","","0.3740207531","0.1705973249","0.2937153481","0.2379064449","","","","","","","75","K","2","","","23","main_expt"
"514","","bandit","102","1437314","0.0-63.0-0.0","96420932","wem/bandit_either","A24LC97AU3QC7G","either","8","","","","","","","0","0","1","","0.2078598572","0.6","0.4","0.8","0.2","0.3913756451","0.1392759225","0.2625315469","0.2078598572","","","","","","","","","","","76","L","3","","","24","main_expt"
"515","","bandit","103","1439334","0.0-64.0-0.0","96420932","wem/bandit_either","A24LC97AU3QC7G","either","8","","","","","","","0","1","0","","0.2764850733","0.6","0.4","0.8","0.2","0.4100905738","0.1800538527","0.2405651368","0.2764850733","","","","","","","","","","","76","L","3","","","25","main_expt"
"376","","bandit","104","1441215","0.0-65.0-0.0","96420932","wem/bandit_either","A24LC97AU3QC7G","either","8","","","","","","","0","0","1","","0.3080191348","0.6","0.4","0.8","0.2","0.3600668969","0.2146400533","0.2503350336","0.3080191348","","","","","","","","","","","76","L","3","","","26","main_expt"
"414","","bandit","105","1443136","0.0-66.0-0.0","96420932","wem/bandit_either","A24LC97AU3QC7G","either","8","","","","","","","0","0","1","0.3606197488","","0.6","0.4","0.8","0.2","","","","","0.3703096079","0.1948367851","0.354091838","0.3606197488","","","","","","","76","L","3","","","27","main_expt"
"396","","bandit","106","1445038","0.0-67.0-0.0","96420932","wem/bandit_either","A24LC97AU3QC7G","either","8","","","","","","","0","1","0","","0.3696097963","0.6","0.4","0.8","0.2","0.3527269899","0.2282666016","0.3419366675","0.3696097963","","","","","","","","","","","76","L","3","","","28","main_expt"
"391","","bandit","107","1446935","0.0-68.0-0.0","96420932","wem/bandit_either","A24LC97AU3QC7G","either","8","","","","","","","0","0","1","","0.3434444954","0.6","0.4","0.8","0.2","0.2854860911","0.1842618798","0.361896517","0.3434444954","","","","","","","","","","","76","L","3","","","29","main_expt"
"354","","bandit","108","1448795","0.0-69.0-0.0","96420932","wem/bandit_either","A24LC97AU3QC7G","either","8","","","","","","","0","0","1","","0.3528183973","0.6","0.4","0.8","0.2","0.2971434158","0.1930267653","0.3701160785","0.3528183973","","","","","","","","","","","76","L","3","","","30","main_expt"
"335","","bandit","109","1450635","0.0-70.0-0.0","96420932","wem/bandit_either","A24LC97AU3QC7G","either","8","","","","","","","0","0","1","0.3192935598","","0.6","0.4","0.8","0.2","","","","","0.3192935598","0.2279264959","0.3602312343","0.3436926249","","","","","","","72","H","0","img/none_selected.jpg","","31","main_expt"
"334","","bandit","110","1452474","0.0-71.0-0.0","96420932","wem/bandit_either","A24LC97AU3QC7G","either","8","","","","","","","1","0","0","0.2910845839","","0.6","0.4","0.8","0.2","","","","","0.2910845839","0.1922668126","0.3550043818","0.3392376576","","","","","","","72","H","0","img/none_selected.jpg","","32","main_expt"
"336","","bandit","111","1454317","0.0-72.0-0.0","96420932","wem/bandit_either","A24LC97AU3QC7G","either","8","","","","","","","0","0","1","0.2956883229","","0.6","0.4","0.8","0.2","","","","","0.2956883229","0.1503247695","0.3927862597","0.2524106513","","","","","","","72","H","0","img/none_selected.jpg","","33","main_expt"
"274","","bandit","112","1456096","0.0-73.0-0.0","96420932","wem/bandit_either","A24LC97AU3QC7G","either","8","","","","","","","0","0","1","0.2918182698","","0.6","0.4","0.8","0.2","","","","","0.2918182698","0.1875072744","0.4185963197","0.2378308988","","","","","","","72","H","0","img/none_selected.jpg","","34","main_expt"
"313","","bandit","113","1457916","0.0-74.0-0.0","96420932","wem/bandit_either","A24LC97AU3QC7G","either","8","","","","","","","0","1","0","","0.3063909307","0.6","0.4","0.8","0.2","0.3063909307","0.2135507624","0.441983755","0.2683654211","","","","","","","","","","","72","H","0","img/none_selected.jpg","","35","main_expt"
"675","","bandit","114","1460097","0.0-75.0-0.0","96420932","wem/bandit_either","A24LC97AU3QC7G","either","8","","","","","","","0","0","1","0.2820805085","","0.6","0.4","0.8","0.2","","","","","0.2820805085","0.2042402853","0.4352827683","0.2645223933","","","","","","","72","H","0","img/none_selected.jpg","","36","main_expt"
"913","","bandit","115","1462515","0.0-76.0-0.0","96420932","wem/bandit_either","A24LC97AU3QC7G","either","8","","","","","","","0","0","1","0.2610370824","","0.6","0.4","0.8","0.2","","","","","0.2610370824","0.2024605481","0.450520142","0.2360561858","","","","","","","72","H","0","img/none_selected.jpg","","37","main_expt"
"855","","bandit","116","1464876","0.0-77.0-0.0","96420932","wem/bandit_either","A24LC97AU3QC7G","either","8","","","","","","","0","0","1","0.1896233007","","0.6","0.4","0.8","0.2","","","","","0.1896233007","0.1677713785","0.4681224698","0.2001865083","","","","","","","72","H","0","img/none_selected.jpg","","38","main_expt"
"775","","bandit","117","1467157","0.0-78.0-0.0","96420932","wem/bandit_either","A24LC97AU3QC7G","either","8","","","","","","","0","0","1","","0.221779122","0.6","0.4","0.8","0.2","0.168851025","0.221779122","0.4711022053","0.1687915361","","","","","","","","","","","74","J","1","","","39","main_expt"
"693","","bandit","118","1469355","0.0-79.0-0.0","96420932","wem/bandit_either","A24LC97AU3QC7G","either","8","","","","","","","0","0","1","0.2722397218","","0.6","0.4","0.8","0.2","","","","","0.1615787635","0.2722397218","0.4559447699","0.1503151413","","","","","","","74","J","1","","","40","main_expt"
"54","","bandit","119","1470915","0.0-80.0-0.0","96420932","wem/bandit_either","A24LC97AU3QC7G","either","8","","","","","","","0","0","1","","0.3298230943","0.6","0.4","0.8","0.2","0.1472326003","0.3298230943","0.4412687596","0.08168262283","","","","","","","","","","","74","J","1","","","41","main_expt"
"415","","bandit","120","1472835","0.0-81.0-0.0","96420932","wem/bandit_either","A24LC97AU3QC7G","either","8","","","","","","","1","0","0","0.3104885444","","0.6","0.4","0.8","0.2","","","","","0.1533480506","0.3104885444","0.4457751761","0.07668629145","","","","","","","74","J","1","","","42","main_expt"
"1353","","bandit","121","1475695","0.0-82.0-0.0","96420932","wem/bandit_either","A24LC97AU3QC7G","either","8","","","","","","","0","1","0","","0.3005355489","0.6","0.4","0.8","0.2","0.1414351437","0.3005355489","0.4298378352","0.07394587158","","","","","","","","","","","74","J","1","","","43","main_expt"
"756","","bandit","122","1477958","0.0-83.0-0.0","96420932","wem/bandit_either","A24LC97AU3QC7G","either","8","","","","","","","0","0","1","0.2456242138","","0.6","0.4","0.8","0.2","","","","","0.1067646429","0.2456242138","0.4416915379","0.1192337685","","","","","","","74","J","1","","","44","main_expt"
"374","","bandit","123","1479836","0.0-84.0-0.0","96420932","wem/bandit_either","A24LC97AU3QC7G","either","8","","","","","","","0","0","1","","0.2839901561","0.6","0.4","0.8","0.2","0.1250796286","0.2839901561","0.3915522423","0.1285724119","","","","","","","","","","","74","J","1","","","45","main_expt"
"394","","bandit","124","1481736","0.0-85.0-0.0","96420932","wem/bandit_either","A24LC97AU3QC7G","either","8","","","","","","","0","0","1","0.2353621531","","0.6","0.4","0.8","0.2","","","","","0.1927264636","0.2353621531","0.4318427431","0.1112684106","","","","","","","74","J","1","","","46","main_expt"
"534","","bandit","125","1483775","0.0-86.0-0.0","96420932","wem/bandit_either","A24LC97AU3QC7G","either","8","","","","","","","0","0","1","0.2405257196","","0.6","0.4","0.8","0.2","","","","","0.1804488412","0.2405257196","0.4395998441","0.1207340475","","","","","","","74","J","1","","","47","main_expt"
"1695","","bandit","126","1486976","0.0-87.0-0.0","96420932","wem/bandit_either","A24LC97AU3QC7G","either","8","","","","","","","0","0","1","","0.2629408555","0.6","0.4","0.8","0.2","0.168268176","0.2629408555","0.4630443269","0.1182533935","","","","","","","","","","","74","J","1","","","48","main_expt"
"1275","","bandit","127","1489756","0.0-88.0-0.0","96420932","wem/bandit_either","A24LC97AU3QC7G","either","8","","","","","","","0","0","1","","0.2902453213","0.6","0.4","0.8","0.2","0.1466838001","0.2902453213","0.4794982466","0.1460801474","","","","","","","","","","","74","J","1","","","49","main_expt"
"973","","bandit","128","1492235","0.0-89.0-0.0","96420932","wem/bandit_either","A24LC97AU3QC7G","either","8","","","","","","","0","0","1","0.4562783041","","0.6","0.4","0.8","0.2","","","","","0.1336340117","0.3033715012","0.4562783041","0.1765155983","","","","","","","75","K","2","","","50","main_expt"
"394","","bandit","129","1494135","0.0-90.0-0.0","96420932","wem/bandit_either","A24LC97AU3QC7G","either","8","","","","","","","0","0","1","0.4515646323","","0.6","0.4","0.8","0.2","","","","","0.1067821754","0.3536831403","0.4515646323","0.1614266163","","","","","","","75","K","2","","","51","main_expt"
"636","","bandit","130","1496277","0.0-91.0-0.0","96420932","wem/bandit_either","A24LC97AU3QC7G","either","8","","","","","","","0","0","1","0.1938643747","","0.6","0.4","0.8","0.2","","","","","0.07294577227","0.3058792917","0.4344137529","0.1938643747","","","","","","","76","L","3","","","52","main_expt"
"492","","bandit","131","1498277","0.0-92.0-0.0","96420932","wem/bandit_either","A24LC97AU3QC7G","either","8","","","","","","","1","0","0","0.4421766306","","0.6","0.4","0.8","0.2","","","","","0.07676454597","0.3466820038","0.4421766306","0.1721886996","","","","","","","75","K","2","","","53","main_expt"
"646","","bandit","132","1500436","0.0-93.0-0.0","96420932","wem/bandit_either","A24LC97AU3QC7G","either","8","","","","","","","0","1","0","","0.4591875032","0.6","0.4","0.8","0.2","0.07707135067","0.3159173384","0.4591875032","0.1542880765","","","","","","","","","","","75","K","2","","","54","main_expt"
"854","","bandit","133","1502795","0.0-94.0-0.0","96420932","wem/bandit_either","A24LC97AU3QC7G","either","8","","","","","","","1","0","0","0.4455250987","","0.6","0.4","0.8","0.2","","","","","0.08227932488","0.3205246683","0.4455250987","0.2155598061","","","","","","","75","K","2","","","55","main_expt"
"1055","","bandit","134","1505355","0.0-95.0-0.0","96420932","wem/bandit_either","A24LC97AU3QC7G","either","8","","","","","","","0","0","1","0.4200701886","","0.6","0.4","0.8","0.2","","","","","0.09013031375","0.3067659888","0.4200701886","0.199350645","","","","","","","75","K","2","","","56","main_expt"
"1815","","bandit","135","1508675","0.0-96.0-0.0","96420932","wem/bandit_either","A24LC97AU3QC7G","either","8","","","","","","","0","0","1","0.3635567377","","0.6","0.4","0.8","0.2","","","","","0.106866739","0.3786279545","0.3635567377","0.1991981904","","","","","","","75","K","2","","","57","main_expt"
"1056","","bandit","136","1511236","0.0-97.0-0.0","96420932","wem/bandit_either","A24LC97AU3QC7G","either","8","","","","","","","1","0","0","0.3647217687","","0.6","0.4","0.8","0.2","","","","","0.0915584437","0.3796022377","0.3647217687","0.1307276253","","","","","","","75","K","2","","","58","main_expt"
"4103","","bandit","137","1516844","0.0-98.0-0.0","96420932","wem/bandit_either","A24LC97AU3QC7G","either","8","","","","","","","0","0","1","0.3975499765","","0.6","0.4","0.8","0.2","","","","","0.1036540812","0.3570845549","0.3975499765","0.1540949786","","","","","","","75","K","2","","","59","main_expt"
"626","","bandit","138","1518976","0.0-99.0-0.0","96420932","wem/bandit_either","A24LC97AU3QC7G","either","8","","","","","","","0","0","1","","0.1187181044","0.6","0.4","0.8","0.2","0.07948280662","0.398525789","0.376383165","0.1187181044","","","","","","","","","","","76","L","3","","","60","main_expt"
"1196","","bandit","139","1521678","0.0-100.0-0.0","96420932","wem/bandit_either","A24LC97AU3QC7G","either","8","","","","","","","0","0","1","","0.0685056185","0.6","0.4","0.8","0.2","0.0685056185","0.380986593","0.3384437455","0.1734870435","","","","","","","","","","","72","H","0","img/none_selected.jpg","","61","main_expt"
"1553","","bandit","140","1524737","0.0-101.0-0.0","96420932","wem/bandit_either","A24LC97AU3QC7G","either","8","","","","","","","0","0","1","0.3928002855","","0.6","0.4","0.8","0.2","","","","","0.04196312691","0.3928002855","0.3086389155","0.2056999461","","","","","","","74","J","1","","","62","main_expt"
"113","","bandit","141","1526356","0.0-102.0-0.0","96420932","wem/bandit_either","A24LC97AU3QC7G","either","8","","","","","","","0","0","1","0.3098998428","","0.6","0.4","0.8","0.2","","","","","0.06524357318","0.4097838671","0.3098998428","0.2421495796","","","","","","","75","K","2","","","63","main_expt"
"3564","","bandit","142","1531426","0.0-103.0-0.0","96420932","wem/bandit_either","A24LC97AU3QC7G","either","8","","","","","","","0","0","1","0.04599317762","","0.6","0.4","0.8","0.2","","","","","0.04599317762","0.3942475769","0.2859800092","0.2678986655","","","","","","","72","H","0","img/none_selected.jpg","","64","main_expt"
"606","","bandit","143","1533537","0.0-104.0-0.0","96420932","wem/bandit_either","A24LC97AU3QC7G","either","8","","","","","","","0","0","1","","0.3756823908","0.6","0.4","0.8","0.2","0.04738713632","0.3756823908","0.2780623804","0.2780805564","","","","","","","","","","","74","J","1","","","65","main_expt"
"533","","bandit","144","1535576","0.0-105.0-0.0","96420932","wem/bandit_either","A24LC97AU3QC7G","either","8","","","","","","","0","0","1","0.2740889186","","0.6","0.4","0.8","0.2","","","","","0.02873144913","0.3780323226","0.2740889186","0.2923516192","","","","","","","75","K","2","","","66","main_expt"
"315","","bandit","145","1537396","0.0-106.0-0.0","96420932","wem/bandit_either","A24LC97AU3QC7G","either","8","","","","","","","0","0","1","","0.3122756929","0.6","0.4","0.8","0.2","0.0355516853","0.382091886","0.3122756929","0.3481747094","","","","","","","","","","","75","K","2","","","67","main_expt"
"3458","","bandit","146","1542359","0.0-107.0-0.0","96420932","wem/bandit_either","A24LC97AU3QC7G","either","8","","","","","","","1","0","0","0.3004294993","","0.6","0.4","0.8","0.2","","","","","0.04483006882","0.4080562953","0.3004294993","0.3540590834","","","","","","","75","K","2","","","68","main_expt"
"611","","bandit","147","1544476","0.0-108.0-0.0","96420932","wem/bandit_either","A24LC97AU3QC7G","either","8","","","","","","","0","1","0","","0.3312842332","0.6","0.4","0.8","0.2","0.04300650393","0.419826639","0.3312842332","0.3348318208","","","","","","","","","","","75","K","2","","","69","main_expt"
"593","","bandit","148","1546576","0.0-109.0-0.0","96420932","wem/bandit_either","A24LC97AU3QC7G","either","8","","","","","","","0","0","1","0.2362018798","","0.6","0.4","0.8","0.2","","","","","0.03960880855","0.3889643965","0.2362018798","0.3844983113","","","","","","","75","K","2","","","70","main_expt"
"456","","bandit","149","1548538","0.0-110.0-0.0","96420932","wem/bandit_either","A24LC97AU3QC7G","either","8","","","","","","","0","0","1","0.02401392238","","0.6","0.4","0.8","0.2","","","","","0.02401392238","0.3492343966","0.1838323472","0.3753843975","","","","","","","72","H","0","img/none_selected.jpg","","71","main_expt"
"571","","bandit","150","1550617","0.0-111.0-0.0","96420932","wem/bandit_either","A24LC97AU3QC7G","either","8","","","","","","","0","1","0","","0.3502155883","0.6","0.4","0.8","0.2","0.008756159955","0.3502155883","0.1749810972","0.3861429343","","","","","","","","","","","74","J","1","","","72","main_expt"
"1053","","bandit","151","1553176","0.0-112.0-0.0","96420932","wem/bandit_either","A24LC97AU3QC7G","either","8","","","","","","","0","0","1","0.1664097112","","0.6","0.4","0.8","0.2","","","","","0.006257651783","0.3568691787","0.1664097112","0.3978436086","","","","","","","75","K","2","","","73","main_expt"
"437","","bandit","152","1555119","0.0-113.0-0.0","96420932","wem/bandit_either","A24LC97AU3QC7G","either","8","","","","","","","1","0","0","0.2001176207","","0.6","0.4","0.8","0.2","","","","","0.004732084297","0.3303653739","0.2001176207","0.3847979518","","","","","","","75","K","2","","","74","main_expt"
"432","","bandit","153","1557056","0.0-114.0-0.0","96420932","wem/bandit_either","A24LC97AU3QC7G","either","8","","","","","","","0","0","1","","0.3353283381","0.6","0.4","0.8","0.2","0.006967558871","0.3353283381","0.1848717924","0.3974319157","","","","","","","","","","","74","J","1","","","75","main_expt"
"315","","bandit","154","1558876","0.0-115.0-0.0","96420932","wem/bandit_either","A24LC97AU3QC7G","either","8","","","","","","","0","1","0","","0.3987985884","0.6","0.4","0.8","0.2","0.004525860487","0.3009524994","0.1510178238","0.3987985884","","","","","","","","","","","76","L","3","","","76","main_expt"
"414","","bandit","155","1560797","0.0-116.0-0.0","96420932","wem/bandit_either","A24LC97AU3QC7G","either","8","","","","","","","0","0","1","0.2089633591","","0.6","0.4","0.8","0.2","","","","","0.007245535115","0.3316028908","0.2089633591","0.4127312768","","","","","","","75","K","2","","","77","main_expt"
"394","","bandit","156","1562696","0.0-117.0-0.0","96420932","wem/bandit_either","A24LC97AU3QC7G","either","8","","","","","","","0","1","0","","0.4257675477","0.6","0.4","0.8","0.2","0.00483057751","0.3571024926","0.2285147345","0.4257675477","","","","","","","","","","","76","L","3","","","78","main_expt"
"515","","bandit","157","1564717","0.0-118.0-0.0","96420932","wem/bandit_either","A24LC97AU3QC7G","either","8","","","","","","","1","0","0","0.005956317848","","0.6","0.4","0.8","0.2","","","","","0.005956317848","0.3542776451","0.2246975601","0.4331167668","","","","","","","72","H","0","img/none_selected.jpg","","79","main_expt"
"494","","bandit","158","1566719","0.0-119.0-0.0","96420932","wem/bandit_either","A24LC97AU3QC7G","either","8","","","","","","","0","0","1","","0.0076590047","0.6","0.4","0.8","0.2","0.0076590047","0.3201174307","0.1878766281","0.4294395537","","","","","","","","","","","72","H","0","img/none_selected.jpg","","80","main_expt"
"271","","bandit","159","1568496","0.0-120.0-0.0","96420932","wem/bandit_either","A24LC97AU3QC7G","either","8","","","","","","","1","0","0","0.4234249918","","0.6","0.4","0.8","0.2","","","","","0.009115568074","0.3503003334","0.2436254364","0.4234249918","","","","","","","76","L","3","","","81","main_expt"
"475","","bandit","160","1570476","0.0-121.0-0.0","96420932","wem/bandit_either","A24LC97AU3QC7G","either","8","","","","","","","0","1","0","","0.3509066846","0.6","0.4","0.8","0.2","0.01382977225","0.3509066846","0.2627531714","0.3956977209","","","","","","","","","","","74","J","1","","","82","main_expt"
"694","","bandit","161","1572677","0.0-122.0-0.0","96420932","wem/bandit_either","A24LC97AU3QC7G","either","8","","","","","","","1","0","0","0.3951868033","","0.6","0.4","0.8","0.2","","","","","0.01500629599","0.3951868033","0.2672212524","0.4248650233","","","","","","","74","J","1","","","83","main_expt"
"694","","bandit","162","1574878","0.0-123.0-0.0","96420932","wem/bandit_either","A24LC97AU3QC7G","either","8","","","","","","","0","0","1","0.2817484998","","0.6","0.4","0.8","0.2","","","","","0.02310127573","0.4131477378","0.2817484998","0.4196907627","","","","","","","75","K","2","","","84","main_expt"
"633","","bandit","163","1577017","0.0-124.0-0.0","96420932","wem/bandit_either","A24LC97AU3QC7G","either","8","","","","","","","0","1","0","","0.3889697292","0.6","0.4","0.8","0.2","0.02639065846","0.3889697292","0.3074775227","0.435633498","","","","","","","","","","","74","J","1","","","85","main_expt"
"553","","bandit","164","1579077","0.0-125.0-0.0","96420932","wem/bandit_either","A24LC97AU3QC7G","either","8","","","","","","","0","1","0","","0.4322222521","0.6","0.4","0.8","0.2","0.01746441632","0.3885636443","0.2717847629","0.4322222521","","","","","","","","","","","76","L","3","","","86","main_expt"
"752","","bandit","165","1581336","0.0-126.0-0.0","96420932","wem/bandit_either","A24LC97AU3QC7G","either","8","","","","","","","0","0","1","","0.4028282504","0.6","0.4","0.8","0.2","0.01256144444","0.4028282504","0.2183858348","0.4476119451","","","","","","","","","","","74","J","1","","","87","main_expt"
"916","","bandit","166","1583758","0.0-127.0-0.0","96420932","wem/bandit_either","A24LC97AU3QC7G","either","8","","","","","","","1","0","0","0.2054961256","","0.6","0.4","0.8","0.2","","","","","0.01178158386","0.4306890759","0.2054961256","0.4073123198","","","","","","","75","K","2","","","88","main_expt"
"453","","bandit","167","1585717","0.0-128.0-0.0","96420932","wem/bandit_either","A24LC97AU3QC7G","either","8","","","","","","","0","0","1","","0.3862301724","0.6","0.4","0.8","0.2","0.008722555822","0.4103738654","0.1452714398","0.3862301724","","","","","","","","","","","76","L","3","","","89","main_expt"
"855","","bandit","168","1588080","0.0-129.0-0.0","96420932","wem/bandit_either","A24LC97AU3QC7G","either","8","","","","","","","0","1","0","","0.008232471735","0.6","0.4","0.8","0.2","0.008232471735","0.3980827974","0.1077779513","0.3596745144","","","","","","","","","","","72","H","0","img/none_selected.jpg","","90","main_expt"
"551","","bandit","169","1590136","0.0-130.0-0.0","96420932","wem/bandit_either","A24LC97AU3QC7G","either","8","","","","","","","0","0","1","","0.4040531024","0.6","0.4","0.8","0.2","0.01249180717","0.4040531024","0.1308407065","0.3082854458","","","","","","","","","","","74","J","1","","","91","main_expt"
"1055","","bandit","170","1592697","0.0-131.0-0.0","96420932","wem/bandit_either","A24LC97AU3QC7G","either","8","","","","","","","0","0","1","","0.1652322036","0.6","0.4","0.8","0.2","0.01470986316","0.3462944796","0.1652322036","0.312225492","","","","","","","","","","","75","K","2","","","92","main_expt"
"1033","","bandit","171","1595237","0.0-132.0-0.0","96420932","wem/bandit_either","A24LC97AU3QC7G","either","8","","","","","","","0","0","1","","0.02655281846","0.6","0.4","0.8","0.2","0.02655281846","0.3411451966","0.1344678182","0.3671658277","","","","","","","","","","","72","H","0","img/none_selected.jpg","","93","main_expt"
"1013","","bandit","172","1597756","0.0-133.0-0.0","96420932","wem/bandit_either","A24LC97AU3QC7G","either","8","","","","","","","0","1","0","","0.3401731108","0.6","0.4","0.8","0.2","0.02575246025","0.3384154489","0.1301314301","0.3401731108","","","","","","","","","","","76","L","3","","","94","main_expt"
"3446","","bandit","173","1602708","0.0-134.0-0.0","96420932","wem/bandit_either","A24LC97AU3QC7G","either","8","","","","","","","0","0","1","0.3126988266","","0.6","0.4","0.8","0.2","","","","","0.02262355665","0.3126988266","0.1746055711","0.3413923724","","","","","","","74","J","1","","","95","main_expt"
"2483","","bandit","174","1606697","0.0-135.0-0.0","96420932","wem/bandit_either","A24LC97AU3QC7G","either","8","","","","","","","0","0","1","0.1994244555","","0.6","0.4","0.8","0.2","","","","","0.02047181149","0.3800019137","0.1994244555","0.3570420485","","","","","","","75","K","2","","","96","main_expt"
"234","","bandit","175","1608437","0.0-136.0-0.0","96420932","wem/bandit_either","A24LC97AU3QC7G","either","8","","","","","","","0","0","1","","0.0207754381","0.6","0.4","0.8","0.2","0.0207754381","0.3328121005","0.1834602947","0.3435474977","","","","","","","","","","","72","H","0","img/none_selected.jpg","","97","main_expt"
"354","","bandit","176","1610297","0.0-137.0-0.0","96420932","wem/bandit_either","A24LC97AU3QC7G","either","8","","","","","","","0","1","0","","0.3614714926","0.6","0.4","0.8","0.2","0.02955834597","0.332228596","0.1719221531","0.3614714926","","","","","","","","","","","76","L","3","","","98","main_expt"
"732","","bandit","177","1612537","0.0-138.0-0.0","96420932","wem/bandit_either","A24LC97AU3QC7G","either","8","","","","","","","0","0","1","","0.2843854285","0.6","0.4","0.8","0.2","0.0383131093","0.2843854285","0.1183399241","0.3176405447","","","","","","","","","","","74","J","1","","","99","main_expt"
"515","","bandit","178","1614557","0.0-139.0-0.0","96420932","wem/bandit_either","A24LC97AU3QC7G","either","8","","","","","","","1","0","0","0.1558635017","","0.6","0.4","0.8","0.2","","","","","0.03580757471","0.309751149","0.1558635017","0.3586553183","","","","","","","75","K","2","","","100","main_expt"
"1153","","bandit","179","1617217","0.0-140.0-0.0","96420932","wem/bandit_either","A24LC97AU3QC7G","either","8","","","","","","","0","1","0","","0.2951503345","0.6","0.4","0.8","0.2","0.04899620691","0.2993195944","0.1389665978","0.2951503345","","","","","","","","","","","76","L","3","","","101","main_expt"
"434","","bandit","180","1619157","0.0-141.0-0.0","96420932","wem/bandit_either","A24LC97AU3QC7G","either","8","","","","","","","1","0","0","0.3551890872","","0.6","0.4","0.8","0.2","","","","","0.08055650644","0.3551890872","0.1377203561","0.2998391809","","","","","","","74","J","1","","","102","main_expt"
"854","","bandit","181","1621517","0.0-142.0-0.0","96420932","wem/bandit_either","A24LC97AU3QC7G","either","8","","","","","","","0","0","1","0.1285548106","","0.6","0.4","0.8","0.2","","","","","0.1040447627","0.3148404956","0.1285548106","0.2791823827","","","","","","","75","K","2","","","103","main_expt"
"394","","bandit","182","1623417","0.0-143.0-0.0","96420932","wem/bandit_either","A24LC97AU3QC7G","either","8","","","","","","","0","0","1","0.1143547335","","0.6","0.4","0.8","0.2","","","","","0.1143547335","0.3286912191","0.1555523735","0.3382769334","","","","","","","72","H","0","img/none_selected.jpg","","104","main_expt"
"335","","bandit","183","1625259","0.0-144.0-0.0","96420932","wem/bandit_either","A24LC97AU3QC7G","either","8","","","","","","","1","0","0","0.298340497","","0.6","0.4","0.8","0.2","","","","","0.1487676438","0.298340497","0.1775592141","0.3339697125","","","","","","","74","J","1","","","105","main_expt"
"753","","bandit","184","1627517","0.0-145.0-0.0","96420932","wem/bandit_either","A24LC97AU3QC7G","either","8","","","","","","","0","0","1","","0.3124129253","0.6","0.4","0.8","0.2","0.152088545","0.3504464386","0.2263451353","0.3124129253","","","","","","","","","","","76","L","3","","","106","main_expt"
"534","","bandit","185","1629557","0.0-146.0-0.0","96420932","wem/bandit_either","A24LC97AU3QC7G","either","8","","","","","","","0","0","1","0.1679769802","","0.6","0.4","0.8","0.2","","","","","0.2406734145","0.3510410077","0.1679769802","0.3400683723","","","","","","","75","K","2","","","107","main_expt"
"854","","bandit","186","1631917","0.0-147.0-0.0","96420932","wem/bandit_either","A24LC97AU3QC7G","either","8","","","","","","","0","0","1","","0.3282766846","0.6","0.4","0.8","0.2","0.3048040024","0.3282766846","0.1999870147","0.3557340834","","","","","","","","","","","74","J","1","","","108","main_expt"
"1653","","bandit","187","1635078","0.0-148.0-0.0","96420932","wem/bandit_either","A24LC97AU3QC7G","either","8","","","","","","","0","0","1","","0.3846418901","0.6","0.4","0.8","0.2","0.3418503096","0.3561186451","0.208992856","0.3846418901","","","","","","","","","","","76","L","3","","","109","main_expt"
"3588","","bandit","188","1640176","0.0-149.0-0.0","96420932","wem/bandit_either","A24LC97AU3QC7G","either","8","","","","","","","0","0","1","","0.3198501315","0.6","0.4","0.8","0.2","0.3198501315","0.3576445865","0.1716040471","0.4057962062","","","","","","","","","","","72","H","0","img/none_selected.jpg","","110","main_expt"
"1055","","bandit","189","1642737","0.0-150.0-0.0","96420932","wem/bandit_either","A24LC97AU3QC7G","either","8","","","","","","","0","0","1","","0.3377543854","0.6","0.4","0.8","0.2","0.3681534847","0.3377543854","0.08984071331","0.3692451483","","","","","","","","","","","74","J","1","","","111","main_expt"
"2654","","bandit","190","1646898","0.0-151.0-0.0","96420932","wem/bandit_either","A24LC97AU3QC7G","either","8","","","","","","","0","0","1","0.3577317973","","0.6","0.4","0.8","0.2","","","","","0.3757830796","0.286234052","0.1243463141","0.3577317973","","","","","","","76","L","3","","","112","main_expt"
"953","","bandit","191","1649357","0.0-152.0-0.0","96420932","wem/bandit_either","A24LC97AU3QC7G","either","8","","","","","","","0","0","1","0.1433440675","","0.6","0.4","0.8","0.2","","","","","0.3838999828","0.1932674395","0.1433440675","0.3328808086","","","","","","","75","K","2","","","113","main_expt"
"655","","bandit","192","1651518","0.0-153.0-0.0","96420932","wem/bandit_either","A24LC97AU3QC7G","either","8","","","","","","","0","0","1","0.1510662198","","0.6","0.4","0.8","0.2","","","","","0.4157938717","0.2403040534","0.1510662198","0.3416979579","","","","","","","75","K","2","","","114","main_expt"
"333","","bandit","193","1653359","0.0-154.0-0.0","96420932","wem/bandit_either","A24LC97AU3QC7G","either","8","","","","","","","0","0","1","","0.254937398","0.6","0.4","0.8","0.2","0.4055870595","0.254937398","0.09845245139","0.3377137281","","","","","","","","","","","74","J","1","","","115","main_expt"
"373","","bandit","194","1655238","0.0-155.0-0.0","96420932","wem/bandit_either","A24LC97AU3QC7G","either","8","","","","","","","0","0","1","0.2605063941","","0.6","0.4","0.8","0.2","","","","","0.4161015278","0.2605063941","0.107393795","0.3039448029","","","","","","","74","J","1","","","116","main_expt"
"333","","bandit","195","1657078","0.0-156.0-0.0","96420932","wem/bandit_either","A24LC97AU3QC7G","either","8","","","","","","","0","0","1","0.2161328783","","0.6","0.4","0.8","0.2","","","","","0.414877819","0.2161328783","0.07879800556","0.2974336912","","","","","","","74","J","1","","","117","main_expt"
"414","","bandit","196","1658998","0.0-157.0-0.0","96420932","wem/bandit_either","A24LC97AU3QC7G","either","8","","","","","","","0","1","0","","0.1931197841","0.6","0.4","0.8","0.2","0.3968259953","0.1931197841","0.08383735875","0.2651867246","","","","","","","","","","","74","J","1","","","118","main_expt"
"514","","bandit","197","1661018","0.0-158.0-0.0","96420932","wem/bandit_either","A24LC97AU3QC7G","either","8","","","","","","","1","0","0","0.4198241006","","0.6","0.4","0.8","0.2","","","","","0.4198241006","0.1638183597","0.1392474383","0.3131666206","","","","","","","72","H","0","img/none_selected.jpg","","119","main_expt"
"494","","bandit","198","1663018","0.0-159.0-0.0","96420932","wem/bandit_either","A24LC97AU3QC7G","either","8","","","","","","","0","1","0","","0.4286088018","0.6","0.4","0.8","0.2","0.4286088018","0.1893282748","0.1649404926","0.358829095","","","","","","","","","","","72","H","0","img/none_selected.jpg","","120","main_expt"
"633","","bandit","199","1665157","0.0-160.0-0.0","96420932","wem/bandit_either","A24LC97AU3QC7G","either","8","","","","","","","0","0","1","0.4253829576","","0.6","0.4","0.8","0.2","","","","","0.4253829576","0.2290368179","0.1764152442","0.3189860171","","","","","","","72","H","0","img/none_selected.jpg","","121","main_expt"
"433","","bandit","200","1667097","0.0-161.0-0.0","96420932","wem/bandit_either","A24LC97AU3QC7G","either","8","","","","","","","1","0","0","0.4235175979","","0.6","0.4","0.8","0.2","","","","","0.4235175979","0.2445441383","0.2092397698","0.3011672979","","","","","","","72","H","0","img/none_selected.jpg","","122","main_expt"
"555","","bandit","201","1669158","0.0-162.0-0.0","96420932","wem/bandit_either","A24LC97AU3QC7G","either","8","","","","","","","0","0","1","","0.4182090072","0.6","0.4","0.8","0.2","0.4182090072","0.2091075756","0.1884058447","0.3037948063","","","","","","","","","","","72","H","0","img/none_selected.jpg","","123","main_expt"
"614","","bandit","202","1671278","0.0-163.0-0.0","96420932","wem/bandit_either","A24LC97AU3QC7G","either","8","","","","","","","1","0","0","0.4356016004","","0.6","0.4","0.8","0.2","","","","","0.4356016004","0.2216111921","0.1876417206","0.2446200253","","","","","","","72","H","0","img/none_selected.jpg","","124","main_expt"
"454","","bandit","203","1673239","0.0-164.0-0.0","96420932","wem/bandit_either","A24LC97AU3QC7G","either","8","","","","","","","0","0","1","","0.403953628","0.6","0.4","0.8","0.2","0.403953628","0.1622020501","0.1890564589","0.2464628806","","","","","","","","","","","72","H","0","img/none_selected.jpg","","125","main_expt"
"451","","bandit","204","1675198","0.0-165.0-0.0","96420932","wem/bandit_either","A24LC97AU3QC7G","either","8","","","","","","","0","0","1","0.4020675328","","0.6","0.4","0.8","0.2","","","","","0.4020675328","0.173533554","0.1659850756","0.281169445","","","","","","","72","H","0","img/none_selected.jpg","","126","main_expt"
"707","","bandit","205","1677418","0.0-166.0-0.0","96420932","wem/bandit_either","A24LC97AU3QC7G","either","8","","","","","","","0","0","1","0.338443572","","0.6","0.4","0.8","0.2","","","","","0.338443572","0.189829559","0.2006343121","0.290080064","","","","","","","72","H","0","img/none_selected.jpg","","127","main_expt"
"653","","bandit","206","1679578","0.0-167.0-0.0","96420932","wem/bandit_either","A24LC97AU3QC7G","either","8","","","","","","","0","0","1","","0.1764696366","0.6","0.4","0.8","0.2","0.323123489","0.1764696366","0.2637444583","0.3280989756","","","","","","","","","","","74","J","1","","","128","main_expt"
"574","","bandit","207","1681658","0.0-168.0-0.0","96420932","wem/bandit_either","A24LC97AU3QC7G","either","8","","","","","","","0","0","1","0.172709194","","0.6","0.4","0.8","0.2","","","","","0.3615310162","0.172709194","0.2783394686","0.3052704822","","","","","","","74","J","1","","","129","main_expt"
"494","","bandit","208","1683659","0.0-169.0-0.0","96420932","wem/bandit_either","A24LC97AU3QC7G","either","8","","","","","","","1","0","0","0.2674474002","","0.6","0.4","0.8","0.2","","","","","0.3667448715","0.1407460215","0.2674474002","0.314718742","","","","","","","75","K","2","","","130","main_expt"
"592","","bandit","209","1685757","0.0-170.0-0.0","96420932","wem/bandit_either","A24LC97AU3QC7G","either","8","","","","","","","0","0","1","0.2122920843","","0.6","0.4","0.8","0.2","","","","","0.341745941","0.143826562","0.2122920843","0.2492347367","","","","","","","75","K","2","","","131","main_expt"
"695","","bandit","210","1687959","0.0-171.0-0.0","96420932","wem/bandit_either","A24LC97AU3QC7G","either","8","","","","","","","0","0","1","","0.2495736985","0.6","0.4","0.8","0.2","0.2615325727","0.1862992663","0.1969346152","0.2495736985","","","","","","","","","","","76","L","3","","","132","main_expt"
"572","","bandit","211","1690039","0.0-172.0-0.0","96420932","wem/bandit_either","A24LC97AU3QC7G","either","8","","","","","","","0","0","1","0.1390835973","","0.6","0.4","0.8","0.2","","","","","0.27905624","0.185648564","0.1390835973","0.2487120015","","","","","","","75","K","2","","","133","main_expt"
"513","","bandit","212","1692059","0.0-173.0-0.0","96420932","wem/bandit_either","A24LC97AU3QC7G","either","8","","","","","","","0","0","1","","0.2751163123","0.6","0.4","0.8","0.2","0.2751163123","0.2002276213","0.1437640715","0.3239420422","","","","","","","","","","","72","H","0","img/none_selected.jpg","","134","main_expt"
"413","","bandit","213","1693979","0.0-174.0-0.0","96420932","wem/bandit_either","A24LC97AU3QC7G","either","8","","","","","","","0","0","1","","0.2586507773","0.6","0.4","0.8","0.2","0.2586507773","0.2474552851","0.1175999949","0.3903525049","","","","","","","","","","","72","H","0","img/none_selected.jpg","","135","main_expt"
"592","","bandit","214","1696078","0.0-175.0-0.0","96420932","wem/bandit_either","A24LC97AU3QC7G","either","8","","","","","","","0","0","1","0.3703049055","","0.6","0.4","0.8","0.2","","","","","0.2385277364","0.2454982057","0.1108499649","0.3703049055","","","","","","","76","L","3","","","136","main_expt"
"354","","bandit","215","1697938","0.0-176.0-0.0","96420932","wem/bandit_either","A24LC97AU3QC7G","either","8","","","","","","","0","1","0","","0.3657944308","0.6","0.4","0.8","0.2","0.1935782534","0.2708690816","0.1208727618","0.3657944308","","","","","","","","","","","76","L","3","","","137","main_expt"
"794","","bandit","216","1700238","0.0-177.0-0.0","96420932","wem/bandit_either","A24LC97AU3QC7G","either","8","","","","","","","0","0","1","0.2219039101","","0.6","0.4","0.8","0.2","","","","","0.14087624","0.2219039101","0.1098805161","0.3452946514","","","","","","","74","J","1","","","138","main_expt"
"373","","bandit","217","1702118","0.0-178.0-0.0","96420932","wem/bandit_either","A24LC97AU3QC7G","either","8","","","","","","","1","0","0","0.1340930794","","0.6","0.4","0.8","0.2","","","","","0.1340930794","0.2485571535","0.1359731218","0.3225052804","","","","","","","72","H","0","img/none_selected.jpg","","139","main_expt"
"593","","bandit","218","1704218","0.0-179.0-0.0","96420932","wem/bandit_either","A24LC97AU3QC7G","either","8","","","","","","","0","1","0","","0.2997250911","0.6","0.4","0.8","0.2","0.1170750994","0.2605640439","0.1419248406","0.2997250911","","","","","","","","","","","76","L","3","","","140","main_expt"
"555","","bandit","219","1706280","0.0-180.0-0.0","96420932","wem/bandit_either","A24LC97AU3QC7G","either","8","","","","","","","0","0","1","","0.2260680923","0.6","0.4","0.8","0.2","0.1316830279","0.2260680923","0.1269577117","0.311933389","","","","","","","","","","","74","J","1","","","141","main_expt"
"152","","bandit","220","1707939","0.0-181.0-0.0","96420932","wem/bandit_either","A24LC97AU3QC7G","either","8","","","","","","","0","1","0","","0.1073819056","0.6","0.4","0.8","0.2","0.09490366034","0.2354846983","0.1073819056","0.3442568425","","","","","","","","","","","75","K","2","","","142","main_expt"
"413","","bandit","221","1709860","0.0-182.0-0.0","96420932","wem/bandit_either","A24LC97AU3QC7G","either","8","","","","","","","0","0","1","","0.1152767294","0.6","0.4","0.8","0.2","0.1246024154","0.2089358464","0.1152767294","0.3117203045","","","","","","","","","","","75","K","2","","","143","main_expt"
"346","","bandit","222","1711719","0.0-183.0-0.0","96420932","wem/bandit_either","A24LC97AU3QC7G","either","8","","","","","","","0","0","1","0.1317444946","","0.6","0.4","0.8","0.2","","","","","0.1179874238","0.1844607625","0.1317444946","0.3080771123","","","","","","","75","K","2","","","144","main_expt"
"531","","bandit","223","1713759","0.0-184.0-0.0","96420932","wem/bandit_either","A24LC97AU3QC7G","either","8","","","","","","","0","0","1","0.1058600218","","0.6","0.4","0.8","0.2","","","","","0.1211842963","0.1940384654","0.1058600218","0.3146876691","","","","","","","75","K","2","","","145","main_expt"
"452","","bandit","224","1715719","0.0-185.0-0.0","96420932","wem/bandit_either","A24LC97AU3QC7G","either","8","","","","","","","0","0","1","","0.3526806189","0.6","0.4","0.8","0.2","0.06212451067","0.2532022814","0.1862633901","0.3526806189","","","","","","","","","","","76","L","3","","","146","main_expt"
"512","","bandit","225","1717738","0.0-186.0-0.0","96420932","wem/bandit_either","A24LC97AU3QC7G","either","8","","","","","","","0","1","0","","0.3859334927","0.6","0.4","0.8","0.2","0.05826033827","0.272856749","0.1944793183","0.3859334927","","","","","","","","","","","76","L","3","","","147","main_expt"
"694","","bandit","226","1719938","0.0-187.0-0.0","96420932","wem/bandit_either","A24LC97AU3QC7G","either","8","","","","","","","0","0","1","","0.4089873985","0.6","0.4","0.8","0.2","0.04847575149","0.2441255329","0.1572605535","0.4089873985","","","","","","","","","","","76","L","3","","","148","main_expt"
"313","","bandit","227","1721759","0.0-188.0-0.0","96420932","wem/bandit_either","A24LC97AU3QC7G","either","8","","","","","","","0","0","1","","0.07397138717","0.6","0.4","0.8","0.2","0.07397138717","0.2304797635","0.1632070519","0.3317076441","","","","","","","","","","","72","H","0","img/none_selected.jpg","","149","main_expt"
"313","","bandit","228","1723579","0.0-189.0-0.0","96420932","wem/bandit_either","A24LC97AU3QC7G","either","8","","","","","","","0","0","1","","0.1178437277","0.6","0.4","0.8","0.2","0.1178437277","0.2645424191","0.2162169298","0.2514439341","","","","","","","","","","","72","H","0","img/none_selected.jpg","","150","main_expt"
"614","","bandit","229","1725699","0.0-190.0-0.0","96420932","wem/bandit_either","A24LC97AU3QC7G","either","8","","","","","","","0","0","1","0.1116740648","","0.6","0.4","0.8","0.2","","","","","0.1116740648","0.2919476008","0.2806681102","0.2209696772","","","","","","","72","H","0","img/none_selected.jpg","","151","main_expt"
"514","","bandit","230","1727720","0.0-191.0-0.0","96420932","wem/bandit_either","A24LC97AU3QC7G","either","8","","","","","","","1","0","0","0.09681320826","","0.6","0.4","0.8","0.2","","","","","0.09681320826","0.3004198658","0.25223767","0.2004300668","","","","","","","72","H","0","img/none_selected.jpg","","152","main_expt"
"612","","bandit","231","1729839","0.0-192.0-0.0","96420932","wem/bandit_either","A24LC97AU3QC7G","either","8","","","","","","","0","0","1","","0.1803159607","0.6","0.4","0.8","0.2","0.1162344283","0.2910243242","0.2259503681","0.1803159607","","","","","","","","","","","76","L","3","","","153","main_expt"
"613","","bandit","232","1731959","0.0-193.0-0.0","96420932","wem/bandit_either","A24LC97AU3QC7G","either","8","","","","","","","0","0","1","","0.1793353988","0.6","0.4","0.8","0.2","0.1441765144","0.2858680692","0.2520515582","0.1793353988","","","","","","","","","","","76","L","3","","","154","main_expt"
"553","","bandit","233","1734018","0.0-194.0-0.0","96420932","wem/bandit_either","A24LC97AU3QC7G","either","8","","","","","","","0","0","1","","0.175125938","0.6","0.4","0.8","0.2","0.1506434262","0.276906037","0.246895917","0.175125938","","","","","","","","","","","76","L","3","","","155","main_expt"
"473","","bandit","234","1735998","0.0-195.0-0.0","96420932","wem/bandit_either","A24LC97AU3QC7G","either","8","","","","","","","0","0","1","","0.19004546","0.6","0.4","0.8","0.2","0.1691825384","0.3087514371","0.2067462234","0.19004546","","","","","","","","","","","76","L","3","","","156","main_expt"
"674","","bandit","235","1738180","0.0-196.0-0.0","96420932","wem/bandit_either","A24LC97AU3QC7G","either","8","","","","","","","0","0","1","0.1736677602","","0.6","0.4","0.8","0.2","","","","","0.1465267651","0.3400763937","0.1736677602","0.1538528063","","","","","","","75","K","2","","","157","main_expt"
"551","","bandit","236","1740240","0.0-197.0-0.0","96420932","wem/bandit_either","A24LC97AU3QC7G","either","8","","","","","","","0","0","1","0.2437422656","","0.6","0.4","0.8","0.2","","","","","0.1517260174","0.3388441277","0.2437422656","0.1624419901","","","","","","","75","K","2","","","158","main_expt"
"673","","bandit","237","1742422","0.0-198.0-0.0","96420932","wem/bandit_either","A24LC97AU3QC7G","either","8","","","","","","","1","0","0","0.2627628197","","0.6","0.4","0.8","0.2","","","","","0.143579764","0.3496437485","0.2627628197","0.1749682205","","","","","","","75","K","2","","","159","main_expt"
"652","","bandit","238","1744581","0.0-199.0-0.0","96420932","wem/bandit_either","A24LC97AU3QC7G","either","8","","","","","","","0","0","1","","0.3347491532","0.6","0.4","0.8","0.2","0.1701049762","0.3347491532","0.2532756584","0.2227833177","","","","","","","","","","","74","J","1","","","160","main_expt"
"408","","bandit","239","1746501","0.0-200.0-0.0","96420932","wem/bandit_either","A24LC97AU3QC7G","either","8","","","","","","","0","0","1","0.2846030245","","0.6","0.4","0.8","0.2","","","","","0.1596038406","0.3036625801","0.2846030245","0.1616195486","","","","","","","75","K","2","","","161","main_expt"
"672","","bandit","240","1748681","0.0-201.0-0.0","96420932","wem/bandit_either","A24LC97AU3QC7G","either","8","","","","","","","0","0","1","","0.2480450928","0.6","0.4","0.8","0.2","0.1186271452","0.2735804545","0.2480450928","0.1440802068","","","","","","","","","","","75","K","2","","","162","main_expt"
"751","","bandit","241","1750941","0.0-202.0-0.0","96420932","wem/bandit_either","A24LC97AU3QC7G","either","8","","","","","","","0","1","0","","0.3217860246","0.6","0.4","0.8","0.2","0.1460830151","0.2219233964","0.3217860246","0.1349250059","","","","","","","","","","","75","K","2","","","163","main_expt"
"1051","","bandit","242","1753499","0.0-203.0-0.0","96420932","wem/bandit_either","A24LC97AU3QC7G","either","8","","","","","","","0","0","1","0.1924179555","","0.6","0.4","0.8","0.2","","","","","0.1924179555","0.2489701673","0.3528623486","0.1482528248","","","","","","","72","H","0","img/none_selected.jpg","","164","main_expt"
"353","","bandit","243","1755359","0.0-204.0-0.0","96420932","wem/bandit_either","A24LC97AU3QC7G","either","8","","","","","","","0","0","1","0.1909643941","","0.6","0.4","0.8","0.2","","","","","0.1909643941","0.2424219606","0.3113737792","0.1444116863","","","","","","","72","H","0","img/none_selected.jpg","","165","main_expt"
"373","","bandit","244","1757240","0.0-205.0-0.0","96420932","wem/bandit_either","A24LC97AU3QC7G","either","8","","","","","","","0","0","1","0.1917506842","","0.6","0.4","0.8","0.2","","","","","0.1917506842","0.1899742571","0.2820045276","0.1621449425","","","","","","","72","H","0","img/none_selected.jpg","","166","main_expt"
"273","","bandit","245","1759020","0.0-206.0-0.0","96420932","wem/bandit_either","A24LC97AU3QC7G","either","8","","","","","","","0","0","1","0.2238056512","","0.6","0.4","0.8","0.2","","","","","0.2238056512","0.2298880826","0.2539690707","0.1695256229","","","","","","","72","H","0","img/none_selected.jpg","","167","main_expt"
"752","","bandit","246","1761279","0.0-207.0-0.0","96420932","wem/bandit_either","A24LC97AU3QC7G","either","8","","","","","","","0","1","0","","0.241220494","0.6","0.4","0.8","0.2","0.2132240521","0.241220494","0.2177565821","0.1712445676","","","","","","","","","","","74","J","1","","","168","main_expt"
"434","","bandit","247","1763219","0.0-208.0-0.0","96420932","wem/bandit_either","A24LC97AU3QC7G","either","8","","","","","","","0","0","1","","0.2113351254","0.6","0.4","0.8","0.2","0.1363713625","0.2113351254","0.183214586","0.191079104","","","","","","","","","","","74","J","1","","","169","main_expt"
"633","","bandit","248","1765360","0.0-209.0-0.0","96420932","wem/bandit_either","A24LC97AU3QC7G","either","8","","","","","","","0","0","1","","0.2224744884","0.6","0.4","0.8","0.2","0.2007690262","0.2224744884","0.1757282231","0.2227666825","","","","","","","","","","","74","J","1","","","170","main_expt"
"245","","bandit","249","1767121","0.0-210.0-0.0","96420932","wem/bandit_either","A24LC97AU3QC7G","either","8","","","","","","","0","0","1","0.262177911","","0.6","0.4","0.8","0.2","","","","","0.1238998316","0.262177911","0.1679331046","0.2719914804","","","","","","","74","J","1","","","171","main_expt"
"324","","bandit","250","1768959","0.0-211.0-0.0","96420932","wem/bandit_either","A24LC97AU3QC7G","either","8","","","","","","","1","0","0","0.2822992514","","0.6","0.4","0.8","0.2","","","","","0.09746419185","0.2822992514","0.14560319","0.2330128459","","","","","","","74","J","1","","","172","main_expt"
"674","","bandit","251","1771142","0.0-212.0-0.0","96420932","wem/bandit_either","A24LC97AU3QC7G","either","8","","","","","","","0","0","1","0.1341549344","","0.6","0.4","0.8","0.2","","","","","0.1018164217","0.2545762091","0.1341549344","0.2840251313","","","","","","","75","K","2","","","173","main_expt"
"501","","bandit","252","1773159","0.0-213.0-0.0","96420932","wem/bandit_either","A24LC97AU3QC7G","either","8","","","","","","","0","0","1","0.1471305278","","0.6","0.4","0.8","0.2","","","","","0.1401689619","0.2838184637","0.1471305278","0.2739042306","","","","","","","75","K","2","","","174","main_expt"
"332","","bandit","253","1775000","0.0-214.0-0.0","96420932","wem/bandit_either","A24LC97AU3QC7G","either","8","","","","","","","0","1","0","","0.3444735506","0.6","0.4","0.8","0.2","0.1697524679","0.3002790513","0.173963405","0.3444735506","","","","","","","","","","","76","L","3","","","175","main_expt"
"352","","bandit","254","1776860","0.0-215.0-0.0","96420932","wem/bandit_either","A24LC97AU3QC7G","either","8","","","","","","","0","0","1","","0.3223017316","0.6","0.4","0.8","0.2","0.1896898672","0.3771690292","0.1821857965","0.3223017316","","","","","","","","","","","76","L","3","","","176","main_expt"
"393","","bandit","255","1778760","0.0-216.0-0.0","96420932","wem/bandit_either","A24LC97AU3QC7G","either","8","","","","","","","0","0","1","","0.2964924158","0.6","0.4","0.8","0.2","0.2441254625","0.4047809956","0.1444884472","0.2964924158","","","","","","","","","","","76","L","3","","","177","main_expt"
"392","","bandit","256","1780660","0.0-217.0-0.0","96420932","wem/bandit_either","A24LC97AU3QC7G","either","8","","","","","","","0","0","1","","0.2780576925","0.6","0.4","0.8","0.2","0.2427722412","0.4344960837","0.1207783293","0.2780576925","","","","","","","","","","","76","L","3","","","178","main_expt"
"1134","","bandit","257","1783300","0.0-218.0-0.0","96420932","wem/bandit_either","A24LC97AU3QC7G","either","8","","","","","","","0","0","1","0.111585665","","0.6","0.4","0.8","0.2","","","","","0.2284650367","0.4287912686","0.111585665","0.2859751729","","","","","","","75","K","2","","","179","main_expt"
"672","","bandit","258","1785480","0.0-219.0-0.0","96420932","wem/bandit_either","A24LC97AU3QC7G","either","8","","","","","","","0","0","1","","0.06891525065","0.6","0.4","0.8","0.2","0.2694081366","0.4294180747","0.06891525065","0.283533164","","","","","","","","","","","75","K","2","","","180","main_expt"
"1451","","bandit","259","1788439","0.0-220.0-0.0","96420932","wem/bandit_either","A24LC97AU3QC7G","either","8","","","","","","","0","0","1","0.07407739619","","0.6","0.4","0.8","0.2","","","","","0.2471628034","0.3887332701","0.07407739619","0.2430023428","","","","","","","75","K","2","","","181","main_expt"
"669","","bandit","260","1790620","0.0-221.0-0.0","96420932","wem/bandit_either","A24LC97AU3QC7G","either","8","","","","","","","1","0","0","0.07501704201","","0.6","0.4","0.8","0.2","","","","","0.275372354","0.3910635387","0.07501704201","0.223254837","","","","","","","75","K","2","","","182","main_expt"
"1171","","bandit","261","1793301","0.0-222.0-0.0","96420932","wem/bandit_either","A24LC97AU3QC7G","either","8","","","","","","","0","1","0","","0.2378950907","0.6","0.4","0.8","0.2","0.2378950907","0.3957792538","0.09354103142","0.2274286797","","","","","","","","","","","72","H","0","img/none_selected.jpg","","183","main_expt"
"3314","","bandit","262","1798124","0.0-223.0-0.0","96420932","wem/bandit_either","A24LC97AU3QC7G","either","8","","","","","","","0","0","1","0.2611999536","","0.6","0.4","0.8","0.2","","","","","0.2611999536","0.3777829694","0.06673830493","0.2485964068","","","","","","","72","H","0","img/none_selected.jpg","","184","main_expt"
"149","","bandit","263","1799781","0.0-224.0-0.0","96420932","wem/bandit_either","A24LC97AU3QC7G","either","8","","","","","","","0","0","1","0.2799245071","","0.6","0.4","0.8","0.2","","","","","0.2799245071","0.4130939835","0.08617836821","0.2080173303","","","","","","","72","H","0","img/none_selected.jpg","","185","main_expt"
"553","","bandit","264","1801841","0.0-225.0-0.0","96420932","wem/bandit_either","A24LC97AU3QC7G","either","8","","","","","","","0","0","1","0.2275386122","","0.6","0.4","0.8","0.2","","","","","0.2275386122","0.376930599","0.05054014018","0.2538883687","","","","","","","72","H","0","img/none_selected.jpg","","186","main_expt"
"471","","bandit","265","1803820","0.0-226.0-0.0","96420932","wem/bandit_either","A24LC97AU3QC7G","either","8","","","","","","","0","0","1","","0.2558518805","0.6","0.4","0.8","0.2","0.2558518805","0.3934592684","0.1101456656","0.2267652077","","","","","","","","","","","72","H","0","img/none_selected.jpg","","187","main_expt"
"292","","bandit","266","1805620","0.0-227.0-0.0","96420932","wem/bandit_either","A24LC97AU3QC7G","either","8","","","","","","","1","0","0","0.4086060551","","0.6","0.4","0.8","0.2","","","","","0.2757393749","0.4086060551","0.1076418148","0.2583789709","","","","","","","74","J","1","","","188","main_expt"
"332","","bandit","267","1807460","0.0-228.0-0.0","96420932","wem/bandit_either","A24LC97AU3QC7G","either","8","","","","","","","0","1","0","","0.447145564","0.6","0.4","0.8","0.2","0.3326758055","0.447145564","0.1230456027","0.2329768584","","","","","","","","","","","74","J","1","","","189","main_expt"
"550","","bandit","268","1809521","0.0-229.0-0.0","96420932","wem/bandit_either","A24LC97AU3QC7G","either","8","","","","","","","0","0","1","0.386091063","","0.6","0.4","0.8","0.2","","","","","0.332927569","0.386091063","0.1872873117","0.2002510669","","","","","","","74","J","1","","","190","main_expt"
"472","","bandit","269","1811500","0.0-230.0-0.0","96420932","wem/bandit_either","A24LC97AU3QC7G","either","8","","","","","","","0","1","0","","0.4221145333","0.6","0.4","0.8","0.2","0.3859199101","0.4221145333","0.1413073252","0.2182600554","","","","","","","","","","","74","J","1","","","191","main_expt"
"533","","bandit","270","1813540","0.0-231.0-0.0","96420932","wem/bandit_either","A24LC97AU3QC7G","either","8","","","","","","","0","1","0","","0.3913199708","0.6","0.4","0.8","0.2","0.392668484","0.3913199708","0.1868627967","0.2681613901","","","","","","","","","","","74","J","1","","","192","main_expt"
"433","","bandit","271","1815480","0.0-232.0-0.0","96420932","wem/bandit_either","A24LC97AU3QC7G","either","8","","","","","","","0","1","0","","0.4013624592","0.6","0.4","0.8","0.2","0.3789843676","0.4013624592","0.2312719224","0.3035027483","","","","","","","","","","","74","J","1","","","193","main_expt"
"452","","bandit","272","1817440","0.0-233.0-0.0","96420932","wem/bandit_either","A24LC97AU3QC7G","either","8","","","","","","","0","0","1","","0.3668237699","0.6","0.4","0.8","0.2","0.3689216281","0.3668237699","0.2585201677","0.275531754","","","","","","","","","","","74","J","1","","","194","main_expt"
"312","","bandit","273","1819260","0.0-234.0-0.0","96420932","wem/bandit_either","A24LC97AU3QC7G","either","8","","","","","","","1","0","0","0.3856266791","","0.6","0.4","0.8","0.2","","","","","0.4136905162","0.3856266791","0.2786104129","0.2716401532","","","","","","","74","J","1","","","195","main_expt"
"393","","bandit","274","1821163","0.0-235.0-0.0","96420932","wem/bandit_either","A24LC97AU3QC7G","either","8","","","","","","","0","0","1","0.3702439493","","0.6","0.4","0.8","0.2","","","","","0.4258575101","0.3702439493","0.2407834285","0.2814611543","","","","","","","74","J","1","","","196","main_expt"
"299","","bandit","275","1822979","0.0-236.0-0.0","96420932","wem/bandit_either","A24LC97AU3QC7G","either","8","","","","","","","0","1","0","","0.3665926528","0.6","0.4","0.8","0.2","0.3976178043","0.3665926528","0.2550568011","0.2588010394","","","","","","","","","","","74","J","1","","","197","main_expt"
"353","","bandit","276","1824840","0.0-237.0-0.0","96420932","wem/bandit_either","A24LC97AU3QC7G","either","8","","","","","","","0","0","1","0.3432124584","","0.6","0.4","0.8","0.2","","","","","0.3802378075","0.3432124584","0.3094863904","0.3094610495","","","","","","","74","J","1","","","198","main_expt"
"353","","bandit","277","1826701","0.0-238.0-0.0","96420932","wem/bandit_either","A24LC97AU3QC7G","either","8","","","","","","","0","0","1","","0.4096574544","0.6","0.4","0.8","0.2","0.3926800246","0.4096574544","0.3012985694","0.3139278769","","","","","","","","","","","74","J","1","","","199","main_expt"
"273","","bandit","278","1828482","0.0-239.0-0.0","96420932","wem/bandit_either","A24LC97AU3QC7G","either","8","","","","","","","0","0","1","","0.3799023259","0.6","0.4","0.8","0.2","0.3814844917","0.3799023259","0.3149132519","0.3459706187","","","","","","","","","","","74","J","1","","","200","main_expt"
"344","","bandit","279","1830340","0.0-240.0-0.0","96420932","wem/bandit_either","A24LC97AU3QC7G","either","8","","","","","","","0","0","1","0.3236307962","","0.6","0.4","0.8","0.2","","","","","0.3831630738","0.3513783521","0.3236307962","0.3038365479","","","","","","","75","K","2","","","201","main_expt"
"272","","bandit","280","1832123","0.0-241.0-0.0","96420932","wem/bandit_either","A24LC97AU3QC7G","either","8","","","","","","","1","0","0","0.3163717903","","0.6","0.4","0.8","0.2","","","","","0.3957430938","0.3439351057","0.3163717903","0.2964599608","","","","","","","75","K","2","","","202","main_expt"
"304","","bandit","281","1833941","0.0-242.0-0.0","96420932","wem/bandit_either","A24LC97AU3QC7G","either","8","","","","","","","0","0","1","0.3165936227","","0.6","0.4","0.8","0.2","","","","","0.4175506619","0.2615327891","0.3165936227","0.280336616","","","","","","","75","K","2","","","203","main_expt"
"352","","bandit","282","1835800","0.0-243.0-0.0","96420932","wem/bandit_either","A24LC97AU3QC7G","either","8","","","","","","","0","0","1","","0.2211517471","0.6","0.4","0.8","0.2","0.4356800279","0.2211517471","0.3166231072","0.262900641","","","","","","","","","","","74","J","1","","","204","main_expt"
"172","","bandit","283","1837480","0.0-244.0-0.0","96420932","wem/bandit_either","A24LC97AU3QC7G","either","8","","","","","","","0","0","1","","0.2983153058","0.6","0.4","0.8","0.2","0.4342993254","0.1955747294","0.2983153058","0.3403150927","","","","","","","","","","","75","K","2","","","205","main_expt"
"313","","bandit","284","1839303","0.0-245.0-0.0","96420932","wem/bandit_either","A24LC97AU3QC7G","either","8","","","","","","","0","0","1","0.255573156","","0.6","0.4","0.8","0.2","","","","","0.4515967499","0.3137251184","0.255573156","0.3407188883","","","","","","","75","K","2","","","206","main_expt"
"270","","bandit","285","1841080","0.0-246.0-0.0","96420932","wem/bandit_either","A24LC97AU3QC7G","either","8","","","","","","","0","0","1","0.2955601217","","0.6","0.4","0.8","0.2","","","","","0.4559700358","0.2982459604","0.2816724171","0.2955601217","","","","","","","76","L","3","","","207","main_expt"
"251","","bandit","286","1842842","0.0-247.0-0.0","96420932","wem/bandit_either","A24LC97AU3QC7G","either","8","","","","","","","0","1","0","","0.2832193826","0.6","0.4","0.8","0.2","0.4711787588","0.2359404152","0.2462622089","0.2832193826","","","","","","","","","","","76","L","3","","","208","main_expt"
"472","","bandit","287","1844823","0.0-248.0-0.0","96420932","wem/bandit_either","A24LC97AU3QC7G","either","8","","","","","","","0","0","1","","0.25637755","0.6","0.4","0.8","0.2","0.4859779177","0.2396635106","0.2608633631","0.25637755","","","","","","","","","","","76","L","3","","","209","main_expt"
"251","","bandit","288","1846582","0.0-249.0-0.0","96420932","wem/bandit_either","A24LC97AU3QC7G","either","8","","","","","","","0","0","1","","0.2500912527","0.6","0.4","0.8","0.2","0.4798195452","0.2320506775","0.2649708152","0.2500912527","","","","","","","","","","","76","L","3","","","210","main_expt"
"292","","bandit","289","1848383","0.0-250.0-0.0","96420932","wem/bandit_either","A24LC97AU3QC7G","either","8","","","","","","","0","0","1","","0.2481129288","0.6","0.4","0.8","0.2","0.4754072522","0.1894847828","0.2658594566","0.2481129288","","","","","","","","","","","76","L","3","","","211","main_expt"
"371","","bandit","290","1850261","0.0-251.0-0.0","96420932","wem/bandit_either","A24LC97AU3QC7G","either","8","","","","","","","0","1","0","","0.3192168596","0.6","0.4","0.8","0.2","0.4780703898","0.2330804604","0.2648449814","0.3192168596","","","","","","","","","","","76","L","3","","","212","main_expt"
"613","","bandit","291","1852381","0.0-252.0-0.0","96420932","wem/bandit_either","A24LC97AU3QC7G","either","8","","","","","","","0","0","1","","0.2361953268","0.6","0.4","0.8","0.2","0.4883488692","0.2484053244","0.286492297","0.2361953268","","","","","","","","","","","76","L","3","","","213","main_expt"
"414","","bandit","292","1854302","0.0-253.0-0.0","96420932","wem/bandit_either","A24LC97AU3QC7G","either","8","","","","","","","0","0","1","","0.2308921763","0.6","0.4","0.8","0.2","0.4872562331","0.2182548364","0.2540339129","0.2308921763","","","","","","","","","","","76","L","3","","","214","main_expt"
"530","","bandit","293","1856341","0.0-254.0-0.0","96420932","wem/bandit_either","A24LC97AU3QC7G","either","8","","","","","","","0","1","0","","0.4749609167","0.6","0.4","0.8","0.2","0.4749609167","0.1824073789","0.254651127","0.2161033537","","","","","","","","","","","72","H","0","img/none_selected.jpg","","215","main_expt"
"424","","bandit","294","1858282","0.0-255.0-0.0","96420932","wem/bandit_either","A24LC97AU3QC7G","either","8","","","","","","","0","1","0","","0.4798413464","0.6","0.4","0.8","0.2","0.4798413464","0.1923730387","0.3140517816","0.1896756427","","","","","","","","","","","72","H","0","img/none_selected.jpg","","216","main_expt"
"493","","bandit","295","1860283","0.0-256.0-0.0","96420932","wem/bandit_either","A24LC97AU3QC7G","either","8","","","","","","","0","1","0","","0.4865144435","0.6","0.4","0.8","0.2","0.4865144435","0.2266612446","0.3338676317","0.1724286307","","","","","","","","","","","72","H","0","img/none_selected.jpg","","217","main_expt"
"430","","bandit","296","1862222","0.0-257.0-0.0","96420932","wem/bandit_either","A24LC97AU3QC7G","either","8","","","","","","","1","0","0","0.4789145001","","0.6","0.4","0.8","0.2","","","","","0.4789145001","0.1702705737","0.3397001125","0.161168334","","","","","","","72","H","0","img/none_selected.jpg","","218","main_expt"
"474","","bandit","297","1864202","0.0-258.0-0.0","96420932","wem/bandit_either","A24LC97AU3QC7G","either","8","","","","","","","0","0","1","","0.4834748692","0.6","0.4","0.8","0.2","0.4834748692","0.1159766116","0.2982528089","0.2021763003","","","","","","","","","","","72","H","0","img/none_selected.jpg","","219","main_expt"
"392","","bandit","298","1866103","0.0-259.0-0.0","96420932","wem/bandit_either","A24LC97AU3QC7G","either","8","","","","","","","0","0","1","0.4722371777","","0.6","0.4","0.8","0.2","","","","","0.4722371777","0.09529473055","0.2770934022","0.2142164272","","","","","","","72","H","0","img/none_selected.jpg","","220","main_expt"
"932","","bandit","299","1868542","0.0-260.0-0.0","96420932","wem/bandit_either","A24LC97AU3QC7G","either","8","","","","","","","1","0","0","0.4654689219","","0.6","0.4","0.8","0.2","","","","","0.4654689219","0.09060922323","0.2696770889","0.189068297","","","","","","","72","H","0","img/none_selected.jpg","","221","main_expt"
"632","","bandit","300","1870682","0.0-261.0-0.0","96420932","wem/bandit_either","A24LC97AU3QC7G","either","8","","","","","","","0","1","0","","0.4533789701","0.6","0.4","0.8","0.2","0.4533789701","0.1250772464","0.3103502417","0.2120997892","","","","","","","","","","","72","H","0","img/none_selected.jpg","","222","main_expt"
"752","","bandit","301","1872942","0.0-262.0-0.0","96420932","wem/bandit_either","A24LC97AU3QC7G","either","8","","","","","","","0","0","1","0.4473019993","","0.6","0.4","0.8","0.2","","","","","0.4473019993","0.1177235221","0.3477728299","0.1937664477","","","","","","","72","H","0","img/none_selected.jpg","","223","main_expt"
"492","","bandit","302","1874941","0.0-263.0-0.0","96420932","wem/bandit_either","A24LC97AU3QC7G","either","8","","","","","","","0","0","1","0.4651086175","","0.6","0.4","0.8","0.2","","","","","0.4651086175","0.1589673504","0.3230244909","0.2195846313","","","","","","","72","H","0","img/none_selected.jpg","","224","main_expt"
"534","","bandit","303","1876982","0.0-264.0-0.0","96420932","wem/bandit_either","A24LC97AU3QC7G","either","8","","","","","","","0","0","1","","0.1582937281","0.6","0.4","0.8","0.2","0.4704934375","0.1582937281","0.3641913847","0.1973587738","","","","","","","","","","","74","J","1","","","225","main_expt"
"492","","bandit","304","1878982","0.0-265.0-0.0","96420932","wem/bandit_either","A24LC97AU3QC7G","either","8","","","","","","","0","0","1","0.1585786296","","0.6","0.4","0.8","0.2","","","","","0.4545632724","0.1585786296","0.3211822138","0.2029059012","","","","","","","74","J","1","","","226","main_expt"
"467","","bandit","305","1880963","0.0-266.0-0.0","96420932","wem/bandit_either","A24LC97AU3QC7G","either","8","","","","","","","0","0","1","0.1614007709","","0.6","0.4","0.8","0.2","","","","","0.4313330006","0.1614007709","0.3318596792","0.1677618241","","","","","","","74","J","1","","","227","main_expt"
"211","","bandit","306","1882682","0.0-267.0-0.0","96420932","wem/bandit_either","A24LC97AU3QC7G","either","8","","","","","","","0","0","1","","0.1160982884","0.6","0.4","0.8","0.2","0.4253897179","0.1160982884","0.3715738924","0.2079318551","","","","","","","","","","","74","J","1","","","228","main_expt"
"312","","bandit","307","1884502","0.0-268.0-0.0","96420932","wem/bandit_either","A24LC97AU3QC7G","either","8","","","","","","","0","0","1","0.1327168588","","0.6","0.4","0.8","0.2","","","","","0.4416009531","0.1327168588","0.3571583743","0.1860779256","","","","","","","74","J","1","","","229","main_expt"
"793","","bandit","308","1886802","0.0-269.0-0.0","96420932","wem/bandit_either","A24LC97AU3QC7G","either","8","","","","","","","0","0","1","","0.1751239199","0.6","0.4","0.8","0.2","0.4612445757","0.1751239199","0.3455313741","0.1294985144","","","","","","","","","","","74","J","1","","","230","main_expt"
"472","","bandit","309","1888783","0.0-270.0-0.0","96420932","wem/bandit_either","A24LC97AU3QC7G","either","8","","","","","","","0","0","1","","0.2080149414","0.6","0.4","0.8","0.2","0.4455927364","0.2080149414","0.3114256563","0.1424139305","","","","","","","","","","","74","J","1","","","231","main_expt"
"767","","bandit","310","1891066","0.0-271.0-0.0","96420932","wem/bandit_either","A24LC97AU3QC7G","either","8","","","","","","","0","1","0","","0.2305008548","0.6","0.4","0.8","0.2","0.4449483857","0.2305008548","0.3127001645","0.1777617008","","","","","","","","","","","74","J","1","","","232","main_expt"
"1165","","bandit","311","1893742","0.0-272.0-0.0","96420932","wem/bandit_either","A24LC97AU3QC7G","either","8","","","","","","","0","0","1","","0.2331895239","0.6","0.4","0.8","0.2","0.4570404202","0.2331895239","0.2953609795","0.1408291819","","","","","","","","","","","74","J","1","","","233","main_expt"
"732","","bandit","312","1895981","0.0-273.0-0.0","96420932","wem/bandit_either","A24LC97AU3QC7G","either","8","","","","","","","0","1","0","","0.2007149185","0.6","0.4","0.8","0.2","0.4785018613","0.2007149185","0.2743769666","0.09563300426","","","","","","","","","","","74","J","1","","","234","main_expt"
"815","","bandit","313","1898305","0.0-274.0-0.0","96420932","wem/bandit_either","A24LC97AU3QC7G","either","8","","","","","","","0","0","1","0.1428876463","","0.6","0.4","0.8","0.2","","","","","0.4708517218","0.1428876463","0.2842570603","0.06508254785","","","","","","","74","J","1","","","235","main_expt"
"468","","bandit","314","1900284","0.0-275.0-0.0","96420932","wem/bandit_either","A24LC97AU3QC7G","either","8","","","","","","","0","0","1","0.1327756685","","0.6","0.4","0.8","0.2","","","","","0.4721911582","0.1327756685","0.3536106974","0.05272484418","","","","","","","74","J","1","","","236","main_expt"
"1663","","bandit","315","1903463","0.0-276.0-0.0","96420932","wem/bandit_either","A24LC97AU3QC7G","either","8","","","","","","","0","0","1","0.3777879982","","0.6","0.4","0.8","0.2","","","","","0.4567984566","0.1969646424","0.3777879982","0.05000735717","","","","","","","75","K","2","","","237","main_expt"
"271","","bandit","316","1905242","0.0-277.0-0.0","96420932","wem/bandit_either","A24LC97AU3QC7G","either","8","","","","","","","1","0","0","0.4601910044","","0.6","0.4","0.8","0.2","","","","","0.4601910044","0.2040955009","0.3819628943","0.03409798278","","","","","","","72","H","0","img/none_selected.jpg","","238","main_expt"
"330","","bandit","317","1907081","0.0-278.0-0.0","96420932","wem/bandit_either","A24LC97AU3QC7G","either","8","","","","","","","0","1","0","","0.4663275819","0.6","0.4","0.8","0.2","0.4663275819","0.1885012088","0.3590612953","0.03555143528","","","","","","","","","","","72","H","0","img/none_selected.jpg","","239","main_expt"
"432","","bandit","318","1909021","0.0-279.0-0.0","96420932","wem/bandit_either","A24LC97AU3QC7G","either","8","","","","","","","0","1","0","","0.4781926851","0.6","0.4","0.8","0.2","0.4781926851","0.1779850251","0.3943681209","0.06633834621","","","","","","","","","","","72","H","0","img/none_selected.jpg","","240","main_expt"
"700","","bandit","319","1911228","0.0-280.0-0.0","96420932","wem/bandit_either","A24LC97AU3QC7G","either","8","","","","","","","0","0","1","","0.4813407325","0.6","0.4","0.8","0.2","0.4813407325","0.2132761508","0.4178476804","0.0332650027","","","","","","","","","","","72","H","0","img/none_selected.jpg","","241","main_expt"
"426","","bandit","320","1913162","0.0-281.0-0.0","96420932","wem/bandit_either","A24LC97AU3QC7G","either","8","","","","","","","0","0","1","0.4758201438","","0.6","0.4","0.8","0.2","","","","","0.4758201438","0.2181708985","0.4083523659","0.03674005559","","","","","","","72","H","0","img/none_selected.jpg","","242","main_expt"
"410","","bandit","321","1915083","0.0-282.0-0.0","96420932","wem/bandit_either","A24LC97AU3QC7G","either","8","","","","","","","1","0","0","0.4739127226","","0.6","0.4","0.8","0.2","","","","","0.4739127226","0.1880751836","0.4107673147","0.02732183546","","","","","","","72","H","0","img/none_selected.jpg","","243","main_expt"
"530","","bandit","322","1917122","0.0-283.0-0.0","96420932","wem/bandit_either","A24LC97AU3QC7G","either","8","","","","","","","0","0","1","0.4467527753","","0.6","0.4","0.8","0.2","","","","","0.4467527753","0.2693527465","0.3914084711","0.02742276317","","","","","","","72","H","0","img/none_selected.jpg","","244","main_expt"
"1126","","bandit","323","1919762","0.0-284.0-0.0","96420932","wem/bandit_either","A24LC97AU3QC7G","either","8","","","","","","","0","0","1","0.4492118003","","0.6","0.4","0.8","0.2","","","","","0.4492118003","0.2474629182","0.4117032301","0.03322496416","","","","","","","72","H","0","img/none_selected.jpg","","245","main_expt"
"312","","bandit","324","1921585","0.0-285.0-0.0","96420932","wem/bandit_either","A24LC97AU3QC7G","either","8","","","","","","","1","0","0","0.4702058379","","0.6","0.4","0.8","0.2","","","","","0.4702058379","0.3019125269","0.4225436654","0.0538648904","","","","","","","72","H","0","img/none_selected.jpg","","246","main_expt"
"348","","bandit","325","1923442","0.0-286.0-0.0","96420932","wem/bandit_either","A24LC97AU3QC7G","either","8","","","","","","","0","0","1","0.4717010128","","0.6","0.4","0.8","0.2","","","","","0.4717010128","0.3013832462","0.4327875568","0.05538537946","","","","","","","72","H","0","img/none_selected.jpg","","247","main_expt"
"124","","bandit","326","1925081","0.0-287.0-0.0","96420932","wem/bandit_either","A24LC97AU3QC7G","either","8","","","","","","","0","0","1","","0.4750055548","0.6","0.4","0.8","0.2","0.4750055548","0.2917300956","0.4478523955","0.07377210468","","","","","","","","","","","72","H","0","img/none_selected.jpg","","248","main_expt"
"268","","bandit","327","1926862","0.0-288.0-0.0","96420932","wem/bandit_either","A24LC97AU3QC7G","either","8","","","","","","","0","0","1","0.4221620221","","0.6","0.4","0.8","0.2","","","","","0.4608113614","0.2976682537","0.4221620221","0.07098242635","","","","","","","75","K","2","","","249","main_expt"
"632","","bandit","328","1929001","0.0-289.0-0.0","96420932","wem/bandit_either","A24LC97AU3QC7G","either","8","","","","","","","0","0","1","","0.08291081884","0.6","0.4","0.8","0.2","0.4361301801","0.2921609534","0.3998447204","0.08291081884","","","","","","","","","","","76","L","3","","","250","main_expt"
"472","","bandit","329","1930981","0.0-290.0-0.0","96420932","wem/bandit_either","A24LC97AU3QC7G","either","8","","","","","","","0","0","1","","0.07668358207","0.6","0.4","0.8","0.2","0.4203652199","0.3026336231","0.4053116556","0.07668358207","","","","","","","","","","","76","L","3","","","251","main_expt"
"394","","bandit","330","1932883","0.0-291.0-0.0","96420932","wem/bandit_either","A24LC97AU3QC7G","either","8","","","","","","","0","0","1","","0.05892609675","0.6","0.4","0.8","0.2","0.4465363659","0.3303824841","0.3780439072","0.05892609675","","","","","","","","","","","76","L","3","","","252","main_expt"
