"rt","responses","trial_type","trial_index","time_elapsed","internal_node_id","subjID","study","MID","cond","drift","key_press","expt_phase","target","like","value","connected","gems","bombs","no_reward","GemPrChosen","BombPrChosen","GainOverPainPr_0","GainOverPainPr_1","GainOverPainPr_2","GainOverPainPr_3","LosePr_0","LosePr_1","LosePr_2","LosePr_3","WinPr_0","WinPr_1","WinPr_2","WinPr_3","Q0","Q1","Q2","gender","age","ethnicity","respCharCode","respKey","respChoiceNum","respChoice","practice","trial_counter","trial_label"
"7448","{""Q0"":""A2P76QVLSGJR45""}","survey-text","0","7459","0.0-0.0","97718853","wem/bandit_either","A2P76QVLSGJR45","either","4","","","","","","","","","","","","","","","","","","","","","","","","","","","","","","","","","","","",""
"7641","","text","1","16115","0.0-1.0","97718853","wem/bandit_either","A2P76QVLSGJR45","either","4","32","","","","","","","","","","","","","","","","","","","","","","","","","","","","","","","","","","",""
"6330","","text","2","22451","0.0-2.0","97718853","wem/bandit_either","A2P76QVLSGJR45","either","4","32","","","","","","","","","","","","","","","","","","","","","","","","","","","","","","","","","","",""
"17602","","text","3","40063","0.0-3.0","97718853","wem/bandit_either","A2P76QVLSGJR45","either","4","32","","","","","","","","","","","","","","","","","","","","","","","","","","","","","","","","","","",""
"11913","","text","4","51981","0.0-4.0","97718853","wem/bandit_either","A2P76QVLSGJR45","either","4","32","","","","","","","","","","","","","","","","","","","","","","","","","","","","","","","","","","",""
"7415","","text","5","59399","0.0-5.0","97718853","wem/bandit_either","A2P76QVLSGJR45","either","4","32","","","","","","","","","","","","","","","","","","","","","","","","","","","","","","","","","","",""
"6085","","text","6","65487","0.0-6.0","97718853","wem/bandit_either","A2P76QVLSGJR45","either","4","32","","","","","","","","","","","","","","","","","","","","","","","","","","","","","","","","","","",""
"4306","","text","7","69799","0.0-7.0","97718853","wem/bandit_either","A2P76QVLSGJR45","either","4","32","","","","","","","","","","","","","","","","","","","","","","","","","","","","","","","","","","",""
"9998","","identification","8","79864","0.0-8.0-0.0","97718853","wem/bandit_either","A2P76QVLSGJR45","either","4","","identification_pre","the village of Zur","","","","","","","","","","","","","","","","","","","","","","","","","","","","","","","","",""
"3596","","identification","9","84502","0.0-8.0-1.0","97718853","wem/bandit_either","A2P76QVLSGJR45","either","4","","identification_pre","the village of Nyx","","","","","","","","","","","","","","","","","","","","","","","","","","","","","","","","",""
"4052","","text","10","89568","0.0-9.0","97718853","wem/bandit_either","A2P76QVLSGJR45","either","4","32","","","","","","","","","","","","","","","","","","","","","","","","","","","","","","","","","","",""
"3163","","text","11","92742","0.0-10.0","97718853","wem/bandit_either","A2P76QVLSGJR45","either","4","32","","","","","","","","","","","","","","","","","","","","","","","","","","","","","","","","","","",""
"2664","","text","12","95410","0.0-11.0","97718853","wem/bandit_either","A2P76QVLSGJR45","either","4","32","","","","","","","","","","","","","","","","","","","","","","","","","","","","","","","","","","",""
"3645","","text","13","99058","0.0-12.0","97718853","wem/bandit_either","A2P76QVLSGJR45","either","4","32","","","","","","","","","","","","","","","","","","","","","","","","","","","","","","","","","","",""
"1954","","bandit","14","102632","0.0-13.0-0.0","97718853","wem/bandit_either","A2P76QVLSGJR45","either","4","","","","","","","0","0","1","0","0","","","","","0","","","","0","","","","","","","","","","74","J","0","img/none_selected_demo.jpg","true","0",""
"1041","","bandit","15","105353","0.0-14.0-0.0","97718853","wem/bandit_either","A2P76QVLSGJR45","either","4","","","","","","","0","0","1","0","0","","","","","0","","","","0","","","","","","","","","","75","K","0","img/none_selected_demo.jpg","true","0",""
"8009","","text","16","113365","0.0-15.0","97718853","wem/bandit_either","A2P76QVLSGJR45","either","4","32","","","","","","","","","","","","","","","","","","","","","","","","","","","","","","","","","","",""
"12117","","text","17","125489","0.0-16.0","97718853","wem/bandit_either","A2P76QVLSGJR45","either","4","32","","","","","","","","","","","","","","","","","","","","","","","","","","","","","","","","","","",""
"4064","","text","18","129555","0.0-17.0","97718853","wem/bandit_either","A2P76QVLSGJR45","either","4","32","","","","","","","","","","","","","","","","","","","","","","","","","","","","","","","","","","",""
"3132","","text","19","132689","0.0-18.0","97718853","wem/bandit_either","A2P76QVLSGJR45","either","4","32","","","","","","","","","","","","","","","","","","","","","","","","","","","","","","","","","","",""
"1441","","bandit","20","135650","0.0-19.0-0.0","97718853","wem/bandit_either","A2P76QVLSGJR45","either","4","","","","","","","0","0","1","","0.2","0.5","0.5","","","0.8","0.2","","","","","","","","","","","","","75","K","1","","true","0","80_20_practice"
"1018","","bandit","21","138192","0.0-19.0-1.0","97718853","wem/bandit_either","A2P76QVLSGJR45","either","4","","","","","","","1","0","0","0.8","","0.5","0.5","","","","","","","0.8","0.2","","","","","","","","","74","J","0","img/none_selected_demo.jpg","true","0","80_20_practice"
"764","","bandit","22","140566","0.0-19.0-2.0","97718853","wem/bandit_either","A2P76QVLSGJR45","either","4","","","","","","","1","0","0","0.8","","0.5","0.5","","","","","","","0.8","0.2","","","","","","","","","74","J","0","img/none_selected_demo.jpg","true","0","80_20_practice"
"461","","bandit","23","142549","0.0-19.0-3.0","97718853","wem/bandit_either","A2P76QVLSGJR45","either","4","","","","","","","1","0","0","0.8","","0.5","0.5","","","","","","","0.8","0.2","","","","","","","","","74","J","0","img/none_selected_demo.jpg","true","0","80_20_practice"
"1859","","bandit","24","146562","0.0-19.0-4.0","97718853","wem/bandit_either","A2P76QVLSGJR45","either","4","","","","","","","1","0","0","0.8","","0.5","0.5","","","","","","","0.8","0.2","","","","","","","","","74","J","0","img/none_selected_demo.jpg","true","0","80_20_practice"
"496","","bandit","25","148691","0.0-19.0-5.0","97718853","wem/bandit_either","A2P76QVLSGJR45","either","4","","","","","","","0","1","0","","0.8","0.5","0.5","","","0.8","0.2","","","","","","","","","","","","","74","J","0","img/none_selected_demo.jpg","true","0","80_20_practice"
"582","","bandit","26","150791","0.0-19.0-6.0","97718853","wem/bandit_either","A2P76QVLSGJR45","either","4","","","","","","","0","1","0","","0.8","0.5","0.5","","","0.8","0.2","","","","","","","","","","","","","74","J","0","img/none_selected_demo.jpg","true","0","80_20_practice"
"815","","bandit","27","153127","0.0-19.0-7.0","97718853","wem/bandit_either","A2P76QVLSGJR45","either","4","","","","","","","0","0","1","","0.8","0.5","0.5","","","0.8","0.2","","","","","","","","","","","","","74","J","0","img/none_selected_demo.jpg","true","0","80_20_practice"
"650","","bandit","28","155659","0.0-19.0-8.0","97718853","wem/bandit_either","A2P76QVLSGJR45","either","4","","","","","","","0","0","1","0.8","","0.5","0.5","","","","","","","0.8","0.2","","","","","","","","","74","J","0","img/none_selected_demo.jpg","true","0","80_20_practice"
"532","","bandit","29","157714","0.0-19.0-9.0","97718853","wem/bandit_either","A2P76QVLSGJR45","either","4","","","","","","","0","0","1","","0.2","0.5","0.5","","","0.8","0.2","","","","","","","","","","","","","75","K","1","","true","0","80_20_practice"
"535","","bandit","30","159771","0.0-19.0-10.0","97718853","wem/bandit_either","A2P76QVLSGJR45","either","4","","","","","","","0","1","0","","0.8","0.5","0.5","","","0.8","0.2","","","","","","","","","","","","","74","J","0","img/none_selected_demo.jpg","true","0","80_20_practice"
"804","","bandit","31","162218","0.0-19.0-11.0","97718853","wem/bandit_either","A2P76QVLSGJR45","either","4","","","","","","","1","0","0","0.8","","0.5","0.5","","","","","","","0.8","0.2","","","","","","","","","74","J","0","img/none_selected_demo.jpg","true","0","80_20_practice"
"502","","bandit","32","164521","0.0-19.0-12.0","97718853","wem/bandit_either","A2P76QVLSGJR45","either","4","","","","","","","1","0","0","0.8","","0.5","0.5","","","","","","","0.8","0.2","","","","","","","","","74","J","0","img/none_selected_demo.jpg","true","0","80_20_practice"
"455","","bandit","33","166625","0.0-19.0-13.0","97718853","wem/bandit_either","A2P76QVLSGJR45","either","4","","","","","","","0","1","0","","0.8","0.5","0.5","","","0.8","0.2","","","","","","","","","","","","","74","J","0","img/none_selected_demo.jpg","true","0","80_20_practice"
"1189","","bandit","34","169465","0.0-19.0-14.0","97718853","wem/bandit_either","A2P76QVLSGJR45","either","4","","","","","","","1","0","0","0.8","","0.5","0.5","","","","","","","0.8","0.2","","","","","","","","","74","J","0","img/none_selected_demo.jpg","true","0","80_20_practice"
"642","","bandit","35","171623","0.0-19.0-15.0","97718853","wem/bandit_either","A2P76QVLSGJR45","either","4","","","","","","","1","0","0","0.8","","0.5","0.5","","","","","","","0.8","0.2","","","","","","","","","74","J","0","img/none_selected_demo.jpg","true","0","80_20_practice"
"432","","bandit","36","173771","0.0-19.0-16.0","97718853","wem/bandit_either","A2P76QVLSGJR45","either","4","","","","","","","1","0","0","0.8","","0.5","0.5","","","","","","","0.8","0.2","","","","","","","","","74","J","0","img/none_selected_demo.jpg","true","0","80_20_practice"
"719","","bandit","37","176006","0.0-19.0-17.0","97718853","wem/bandit_either","A2P76QVLSGJR45","either","4","","","","","","","0","0","1","","0.8","0.5","0.5","","","0.8","0.2","","","","","","","","","","","","","74","J","0","img/none_selected_demo.jpg","true","0","80_20_practice"
"548","","bandit","38","178687","0.0-19.0-18.0","97718853","wem/bandit_either","A2P76QVLSGJR45","either","4","","","","","","","1","0","0","0.8","","0.5","0.5","","","","","","","0.8","0.2","","","","","","","","","74","J","0","img/none_selected_demo.jpg","true","0","80_20_practice"
"484","","bandit","39","180689","0.0-19.0-19.0","97718853","wem/bandit_either","A2P76QVLSGJR45","either","4","","","","","","","0","1","0","","0.8","0.5","0.5","","","0.8","0.2","","","","","","","","","","","","","74","J","0","img/none_selected_demo.jpg","true","0","80_20_practice"
"4408","","text","40","185104","0.0-20.0","97718853","wem/bandit_either","A2P76QVLSGJR45","either","4","32","","","","","","","","","","","","","","","","","","","","","","","","","","","","","","","","","","",""
"852","","bandit","41","187518","0.0-21.0-0.0","97718853","wem/bandit_either","A2P76QVLSGJR45","either","4","","","","","","","1","0","0","1","0","","","","","0","1","","","1","0","","","","","","","","","74","J","0","img/none_selected_demo.jpg","true","0",""
"7160","","text","42","194681","0.0-22.0","97718853","wem/bandit_either","A2P76QVLSGJR45","either","4","32","","","","","","","","","","","","","","","","","","","","","","","","","","","","","","","","","","",""
"1949","","text","43","196643","0.0-23.0","97718853","wem/bandit_either","A2P76QVLSGJR45","either","4","32","","","","","","","","","","","","","","","","","","","","","","","","","","","","","","","","","","",""
"2923","","text","44","199571","0.0-24.0","97718853","wem/bandit_either","A2P76QVLSGJR45","either","4","32","","","","","","","","","","","","","","","","","","","","","","","","","","","","","","","","","","",""
"2153","","text","45","201736","0.0-25.0","97718853","wem/bandit_either","A2P76QVLSGJR45","either","4","32","","","","","","","","","","","","","","","","","","","","","","","","","","","","","","","","","","",""
"5744","","text","46","207483","0.0-26.0","97718853","wem/bandit_either","A2P76QVLSGJR45","either","4","32","","","","","","","","","","","","","","","","","","","","","","","","","","","","","","","","","","",""
"2757","","text","47","210244","0.0-27.0","97718853","wem/bandit_either","A2P76QVLSGJR45","either","4","32","","","","","","","","","","","","","","","","","","","","","","","","","","","","","","","","","","",""
"3862","","text","48","214111","0.0-28.0","97718853","wem/bandit_either","A2P76QVLSGJR45","either","4","32","","","","","","","","","","","","","","","","","","","","","","","","","","","","","","","","","","",""
"4185","","text","49","218299","0.0-29.0","97718853","wem/bandit_either","A2P76QVLSGJR45","either","4","32","","","","","","","","","","","","","","","","","","","","","","","","","","","","","","","","","","",""
"4607","","text","50","222912","0.0-30.0","97718853","wem/bandit_either","A2P76QVLSGJR45","either","4","32","","","","","","","","","","","","","","","","","","","","","","","","","","","","","","","","","","",""
"1493","","text","51","224413","0.0-31.0","97718853","wem/bandit_either","A2P76QVLSGJR45","either","4","32","","","","","","","","","","","","","","","","","","","","","","","","","","","","","","","","","","",""
"4332","","text","52","228749","0.0-32.0","97718853","wem/bandit_either","A2P76QVLSGJR45","either","4","32","","","","","","","","","","","","","","","","","","","","","","","","","","","","","","","","","","",""
"13","","bandit","53","231235","0.0-33.0-0.0","97718853","wem/bandit_either","A2P76QVLSGJR45","either","4","","","","","","","0","1","0","","0.8","0.5","0.5","0.5","0.5","0.8","0.2","0.6","0.2","","","","","","","","","","","72","H","0","img/none_selected.jpg","true","0","full_practice"
"1310","","bandit","54","234313","0.0-33.0-1.0","97718853","wem/bandit_either","A2P76QVLSGJR45","either","4","","","","","","","0","1","0","","0.2","0.5","0.5","0.5","0.5","0.8","0.2","0.6","0.2","","","","","","","","","","","74","J","1","","true","0","full_practice"
"518","","bandit","55","236431","0.0-33.0-2.0","97718853","wem/bandit_either","A2P76QVLSGJR45","either","4","","","","","","","1","0","0","0.6","","0.5","0.5","0.5","0.5","","","","","0.8","0.2","0.6","0.2","","","","","","","75","K","2","","true","0","full_practice"
"585","","bandit","56","238545","0.0-33.0-3.0","97718853","wem/bandit_either","A2P76QVLSGJR45","either","4","","","","","","","0","0","1","0.2","","0.5","0.5","0.5","0.5","","","","","0.8","0.2","0.6","0.2","","","","","","","76","L","3","","true","0","full_practice"
"625","","bandit","57","240699","0.0-33.0-4.0","97718853","wem/bandit_either","A2P76QVLSGJR45","either","4","","","","","","","0","0","1","","0.6","0.5","0.5","0.5","0.5","0.8","0.2","0.6","0.2","","","","","","","","","","","75","K","2","","true","0","full_practice"
"720","","bandit","58","243076","0.0-33.0-5.0","97718853","wem/bandit_either","A2P76QVLSGJR45","either","4","","","","","","","0","0","1","0.6","","0.5","0.5","0.5","0.5","","","","","0.8","0.2","0.6","0.2","","","","","","","75","K","2","","true","0","full_practice"
"507","","bandit","59","245100","0.0-33.0-6.0","97718853","wem/bandit_either","A2P76QVLSGJR45","either","4","","","","","","","0","0","1","","0.2","0.5","0.5","0.5","0.5","0.8","0.2","0.6","0.2","","","","","","","","","","","74","J","1","","true","0","full_practice"
"641","","bandit","60","247506","0.0-33.0-7.0","97718853","wem/bandit_either","A2P76QVLSGJR45","either","4","","","","","","","0","0","1","0.8","","0.5","0.5","0.5","0.5","","","","","0.8","0.2","0.6","0.2","","","","","","","72","H","0","img/none_selected.jpg","true","0","full_practice"
"370","","bandit","61","249438","0.0-33.0-8.0","97718853","wem/bandit_either","A2P76QVLSGJR45","either","4","","","","","","","0","1","0","","0.8","0.5","0.5","0.5","0.5","0.8","0.2","0.6","0.2","","","","","","","","","","","72","H","0","img/none_selected.jpg","true","0","full_practice"
"474","","bandit","62","251592","0.0-33.0-9.0","97718853","wem/bandit_either","A2P76QVLSGJR45","either","4","","","","","","","1","0","0","0.8","","0.5","0.5","0.5","0.5","","","","","0.8","0.2","0.6","0.2","","","","","","","72","H","0","img/none_selected.jpg","true","0","full_practice"
"360","","bandit","63","253543","0.0-33.0-10.0","97718853","wem/bandit_either","A2P76QVLSGJR45","either","4","","","","","","","1","0","0","0.8","","0.5","0.5","0.5","0.5","","","","","0.8","0.2","0.6","0.2","","","","","","","72","H","0","img/none_selected.jpg","true","0","full_practice"
"632","","bandit","64","255879","0.0-33.0-11.0","97718853","wem/bandit_either","A2P76QVLSGJR45","either","4","","","","","","","1","0","0","0.8","","0.5","0.5","0.5","0.5","","","","","0.8","0.2","0.6","0.2","","","","","","","72","H","0","img/none_selected.jpg","true","0","full_practice"
"534","","bandit","65","258013","0.0-33.0-12.0","97718853","wem/bandit_either","A2P76QVLSGJR45","either","4","","","","","","","1","0","0","0.8","","0.5","0.5","0.5","0.5","","","","","0.8","0.2","0.6","0.2","","","","","","","72","H","0","img/none_selected.jpg","true","0","full_practice"
"603","","bandit","66","260611","0.0-33.0-13.0","97718853","wem/bandit_either","A2P76QVLSGJR45","either","4","","","","","","","0","0","1","0.8","","0.5","0.5","0.5","0.5","","","","","0.8","0.2","0.6","0.2","","","","","","","72","H","0","img/none_selected.jpg","true","0","full_practice"
"379","","bandit","67","262736","0.0-33.0-14.0","97718853","wem/bandit_either","A2P76QVLSGJR45","either","4","","","","","","","0","1","0","","0.8","0.5","0.5","0.5","0.5","0.8","0.2","0.6","0.2","","","","","","","","","","","72","H","0","img/none_selected.jpg","true","0","full_practice"
"482","","bandit","68","264735","0.0-33.0-15.0","97718853","wem/bandit_either","A2P76QVLSGJR45","either","4","","","","","","","0","1","0","","0.8","0.5","0.5","0.5","0.5","0.8","0.2","0.6","0.2","","","","","","","","","","","72","H","0","img/none_selected.jpg","true","0","full_practice"
"932","","bandit","69","267203","0.0-33.0-16.0","97718853","wem/bandit_either","A2P76QVLSGJR45","either","4","","","","","","","1","0","0","0.8","","0.5","0.5","0.5","0.5","","","","","0.8","0.2","0.6","0.2","","","","","","","72","H","0","img/none_selected.jpg","true","0","full_practice"
"396","","bandit","70","269511","0.0-33.0-17.0","97718853","wem/bandit_either","A2P76QVLSGJR45","either","4","","","","","","","1","0","0","0.8","","0.5","0.5","0.5","0.5","","","","","0.8","0.2","0.6","0.2","","","","","","","72","H","0","img/none_selected.jpg","true","0","full_practice"
"704","","bandit","71","271742","0.0-33.0-18.0","97718853","wem/bandit_either","A2P76QVLSGJR45","either","4","","","","","","","0","1","0","","0.8","0.5","0.5","0.5","0.5","0.8","0.2","0.6","0.2","","","","","","","","","","","72","H","0","img/none_selected.jpg","true","0","full_practice"
"453","","bandit","72","273725","0.0-33.0-19.0","97718853","wem/bandit_either","A2P76QVLSGJR45","either","4","","","","","","","1","0","0","0.8","","0.5","0.5","0.5","0.5","","","","","0.8","0.2","0.6","0.2","","","","","","","72","H","0","img/none_selected.jpg","true","0","full_practice"
"3517","","text","73","277259","0.0-34.0","97718853","wem/bandit_either","A2P76QVLSGJR45","either","4","32","","","","","","","","","","","","","","","","","","","","","","","","","","","","","","","","","","",""
"12179","","text","74","290449","0.0-35.0","97718853","wem/bandit_either","A2P76QVLSGJR45","either","4","32","","","","","","","","","","","","","","","","","","","","","","","","","","","","","","","","","","",""
"9029","","text","75","299487","0.0-36.0","97718853","wem/bandit_either","A2P76QVLSGJR45","either","4","32","","","","","","","","","","","","","","","","","","","","","","","","","","","","","","","","","","",""
"5450","","text","76","304949","0.0-37.0","97718853","wem/bandit_either","A2P76QVLSGJR45","either","4","32","","","","","","","","","","","","","","","","","","","","","","","","","","","","","","","","","","",""
"4200","","text","77","309156","0.0-38.0","97718853","wem/bandit_either","A2P76QVLSGJR45","either","4","32","","","","","","","","","","","","","","","","","","","","","","","","","","","","","","","","","","",""
"3924","","text","78","313091","0.0-39.0","97718853","wem/bandit_either","A2P76QVLSGJR45","either","4","32","","","","","","","","","","","","","","","","","","","","","","","","","","","","","","","","","","",""
"1631","","bandit","79","316459","0.0-40.0-0.0","97718853","wem/bandit_either","A2P76QVLSGJR45","either","4","","","","","","","0","0","1","0.3525715257","","0.8","0.2","0.6","0.4","","","","","0.3525715257","0.2771551185","0.3894728165","0.3242650943","","","","","","","72","H","0","img/none_selected.jpg","","1","main_expt"
"378","","bandit","80","318367","0.0-41.0-0.0","97718853","wem/bandit_either","A2P76QVLSGJR45","either","4","","","","","","","0","0","1","","0.3030893157","0.8","0.2","0.6","0.4","0.390153736","0.3030893157","0.363660736","0.3296228245","","","","","","","","","","","74","J","1","","","2","main_expt"
"349","","bandit","81","320440","0.0-42.0-0.0","97718853","wem/bandit_either","A2P76QVLSGJR45","either","4","","","","","","","0","0","1","0.3842171554","","0.8","0.2","0.6","0.4","","","","","0.3725447061","0.3211059343","0.3842171554","0.3102780753","","","","","","","75","K","2","","","3","main_expt"
"411","","bandit","82","322385","0.0-43.0-0.0","97718853","wem/bandit_either","A2P76QVLSGJR45","either","4","","","","","","","0","0","1","0.2749892112","","0.8","0.2","0.6","0.4","","","","","0.3431524481","0.2804386453","0.3831963053","0.2749892112","","","","","","","76","L","3","","","4","main_expt"
"453","","bandit","83","324370","0.0-44.0-0.0","97718853","wem/bandit_either","A2P76QVLSGJR45","either","4","","","","","","","0","0","1","","0.3037824898","0.8","0.2","0.6","0.4","0.3448007793","0.2609559086","0.4056596471","0.3037824898","","","","","","","","","","","76","L","3","","","5","main_expt"
"354","","bandit","84","326406","0.0-45.0-0.0","97718853","wem/bandit_either","A2P76QVLSGJR45","either","4","","","","","","","0","0","1","","0.3217417103","0.8","0.2","0.6","0.4","0.3980888019","0.2259287768","0.4409946319","0.3217417103","","","","","","","","","","","76","L","3","","","6","main_expt"
"361","","bandit","85","328289","0.0-46.0-0.0","97718853","wem/bandit_either","A2P76QVLSGJR45","either","4","","","","","","","0","1","0","","0.3821747998","0.8","0.2","0.6","0.4","0.3693121862","0.2433618728","0.3821747998","0.3018715163","","","","","","","","","","","75","K","2","","","7","main_expt"
"395","","bandit","86","330453","0.0-47.0-0.0","97718853","wem/bandit_either","A2P76QVLSGJR45","either","4","","","","","","","0","1","0","","0.3841844813","0.8","0.2","0.6","0.4","0.2933697555","0.2025356769","0.3841844813","0.3643645816","","","","","","","","","","","75","K","2","","","8","main_expt"
"372","","bandit","87","332385","0.0-48.0-0.0","97718853","wem/bandit_either","A2P76QVLSGJR45","either","4","","","","","","","0","0","1","0.3412237964","","0.8","0.2","0.6","0.4","","","","","0.3036212831","0.1441028094","0.3412237964","0.3418610374","","","","","","","75","K","2","","","9","main_expt"
"483","","bandit","88","334596","0.0-49.0-0.0","97718853","wem/bandit_either","A2P76QVLSGJR45","either","4","","","","","","","0","0","1","","0.3256420777","0.8","0.2","0.6","0.4","0.308020301","0.1736005971","0.3256420777","0.3190157878","","","","","","","","","","","75","K","2","","","10","main_expt"
"491","","bandit","89","336612","0.0-50.0-0.0","97718853","wem/bandit_either","A2P76QVLSGJR45","either","4","","","","","","","0","0","1","","0.1836365694","0.8","0.2","0.6","0.4","0.3065973113","0.1836365694","0.3514007431","0.2998731478","","","","","","","","","","","74","J","1","","","11","main_expt"
"377","","bandit","90","338512","0.0-51.0-0.0","97718853","wem/bandit_either","A2P76QVLSGJR45","either","4","","","","","","","0","0","1","","0.2143869662","0.8","0.2","0.6","0.4","0.3271859636","0.2143869662","0.3722032088","0.2942822571","","","","","","","","","","","74","J","1","","","12","main_expt"
"559","","bandit","91","340596","0.0-52.0-0.0","97718853","wem/bandit_either","A2P76QVLSGJR45","either","4","","","","","","","0","0","1","0.2761076709","","0.8","0.2","0.6","0.4","","","","","0.2761076709","0.1637139448","0.3681707299","0.3009212619","","","","","","","72","H","0","img/none_selected.jpg","","13","main_expt"
"461","","bandit","92","342717","0.0-53.0-0.0","97718853","wem/bandit_either","A2P76QVLSGJR45","either","4","","","","","","","0","0","1","0.2311164494","","0.8","0.2","0.6","0.4","","","","","0.2311164494","0.1488535162","0.3528222564","0.3227424667","","","","","","","72","H","0","img/none_selected.jpg","","14","main_expt"
"357","","bandit","93","344605","0.0-54.0-0.0","97718853","wem/bandit_either","A2P76QVLSGJR45","either","4","","","","","","","0","0","1","0.2905977425","","0.8","0.2","0.6","0.4","","","","","0.2905977425","0.1332411271","0.3738838661","0.3547546862","","","","","","","72","H","0","img/none_selected.jpg","","15","main_expt"
"835","","bandit","94","346967","0.0-55.0-0.0","97718853","wem/bandit_either","A2P76QVLSGJR45","either","4","","","","","","","1","0","0","0.3385239332","","0.8","0.2","0.6","0.4","","","","","0.2924554969","0.09882415698","0.3385239332","0.3241157583","","","","","","","75","K","2","","","16","main_expt"
"401","","bandit","95","348897","0.0-56.0-0.0","97718853","wem/bandit_either","A2P76QVLSGJR45","either","4","","","","","","","0","0","1","0.3111355138","","0.8","0.2","0.6","0.4","","","","","0.3114836302","0.1069157009","0.3111355138","0.3363410386","","","","","","","75","K","2","","","17","main_expt"
"421","","bandit","96","351297","0.0-57.0-0.0","97718853","wem/bandit_either","A2P76QVLSGJR45","either","4","","","","","","","0","0","1","0.3487767647","","0.8","0.2","0.6","0.4","","","","","0.3215333475","0.134958137","0.3487767647","0.3880947854","","","","","","","75","K","2","","","18","main_expt"
"418","","bandit","97","353413","0.0-58.0-0.0","97718853","wem/bandit_either","A2P76QVLSGJR45","either","4","","","","","","","0","0","1","","0.4116912081","0.8","0.2","0.6","0.4","0.2733398822","0.1230418706","0.3010303499","0.4116912081","","","","","","","","","","","76","L","3","","","19","main_expt"
"358","","bandit","98","355382","0.0-59.0-0.0","97718853","wem/bandit_either","A2P76QVLSGJR45","either","4","","","","","","","0","0","1","0.2907203997","","0.8","0.2","0.6","0.4","","","","","0.2351410235","0.09866604889","0.2907203997","0.3973894305","","","","","","","75","K","2","","","20","main_expt"
"1122","","bandit","99","358027","0.0-60.0-0.0","97718853","wem/bandit_either","A2P76QVLSGJR45","either","4","","","","","","","0","0","1","","0.1021222834","0.8","0.2","0.6","0.4","0.2257810982","0.1021222834","0.3088108907","0.369037109","","","","","","","","","","","74","J","1","","","21","main_expt"
"376","","bandit","100","359919","0.0-61.0-0.0","97718853","wem/bandit_either","A2P76QVLSGJR45","either","4","","","","","","","0","0","1","","0.1234138809","0.8","0.2","0.6","0.4","0.2221856846","0.1234138809","0.349202701","0.4179468344","","","","","","","","","","","74","J","1","","","22","main_expt"
"691","","bandit","101","362141","0.0-62.0-0.0","97718853","wem/bandit_either","A2P76QVLSGJR45","either","4","","","","","","","0","0","1","","0.1030640584","0.8","0.2","0.6","0.4","0.2127124712","0.1030640584","0.3785068464","0.4276062926","","","","","","","","","","","74","J","1","","","23","main_expt"
"427","","bandit","102","364090","0.0-63.0-0.0","97718853","wem/bandit_either","A2P76QVLSGJR45","either","4","","","","","","","0","0","1","","0.1882566648","0.8","0.2","0.6","0.4","0.1882566648","0.1261035851","0.4012919653","0.4078122208","","","","","","","","","","","72","H","0","img/none_selected.jpg","","24","main_expt"
"2957","","bandit","103","369096","0.0-64.0-0.0","97718853","wem/bandit_either","A2P76QVLSGJR45","either","4","","","","","","","0","0","1","","0.1273223766","0.8","0.2","0.6","0.4","0.1273223766","0.1796705612","0.400899794","0.3950411191","","","","","","","","","","","72","H","0","img/none_selected.jpg","","25","main_expt"
"1319","","bandit","104","371956","0.0-65.0-0.0","97718853","wem/bandit_either","A2P76QVLSGJR45","either","4","","","","","","","1","0","0","0.4126274585","","0.8","0.2","0.6","0.4","","","","","0.15747458","0.2414651519","0.4126274585","0.4322303329","","","","","","","75","K","2","","","26","main_expt"
"912","","bandit","105","374578","0.0-66.0-0.0","97718853","wem/bandit_either","A2P76QVLSGJR45","either","4","","","","","","","0","0","1","0.3992263875","","0.8","0.2","0.6","0.4","","","","","0.1442684908","0.2005374927","0.3992263875","0.4353643722","","","","","","","75","K","2","","","27","main_expt"
"379","","bandit","106","376477","0.0-67.0-0.0","97718853","wem/bandit_either","A2P76QVLSGJR45","either","4","","","","","","","0","0","1","","0.3846584236","0.8","0.2","0.6","0.4","0.2255404594","0.3197257227","0.3846584236","0.4464017809","","","","","","","","","","","75","K","2","","","28","main_expt"
"430","","bandit","107","378440","0.0-68.0-0.0","97718853","wem/bandit_either","A2P76QVLSGJR45","either","4","","","","","","","0","0","1","","0.3561298134","0.8","0.2","0.6","0.4","0.2730951691","0.3141869899","0.3561298134","0.4417109462","","","","","","","","","","","75","K","2","","","29","main_expt"
"422","","bandit","108","380497","0.0-69.0-0.0","97718853","wem/bandit_either","A2P76QVLSGJR45","either","4","","","","","","","0","0","1","","0.3101363315","0.8","0.2","0.6","0.4","0.2890412698","0.3445991012","0.3101363315","0.4065908859","","","","","","","","","","","75","K","2","","","30","main_expt"
"511","","bandit","109","382534","0.0-70.0-0.0","97718853","wem/bandit_either","A2P76QVLSGJR45","either","4","","","","","","","0","0","1","","0.3954582793","0.8","0.2","0.6","0.4","0.3309226042","0.3456655029","0.3322219809","0.3954582793","","","","","","","","","","","76","L","3","","","31","main_expt"
"550","","bandit","110","384628","0.0-71.0-0.0","97718853","wem/bandit_either","A2P76QVLSGJR45","either","4","","","","","","","0","1","0","","0.3716723047","0.8","0.2","0.6","0.4","0.3519301717","0.3826172224","0.3516269472","0.3716723047","","","","","","","","","","","76","L","3","","","32","main_expt"
"376","","bandit","111","386644","0.0-72.0-0.0","97718853","wem/bandit_either","A2P76QVLSGJR45","either","4","","","","","","","0","0","1","","0.3799724366","0.8","0.2","0.6","0.4","0.3414953842","0.3804083149","0.3852085553","0.3799724366","","","","","","","","","","","76","L","3","","","33","main_expt"
"547","","bandit","112","388717","0.0-73.0-0.0","97718853","wem/bandit_either","A2P76QVLSGJR45","either","4","","","","","","","0","1","0","","0.409480615","0.8","0.2","0.6","0.4","0.2938412915","0.3808178469","0.4196644934","0.409480615","","","","","","","","","","","76","L","3","","","34","main_expt"
"523","","bandit","113","390773","0.0-74.0-0.0","97718853","wem/bandit_either","A2P76QVLSGJR45","either","4","","","","","","","0","0","1","0.3869649509","","0.8","0.2","0.6","0.4","","","","","0.2256616696","0.376129724","0.420891004","0.3869649509","","","","","","","76","L","3","","","35","main_expt"
"501","","bandit","114","392896","0.0-75.0-0.0","97718853","wem/bandit_either","A2P76QVLSGJR45","either","4","","","","","","","0","0","1","","0.3045389962","0.8","0.2","0.6","0.4","0.2525957923","0.4027809904","0.3808881167","0.3045389962","","","","","","","","","","","76","L","3","","","36","main_expt"
"370","","bandit","115","394794","0.0-76.0-0.0","97718853","wem/bandit_either","A2P76QVLSGJR45","either","4","","","","","","","0","0","1","","0.3634360393","0.8","0.2","0.6","0.4","0.2333373749","0.3715556026","0.3634360393","0.2954217214","","","","","","","","","","","75","K","2","","","37","main_expt"
"626","","bandit","116","397145","0.0-77.0-0.0","97718853","wem/bandit_either","A2P76QVLSGJR45","either","4","","","","","","","0","0","1","0.3432691328","","0.8","0.2","0.6","0.4","","","","","0.2126884676","0.354842885","0.3432691328","0.2749906923","","","","","","","75","K","2","","","38","main_expt"
"602","","bandit","117","399277","0.0-78.0-0.0","97718853","wem/bandit_either","A2P76QVLSGJR45","either","4","","","","","","","0","1","0","","0.3113322025","0.8","0.2","0.6","0.4","0.212498526","0.3066825603","0.3113322025","0.2911873598","","","","","","","","","","","75","K","2","","","39","main_expt"
"375","","bandit","118","401476","0.0-79.0-0.0","97718853","wem/bandit_either","A2P76QVLSGJR45","either","4","","","","","","","0","0","1","0.3298138996","","0.8","0.2","0.6","0.4","","","","","0.2031275136","0.3208648015","0.3298138996","0.3066149412","","","","","","","75","K","2","","","40","main_expt"
"397","","bandit","119","403563","0.0-80.0-0.0","97718853","wem/bandit_either","A2P76QVLSGJR45","either","4","","","","","","","1","0","0","0.3590557929","","0.8","0.2","0.6","0.4","","","","","0.2409224204","0.2774570704","0.3590557929","0.2612722093","","","","","","","75","K","2","","","41","main_expt"
"427","","bandit","120","405526","0.0-81.0-0.0","97718853","wem/bandit_either","A2P76QVLSGJR45","either","4","","","","","","","0","1","0","","0.3455434044","0.8","0.2","0.6","0.4","0.2166695961","0.3092882543","0.3455434044","0.2579482203","","","","","","","","","","","75","K","2","","","42","main_expt"
"353","","bandit","121","407519","0.0-82.0-0.0","97718853","wem/bandit_either","A2P76QVLSGJR45","either","4","","","","","","","0","1","0","","0.4020043176","0.8","0.2","0.6","0.4","0.2314197793","0.3161251671","0.4020043176","0.2232302517","","","","","","","","","","","75","K","2","","","43","main_expt"
"398","","bandit","122","409440","0.0-83.0-0.0","97718853","wem/bandit_either","A2P76QVLSGJR45","either","4","","","","","","","0","0","1","","0.4088695108","0.8","0.2","0.6","0.4","0.1889371852","0.3032549762","0.4088695108","0.2435669349","","","","","","","","","","","75","K","2","","","44","main_expt"
"370","","bandit","123","411595","0.0-84.0-0.0","97718853","wem/bandit_either","A2P76QVLSGJR45","either","4","","","","","","","0","0","1","","0.3914045207","0.8","0.2","0.6","0.4","0.2152104473","0.3012359134","0.3914045207","0.1885724617","","","","","","","","","","","75","K","2","","","45","main_expt"
"362","","bandit","124","413480","0.0-85.0-0.0","97718853","wem/bandit_either","A2P76QVLSGJR45","either","4","","","","","","","0","0","1","0.3682142312","","0.8","0.2","0.6","0.4","","","","","0.2260726972","0.2994346937","0.3682142312","0.104230756","","","","","","","75","K","2","","","46","main_expt"
"404","","bandit","125","415410","0.0-86.0-0.0","97718853","wem/bandit_either","A2P76QVLSGJR45","either","4","","","","","","","1","0","0","0.3462276735","","0.8","0.2","0.6","0.4","","","","","0.2330399618","0.3169549043","0.3462276735","0.09013225529","","","","","","","75","K","2","","","47","main_expt"
"489","","bandit","126","417509","0.0-87.0-0.0","97718853","wem/bandit_either","A2P76QVLSGJR45","either","4","","","","","","","0","1","0","","0.3501405617","0.8","0.2","0.6","0.4","0.2769685944","0.3137179834","0.3501405617","0.1066227192","","","","","","","","","","","75","K","2","","","48","main_expt"
"477","","bandit","127","419514","0.0-88.0-0.0","97718853","wem/bandit_either","A2P76QVLSGJR45","either","4","","","","","","","0","0","1","","0.3607669766","0.8","0.2","0.6","0.4","0.2954986192","0.3026837323","0.3607669766","0.1273062614","","","","","","","","","","","75","K","2","","","49","main_expt"
"362","","bandit","128","421702","0.0-89.0-0.0","97718853","wem/bandit_either","A2P76QVLSGJR45","either","4","","","","","","","0","0","1","0.3776327681","","0.8","0.2","0.6","0.4","","","","","0.2730110453","0.2690248343","0.3776327681","0.08158159543","","","","","","","75","K","2","","","50","main_expt"
"365","","bandit","129","423588","0.0-90.0-0.0","97718853","wem/bandit_either","A2P76QVLSGJR45","either","4","","","","","","","1","0","0","0.3922012959","","0.8","0.2","0.6","0.4","","","","","0.2672659715","0.2407215714","0.3922012959","0.08035098666","","","","","","","75","K","2","","","51","main_expt"
"1144","","bandit","130","426442","0.0-91.0-0.0","97718853","wem/bandit_either","A2P76QVLSGJR45","either","4","","","","","","","0","0","1","0.3532085343","","0.8","0.2","0.6","0.4","","","","","0.2552972095","0.2758158767","0.3532085343","0.1007468434","","","","","","","75","K","2","","","52","main_expt"
"1281","","bandit","131","429416","0.0-92.0-0.0","97718853","wem/bandit_either","A2P76QVLSGJR45","either","4","","","","","","","0","0","1","","0.3597378762","0.8","0.2","0.6","0.4","0.1954439593","0.2661511239","0.3597378762","0.1479770317","","","","","","","","","","","75","K","2","","","53","main_expt"
"396","","bandit","132","431473","0.0-93.0-0.0","97718853","wem/bandit_either","A2P76QVLSGJR45","either","4","","","","","","","0","0","1","","0.250303373","0.8","0.2","0.6","0.4","0.1250298759","0.250303373","0.3553644404","0.1450389045","","","","","","","","","","","74","J","1","","","54","main_expt"
"691","","bandit","133","433746","0.0-94.0-0.0","97718853","wem/bandit_either","A2P76QVLSGJR45","either","4","","","","","","","0","0","1","","0.1850572083","0.8","0.2","0.6","0.4","0.1224949652","0.1850572083","0.3427354451","0.1678096349","","","","","","","","","","","74","J","1","","","55","main_expt"
"592","","bandit","134","435973","0.0-95.0-0.0","97718853","wem/bandit_either","A2P76QVLSGJR45","either","4","","","","","","","0","0","1","0.1312048923","","0.8","0.2","0.6","0.4","","","","","0.1312048923","0.2410157884","0.3158877586","0.1748395718","","","","","","","72","H","0","img/none_selected.jpg","","56","main_expt"
"387","","bandit","135","437892","0.0-96.0-0.0","97718853","wem/bandit_either","A2P76QVLSGJR45","either","4","","","","","","","0","0","1","0.14452077","","0.8","0.2","0.6","0.4","","","","","0.14452077","0.2657224069","0.3224611445","0.146986137","","","","","","","72","H","0","img/none_selected.jpg","","57","main_expt"
"415","","bandit","136","439839","0.0-97.0-0.0","97718853","wem/bandit_either","A2P76QVLSGJR45","either","4","","","","","","","0","0","1","","0.1316135006","0.8","0.2","0.6","0.4","0.1198415177","0.2361308133","0.3378672788","0.1316135006","","","","","","","","","","","76","L","3","","","58","main_expt"
"431","","bandit","137","441807","0.0-98.0-0.0","97718853","wem/bandit_either","A2P76QVLSGJR45","either","4","","","","","","","0","0","1","","0.1776120447","0.8","0.2","0.6","0.4","0.1674914914","0.2078360154","0.3438075972","0.1776120447","","","","","","","","","","","76","L","3","","","59","main_expt"
"577","","bandit","138","443910","0.0-99.0-0.0","97718853","wem/bandit_either","A2P76QVLSGJR45","either","4","","","","","","","0","0","1","","0.2034864675","0.8","0.2","0.6","0.4","0.147959707","0.2256957235","0.2950987239","0.2034864675","","","","","","","","","","","76","L","3","","","60","main_expt"
"383","","bandit","139","445822","0.0-100.0-0.0","97718853","wem/bandit_either","A2P76QVLSGJR45","either","4","","","","","","","1","0","0","0.2939622289","","0.8","0.2","0.6","0.4","","","","","0.1217284172","0.2713547376","0.2939622289","0.1325668513","","","","","","","75","K","2","","","61","main_expt"
"400","","bandit","140","447748","0.0-101.0-0.0","97718853","wem/bandit_either","A2P76QVLSGJR45","either","4","","","","","","","0","0","1","0.2907096119","","0.8","0.2","0.6","0.4","","","","","0.1392905859","0.2800078023","0.2907096119","0.125492747","","","","","","","75","K","2","","","62","main_expt"
"400","","bandit","141","449672","0.0-102.0-0.0","97718853","wem/bandit_either","A2P76QVLSGJR45","either","4","","","","","","","0","0","1","","0.2696382907","0.8","0.2","0.6","0.4","0.1953314019","0.362183352","0.2696382907","0.1081989139","","","","","","","","","","","75","K","2","","","63","main_expt"
"399","","bandit","142","451600","0.0-103.0-0.0","97718853","wem/bandit_either","A2P76QVLSGJR45","either","4","","","","","","","0","0","1","","0.2496415039","0.8","0.2","0.6","0.4","0.2618523415","0.3354395381","0.2496415039","0.09104284411","","","","","","","","","","","75","K","2","","","64","main_expt"
"359","","bandit","143","453485","0.0-104.0-0.0","97718853","wem/bandit_either","A2P76QVLSGJR45","either","4","","","","","","","0","0","1","0.2364994079","","0.8","0.2","0.6","0.4","","","","","0.2686672798","0.2893845237","0.2364994079","0.1264903162","","","","","","","75","K","2","","","65","main_expt"
"417","","bandit","144","455559","0.0-105.0-0.0","97718853","wem/bandit_either","A2P76QVLSGJR45","either","4","","","","","","","0","1","0","","0.2355717356","0.8","0.2","0.6","0.4","0.2451656397","0.2355717356","0.2541683514","0.1665937301","","","","","","","","","","","74","J","1","","","66","main_expt"
"469","","bandit","145","457555","0.0-106.0-0.0","97718853","wem/bandit_either","A2P76QVLSGJR45","either","4","","","","","","","0","0","1","","0.2848755716","0.8","0.2","0.6","0.4","0.2445320338","0.2848755716","0.2985471382","0.1740025863","","","","","","","","","","","74","J","1","","","67","main_expt"
"365","","bandit","146","459442","0.0-107.0-0.0","97718853","wem/bandit_either","A2P76QVLSGJR45","either","4","","","","","","","0","1","0","","0.3341158043","0.8","0.2","0.6","0.4","0.2261158315","0.3341158043","0.3391290389","0.2300011382","","","","","","","","","","","74","J","1","","","68","main_expt"
"433","","bandit","147","461433","0.0-108.0-0.0","97718853","wem/bandit_either","A2P76QVLSGJR45","either","4","","","","","","","0","0","1","","0.3253412689","0.8","0.2","0.6","0.4","0.1627286519","0.3253412689","0.3114764975","0.1768594062","","","","","","","","","","","74","J","1","","","69","main_expt"
"382","","bandit","148","463471","0.0-109.0-0.0","97718853","wem/bandit_either","A2P76QVLSGJR45","either","4","","","","","","","0","0","1","","0.3280915152","0.8","0.2","0.6","0.4","0.1301009224","0.3280915152","0.3056328376","0.1906145184","","","","","","","","","","","74","J","1","","","70","main_expt"
"439","","bandit","149","465454","0.0-110.0-0.0","97718853","wem/bandit_either","A2P76QVLSGJR45","either","4","","","","","","","0","0","1","","0.3772643828","0.8","0.2","0.6","0.4","0.1356707761","0.3772643828","0.3445325487","0.1451664327","","","","","","","","","","","74","J","1","","","71","main_expt"
"494","","bandit","150","467695","0.0-111.0-0.0","97718853","wem/bandit_either","A2P76QVLSGJR45","either","4","","","","","","","0","0","1","","0.1045412551","0.8","0.2","0.6","0.4","0.1045412551","0.4074174212","0.364612409","0.1091447996","","","","","","","","","","","72","H","0","img/none_selected.jpg","","72","main_expt"
"365","","bandit","151","469585","0.0-112.0-0.0","97718853","wem/bandit_either","A2P76QVLSGJR45","either","4","","","","","","","0","0","1","0.0867882282","","0.8","0.2","0.6","0.4","","","","","0.0867882282","0.3736299767","0.4454774056","0.1248737042","","","","","","","72","H","0","img/none_selected.jpg","","73","main_expt"
"635","","bandit","152","471752","0.0-113.0-0.0","97718853","wem/bandit_either","A2P76QVLSGJR45","either","4","","","","","","","0","0","1","","0.1018359722","0.8","0.2","0.6","0.4","0.1018359722","0.383211712","0.4492830973","0.1073746888","","","","","","","","","","","72","H","0","img/none_selected.jpg","","74","main_expt"
"884","","bandit","153","474163","0.0-114.0-0.0","97718853","wem/bandit_either","A2P76QVLSGJR45","either","4","","","","","","","0","0","1","","0.3681962321","0.8","0.2","0.6","0.4","0.09443707336","0.3681962321","0.449321966","0.1051395745","","","","","","","","","","","74","J","1","","","75","main_expt"
"345","","bandit","154","476029","0.0-115.0-0.0","97718853","wem/bandit_either","A2P76QVLSGJR45","either","4","","","","","","","0","0","1","0.09171451076","","0.8","0.2","0.6","0.4","","","","","0.08768691443","0.3574328021","0.4299726132","0.09171451076","","","","","","","76","L","3","","","76","main_expt"
"415","","bandit","155","477982","0.0-116.0-0.0","97718853","wem/bandit_either","A2P76QVLSGJR45","either","4","","","","","","","0","0","1","","0.1256070833","0.8","0.2","0.6","0.4","0.07744448812","0.4041720962","0.4349340462","0.1256070833","","","","","","","","","","","76","L","3","","","77","main_expt"
"518","","bandit","156","480021","0.0-117.0-0.0","97718853","wem/bandit_either","A2P76QVLSGJR45","either","4","","","","","","","0","1","0","","0.1398604905","0.8","0.2","0.6","0.4","0.05712631425","0.4000946746","0.4112950215","0.1398604905","","","","","","","","","","","76","L","3","","","78","main_expt"
"477","","bandit","157","482104","0.0-118.0-0.0","97718853","wem/bandit_either","A2P76QVLSGJR45","either","4","","","","","","","0","0","1","","0.1303191282","0.8","0.2","0.6","0.4","0.03981704588","0.425248604","0.4123046053","0.1303191282","","","","","","","","","","","76","L","3","","","79","main_expt"
"423","","bandit","158","484055","0.0-119.0-0.0","97718853","wem/bandit_either","A2P76QVLSGJR45","either","4","","","","","","","0","0","1","0.1491340647","","0.8","0.2","0.6","0.4","","","","","0.02961196177","0.4263383456","0.4345430878","0.1491340647","","","","","","","76","L","3","","","80","main_expt"
"498","","bandit","159","486390","0.0-120.0-0.0","97718853","wem/bandit_either","A2P76QVLSGJR45","either","4","","","","","","","0","0","1","","0.1484119081","0.8","0.2","0.6","0.4","0.0408206899","0.4377411966","0.4255274095","0.1484119081","","","","","","","","","","","76","L","3","","","81","main_expt"
"644","","bandit","160","488559","0.0-121.0-0.0","97718853","wem/bandit_either","A2P76QVLSGJR45","either","4","","","","","","","0","0","1","0.4266934287","","0.8","0.2","0.6","0.4","","","","","0.03491361241","0.4263216968","0.4266934287","0.135460029","","","","","","","75","K","2","","","82","main_expt"
"966","","bandit","161","491051","0.0-122.0-0.0","97718853","wem/bandit_either","A2P76QVLSGJR45","either","4","","","","","","","0","1","0","","0.4536492548","0.8","0.2","0.6","0.4","0.01881925386","0.4536492548","0.4321646522","0.09497461961","","","","","","","","","","","74","J","1","","","83","main_expt"
"466","","bandit","162","493365","0.0-123.0-0.0","97718853","wem/bandit_either","A2P76QVLSGJR45","either","4","","","","","","","0","1","0","","0.4344769981","0.8","0.2","0.6","0.4","0.03441768066","0.4344769981","0.43129245","0.0956585677","","","","","","","","","","","74","J","1","","","84","main_expt"
"406","","bandit","163","495333","0.0-124.0-0.0","97718853","wem/bandit_either","A2P76QVLSGJR45","either","4","","","","","","","0","1","0","","0.4167097255","0.8","0.2","0.6","0.4","0.04015732792","0.4167097255","0.4307495417","0.08427930603","","","","","","","","","","","74","J","1","","","85","main_expt"
"435","","bandit","164","497461","0.0-125.0-0.0","97718853","wem/bandit_either","A2P76QVLSGJR45","either","4","","","","","","","0","0","1","0.4215971904","","0.8","0.2","0.6","0.4","","","","","0.0462821445","0.4215971904","0.4327415212","0.09540141202","","","","","","","74","J","1","","","86","main_expt"
"613","","bandit","165","499611","0.0-126.0-0.0","97718853","wem/bandit_either","A2P76QVLSGJR45","either","4","","","","","","","0","0","1","","0.3962725568","0.8","0.2","0.6","0.4","0.07236867375","0.3962725568","0.4507305815","0.06504543429","","","","","","","","","","","74","J","1","","","87","main_expt"
"629","","bandit","166","503268","0.0-127.0-0.0","97718853","wem/bandit_either","A2P76QVLSGJR45","either","4","","","","","","","0","0","1","0.4038430626","","0.8","0.2","0.6","0.4","","","","","0.1132918069","0.4038430626","0.4571393315","0.05894337134","","","","","","","74","J","1","","","88","main_expt"
"1271","","bandit","167","506066","0.0-128.0-0.0","97718853","wem/bandit_either","A2P76QVLSGJR45","either","4","","","","","","","0","0","1","0.1466354559","","0.8","0.2","0.6","0.4","","","","","0.1466354559","0.4247877058","0.4639779763","0.06803635399","","","","","","","72","H","0","img/none_selected.jpg","","89","main_expt"
"608","","bandit","168","508413","0.0-129.0-0.0","97718853","wem/bandit_either","A2P76QVLSGJR45","either","4","","","","","","","0","0","1","0.1746819083","","0.8","0.2","0.6","0.4","","","","","0.1746819083","0.4196700557","0.4620017245","0.09657856289","","","","","","","72","H","0","img/none_selected.jpg","","90","main_expt"
"420","","bandit","169","510484","0.0-130.0-0.0","97718853","wem/bandit_either","A2P76QVLSGJR45","either","4","","","","","","","0","0","1","","0.08522031428","0.8","0.2","0.6","0.4","0.1864657318","0.401758082","0.4492963398","0.08522031428","","","","","","","","","","","76","L","3","","","91","main_expt"
"695","","bandit","170","512707","0.0-131.0-0.0","97718853","wem/bandit_either","A2P76QVLSGJR45","either","4","","","","","","","0","0","1","0.07078380504","","0.8","0.2","0.6","0.4","","","","","0.2124622091","0.3422099147","0.462009279","0.07078380504","","","","","","","76","L","3","","","92","main_expt"
"410","","bandit","171","514651","0.0-132.0-0.0","97718853","wem/bandit_either","A2P76QVLSGJR45","either","4","","","","","","","0","0","1","0.4363090379","","0.8","0.2","0.6","0.4","","","","","0.245786276","0.3279059742","0.4363090379","0.0564278809","","","","","","","75","K","2","","","93","main_expt"
"602","","bandit","172","516782","0.0-133.0-0.0","97718853","wem/bandit_either","A2P76QVLSGJR45","either","4","","","","","","","0","0","1","","0.3155724737","0.8","0.2","0.6","0.4","0.2316759231","0.3155724737","0.4457519602","0.06067733924","","","","","","","","","","","74","J","1","","","94","main_expt"
"562","","bandit","173","519082","0.0-134.0-0.0","97718853","wem/bandit_either","A2P76QVLSGJR45","either","4","","","","","","","0","0","1","","0.3519625041","0.8","0.2","0.6","0.4","0.2231756969","0.3519625041","0.4231248902","0.08632751489","","","","","","","","","","","74","J","1","","","95","main_expt"
"420","","bandit","174","521167","0.0-135.0-0.0","97718853","wem/bandit_either","A2P76QVLSGJR45","either","4","","","","","","","0","1","0","","0.3661455107","0.8","0.2","0.6","0.4","0.1957128212","0.3661455107","0.4210676831","0.08481729553","","","","","","","","","","","74","J","1","","","96","main_expt"
"684","","bandit","175","523651","0.0-136.0-0.0","97718853","wem/bandit_either","A2P76QVLSGJR45","either","4","","","","","","","0","1","0","","0.3558031673","0.8","0.2","0.6","0.4","0.1638116915","0.3558031673","0.4022895305","0.08386440452","","","","","","","","","","","74","J","1","","","97","main_expt"
"446","","bandit","176","525691","0.0-137.0-0.0","97718853","wem/bandit_either","A2P76QVLSGJR45","either","4","","","","","","","0","0","1","","0.3558230887","0.8","0.2","0.6","0.4","0.1405816365","0.3558230887","0.4187351015","0.0940701929","","","","","","","","","","","74","J","1","","","98","main_expt"
"823","","bandit","177","528050","0.0-138.0-0.0","97718853","wem/bandit_either","A2P76QVLSGJR45","either","4","","","","","","","0","0","1","","0.3064708089","0.8","0.2","0.6","0.4","0.1435678602","0.3064708089","0.3981340028","0.1285058524","","","","","","","","","","","74","J","1","","","99","main_expt"
"398","","bandit","178","529979","0.0-139.0-0.0","97718853","wem/bandit_either","A2P76QVLSGJR45","either","4","","","","","","","0","0","1","","0.352498313","0.8","0.2","0.6","0.4","0.1478754355","0.352498313","0.3520446815","0.065882019","","","","","","","","","","","74","J","1","","","100","main_expt"
"453","","bandit","179","531964","0.0-140.0-0.0","97718853","wem/bandit_either","A2P76QVLSGJR45","either","4","","","","","","","0","1","0","","0.3511810171","0.8","0.2","0.6","0.4","0.1532559328","0.3511810171","0.3715523215","0.05692140794","","","","","","","","","","","74","J","1","","","101","main_expt"
"747","","bandit","180","534232","0.0-141.0-0.0","97718853","wem/bandit_either","A2P76QVLSGJR45","either","4","","","","","","","0","1","0","","0.3246867477","0.8","0.2","0.6","0.4","0.15857411","0.3246867477","0.3966955113","0.04322280369","","","","","","","","","","","74","J","1","","","102","main_expt"
"452","","bandit","181","536410","0.0-142.0-0.0","97718853","wem/bandit_either","A2P76QVLSGJR45","either","4","","","","","","","0","1","0","","0.2827689756","0.8","0.2","0.6","0.4","0.1552377357","0.2827689756","0.3865714765","0.05121437093","","","","","","","","","","","74","J","1","","","103","main_expt"
"411","","bandit","182","538349","0.0-143.0-0.0","97718853","wem/bandit_either","A2P76QVLSGJR45","either","4","","","","","","","1","0","0","0.3307995119","","0.8","0.2","0.6","0.4","","","","","0.1584193753","0.3307995119","0.3440646931","0.06548077564","","","","","","","74","J","1","","","104","main_expt"
"534","","bandit","183","540410","0.0-144.0-0.0","97718853","wem/bandit_either","A2P76QVLSGJR45","either","4","","","","","","","1","0","0","0.3078297571","","0.8","0.2","0.6","0.4","","","","","0.192058402","0.3078297571","0.330981063","0.07577357845","","","","","","","74","J","1","","","105","main_expt"
"681","","bandit","184","542848","0.0-145.0-0.0","97718853","wem/bandit_either","A2P76QVLSGJR45","either","4","","","","","","","1","0","0","0.3202685942","","0.8","0.2","0.6","0.4","","","","","0.1562344916","0.3202685942","0.3317280627","0.09041352565","","","","","","","74","J","1","","","106","main_expt"
"489","","bandit","185","544864","0.0-146.0-0.0","97718853","wem/bandit_either","A2P76QVLSGJR45","either","4","","","","","","","0","0","1","","0.3163418234","0.8","0.2","0.6","0.4","0.1493116313","0.3163418234","0.2760665195","0.1184921167","","","","","","","","","","","74","J","1","","","107","main_expt"
"533","","bandit","186","546926","0.0-147.0-0.0","97718853","wem/bandit_either","A2P76QVLSGJR45","either","4","","","","","","","0","0","1","","0.3425943818","0.8","0.2","0.6","0.4","0.1357435498","0.3425943818","0.2826301941","0.1057615429","","","","","","","","","","","74","J","1","","","108","main_expt"
"904","","bandit","187","549360","0.0-148.0-0.0","97718853","wem/bandit_either","A2P76QVLSGJR45","either","4","","","","","","","0","0","1","","0.2852030557","0.8","0.2","0.6","0.4","0.1164074326","0.2852030557","0.318117281","0.1464484126","","","","","","","","","","","74","J","1","","","109","main_expt"
"1132","","bandit","188","552024","0.0-149.0-0.0","97718853","wem/bandit_either","A2P76QVLSGJR45","either","4","","","","","","","0","0","1","","0.3392406975","0.8","0.2","0.6","0.4","0.1444451916","0.3392406975","0.3358587519","0.1641354829","","","","","","","","","","","74","J","1","","","110","main_expt"
"558","","bandit","189","554121","0.0-150.0-0.0","97718853","wem/bandit_either","A2P76QVLSGJR45","either","4","","","","","","","0","1","0","","0.3023411017","0.8","0.2","0.6","0.4","0.09905323685","0.3023411017","0.3031660534","0.1386891192","","","","","","","","","","","74","J","1","","","111","main_expt"
"477","","bandit","190","556130","0.0-151.0-0.0","97718853","wem/bandit_either","A2P76QVLSGJR45","either","4","","","","","","","0","1","0","","0.296849772","0.8","0.2","0.6","0.4","0.09652445584","0.296849772","0.2773548355","0.1847512065","","","","","","","","","","","74","J","1","","","112","main_expt"
"426","","bandit","191","558131","0.0-152.0-0.0","97718853","wem/bandit_either","A2P76QVLSGJR45","either","4","","","","","","","0","1","0","","0.2673419259","0.8","0.2","0.6","0.4","0.09961189632","0.2673419259","0.2370758425","0.1304555333","","","","","","","","","","","74","J","1","","","113","main_expt"
"440","","bandit","192","560320","0.0-153.0-0.0","97718853","wem/bandit_either","A2P76QVLSGJR45","either","4","","","","","","","0","0","1","","0.2670531803","0.8","0.2","0.6","0.4","0.1036139638","0.2670531803","0.1821928837","0.1770102637","","","","","","","","","","","74","J","1","","","114","main_expt"
"0","","bandit","193","561852","0.0-154.0-0.0","97718853","wem/bandit_either","A2P76QVLSGJR45","either","4","","","","","","","0","0","1","","0.2825009356","0.8","0.2","0.6","0.4","0.0968506792","0.2825009356","0.1315453283","0.1564651975","","","","","","","","","","","74","J","1","","","115","main_expt"
"423","","bandit","194","563993","0.0-155.0-0.0","97718853","wem/bandit_either","A2P76QVLSGJR45","either","4","","","","","","","0","0","1","","0.3237719372","0.8","0.2","0.6","0.4","0.08782875681","0.3237719372","0.1102777544","0.1665702367","","","","","","","","","","","74","J","1","","","116","main_expt"
"21","","bandit","195","565544","0.0-156.0-0.0","97718853","wem/bandit_either","A2P76QVLSGJR45","either","4","","","","","","","0","0","1","","0.06031800864","0.8","0.2","0.6","0.4","0.06031800864","0.3154846423","0.1101610351","0.1530687496","","","","","","","","","","","72","H","0","img/none_selected.jpg","","117","main_expt"
"369","","bandit","196","567442","0.0-157.0-0.0","97718853","wem/bandit_either","A2P76QVLSGJR45","either","4","","","","","","","0","0","1","0.05633053331","","0.8","0.2","0.6","0.4","","","","","0.05633053331","0.2584508078","0.122460482","0.1674206906","","","","","","","72","H","0","img/none_selected.jpg","","118","main_expt"
"331","","bandit","197","569295","0.0-158.0-0.0","97718853","wem/bandit_either","A2P76QVLSGJR45","either","4","","","","","","","0","0","1","","0.1990215448","0.8","0.2","0.6","0.4","0.07530514027","0.2141905193","0.1451868924","0.1990215448","","","","","","","","","","","76","L","3","","","119","main_expt"
"398","","bandit","198","571359","0.0-159.0-0.0","97718853","wem/bandit_either","A2P76QVLSGJR45","either","4","","","","","","","0","1","0","","0.2208640619","0.8","0.2","0.6","0.4","0.09639595661","0.2341954374","0.09092593383","0.2208640619","","","","","","","","","","","76","L","3","","","120","main_expt"
"631","","bandit","199","573512","0.0-160.0-0.0","97718853","wem/bandit_either","A2P76QVLSGJR45","either","4","","","","","","","0","0","1","0.2602917539","","0.8","0.2","0.6","0.4","","","","","0.1421799471","0.1886372651","0.1080456108","0.2602917539","","","","","","","76","L","3","","","121","main_expt"
"361","","bandit","200","575693","0.0-161.0-0.0","97718853","wem/bandit_either","A2P76QVLSGJR45","either","4","","","","","","","0","1","0","","0.2512498235","0.8","0.2","0.6","0.4","0.1624760489","0.1597592322","0.1169053248","0.2512498235","","","","","","","","","","","76","L","3","","","122","main_expt"
"416","","bandit","201","577660","0.0-162.0-0.0","97718853","wem/bandit_either","A2P76QVLSGJR45","either","4","","","","","","","0","0","1","","0.2266242761","0.8","0.2","0.6","0.4","0.1640214383","0.1895266442","0.1571594809","0.2266242761","","","","","","","","","","","76","L","3","","","123","main_expt"
"358","","bandit","202","579558","0.0-163.0-0.0","97718853","wem/bandit_either","A2P76QVLSGJR45","either","4","","","","","","","0","0","1","","0.2373824638","0.8","0.2","0.6","0.4","0.2014340991","0.2042850732","0.2231804049","0.2373824638","","","","","","","","","","","76","L","3","","","124","main_expt"
"596","","bandit","203","584055","0.0-164.0-0.0","97718853","wem/bandit_either","A2P76QVLSGJR45","either","4","","","","","","","0","0","1","0.2538727107","","0.8","0.2","0.6","0.4","","","","","0.2229229076","0.1812515389","0.2232794356","0.2538727107","","","","","","","76","L","3","","","125","main_expt"
"922","","bandit","204","586593","0.0-165.0-0.0","97718853","wem/bandit_either","A2P76QVLSGJR45","either","4","","","","","","","1","0","0","0.2316903634","","0.8","0.2","0.6","0.4","","","","","0.2324712723","0.1694736183","0.2316903634","0.290219491","","","","","","","75","K","2","","","126","main_expt"
"505","","bandit","205","588693","0.0-166.0-0.0","97718853","wem/bandit_either","A2P76QVLSGJR45","either","4","","","","","","","1","0","0","0.2337524142","","0.8","0.2","0.6","0.4","","","","","0.2628391623","0.1624528765","0.2337524142","0.2542505169","","","","","","","75","K","2","","","127","main_expt"
"759","","bandit","206","590989","0.0-167.0-0.0","97718853","wem/bandit_either","A2P76QVLSGJR45","either","4","","","","","","","0","0","1","0.2198210178","","0.8","0.2","0.6","0.4","","","","","0.2654356302","0.1632982916","0.2198210178","0.2582316027","","","","","","","75","K","2","","","128","main_expt"
"388","","bandit","207","592907","0.0-168.0-0.0","97718853","wem/bandit_either","A2P76QVLSGJR45","either","4","","","","","","","0","0","1","0.2280168395","","0.8","0.2","0.6","0.4","","","","","0.2070569149","0.2264598068","0.2280168395","0.3267566011","","","","","","","75","K","2","","","129","main_expt"
"601","","bandit","208","595039","0.0-169.0-0.0","97718853","wem/bandit_either","A2P76QVLSGJR45","either","4","","","","","","","0","0","1","0.243895296","","0.8","0.2","0.6","0.4","","","","","0.2579182239","0.202760285","0.243895296","0.3323271388","","","","","","","75","K","2","","","130","main_expt"
"374","","bandit","209","597226","0.0-170.0-0.0","97718853","wem/bandit_either","A2P76QVLSGJR45","either","4","","","","","","","0","0","1","","0.1585094705","0.8","0.2","0.6","0.4","0.2329110821","0.1585094705","0.2164454501","0.2666668646","","","","","","","","","","","74","J","1","","","131","main_expt"
"485","","bandit","210","599402","0.0-171.0-0.0","97718853","wem/bandit_either","A2P76QVLSGJR45","either","4","","","","","","","0","0","1","","0.1304261544","0.8","0.2","0.6","0.4","0.2400232435","0.1304261544","0.200468731","0.2359119393","","","","","","","","","","","74","J","1","","","132","main_expt"
"448","","bandit","211","601449","0.0-172.0-0.0","97718853","wem/bandit_either","A2P76QVLSGJR45","either","4","","","","","","","0","1","0","","0.09339990826","0.8","0.2","0.6","0.4","0.2084798617","0.09339990826","0.2038597077","0.2540740643","","","","","","","","","","","74","J","1","","","133","main_expt"
"433","","bandit","212","603405","0.0-173.0-0.0","97718853","wem/bandit_either","A2P76QVLSGJR45","either","4","","","","","","","0","1","0","","0.08524612959","0.8","0.2","0.6","0.4","0.2034544","0.08524612959","0.2263269307","0.2414927735","","","","","","","","","","","74","J","1","","","134","main_expt"
"412","","bandit","213","605440","0.0-174.0-0.0","97718853","wem/bandit_either","A2P76QVLSGJR45","either","4","","","","","","","0","0","1","","0.0622033461","0.8","0.2","0.6","0.4","0.2088958693","0.0622033461","0.2686469146","0.2632369982","","","","","","","","","","","74","J","1","","","135","main_expt"
"451","","bandit","214","607465","0.0-175.0-0.0","97718853","wem/bandit_either","A2P76QVLSGJR45","either","4","","","","","","","0","0","1","","0.05632890875","0.8","0.2","0.6","0.4","0.2573758916","0.05632890875","0.3170393738","0.3032623762","","","","","","","","","","","74","J","1","","","136","main_expt"
"346","","bandit","215","609471","0.0-176.0-0.0","97718853","wem/bandit_either","A2P76QVLSGJR45","either","4","","","","","","","0","0","1","0.06052980877","","0.8","0.2","0.6","0.4","","","","","0.2467438462","0.06052980877","0.338962466","0.2984046037","","","","","","","74","J","1","","","137","main_expt"
"1474","","bandit","216","612597","0.0-177.0-0.0","97718853","wem/bandit_either","A2P76QVLSGJR45","either","4","","","","","","","0","0","1","0.3586643031","","0.8","0.2","0.6","0.4","","","","","0.2221944767","0.1038497792","0.3586643031","0.3110629865","","","","","","","75","K","2","","","138","main_expt"
"744","","bandit","217","614883","0.0-178.0-0.0","97718853","wem/bandit_either","A2P76QVLSGJR45","either","4","","","","","","","0","0","1","","0.3048373826","0.8","0.2","0.6","0.4","0.2750517365","0.08561062373","0.3430902759","0.3048373826","","","","","","","","","","","76","L","3","","","139","main_expt"
"601","","bandit","218","617012","0.0-179.0-0.0","97718853","wem/bandit_either","A2P76QVLSGJR45","either","4","","","","","","","1","0","0","0.3163642845","","0.8","0.2","0.6","0.4","","","","","0.277474309","0.08025295029","0.3777112835","0.3163642845","","","","","","","76","L","3","","","140","main_expt"
"389","","bandit","219","618940","0.0-180.0-0.0","97718853","wem/bandit_either","A2P76QVLSGJR45","either","4","","","","","","","0","1","0","","0.2213861514","0.8","0.2","0.6","0.4","0.2932007391","0.09309891757","0.4276051364","0.2213861514","","","","","","","","","","","76","L","3","","","141","main_expt"
"1285","","bandit","220","621774","0.0-181.0-0.0","97718853","wem/bandit_either","A2P76QVLSGJR45","either","4","","","","","","","0","0","1","0.2492613222","","0.8","0.2","0.6","0.4","","","","","0.3001807938","0.1107976638","0.4312347149","0.2492613222","","","","","","","76","L","3","","","142","main_expt"
"710","","bandit","221","624218","0.0-182.0-0.0","97718853","wem/bandit_either","A2P76QVLSGJR45","either","4","","","","","","","1","0","0","0.2645663874","","0.8","0.2","0.6","0.4","","","","","0.3640878437","0.09575525052","0.386657586","0.2645663874","","","","","","","76","L","3","","","143","main_expt"
"399","","bandit","222","626148","0.0-183.0-0.0","97718853","wem/bandit_either","A2P76QVLSGJR45","either","4","","","","","","","0","0","1","0.2928215939","","0.8","0.2","0.6","0.4","","","","","0.2706796495","0.07222794989","0.3409851627","0.2928215939","","","","","","","76","L","3","","","144","main_expt"
"427","","bandit","223","628185","0.0-184.0-0.0","97718853","wem/bandit_either","A2P76QVLSGJR45","either","4","","","","","","","0","0","1","","0.3178979655","0.8","0.2","0.6","0.4","0.2359726437","0.03203798906","0.3538709708","0.3178979655","","","","","","","","","","","76","L","3","","","145","main_expt"
"615","","bandit","224","630406","0.0-185.0-0.0","97718853","wem/bandit_either","A2P76QVLSGJR45","either","4","","","","","","","1","0","0","0.2850957273","","0.8","0.2","0.6","0.4","","","","","0.2200332621","0.03073079809","0.2745956728","0.2850957273","","","","","","","76","L","3","","","146","main_expt"
"443","","bandit","225","632469","0.0-186.0-0.0","97718853","wem/bandit_either","A2P76QVLSGJR45","either","4","","","","","","","0","0","1","","0.2483519338","0.8","0.2","0.6","0.4","0.1957794229","0.05105424151","0.2375793476","0.2483519338","","","","","","","","","","","76","L","3","","","147","main_expt"
"985","","bandit","226","634986","0.0-187.0-0.0","97718853","wem/bandit_either","A2P76QVLSGJR45","either","4","","","","","","","0","0","1","","0.2309770791","0.8","0.2","0.6","0.4","0.1790722045","0.04045355104","0.2954602587","0.2309770791","","","","","","","","","","","76","L","3","","","148","main_expt"
"503","","bandit","227","637260","0.0-188.0-0.0","97718853","wem/bandit_either","A2P76QVLSGJR45","either","4","","","","","","","0","0","1","0.1759049641","","0.8","0.2","0.6","0.4","","","","","0.2189150546","0.06416506337","0.3435099865","0.1759049641","","","","","","","76","L","3","","","149","main_expt"
"646","","bandit","228","639432","0.0-189.0-0.0","97718853","wem/bandit_either","A2P76QVLSGJR45","either","4","","","","","","","0","1","0","","0.268900415","0.8","0.2","0.6","0.4","0.2119229637","0.07819388902","0.268900415","0.1910702346","","","","","","","","","","","75","K","2","","","150","main_expt"
"528","","bandit","229","641564","0.0-190.0-0.0","97718853","wem/bandit_either","A2P76QVLSGJR45","either","4","","","","","","","1","0","0","0.2326488896","","0.8","0.2","0.6","0.4","","","","","0.2472398003","0.1186979887","0.2326488896","0.1799178466","","","","","","","75","K","2","","","151","main_expt"
"416","","bandit","230","643516","0.0-191.0-0.0","97718853","wem/bandit_either","A2P76QVLSGJR45","either","4","","","","","","","0","0","1","0.2768057641","","0.8","0.2","0.6","0.4","","","","","0.2148428051","0.1084773402","0.2768057641","0.1826140084","","","","","","","75","K","2","","","152","main_expt"
"517","","bandit","231","645560","0.0-192.0-0.0","97718853","wem/bandit_either","A2P76QVLSGJR45","either","4","","","","","","","0","0","1","0.2997660112","","0.8","0.2","0.6","0.4","","","","","0.1598057249","0.1314289417","0.2997660112","0.147924298","","","","","","","75","K","2","","","153","main_expt"
"679","","bandit","232","647930","0.0-193.0-0.0","97718853","wem/bandit_either","A2P76QVLSGJR45","either","4","","","","","","","0","0","1","","0.3196464983","0.8","0.2","0.6","0.4","0.1489099923","0.1354051011","0.3196464983","0.1388357139","","","","","","","","","","","75","K","2","","","154","main_expt"
"424","","bandit","233","649886","0.0-194.0-0.0","97718853","wem/bandit_either","A2P76QVLSGJR45","either","4","","","","","","","0","0","1","0.1085215933","","0.8","0.2","0.6","0.4","","","","","0.1502541116","0.1085215933","0.3141654429","0.1658398244","","","","","","","74","J","1","","","155","main_expt"
"525","","bandit","234","651936","0.0-195.0-0.0","97718853","wem/bandit_either","A2P76QVLSGJR45","either","4","","","","","","","0","1","0","","0.1383379057","0.8","0.2","0.6","0.4","0.1605084188","0.1383379057","0.2667217688","0.1104921729","","","","","","","","","","","74","J","1","","","156","main_expt"
"589","","bandit","235","654055","0.0-196.0-0.0","97718853","wem/bandit_either","A2P76QVLSGJR45","either","4","","","","","","","0","1","0","","0.1428990181","0.8","0.2","0.6","0.4","0.1684101418","0.1428990181","0.2867075714","0.09530810267","","","","","","","","","","","74","J","1","","","157","main_expt"
"388","","bandit","236","655975","0.0-197.0-0.0","97718853","wem/bandit_either","A2P76QVLSGJR45","either","4","","","","","","","0","0","1","","0.07455979893","0.8","0.2","0.6","0.4","0.1807688322","0.07455979893","0.2788639118","0.1211627972","","","","","","","","","","","74","J","1","","","158","main_expt"
"579","","bandit","237","658084","0.0-198.0-0.0","97718853","wem/bandit_either","A2P76QVLSGJR45","either","4","","","","","","","0","0","1","","0.1009372764","0.8","0.2","0.6","0.4","0.1516426412","0.1009372764","0.3020710819","0.1012897464","","","","","","","","","","","74","J","1","","","159","main_expt"
"471","","bandit","238","660382","0.0-199.0-0.0","97718853","wem/bandit_either","A2P76QVLSGJR45","either","4","","","","","","","1","0","0","0.1638698877","","0.8","0.2","0.6","0.4","","","","","0.1638698877","0.05118862797","0.3404227007","0.1188035868","","","","","","","72","H","0","img/none_selected.jpg","","160","main_expt"
"414","","bandit","239","662333","0.0-200.0-0.0","97718853","wem/bandit_either","A2P76QVLSGJR45","either","4","","","","","","","0","0","1","","0.1645359983","0.8","0.2","0.6","0.4","0.1645359983","0.05265847637","0.2876249865","0.1606836622","","","","","","","","","","","72","H","0","img/none_selected.jpg","","161","main_expt"
"400","","bandit","240","664631","0.0-201.0-0.0","97718853","wem/bandit_either","A2P76QVLSGJR45","either","4","","","","","","","0","0","1","","0.2509918509","0.8","0.2","0.6","0.4","0.2509918509","0.07938684611","0.2401308511","0.1859884171","","","","","","","","","","","72","H","0","img/none_selected.jpg","","162","main_expt"
"353","","bandit","241","666514","0.0-202.0-0.0","97718853","wem/bandit_either","A2P76QVLSGJR45","either","4","","","","","","","0","0","1","0.1883685458","","0.8","0.2","0.6","0.4","","","","","0.1883685458","0.0970900163","0.2486605046","0.2528258464","","","","","","","72","H","0","img/none_selected.jpg","","163","main_expt"
"562","","bandit","242","668683","0.0-203.0-0.0","97718853","wem/bandit_either","A2P76QVLSGJR45","either","4","","","","","","","0","0","1","0.2179532334","","0.8","0.2","0.6","0.4","","","","","0.2179532334","0.07401968201","0.22675384","0.2515292425","","","","","","","72","H","0","img/none_selected.jpg","","164","main_expt"
"610","","bandit","243","670828","0.0-204.0-0.0","97718853","wem/bandit_either","A2P76QVLSGJR45","either","4","","","","","","","0","0","1","0.06633104104","","0.8","0.2","0.6","0.4","","","","","0.2143704678","0.06633104104","0.2841151948","0.2068970429","","","","","","","74","J","1","","","165","main_expt"
"359","","bandit","244","672768","0.0-205.0-0.0","97718853","wem/bandit_either","A2P76QVLSGJR45","either","4","","","","","","","0","0","1","","0.05309652092","0.8","0.2","0.6","0.4","0.2175899085","0.05309652092","0.2842980464","0.1413778631","","","","","","","","","","","74","J","1","","","166","main_expt"
"364","","bandit","245","674683","0.0-206.0-0.0","97718853","wem/bandit_either","A2P76QVLSGJR45","either","4","","","","","","","0","1","0","","0.3007590714","0.8","0.2","0.6","0.4","0.2137120923","0.07357446968","0.3007590714","0.1999497975","","","","","","","","","","","75","K","2","","","167","main_expt"
"296","","bandit","246","676605","0.0-207.0-0.0","97718853","wem/bandit_either","A2P76QVLSGJR45","either","4","","","","","","","0","0","1","0.2884936601","","0.8","0.2","0.6","0.4","","","","","0.2331560811","0.1054325378","0.2884936601","0.1696145944","","","","","","","75","K","2","","","168","main_expt"
"663","","bandit","247","678824","0.0-208.0-0.0","97718853","wem/bandit_either","A2P76QVLSGJR45","either","4","","","","","","","1","0","0","0.2803439438","","0.8","0.2","0.6","0.4","","","","","0.2367963754","0.08536867429","0.2803439438","0.1338518967","","","","","","","75","K","2","","","169","main_expt"
"614","","bandit","248","680972","0.0-209.0-0.0","97718853","wem/bandit_either","A2P76QVLSGJR45","either","4","","","","","","","0","0","1","0.3010437192","","0.8","0.2","0.6","0.4","","","","","0.2378050175","0.1083432756","0.3010437192","0.1307598277","","","","","","","75","K","2","","","170","main_expt"
"559","","bandit","249","683067","0.0-210.0-0.0","97718853","wem/bandit_either","A2P76QVLSGJR45","either","4","","","","","","","0","0","1","0.3243802095","","0.8","0.2","0.6","0.4","","","","","0.2253696972","0.09185370626","0.3243802095","0.1200375331","","","","","","","75","K","2","","","171","main_expt"
"460","","bandit","250","685065","0.0-211.0-0.0","97718853","wem/bandit_either","A2P76QVLSGJR45","either","4","","","","","","","0","0","1","0.3140094691","","0.8","0.2","0.6","0.4","","","","","0.2903394368","0.09458096772","0.3140094691","0.07514546963","","","","","","","75","K","2","","","172","main_expt"
"559","","bandit","251","687255","0.0-212.0-0.0","97718853","wem/bandit_either","A2P76QVLSGJR45","either","4","","","","","","","0","0","1","","0.07704486673","0.8","0.2","0.6","0.4","0.2384828248","0.1016296913","0.2433770114","0.07704486673","","","","","","","","","","","76","L","3","","","173","main_expt"
"350","","bandit","252","689170","0.0-213.0-0.0","97718853","wem/bandit_either","A2P76QVLSGJR45","either","4","","","","","","","0","0","1","","0.04061738922","0.8","0.2","0.6","0.4","0.2823111034","0.117107939","0.2080779891","0.04061738922","","","","","","","","","","","76","L","3","","","174","main_expt"
"442","","bandit","253","691147","0.0-214.0-0.0","97718853","wem/bandit_either","A2P76QVLSGJR45","either","4","","","","","","","0","0","1","","0.02968316822","0.8","0.2","0.6","0.4","0.292147578","0.1254773658","0.2211365803","0.02968316822","","","","","","","","","","","76","L","3","","","175","main_expt"
"696","","bandit","254","693391","0.0-215.0-0.0","97718853","wem/bandit_either","A2P76QVLSGJR45","either","4","","","","","","","0","0","1","","0.1518856622","0.8","0.2","0.6","0.4","0.2928295457","0.1518856622","0.231280906","0.04419366322","","","","","","","","","","","74","J","1","","","176","main_expt"
"353","","bandit","255","695736","0.0-216.0-0.0","97718853","wem/bandit_either","A2P76QVLSGJR45","either","4","","","","","","","0","0","1","","0.1502483312","0.8","0.2","0.6","0.4","0.297241693","0.1502483312","0.1689881391","0.04140429262","","","","","","","","","","","74","J","1","","","177","main_expt"
"404","","bandit","256","697686","0.0-217.0-0.0","97718853","wem/bandit_either","A2P76QVLSGJR45","either","4","","","","","","","0","0","1","0.1699404395","","0.8","0.2","0.6","0.4","","","","","0.276241128","0.2073149786","0.1699404395","0.06103489621","","","","","","","75","K","2","","","178","main_expt"
"382","","bandit","257","699598","0.0-218.0-0.0","97718853","wem/bandit_either","A2P76QVLSGJR45","either","4","","","","","","","0","0","1","","0.1571972967","0.8","0.2","0.6","0.4","0.2405339857","0.1928578162","0.1571972967","0.053608248","","","","","","","","","","","75","K","2","","","179","main_expt"
"663","","bandit","258","701807","0.0-219.0-0.0","97718853","wem/bandit_either","A2P76QVLSGJR45","either","4","","","","","","","0","0","1","0.233428307","","0.8","0.2","0.6","0.4","","","","","0.233428307","0.1412953234","0.1567782565","0.06289379635","","","","","","","72","H","0","img/none_selected.jpg","","180","main_expt"
"444","","bandit","259","703785","0.0-220.0-0.0","97718853","wem/bandit_either","A2P76QVLSGJR45","either","4","","","","","","","1","0","0","0.1459310114","","0.8","0.2","0.6","0.4","","","","","0.1459310114","0.1258774719","0.1492691696","0.07748386732","","","","","","","72","H","0","img/none_selected.jpg","","181","main_expt"
"422","","bandit","260","705747","0.0-221.0-0.0","97718853","wem/bandit_either","A2P76QVLSGJR45","either","4","","","","","","","0","0","1","0.1796360657","","0.8","0.2","0.6","0.4","","","","","0.1796360657","0.1121960069","0.1609613705","0.096714051","","","","","","","72","H","0","img/none_selected.jpg","","182","main_expt"
"539","","bandit","261","707826","0.0-222.0-0.0","97718853","wem/bandit_either","A2P76QVLSGJR45","either","4","","","","","","","0","0","1","","0.1907874973","0.8","0.2","0.6","0.4","0.1907874973","0.08335286121","0.1982891881","0.05351369794","","","","","","","","","","","72","H","0","img/none_selected.jpg","","183","main_expt"
"539","","bandit","262","709906","0.0-223.0-0.0","97718853","wem/bandit_either","A2P76QVLSGJR45","either","4","","","","","","","0","0","1","","0.1451627339","0.8","0.2","0.6","0.4","0.1451627339","0.1085923678","0.1703318442","0.08854511538","","","","","","","","","","","72","H","0","img/none_selected.jpg","","184","main_expt"
"588","","bandit","263","712441","0.0-224.0-0.0","97718853","wem/bandit_either","A2P76QVLSGJR45","either","4","","","","","","","0","0","1","","0.1692531577","0.8","0.2","0.6","0.4","0.1692531577","0.1113654269","0.09566746086","0.136385666","","","","","","","","","","","72","H","0","img/none_selected.jpg","","185","main_expt"
"356","","bandit","264","714346","0.0-225.0-0.0","97718853","wem/bandit_either","A2P76QVLSGJR45","either","4","","","","","","","0","0","1","0.1885113298","","0.8","0.2","0.6","0.4","","","","","0.1885113298","0.1383531569","0.1254261761","0.1848043888","","","","","","","72","H","0","img/none_selected.jpg","","186","main_expt"
"410","","bandit","265","716536","0.0-226.0-0.0","97718853","wem/bandit_either","A2P76QVLSGJR45","either","4","","","","","","","0","0","1","0.1640989128","","0.8","0.2","0.6","0.4","","","","","0.2088125345","0.1739713275","0.1081798115","0.1640989128","","","","","","","76","L","3","","","187","main_expt"
"430","","bandit","266","719788","0.0-227.0-0.0","97718853","wem/bandit_either","A2P76QVLSGJR45","either","4","","","","","","","0","0","1","","0.1301402021","0.8","0.2","0.6","0.4","0.2228369986","0.1926366302","0.08529062399","0.1301402021","","","","","","","","","","","76","L","3","","","188","main_expt"
"406","","bandit","267","721728","0.0-228.0-0.0","97718853","wem/bandit_either","A2P76QVLSGJR45","either","4","","","","","","","0","0","1","0.07250281893","","0.8","0.2","0.6","0.4","","","","","0.2567428292","0.2499935398","0.07250281893","0.1980942663","","","","","","","75","K","2","","","189","main_expt"
"670","","bandit","268","723939","0.0-229.0-0.0","97718853","wem/bandit_either","A2P76QVLSGJR45","either","4","","","","","","","0","0","1","","0.07895395147","0.8","0.2","0.6","0.4","0.3177850294","0.2367317824","0.07895395147","0.1842725295","","","","","","","","","","","75","K","2","","","190","main_expt"
"467","","bandit","269","725938","0.0-230.0-0.0","97718853","wem/bandit_either","A2P76QVLSGJR45","either","4","","","","","","","0","0","1","0.2515026666","","0.8","0.2","0.6","0.4","","","","","0.2876912335","0.2515026666","0.06204701637","0.2087081259","","","","","","","74","J","1","","","191","main_expt"
"374","","bandit","270","727843","0.0-231.0-0.0","97718853","wem/bandit_either","A2P76QVLSGJR45","either","4","","","","","","","0","1","0","","0.2451916405","0.8","0.2","0.6","0.4","0.2383873749","0.2451916405","0.064067899","0.1800110976","","","","","","","","","","","74","J","1","","","192","main_expt"
"587","","bandit","271","729974","0.0-232.0-0.0","97718853","wem/bandit_either","A2P76QVLSGJR45","either","4","","","","","","","0","0","1","","0.2353451433","0.8","0.2","0.6","0.4","0.24690957","0.2353451433","0.1286650472","0.1519186298","","","","","","","","","","","74","J","1","","","193","main_expt"
"536","","bandit","272","732105","0.0-233.0-0.0","97718853","wem/bandit_either","A2P76QVLSGJR45","either","4","","","","","","","0","0","1","","0.307075739","0.8","0.2","0.6","0.4","0.2728455101","0.307075739","0.1746490116","0.1431656489","","","","","","","","","","","74","J","1","","","194","main_expt"
"495","","bandit","273","734137","0.0-234.0-0.0","97718853","wem/bandit_either","A2P76QVLSGJR45","either","4","","","","","","","0","0","1","","0.3011001907","0.8","0.2","0.6","0.4","0.2421292151","0.3011001907","0.129035247","0.1868251083","","","","","","","","","","","74","J","1","","","195","main_expt"
"518","","bandit","274","736479","0.0-235.0-0.0","97718853","wem/bandit_either","A2P76QVLSGJR45","either","4","","","","","","","0","1","0","","0.2861216794","0.8","0.2","0.6","0.4","0.2598052724","0.2861216794","0.09052040682","0.176624335","","","","","","","","","","","74","J","1","","","196","main_expt"
"413","","bandit","275","738427","0.0-236.0-0.0","97718853","wem/bandit_either","A2P76QVLSGJR45","either","4","","","","","","","0","0","1","0.2121549007","","0.8","0.2","0.6","0.4","","","","","0.2540930088","0.2121549007","0.08675464884","0.2383323772","","","","","","","74","J","1","","","197","main_expt"
"383","","bandit","276","740519","0.0-237.0-0.0","97718853","wem/bandit_either","A2P76QVLSGJR45","either","4","","","","","","","0","0","1","","0.260340052","0.8","0.2","0.6","0.4","0.2460150375","0.260340052","0.09429549835","0.260618614","","","","","","","","","","","74","J","1","","","198","main_expt"
"530","","bandit","277","742585","0.0-238.0-0.0","97718853","wem/bandit_either","A2P76QVLSGJR45","either","4","","","","","","","0","0","1","0.2935067364","","0.8","0.2","0.6","0.4","","","","","0.2217343644","0.3009562829","0.09303778716","0.2935067364","","","","","","","76","L","3","","","199","main_expt"
"400","","bandit","278","744541","0.0-239.0-0.0","97718853","wem/bandit_either","A2P76QVLSGJR45","either","4","","","","","","","0","1","0","","0.362920627","0.8","0.2","0.6","0.4","0.2830302048","0.3430896668","0.07354084322","0.362920627","","","","","","","","","","","76","L","3","","","200","main_expt"
"359","","bandit","279","746487","0.0-240.0-0.0","97718853","wem/bandit_either","A2P76QVLSGJR45","either","4","","","","","","","0","0","1","","0.3119044903","0.8","0.2","0.6","0.4","0.3175621279","0.2973668079","0.08115367452","0.3119044903","","","","","","","","","","","76","L","3","","","201","main_expt"
"526","","bandit","280","748559","0.0-241.0-0.0","97718853","wem/bandit_either","A2P76QVLSGJR45","either","4","","","","","","","1","0","0","0.3095695708","","0.8","0.2","0.6","0.4","","","","","0.3049471546","0.3219337599","0.0774842685","0.3095695708","","","","","","","76","L","3","","","202","main_expt"
"376","","bandit","281","750524","0.0-242.0-0.0","97718853","wem/bandit_either","A2P76QVLSGJR45","either","4","","","","","","","0","0","1","0.3005459379","","0.8","0.2","0.6","0.4","","","","","0.2975042969","0.3229991028","0.09704724367","0.3005459379","","","","","","","76","L","3","","","203","main_expt"
"340","","bandit","282","752584","0.0-243.0-0.0","97718853","wem/bandit_either","A2P76QVLSGJR45","either","4","","","","","","","0","1","0","","0.3116824409","0.8","0.2","0.6","0.4","0.2268457719","0.3077995671","0.1224111047","0.3116824409","","","","","","","","","","","76","L","3","","","204","main_expt"
"365","","bandit","283","754615","0.0-244.0-0.0","97718853","wem/bandit_either","A2P76QVLSGJR45","either","4","","","","","","","0","1","0","","0.3291635812","0.8","0.2","0.6","0.4","0.2582085449","0.3070199156","0.1627664319","0.3291635812","","","","","","","","","","","76","L","3","","","205","main_expt"
"329","","bandit","284","756589","0.0-245.0-0.0","97718853","wem/bandit_either","A2P76QVLSGJR45","either","4","","","","","","","0","0","1","","0.4008790519","0.8","0.2","0.6","0.4","0.2841247045","0.3109683939","0.1604236747","0.4008790519","","","","","","","","","","","76","L","3","","","206","main_expt"
"477","","bandit","285","758848","0.0-246.0-0.0","97718853","wem/bandit_either","A2P76QVLSGJR45","either","4","","","","","","","0","0","1","0.4202180382","","0.8","0.2","0.6","0.4","","","","","0.3333225396","0.2845075958","0.126388554","0.4202180382","","","","","","","76","L","3","","","207","main_expt"
"386","","bandit","286","760772","0.0-247.0-0.0","97718853","wem/bandit_either","A2P76QVLSGJR45","either","4","","","","","","","1","0","0","0.4168586074","","0.8","0.2","0.6","0.4","","","","","0.290219871","0.2419557814","0.1602309633","0.4168586074","","","","","","","76","L","3","","","208","main_expt"
"625","","bandit","287","763339","0.0-248.0-0.0","97718853","wem/bandit_either","A2P76QVLSGJR45","either","4","","","","","","","0","0","1","","0.3949328033","0.8","0.2","0.6","0.4","0.3426384504","0.2449545816","0.2009997365","0.3949328033","","","","","","","","","","","76","L","3","","","209","main_expt"
"344","","bandit","288","765370","0.0-249.0-0.0","97718853","wem/bandit_either","A2P76QVLSGJR45","either","4","","","","","","","0","0","1","","0.41782505","0.8","0.2","0.6","0.4","0.2932754766","0.2176860071","0.1997114924","0.41782505","","","","","","","","","","","76","L","3","","","210","main_expt"
"429","","bandit","289","767330","0.0-250.0-0.0","97718853","wem/bandit_either","A2P76QVLSGJR45","either","4","","","","","","","0","0","1","","0.4377941382","0.8","0.2","0.6","0.4","0.2522206247","0.2460847292","0.2631807131","0.4377941382","","","","","","","","","","","76","L","3","","","211","main_expt"
"403","","bandit","290","769488","0.0-251.0-0.0","97718853","wem/bandit_either","A2P76QVLSGJR45","either","4","","","","","","","0","1","0","","0.4619006446","0.8","0.2","0.6","0.4","0.2323705111","0.2017704833","0.2008991105","0.4619006446","","","","","","","","","","","76","L","3","","","212","main_expt"
"398","","bandit","291","771448","0.0-252.0-0.0","97718853","wem/bandit_either","A2P76QVLSGJR45","either","4","","","","","","","0","0","1","","0.4508737721","0.8","0.2","0.6","0.4","0.2815580385","0.1891715169","0.1656487101","0.4508737721","","","","","","","","","","","76","L","3","","","213","main_expt"
"415","","bandit","292","773595","0.0-253.0-0.0","97718853","wem/bandit_either","A2P76QVLSGJR45","either","4","","","","","","","0","0","1","0.4639731149","","0.8","0.2","0.6","0.4","","","","","0.2955812139","0.1819308411","0.213788386","0.4639731149","","","","","","","76","L","3","","","214","main_expt"
"377","","bandit","293","775504","0.0-254.0-0.0","97718853","wem/bandit_either","A2P76QVLSGJR45","either","4","","","","","","","0","0","1","","0.2206736926","0.8","0.2","0.6","0.4","0.2988647484","0.1406935411","0.2206736926","0.4690757113","","","","","","","","","","","75","K","2","","","215","main_expt"
"357","","bandit","294","777389","0.0-255.0-0.0","97718853","wem/bandit_either","A2P76QVLSGJR45","either","4","","","","","","","0","0","1","","0.2270120675","0.8","0.2","0.6","0.4","0.3361974059","0.206739756","0.2270120675","0.4685680314","","","","","","","","","","","75","K","2","","","216","main_expt"
"592","","bandit","295","779522","0.0-256.0-0.0","97718853","wem/bandit_either","A2P76QVLSGJR45","either","4","","","","","","","0","0","1","","0.2561581829","0.8","0.2","0.6","0.4","0.2764506131","0.178624692","0.2561581829","0.4873952874","","","","","","","","","","","75","K","2","","","217","main_expt"
"400","","bandit","296","781678","0.0-257.0-0.0","97718853","wem/bandit_either","A2P76QVLSGJR45","either","4","","","","","","","0","1","0","","0.2021641755","0.8","0.2","0.6","0.4","0.299893698","0.2021641755","0.2785758431","0.4790671899","","","","","","","","","","","74","J","1","","","218","main_expt"
"462","","bandit","297","783671","0.0-258.0-0.0","97718853","wem/bandit_either","A2P76QVLSGJR45","either","4","","","","","","","0","0","1","","0.2076996705","0.8","0.2","0.6","0.4","0.3213687962","0.2076996705","0.2707863597","0.4769795117","","","","","","","","","","","74","J","1","","","219","main_expt"
"654","","bandit","298","785870","0.0-259.0-0.0","97718853","wem/bandit_either","A2P76QVLSGJR45","either","4","","","","","","","0","0","1","","0.2479045362","0.8","0.2","0.6","0.4","0.3782095139","0.2479045362","0.2262269101","0.4746148145","","","","","","","","","","","74","J","1","","","220","main_expt"
"457","","bandit","299","787866","0.0-260.0-0.0","97718853","wem/bandit_either","A2P76QVLSGJR45","either","4","","","","","","","0","0","1","","0.251163546","0.8","0.2","0.6","0.4","0.3572699546","0.251163546","0.2522421151","0.4789253058","","","","","","","","","","","74","J","1","","","221","main_expt"
"399","","bandit","300","789797","0.0-261.0-0.0","97718853","wem/bandit_either","A2P76QVLSGJR45","either","4","","","","","","","0","1","0","","0.4765400837","0.8","0.2","0.6","0.4","0.332217079","0.2653622565","0.2323100388","0.4765400837","","","","","","","","","","","76","L","3","","","222","main_expt"
"495","","bandit","301","792124","0.0-262.0-0.0","97718853","wem/bandit_either","A2P76QVLSGJR45","either","4","","","","","","","0","0","1","","0.4872993944","0.8","0.2","0.6","0.4","0.3327789551","0.2034578964","0.2013525365","0.4872993944","","","","","","","","","","","76","L","3","","","223","main_expt"
"526","","bandit","302","794434","0.0-263.0-0.0","97718853","wem/bandit_either","A2P76QVLSGJR45","either","4","","","","","","","0","0","1","","0.4864577786","0.8","0.2","0.6","0.4","0.3720138676","0.1176985371","0.2017363432","0.4864577786","","","","","","","","","","","76","L","3","","","224","main_expt"
"612","","bandit","303","797484","0.0-264.0-0.0","97718853","wem/bandit_either","A2P76QVLSGJR45","either","4","","","","","","","1","0","0","0.4815865163","","0.8","0.2","0.6","0.4","","","","","0.4035982493","0.08531446518","0.1608447522","0.4815865163","","","","","","","76","L","3","","","225","main_expt"
"470","","bandit","304","799529","0.0-265.0-0.0","97718853","wem/bandit_either","A2P76QVLSGJR45","either","4","","","","","","","0","0","1","","0.4781941344","0.8","0.2","0.6","0.4","0.3538577565","0.0901010045","0.2023183299","0.4781941344","","","","","","","","","","","76","L","3","","","226","main_expt"
"399","","bandit","305","801699","0.0-266.0-0.0","97718853","wem/bandit_either","A2P76QVLSGJR45","either","4","","","","","","","0","0","1","0.4742279627","","0.8","0.2","0.6","0.4","","","","","0.4205879778","0.06499555022","0.1555458008","0.4742279627","","","","","","","76","L","3","","","227","main_expt"
"317","","bandit","306","803566","0.0-267.0-0.0","97718853","wem/bandit_either","A2P76QVLSGJR45","either","4","","","","","","","0","0","1","","0.4597327255","0.8","0.2","0.6","0.4","0.4082381823","0.06967502077","0.1210896773","0.4597327255","","","","","","","","","","","76","L","3","","","228","main_expt"
"528","","bandit","307","805628","0.0-268.0-0.0","97718853","wem/bandit_either","A2P76QVLSGJR45","either","4","","","","","","","0","1","0","","0.4274963613","0.8","0.2","0.6","0.4","0.4274963613","0.07642173418","0.1206830913","0.4733003713","","","","","","","","","","","72","H","0","img/none_selected.jpg","","229","main_expt"
"360","","bandit","308","807575","0.0-269.0-0.0","97718853","wem/bandit_either","A2P76QVLSGJR45","either","4","","","","","","","0","1","0","","0.4362488765","0.8","0.2","0.6","0.4","0.4362488765","0.04973788902","0.1334008039","0.4832022084","","","","","","","","","","","72","H","0","img/none_selected.jpg","","230","main_expt"
"395","","bandit","309","809652","0.0-270.0-0.0","97718853","wem/bandit_either","A2P76QVLSGJR45","either","4","","","","","","","0","1","0","","0.4420629534","0.8","0.2","0.6","0.4","0.4420629534","0.07419495466","0.1048467088","0.4802630573","","","","","","","","","","","72","H","0","img/none_selected.jpg","","231","main_expt"
"401","","bandit","310","811590","0.0-271.0-0.0","97718853","wem/bandit_either","A2P76QVLSGJR45","either","4","","","","","","","1","0","0","0.4287414635","","0.8","0.2","0.6","0.4","","","","","0.4287414635","0.08125260149","0.1184002818","0.4739318499","","","","","","","72","H","0","img/none_selected.jpg","","232","main_expt"
"343","","bandit","311","813467","0.0-272.0-0.0","97718853","wem/bandit_either","A2P76QVLSGJR45","either","4","","","","","","","0","0","1","0.4395511981","","0.8","0.2","0.6","0.4","","","","","0.4395511981","0.06057073796","0.08533064469","0.4709765286","","","","","","","72","H","0","img/none_selected.jpg","","233","main_expt"
"1389","","bandit","312","816591","0.0-273.0-0.0","97718853","wem/bandit_either","A2P76QVLSGJR45","either","4","","","","","","","0","0","1","0.4479240545","","0.8","0.2","0.6","0.4","","","","","0.4479240545","0.1037411708","0.1190123434","0.4658145356","","","","","","","72","H","0","img/none_selected.jpg","","234","main_expt"
"1026","","bandit","313","819165","0.0-274.0-0.0","97718853","wem/bandit_either","A2P76QVLSGJR45","either","4","","","","","","","0","0","1","","0.1267441937","0.8","0.2","0.6","0.4","0.4476644646","0.1267441937","0.1392024459","0.4312508187","","","","","","","","","","","74","J","1","","","235","main_expt"
"1322","","bandit","314","822534","0.0-275.0-0.0","97718853","wem/bandit_either","A2P76QVLSGJR45","either","4","","","","","","","0","0","1","","0.1002206095","0.8","0.2","0.6","0.4","0.457106966","0.1002206095","0.1076242464","0.4323277229","","","","","","","","","","","74","J","1","","","236","main_expt"
"414","","bandit","315","824495","0.0-276.0-0.0","97718853","wem/bandit_either","A2P76QVLSGJR45","either","4","","","","","","","0","0","1","0.1539911713","","0.8","0.2","0.6","0.4","","","","","0.4097288684","0.08353940566","0.1539911713","0.4517679415","","","","","","","75","K","2","","","237","main_expt"
"661","","bandit","316","826698","0.0-277.0-0.0","97718853","wem/bandit_either","A2P76QVLSGJR45","either","4","","","","","","","0","0","1","0.1833253983","","0.8","0.2","0.6","0.4","","","","","0.4530646831","0.07847158511","0.1833253983","0.4476427196","","","","","","","75","K","2","","","238","main_expt"
"390","","bandit","317","828631","0.0-278.0-0.0","97718853","wem/bandit_either","A2P76QVLSGJR45","either","4","","","","","","","0","0","1","0.185515968","","0.8","0.2","0.6","0.4","","","","","0.4532148127","0.1132310855","0.185515968","0.4421551546","","","","","","","75","K","2","","","239","main_expt"
"440","","bandit","318","830745","0.0-279.0-0.0","97718853","wem/bandit_either","A2P76QVLSGJR45","either","4","","","","","","","0","1","0","","0.4205303603","0.8","0.2","0.6","0.4","0.4456906816","0.130249024","0.2545144829","0.4205303603","","","","","","","","","","","76","L","3","","","240","main_expt"
"408","","bandit","319","832731","0.0-280.0-0.0","97718853","wem/bandit_either","A2P76QVLSGJR45","either","4","","","","","","","0","0","1","","0.4304808994","0.8","0.2","0.6","0.4","0.4515134246","0.1356270161","0.1902236802","0.4304808994","","","","","","","","","","","76","L","3","","","241","main_expt"
"244","","bandit","320","834514","0.0-281.0-0.0","97718853","wem/bandit_either","A2P76QVLSGJR45","either","4","","","","","","","0","0","1","","0.4318168925","0.8","0.2","0.6","0.4","0.4640222466","0.1402569013","0.2196571485","0.4318168925","","","","","","","","","","","76","L","3","","","242","main_expt"
"850","","bandit","321","836901","0.0-282.0-0.0","97718853","wem/bandit_either","A2P76QVLSGJR45","either","4","","","","","","","1","0","0","0.4437639365","","0.8","0.2","0.6","0.4","","","","","0.4305348251","0.1851652895","0.2691755858","0.4437639365","","","","","","","76","L","3","","","243","main_expt"
"1085","","bandit","322","839527","0.0-283.0-0.0","97718853","wem/bandit_either","A2P76QVLSGJR45","either","4","","","","","","","0","1","0","","0.4444545885","0.8","0.2","0.6","0.4","0.4444417595","0.1871667761","0.2689580194","0.4444545885","","","","","","","","","","","76","L","3","","","244","main_expt"
"1337","","bandit","323","842661","0.0-284.0-0.0","97718853","wem/bandit_either","A2P76QVLSGJR45","either","4","","","","","","","0","0","1","","0.445216333","0.8","0.2","0.6","0.4","0.4468105605","0.1881322931","0.1935089033","0.445216333","","","","","","","","","","","76","L","3","","","245","main_expt"
"1739","","bandit","324","845931","0.0-285.0-0.0","97718853","wem/bandit_either","A2P76QVLSGJR45","either","4","","","","","","","0","0","1","0.1466547275","","0.8","0.2","0.6","0.4","","","","","0.4453418505","0.187853128","0.1466547275","0.4767449203","","","","","","","75","K","2","","","246","main_expt"
"721","","bandit","325","848531","0.0-286.0-0.0","97718853","wem/bandit_either","A2P76QVLSGJR45","either","4","","","","","","","0","1","0","","0.1275107348","0.8","0.2","0.6","0.4","0.4426138654","0.1952756904","0.1275107348","0.4530054638","","","","","","","","","","","75","K","2","","","247","main_expt"
"1137","","bandit","326","851333","0.0-287.0-0.0","97718853","wem/bandit_either","A2P76QVLSGJR45","either","4","","","","","","","0","0","1","","0.107785627","0.8","0.2","0.6","0.4","0.464375056","0.1722543521","0.107785627","0.4326938674","","","","","","","","","","","75","K","2","","","248","main_expt"
"1821","","bandit","327","854694","0.0-288.0-0.0","97718853","wem/bandit_either","A2P76QVLSGJR45","either","4","","","","","","","0","0","1","0.1169449123","","0.8","0.2","0.6","0.4","","","","","0.4416705694","0.1935833679","0.1169449123","0.4276367863","","","","","","","75","K","2","","","249","main_expt"
"1896","","bandit","328","858139","0.0-289.0-0.0","97718853","wem/bandit_either","A2P76QVLSGJR45","either","4","","","","","","","0","0","1","","0.1474950258","0.8","0.2","0.6","0.4","0.4352039605","0.1783221165","0.1474950258","0.4602627553","","","","","","","","","","","75","K","2","","","250","main_expt"
"545","","bandit","329","860475","0.0-290.0-0.0","97718853","wem/bandit_either","A2P76QVLSGJR45","either","4","","","","","","","0","1","0","","0.2191654692","0.8","0.2","0.6","0.4","0.4625669079","0.2191654692","0.1272017844","0.4429671406","","","","","","","","","","","74","J","1","","","251","main_expt"
"2011","","bandit","330","864038","0.0-291.0-0.0","97718853","wem/bandit_either","A2P76QVLSGJR45","either","4","","","","","","","0","1","0","","0.2357097141","0.8","0.2","0.6","0.4","0.4714010403","0.2357097141","0.1383509771","0.4423062834","","","","","","","","","","","74","J","1","","","252","main_expt"
"1037","","bandit","331","867142","0.0-292.0-0.0","97718853","wem/bandit_either","A2P76QVLSGJR45","either","4","","","","","","","0","1","0","","0.214143541","0.8","0.2","0.6","0.4","0.4487775435","0.214143541","0.1251389104","0.4509963191","","","","","","","","","","","74","J","1","","","253","main_expt"
"865","","bandit","332","869543","0.0-293.0-0.0","97718853","wem/bandit_either","A2P76QVLSGJR45","either","4","","","","","","","0","0","1","","0.2603333519","0.8","0.2","0.6","0.4","0.4801031999","0.2603333519","0.1660910957","0.4552381636","","","","","","","","","","","74","J","1","","","254","main_expt"
