"consent","trial_type","trial_index","time_elapsed","internal_node_id","subjID","study","MID","cond","drift","rt","responses","key_press","expt_phase","like","value","connected","gems","bombs","no_reward","GemPrChosen","BombPrChosen","GainOverPainPr_0","GainOverPainPr_1","GainOverPainPr_2","GainOverPainPr_3","LosePr_0","LosePr_1","LosePr_2","LosePr_3","WinPr_0","WinPr_1","WinPr_2","WinPr_3","Q0","Q1","Q2","gender","age","ethnicity","target","respCharCode","respKey","respChoiceNum","respChoice","practice","trial_counter","trial_label"
"INL_behavioral_consent_30min_online.html","consent","0","49729","0.0-0.0","00296076","wem/bandit_either_2","ACDX50KGPE97I","either","7","","","","","","","","","","","","","","","","","","","","","","","","","","","","","","","","","","","","","",""
"","survey-text","1","64140","0.0-1.0","00296076","wem/bandit_either_2","ACDX50KGPE97I","either","7","13403","{""Q0"":""ACDX50KGPE97I""}","","","","","","","","","","","","","","","","","","","","","","","","","","","","","","","","","","","",""
"","text","2","85770","0.0-2.0","00296076","wem/bandit_either_2","ACDX50KGPE97I","either","7","20628","","32","","","","","","","","","","","","","","","","","","","","","","","","","","","","","","","","","","",""
"","text","3","93753","0.0-3.0","00296076","wem/bandit_either_2","ACDX50KGPE97I","either","7","7981","","32","","","","","","","","","","","","","","","","","","","","","","","","","","","","","","","","","","",""
"","text","4","118040","0.0-4.0","00296076","wem/bandit_either_2","ACDX50KGPE97I","either","7","24286","","32","","","","","","","","","","","","","","","","","","","","","","","","","","","","","","","","","","",""
"","text","5","135875","0.0-5.0","00296076","wem/bandit_either_2","ACDX50KGPE97I","either","7","17832","","32","","","","","","","","","","","","","","","","","","","","","","","","","","","","","","","","","","",""
"","text","6","152548","0.0-6.0","00296076","wem/bandit_either_2","ACDX50KGPE97I","either","7","16671","","32","","","","","","","","","","","","","","","","","","","","","","","","","","","","","","","","","","",""
"","text","7","161539","0.0-7.0","00296076","wem/bandit_either_2","ACDX50KGPE97I","either","7","8988","","32","","","","","","","","","","","","","","","","","","","","","","","","","","","","","","","","","","",""
"","text","8","167074","0.0-8.0","00296076","wem/bandit_either_2","ACDX50KGPE97I","either","7","5533","","32","","","","","","","","","","","","","","","","","","","","","","","","","","","","","","","","","","",""
"","identification","9","176264","0.0-9.0-0.0","00296076","wem/bandit_either_2","ACDX50KGPE97I","either","7","9174","","","","3","4","3","","","","","","","","","","","","","","","","","","","","","","","","the village of Zur","","","","","","",""
"","identification","10","182681","0.0-9.0-1.0","00296076","wem/bandit_either_2","ACDX50KGPE97I","either","7","5394","","","","2","2","2","","","","","","","","","","","","","","","","","","","","","","","","the village of Nyx","","","","","","",""
"","text","11","191220","0.0-10.0","00296076","wem/bandit_either_2","ACDX50KGPE97I","either","7","7536","","32","","","","","","","","","","","","","","","","","","","","","","","","","","","","","","","","","","",""
"","text","12","195577","0.0-11.0","00296076","wem/bandit_either_2","ACDX50KGPE97I","either","7","4356","","32","","","","","","","","","","","","","","","","","","","","","","","","","","","","","","","","","","",""
"","text","13","197427","0.0-12.0","00296076","wem/bandit_either_2","ACDX50KGPE97I","either","7","1847","","32","","","","","","","","","","","","","","","","","","","","","","","","","","","","","","","","","","",""
"","text","14","202586","0.0-13.0","00296076","wem/bandit_either_2","ACDX50KGPE97I","either","7","5157","","32","","","","","","","","","","","","","","","","","","","","","","","","","","","","","","","","","","",""
"","bandit","15","206938","0.0-14.0-0.0","00296076","wem/bandit_either_2","ACDX50KGPE97I","either","7","2845","","","","","","","0","0","1","0","0","","","","","0","","","","0","","","","","","","","","","","74","J","0","img/none_selected_demo.jpg","true","0",""
"","bandit","16","209606","0.0-15.0-0.0","00296076","wem/bandit_either_2","ACDX50KGPE97I","either","7","1162","","","","","","","0","0","1","0","0","","","","","0","","","","0","","","","","","","","","","","75","K","0","img/none_selected_demo.jpg","true","0",""
"","text","17","222107","0.0-16.0","00296076","wem/bandit_either_2","ACDX50KGPE97I","either","7","12497","","32","","","","","","","","","","","","","","","","","","","","","","","","","","","","","","","","","","",""
"","text","18","232587","0.0-17.0","00296076","wem/bandit_either_2","ACDX50KGPE97I","either","7","10478","","32","","","","","","","","","","","","","","","","","","","","","","","","","","","","","","","","","","",""
"","text","19","240562","0.0-18.0","00296076","wem/bandit_either_2","ACDX50KGPE97I","either","7","7972","","32","","","","","","","","","","","","","","","","","","","","","","","","","","","","","","","","","","",""
"","text","20","247852","0.0-19.0","00296076","wem/bandit_either_2","ACDX50KGPE97I","either","7","7288","","32","","","","","","","","","","","","","","","","","","","","","","","","","","","","","","","","","","",""
"","bandit","21","250206","0.0-20.0-0.0","00296076","wem/bandit_either_2","ACDX50KGPE97I","either","7","848","","","","","","","0","0","1","0.2","","0.5","0.5","","","","","","","0.8","0.2","","","","","","","","","","75","K","1","","true","0","80_20_practice"
"","bandit","22","252046","0.0-20.0-1.0","00296076","wem/bandit_either_2","ACDX50KGPE97I","either","7","333","","","","","","","0","0","1","","0.8","0.5","0.5","","","0.8","0.2","","","","","","","","","","","","","","74","J","0","img/none_selected_demo.jpg","true","0","80_20_practice"
"","bandit","23","253845","0.0-20.0-2.0","00296076","wem/bandit_either_2","ACDX50KGPE97I","either","7","294","","","","","","","0","1","0","","0.8","0.5","0.5","","","0.8","0.2","","","","","","","","","","","","","","74","J","0","img/none_selected_demo.jpg","true","0","80_20_practice"
"","bandit","24","255703","0.0-20.0-3.0","00296076","wem/bandit_either_2","ACDX50KGPE97I","either","7","353","","","","","","","0","1","0","","0.8","0.5","0.5","","","0.8","0.2","","","","","","","","","","","","","","74","J","0","img/none_selected_demo.jpg","true","0","80_20_practice"
"","bandit","25","257486","0.0-20.0-4.0","00296076","wem/bandit_either_2","ACDX50KGPE97I","either","7","277","","","","","","","0","0","1","","0.8","0.5","0.5","","","0.8","0.2","","","","","","","","","","","","","","74","J","0","img/none_selected_demo.jpg","true","0","80_20_practice"
"","bandit","26","259084","0.0-20.0-5.0","00296076","wem/bandit_either_2","ACDX50KGPE97I","either","7","95","","","","","","","0","0","1","0.2","","0.5","0.5","","","","","","","0.8","0.2","","","","","","","","","","75","K","1","","true","0","80_20_practice"
"","bandit","27","260744","0.0-20.0-6.0","00296076","wem/bandit_either_2","ACDX50KGPE97I","either","7","155","","","","","","","0","0","1","0.2","","0.5","0.5","","","","","","","0.8","0.2","","","","","","","","","","75","K","1","","true","0","80_20_practice"
"","bandit","28","262366","0.0-20.0-7.0","00296076","wem/bandit_either_2","ACDX50KGPE97I","either","7","114","","","","","","","0","0","1","","0.8","0.5","0.5","","","0.8","0.2","","","","","","","","","","","","","","74","J","0","img/none_selected_demo.jpg","true","0","80_20_practice"
"","bandit","29","263968","0.0-20.0-8.0","00296076","wem/bandit_either_2","ACDX50KGPE97I","either","7","90","","","","","","","1","0","0","0.8","","0.5","0.5","","","","","","","0.8","0.2","","","","","","","","","","74","J","0","img/none_selected_demo.jpg","true","0","80_20_practice"
"","bandit","30","265743","0.0-20.0-9.0","00296076","wem/bandit_either_2","ACDX50KGPE97I","either","7","268","","","","","","","0","0","1","0.8","","0.5","0.5","","","","","","","0.8","0.2","","","","","","","","","","74","J","0","img/none_selected_demo.jpg","true","0","80_20_practice"
"","bandit","31","268093","0.0-20.0-10.0","00296076","wem/bandit_either_2","ACDX50KGPE97I","either","7","845","","","","","","","0","0","1","","0.8","0.5","0.5","","","0.8","0.2","","","","","","","","","","","","","","74","J","0","img/none_selected_demo.jpg","true","0","80_20_practice"
"","bandit","32","269725","0.0-20.0-11.0","00296076","wem/bandit_either_2","ACDX50KGPE97I","either","7","128","","","","","","","0","0","1","","0.2","0.5","0.5","","","0.8","0.2","","","","","","","","","","","","","","75","K","1","","true","0","80_20_practice"
"","bandit","33","271824","0.0-20.0-12.0","00296076","wem/bandit_either_2","ACDX50KGPE97I","either","7","589","","","","","","","0","0","1","","0.2","0.5","0.5","","","0.8","0.2","","","","","","","","","","","","","","75","K","1","","true","0","80_20_practice"
"","bandit","34","273439","0.0-20.0-13.0","00296076","wem/bandit_either_2","ACDX50KGPE97I","either","7","112","","","","","","","0","0","1","","0.2","0.5","0.5","","","0.8","0.2","","","","","","","","","","","","","","75","K","1","","true","0","80_20_practice"
"","bandit","35","275440","0.0-20.0-14.0","00296076","wem/bandit_either_2","ACDX50KGPE97I","either","7","494","","","","","","","0","1","0","","0.2","0.5","0.5","","","0.8","0.2","","","","","","","","","","","","","","75","K","1","","true","0","80_20_practice"
"","bandit","36","277213","0.0-20.0-15.0","00296076","wem/bandit_either_2","ACDX50KGPE97I","either","7","268","","","","","","","0","0","1","","0.2","0.5","0.5","","","0.8","0.2","","","","","","","","","","","","","","75","K","1","","true","0","80_20_practice"
"","bandit","37","278783","0.0-20.0-16.0","00296076","wem/bandit_either_2","ACDX50KGPE97I","either","7","65","","","","","","","0","0","1","0.8","","0.5","0.5","","","","","","","0.8","0.2","","","","","","","","","","74","J","0","img/none_selected_demo.jpg","true","0","80_20_practice"
"","bandit","38","280447","0.0-20.0-17.0","00296076","wem/bandit_either_2","ACDX50KGPE97I","either","7","160","","","","","","","1","0","0","0.8","","0.5","0.5","","","","","","","0.8","0.2","","","","","","","","","","74","J","0","img/none_selected_demo.jpg","true","0","80_20_practice"
"","bandit","39","282079","0.0-20.0-18.0","00296076","wem/bandit_either_2","ACDX50KGPE97I","either","7","127","","","","","","","0","0","1","0.8","","0.5","0.5","","","","","","","0.8","0.2","","","","","","","","","","74","J","0","img/none_selected_demo.jpg","true","0","80_20_practice"
"","bandit","40","283799","0.0-20.0-19.0","00296076","wem/bandit_either_2","ACDX50KGPE97I","either","7","215","","","","","","","0","0","1","0.8","","0.5","0.5","","","","","","","0.8","0.2","","","","","","","","","","74","J","0","img/none_selected_demo.jpg","true","0","80_20_practice"
"","text","41","288545","0.0-21.0","00296076","wem/bandit_either_2","ACDX50KGPE97I","either","7","4743","","32","","","","","","","","","","","","","","","","","","","","","","","","","","","","","","","","","","",""
"","bandit","42","292224","0.0-22.0-0.0","00296076","wem/bandit_either_2","ACDX50KGPE97I","either","7","2174","","","","","","","1","0","0","1","0","","","","","0","1","","","1","0","","","","","","","","","","74","J","0","img/none_selected_demo.jpg","true","0",""
"","text","43","299386","0.0-23.0","00296076","wem/bandit_either_2","ACDX50KGPE97I","either","7","7158","","32","","","","","","","","","","","","","","","","","","","","","","","","","","","","","","","","","","",""
"","text","44","303114","0.0-24.0","00296076","wem/bandit_either_2","ACDX50KGPE97I","either","7","3724","","32","","","","","","","","","","","","","","","","","","","","","","","","","","","","","","","","","","",""
"","text","45","306825","0.0-25.0","00296076","wem/bandit_either_2","ACDX50KGPE97I","either","7","3709","","32","","","","","","","","","","","","","","","","","","","","","","","","","","","","","","","","","","",""
"","text","46","310498","0.0-26.0","00296076","wem/bandit_either_2","ACDX50KGPE97I","either","7","3671","","32","","","","","","","","","","","","","","","","","","","","","","","","","","","","","","","","","","",""
"","text","47","329098","0.0-27.0","00296076","wem/bandit_either_2","ACDX50KGPE97I","either","7","18596","","32","","","","","","","","","","","","","","","","","","","","","","","","","","","","","","","","","","",""
"","text","48","332848","0.0-28.0","00296076","wem/bandit_either_2","ACDX50KGPE97I","either","7","3749","","32","","","","","","","","","","","","","","","","","","","","","","","","","","","","","","","","","","",""
"","text","49","336681","0.0-29.0","00296076","wem/bandit_either_2","ACDX50KGPE97I","either","7","3831","","32","","","","","","","","","","","","","","","","","","","","","","","","","","","","","","","","","","",""
"","text","50","340779","0.0-30.0","00296076","wem/bandit_either_2","ACDX50KGPE97I","either","7","4095","","32","","","","","","","","","","","","","","","","","","","","","","","","","","","","","","","","","","",""
"","text","51","345601","0.0-31.0","00296076","wem/bandit_either_2","ACDX50KGPE97I","either","7","4819","","32","","","","","","","","","","","","","","","","","","","","","","","","","","","","","","","","","","",""
"","text","52","348680","0.0-32.0","00296076","wem/bandit_either_2","ACDX50KGPE97I","either","7","3076","","32","","","","","","","","","","","","","","","","","","","","","","","","","","","","","","","","","","",""
"","text","53","351217","0.0-33.0","00296076","wem/bandit_either_2","ACDX50KGPE97I","either","7","2536","","32","","","","","","","","","","","","","","","","","","","","","","","","","","","","","","","","","","",""
"","bandit","54","355070","0.0-34.0-0.0","00296076","wem/bandit_either_2","ACDX50KGPE97I","either","7","2349","","","","","","","0","0","1","0.2","","0.5","0.5","0.5","0.5","","","","","0.8","0.2","0.6","0.2","","","","","","","","74","J","1","","true","0","full_practice"
"","bandit","55","356709","0.0-34.0-1.0","00296076","wem/bandit_either_2","ACDX50KGPE97I","either","7","132","","","","","","","1","0","0","0.6","","0.5","0.5","0.5","0.5","","","","","0.8","0.2","0.6","0.2","","","","","","","","75","K","2","","true","0","full_practice"
"","bandit","56","358279","0.0-34.0-2.0","00296076","wem/bandit_either_2","ACDX50KGPE97I","either","7","64","","","","","","","1","0","0","0.6","","0.5","0.5","0.5","0.5","","","","","0.8","0.2","0.6","0.2","","","","","","","","75","K","2","","true","0","full_practice"
"","bandit","57","359838","0.0-34.0-3.0","00296076","wem/bandit_either_2","ACDX50KGPE97I","either","7","51","","","","","","","1","0","0","0.6","","0.5","0.5","0.5","0.5","","","","","0.8","0.2","0.6","0.2","","","","","","","","75","K","2","","true","0","full_practice"
"","bandit","58","361421","0.0-34.0-4.0","00296076","wem/bandit_either_2","ACDX50KGPE97I","either","7","79","","","","","","","1","0","0","0.6","","0.5","0.5","0.5","0.5","","","","","0.8","0.2","0.6","0.2","","","","","","","","75","K","2","","true","0","full_practice"
"","bandit","59","362945","0.0-34.0-5.0","00296076","wem/bandit_either_2","ACDX50KGPE97I","either","7","19","","","","","","","0","0","1","0.6","","0.5","0.5","0.5","0.5","","","","","0.8","0.2","0.6","0.2","","","","","","","","75","K","2","","true","0","full_practice"
"","bandit","60","365125","0.0-34.0-6.0","00296076","wem/bandit_either_2","ACDX50KGPE97I","either","7","672","","","","","","","0","0","1","","0.6","0.5","0.5","0.5","0.5","0.8","0.2","0.6","0.2","","","","","","","","","","","","75","K","2","","true","0","full_practice"
"","bandit","61","366636","0.0-34.0-7.0","00296076","wem/bandit_either_2","ACDX50KGPE97I","either","7","8","","","","","","","0","0","1","0.2","","0.5","0.5","0.5","0.5","","","","","0.8","0.2","0.6","0.2","","","","","","","","76","L","3","","true","0","full_practice"
"","bandit","62","368606","0.0-34.0-8.0","00296076","wem/bandit_either_2","ACDX50KGPE97I","either","7","465","","","","","","","1","0","0","0.8","","0.5","0.5","0.5","0.5","","","","","0.8","0.2","0.6","0.2","","","","","","","","72","H","0","img/none_selected.jpg","true","0","full_practice"
"","bandit","63","370232","0.0-34.0-9.0","00296076","wem/bandit_either_2","ACDX50KGPE97I","either","7","119","","","","","","","1","0","0","0.8","","0.5","0.5","0.5","0.5","","","","","0.8","0.2","0.6","0.2","","","","","","","","72","H","0","img/none_selected.jpg","true","0","full_practice"
"","bandit","64","371863","0.0-34.0-10.0","00296076","wem/bandit_either_2","ACDX50KGPE97I","either","7","122","","","","","","","1","0","0","0.8","","0.5","0.5","0.5","0.5","","","","","0.8","0.2","0.6","0.2","","","","","","","","72","H","0","img/none_selected.jpg","true","0","full_practice"
"","bandit","65","373551","0.0-34.0-11.0","00296076","wem/bandit_either_2","ACDX50KGPE97I","either","7","178","","","","","","","0","0","1","","0.8","0.5","0.5","0.5","0.5","0.8","0.2","0.6","0.2","","","","","","","","","","","","72","H","0","img/none_selected.jpg","true","0","full_practice"
"","bandit","66","376150","0.0-34.0-12.0","00296076","wem/bandit_either_2","ACDX50KGPE97I","either","7","1092","","","","","","","0","0","1","0.2","","0.5","0.5","0.5","0.5","","","","","0.8","0.2","0.6","0.2","","","","","","","","74","J","1","","true","0","full_practice"
"","bandit","67","377681","0.0-34.0-13.0","00296076","wem/bandit_either_2","ACDX50KGPE97I","either","7","20","","","","","","","0","0","1","","0.2","0.5","0.5","0.5","0.5","0.8","0.2","0.6","0.2","","","","","","","","","","","","76","L","3","","true","0","full_practice"
"","bandit","68","379231","0.0-34.0-14.0","00296076","wem/bandit_either_2","ACDX50KGPE97I","either","7","41","","","","","","","0","0","1","0.6","","0.5","0.5","0.5","0.5","","","","","0.8","0.2","0.6","0.2","","","","","","","","75","K","2","","true","0","full_practice"
"","bandit","69","380775","0.0-34.0-15.0","00296076","wem/bandit_either_2","ACDX50KGPE97I","either","7","35","","","","","","","1","0","0","0.8","","0.5","0.5","0.5","0.5","","","","","0.8","0.2","0.6","0.2","","","","","","","","72","H","0","img/none_selected.jpg","true","0","full_practice"
"","bandit","70","382495","0.0-34.0-16.0","00296076","wem/bandit_either_2","ACDX50KGPE97I","either","7","215","","","","","","","0","1","0","","0.8","0.5","0.5","0.5","0.5","0.8","0.2","0.6","0.2","","","","","","","","","","","","72","H","0","img/none_selected.jpg","true","0","full_practice"
"","bandit","71","384157","0.0-34.0-17.0","00296076","wem/bandit_either_2","ACDX50KGPE97I","either","7","157","","","","","","","1","0","0","0.8","","0.5","0.5","0.5","0.5","","","","","0.8","0.2","0.6","0.2","","","","","","","","72","H","0","img/none_selected.jpg","true","0","full_practice"
"","bandit","72","385911","0.0-34.0-18.0","00296076","wem/bandit_either_2","ACDX50KGPE97I","either","7","249","","","","","","","1","0","0","0.8","","0.5","0.5","0.5","0.5","","","","","0.8","0.2","0.6","0.2","","","","","","","","72","H","0","img/none_selected.jpg","true","0","full_practice"
"","bandit","73","387597","0.0-34.0-19.0","00296076","wem/bandit_either_2","ACDX50KGPE97I","either","7","181","","","","","","","0","1","0","","0.8","0.5","0.5","0.5","0.5","0.8","0.2","0.6","0.2","","","","","","","","","","","","72","H","0","img/none_selected.jpg","true","0","full_practice"
"","text","74","390513","0.0-35.0","00296076","wem/bandit_either_2","ACDX50KGPE97I","either","7","2909","","32","","","","","","","","","","","","","","","","","","","","","","","","","","","","","","","","","","",""
"","text","75","403297","0.0-36.0","00296076","wem/bandit_either_2","ACDX50KGPE97I","either","7","11780","","32","","","","","","","","","","","","","","","","","","","","","","","","","","","","","","","","","","",""
"","text","76","411736","0.0-37.0","00296076","wem/bandit_either_2","ACDX50KGPE97I","either","7","8436","","32","","","","","","","","","","","","","","","","","","","","","","","","","","","","","","","","","","",""
"","text","77","421801","0.0-38.0","00296076","wem/bandit_either_2","ACDX50KGPE97I","either","7","10063","","32","","","","","","","","","","","","","","","","","","","","","","","","","","","","","","","","","","",""
"","text","78","428784","0.0-39.0","00296076","wem/bandit_either_2","ACDX50KGPE97I","either","7","6980","","32","","","","","","","","","","","","","","","","","","","","","","","","","","","","","","","","","","",""
"","text","79","434107","0.0-40.0","00296076","wem/bandit_either_2","ACDX50KGPE97I","either","7","5320","","32","","","","","","","","","","","","","","","","","","","","","","","","","","","","","","","","","","",""
"","bandit","80","436716","0.0-41.0-0.0","00296076","wem/bandit_either_2","ACDX50KGPE97I","either","7","1100","","","","","","","0","0","1","0.06530018083","","0.4","0.6","0.8","0.2","","","","","0.1480066451","0.06530018083","0.01738065524","0.1952616071","","","","","","","","74","J","1","","","1","main_expt"
"","bandit","81","438279","0.0-42.0-0.0","00296076","wem/bandit_either_2","ACDX50KGPE97I","either","7","58","","","","","","","0","0","1","0.0196943787","","0.4","0.6","0.8","0.2","","","","","0.1053714073","0.1011701763","0.0196943787","0.1652234336","","","","","","","","75","K","2","","","2","main_expt"
"","bandit","82","439863","0.0-43.0-0.0","00296076","wem/bandit_either_2","ACDX50KGPE97I","either","7","74","","","","","","","0","0","1","","0.1460078221","0.4","0.6","0.8","0.2","0.1460078221","0.09486719381","0.01678573497","0.1347382479","","","","","","","","","","","","72","H","0","img/none_selected.jpg","","3","main_expt"
"","bandit","83","441428","0.0-44.0-0.0","00296076","wem/bandit_either_2","ACDX50KGPE97I","either","7","61","","","","","","","0","0","1","0.1684625442","","0.4","0.6","0.8","0.2","","","","","0.1866138214","0.06705802814","0.02981965743","0.1684625442","","","","","","","","76","L","3","","","4","main_expt"
"","bandit","84","443032","0.0-45.0-0.0","00296076","wem/bandit_either_2","ACDX50KGPE97I","either","7","97","","","","","","","1","0","0","0.0822298525","","0.4","0.6","0.8","0.2","","","","","0.2445348717","0.0822298525","0.02600208211","0.1792029032","","","","","","","","74","J","1","","","5","main_expt"
"","bandit","85","444599","0.0-46.0-0.0","00296076","wem/bandit_either_2","ACDX50KGPE97I","either","7","57","","","","","","","1","0","0","0.09162209411","","0.4","0.6","0.8","0.2","","","","","0.2546962146","0.09162209411","0.02332436933","0.2153873139","","","","","","","","74","J","1","","","6","main_expt"
"","bandit","86","446216","0.0-47.0-0.0","00296076","wem/bandit_either_2","ACDX50KGPE97I","either","7","105","","","","","","","0","0","1","0.1028820098","","0.4","0.6","0.8","0.2","","","","","0.2344841702","0.1028820098","0.02864040813","0.1757762721","","","","","","","","74","J","1","","","7","main_expt"
"","bandit","87","447782","0.0-48.0-0.0","00296076","wem/bandit_either_2","ACDX50KGPE97I","either","7","60","","","","","","","0","0","1","0.1532270122","","0.4","0.6","0.8","0.2","","","","","0.2473344203","0.1532270122","0.02951264166","0.2241229746","","","","","","","","74","J","1","","","8","main_expt"
"","bandit","88","449750","0.0-49.0-0.0","00296076","wem/bandit_either_2","ACDX50KGPE97I","either","7","457","","","","","","","0","0","1","0.02997011939","","0.4","0.6","0.8","0.2","","","","","0.2642160399","0.2131450397","0.02997011939","0.2199426203","","","","","","","","75","K","2","","","9","main_expt"
"","bandit","89","451511","0.0-50.0-0.0","00296076","wem/bandit_either_2","ACDX50KGPE97I","either","7","250","","","","","","","0","0","1","0.1520686932","","0.4","0.6","0.8","0.2","","","","","0.2104627424","0.2985754635","0.02489651457","0.1520686932","","","","","","","","76","L","3","","","10","main_expt"
"","bandit","90","453095","0.0-51.0-0.0","00296076","wem/bandit_either_2","ACDX50KGPE97I","either","7","76","","","","","","","0","0","1","","0.219372878","0.4","0.6","0.8","0.2","0.219372878","0.2924640086","0.01651058827","0.2013349999","","","","","","","","","","","","72","H","0","img/none_selected.jpg","","11","main_expt"
"","bandit","91","455080","0.0-52.0-0.0","00296076","wem/bandit_either_2","ACDX50KGPE97I","either","7","473","","","","","","","0","0","1","0.02341729431","","0.4","0.6","0.8","0.2","","","","","0.2105839871","0.3264291113","0.02341729431","0.2156800105","","","","","","","","75","K","2","","","12","main_expt"
"","bandit","92","456711","0.0-53.0-0.0","00296076","wem/bandit_either_2","ACDX50KGPE97I","either","7","124","","","","","","","0","0","1","0.1833947696","","0.4","0.6","0.8","0.2","","","","","0.2511698571","0.3254913314","0.0257410372","0.1833947696","","","","","","","","76","L","3","","","13","main_expt"
"","bandit","93","458254","0.0-54.0-0.0","00296076","wem/bandit_either_2","ACDX50KGPE97I","either","7","36","","","","","","","0","0","1","0.3428504842","","0.4","0.6","0.8","0.2","","","","","0.2158977649","0.3428504842","0.02570014082","0.243643366","","","","","","","","74","J","1","","","14","main_expt"
"","bandit","94","459927","0.0-55.0-0.0","00296076","wem/bandit_either_2","ACDX50KGPE97I","either","7","167","","","","","","","0","0","1","0.3244047679","","0.4","0.6","0.8","0.2","","","","","0.2762480727","0.3244047679","0.04268316416","0.2265365198","","","","","","","","74","J","1","","","15","main_expt"
"","bandit","95","461470","0.0-56.0-0.0","00296076","wem/bandit_either_2","ACDX50KGPE97I","either","7","34","","","","","","","1","0","0","0.3202890724","","0.4","0.6","0.8","0.2","","","","","0.3202890724","0.3025313629","0.04667408308","0.2484951132","","","","","","","","72","H","0","img/none_selected.jpg","","16","main_expt"
"","bandit","96","463311","0.0-57.0-0.0","00296076","wem/bandit_either_2","ACDX50KGPE97I","either","7","336","","","","","","","0","0","1","","0.3680552247","0.4","0.6","0.8","0.2","0.3680552247","0.3291216938","0.0506688767","0.2570267238","","","","","","","","","","","","72","H","0","img/none_selected.jpg","","17","main_expt"
"","bandit","97","465311","0.0-58.0-0.0","00296076","wem/bandit_either_2","ACDX50KGPE97I","either","7","494","","","","","","","0","1","0","","0.3968593921","0.4","0.6","0.8","0.2","0.3968593921","0.2987881532","0.02988526167","0.287418789","","","","","","","","","","","","72","H","0","img/none_selected.jpg","","18","main_expt"
"","bandit","98","467072","0.0-59.0-0.0","00296076","wem/bandit_either_2","ACDX50KGPE97I","either","7","255","","","","","","","0","0","1","0.4192996399","","0.4","0.6","0.8","0.2","","","","","0.4192996399","0.281207523","0.03476350355","0.2338710899","","","","","","","","72","H","0","img/none_selected.jpg","","19","main_expt"
"","bandit","99","469008","0.0-60.0-0.0","00296076","wem/bandit_either_2","ACDX50KGPE97I","either","7","429","","","","","","","0","0","1","0.0233687216","","0.4","0.6","0.8","0.2","","","","","0.4362768361","0.291129981","0.0233687216","0.2335293464","","","","","","","","75","K","2","","","20","main_expt"
"","bandit","100","470523","0.0-61.0-0.0","00296076","wem/bandit_either_2","ACDX50KGPE97I","either","7","3","","","","","","","0","0","1","","0.2434826965","0.4","0.6","0.8","0.2","0.4599691003","0.2729578326","0.01272547494","0.2434826965","","","","","","","","","","","","76","L","3","","","21","main_expt"
"","bandit","101","472254","0.0-62.0-0.0","00296076","wem/bandit_either_2","ACDX50KGPE97I","either","7","223","","","","","","","0","0","1","0.2805141014","","0.4","0.6","0.8","0.2","","","","","0.44353765","0.2805141014","0.01739491555","0.2702300591","","","","","","","","74","J","1","","","22","main_expt"
"","bandit","102","473775","0.0-63.0-0.0","00296076","wem/bandit_either_2","ACDX50KGPE97I","either","7","15","","","","","","","0","0","1","","0.2424740502","0.4","0.6","0.8","0.2","0.4105594395","0.3016389313","0.006692102231","0.2424740502","","","","","","","","","","","","76","L","3","","","23","main_expt"
"","bandit","103","475605","0.0-64.0-0.0","00296076","wem/bandit_either_2","ACDX50KGPE97I","either","7","326","","","","","","","0","0","1","0.01209419849","","0.4","0.6","0.8","0.2","","","","","0.4243351486","0.2475621169","0.01209419849","0.1754503809","","","","","","","","75","K","2","","","24","main_expt"
"","bandit","104","477393","0.0-65.0-0.0","00296076","wem/bandit_either_2","ACDX50KGPE97I","either","7","282","","","","","","","0","0","1","0.4172780312","","0.4","0.6","0.8","0.2","","","","","0.4172780312","0.2607476102","0.009734580702","0.2023019753","","","","","","","","72","H","0","img/none_selected.jpg","","25","main_expt"
"","bandit","105","478919","0.0-66.0-0.0","00296076","wem/bandit_either_2","ACDX50KGPE97I","either","7","16","","","","","","","1","0","0","0.292589008","","0.4","0.6","0.8","0.2","","","","","0.3981062588","0.292589008","0.008596148908","0.1887270612","","","","","","","","74","J","1","","","26","main_expt"
"","bandit","106","480535","0.0-67.0-0.0","00296076","wem/bandit_either_2","ACDX50KGPE97I","either","7","110","","","","","","","0","0","1","0.2978950393","","0.4","0.6","0.8","0.2","","","","","0.3889188119","0.2978950393","0.01380650739","0.2526986378","","","","","","","","74","J","1","","","27","main_expt"
"","bandit","107","482103","0.0-68.0-0.0","00296076","wem/bandit_either_2","ACDX50KGPE97I","either","7","55","","","","","","","0","0","1","0.337392419","","0.4","0.6","0.8","0.2","","","","","0.3699095679","0.337392419","0.01160852189","0.2536033627","","","","","","","","74","J","1","","","28","main_expt"
"","bandit","108","483958","0.0-69.0-0.0","00296076","wem/bandit_either_2","ACDX50KGPE97I","either","7","346","","","","","","","0","0","1","","0.258258936","0.4","0.6","0.8","0.2","0.4087832773","0.3830759015","0.02858314752","0.258258936","","","","","","","","","","","","76","L","3","","","29","main_expt"
"","bandit","109","485870","0.0-70.0-0.0","00296076","wem/bandit_either_2","ACDX50KGPE97I","either","7","406","","","","","","","0","0","1","0.0265596094","","0.4","0.6","0.8","0.2","","","","","0.4162513677","0.3778881599","0.0265596094","0.3152574144","","","","","","","","75","K","2","","","30","main_expt"
"","bandit","110","488638","0.0-71.0-0.0","00296076","wem/bandit_either_2","ACDX50KGPE97I","either","7","1263","","","","","","","0","0","1","0.43337534","","0.4","0.6","0.8","0.2","","","","","0.43337534","0.3585458117","0.02828816112","0.3508579725","","","","","","","","72","H","0","img/none_selected.jpg","","31","main_expt"
"","bandit","111","490585","0.0-72.0-0.0","00296076","wem/bandit_either_2","ACDX50KGPE97I","either","7","439","","","","","","","0","0","1","","0.3511664436","0.4","0.6","0.8","0.2","0.4399105216","0.3511664436","0.03857304495","0.3902021543","","","","","","","","","","","","74","J","1","","","32","main_expt"
"","bandit","112","492206","0.0-73.0-0.0","00296076","wem/bandit_either_2","ACDX50KGPE97I","either","7","112","","","","","","","0","0","1","0.3924960189","","0.4","0.6","0.8","0.2","","","","","0.3859623535","0.3924960189","0.02642959278","0.4112626521","","","","","","","","74","J","1","","","33","main_expt"
"","bandit","113","493765","0.0-74.0-0.0","00296076","wem/bandit_either_2","ACDX50KGPE97I","either","7","55","","","","","","","0","0","1","0.06800028167","","0.4","0.6","0.8","0.2","","","","","0.4231921331","0.3713907517","0.06800028167","0.3912589523","","","","","","","","75","K","2","","","34","main_expt"
"","bandit","114","495288","0.0-75.0-0.0","00296076","wem/bandit_either_2","ACDX50KGPE97I","either","7","17","","","","","","","0","1","0","","0.3663646496","0.4","0.6","0.8","0.2","0.3950458867","0.3929004689","0.05710280771","0.3663646496","","","","","","","","","","","","76","L","3","","","35","main_expt"
"","bandit","115","496887","0.0-76.0-0.0","00296076","wem/bandit_either_2","ACDX50KGPE97I","either","7","93","","","","","","","0","1","0","","0.3045225128","0.4","0.6","0.8","0.2","0.4005306787","0.3820467604","0.07756943076","0.3045225128","","","","","","","","","","","","76","L","3","","","36","main_expt"
"","bandit","116","498599","0.0-77.0-0.0","00296076","wem/bandit_either_2","ACDX50KGPE97I","either","7","205","","","","","","","0","0","1","0.2806474599","","0.4","0.6","0.8","0.2","","","","","0.3972735937","0.3948022939","0.06074629621","0.2806474599","","","","","","","","76","L","3","","","37","main_expt"
"","bandit","117","500174","0.0-78.0-0.0","00296076","wem/bandit_either_2","ACDX50KGPE97I","either","7","65","","","","","","","0","1","0","","0.3558759705","0.4","0.6","0.8","0.2","0.38339591","0.3769579019","0.07063042774","0.3558759705","","","","","","","","","","","","76","L","3","","","38","main_expt"
"","bandit","118","501847","0.0-79.0-0.0","00296076","wem/bandit_either_2","ACDX50KGPE97I","either","7","165","","","","","","","0","0","1","","0.3194138052","0.4","0.6","0.8","0.2","0.3906354184","0.4030344636","0.06209293178","0.3194138052","","","","","","","","","","","","76","L","3","","","39","main_expt"
"","bandit","119","503800","0.0-80.0-0.0","00296076","wem/bandit_either_2","ACDX50KGPE97I","either","7","441","","","","","","","0","0","1","0.3549086085","","0.4","0.6","0.8","0.2","","","","","0.3623676206","0.3622335218","0.06952578958","0.3549086085","","","","","","","","76","L","3","","","40","main_expt"
"","bandit","120","505344","0.0-81.0-0.0","00296076","wem/bandit_either_2","ACDX50KGPE97I","either","7","30","","","","","","","0","0","1","0.1291245709","","0.4","0.6","0.8","0.2","","","","","0.3873704927","0.3911596719","0.1291245709","0.3452113815","","","","","","","","75","K","2","","","41","main_expt"
"","bandit","121","507205","0.0-82.0-0.0","00296076","wem/bandit_either_2","ACDX50KGPE97I","either","7","352","","","","","","","0","0","1","","0.359823116","0.4","0.6","0.8","0.2","0.359823116","0.3921858285","0.1174523948","0.3522960267","","","","","","","","","","","","72","H","0","img/none_selected.jpg","","42","main_expt"
"","bandit","122","508759","0.0-83.0-0.0","00296076","wem/bandit_either_2","ACDX50KGPE97I","either","7","44","","","","","","","0","0","1","0.3831213528","","0.4","0.6","0.8","0.2","","","","","0.3710191411","0.3831213528","0.1201484523","0.3093122096","","","","","","","","74","J","1","","","43","main_expt"
"","bandit","123","510447","0.0-84.0-0.0","00296076","wem/bandit_either_2","ACDX50KGPE97I","either","7","181","","","","","","","0","0","1","","0.09958360536","0.4","0.6","0.8","0.2","0.3874065465","0.3518708159","0.09958360536","0.3026159556","","","","","","","","","","","","75","K","2","","","44","main_expt"
"","bandit","124","512111","0.0-85.0-0.0","00296076","wem/bandit_either_2","ACDX50KGPE97I","either","7","152","","","","","","","0","1","0","","0.3336294247","0.4","0.6","0.8","0.2","0.3851533971","0.3122870636","0.05173655998","0.3336294247","","","","","","","","","","","","76","L","3","","","45","main_expt"
"","bandit","125","513885","0.0-86.0-0.0","00296076","wem/bandit_either_2","ACDX50KGPE97I","either","7","270","","","","","","","0","0","1","","0.3400222736","0.4","0.6","0.8","0.2","0.4055883719","0.2635721956","0.05945041096","0.3400222736","","","","","","","","","","","","76","L","3","","","46","main_expt"
"","bandit","126","515558","0.0-87.0-0.0","00296076","wem/bandit_either_2","ACDX50KGPE97I","either","7","166","","","","","","","0","0","1","","0.328707825","0.4","0.6","0.8","0.2","0.3671593179","0.2856785865","0.04375763727","0.328707825","","","","","","","","","","","","76","L","3","","","47","main_expt"
"","bandit","127","517188","0.0-88.0-0.0","00296076","wem/bandit_either_2","ACDX50KGPE97I","either","7","119","","","","","","","0","1","0","","0.3307690822","0.4","0.6","0.8","0.2","0.3198203038","0.2649087478","0.0666370861","0.3307690822","","","","","","","","","","","","76","L","3","","","48","main_expt"
"","bandit","128","518893","0.0-89.0-0.0","00296076","wem/bandit_either_2","ACDX50KGPE97I","either","7","198","","","","","","","0","0","1","","0.3438067684","0.4","0.6","0.8","0.2","0.3111357295","0.2462979357","0.08266213623","0.3438067684","","","","","","","","","","","","76","L","3","","","49","main_expt"
"","bandit","129","520414","0.0-90.0-0.0","00296076","wem/bandit_either_2","ACDX50KGPE97I","either","7","10","","","","","","","0","0","1","0.3196682981","","0.4","0.6","0.8","0.2","","","","","0.3196682981","0.2490076798","0.08795051988","0.4037002216","","","","","","","","72","H","0","img/none_selected.jpg","","50","main_expt"
"","bandit","130","522038","0.0-91.0-0.0","00296076","wem/bandit_either_2","ACDX50KGPE97I","either","7","112","","","","","","","0","0","1","","0.07533366945","0.4","0.6","0.8","0.2","0.3088596379","0.305209751","0.07533366945","0.3557518394","","","","","","","","","","","","75","K","2","","","51","main_expt"
"","bandit","131","523924","0.0-92.0-0.0","00296076","wem/bandit_either_2","ACDX50KGPE97I","either","7","375","","","","","","","0","0","1","","0.3087204988","0.4","0.6","0.8","0.2","0.3060924957","0.3087204988","0.06506638851","0.3254324358","","","","","","","","","","","","74","J","1","","","52","main_expt"
"","bandit","132","525639","0.0-93.0-0.0","00296076","wem/bandit_either_2","ACDX50KGPE97I","either","7","207","","","","","","","0","0","1","0.2984188648","","0.4","0.6","0.8","0.2","","","","","0.3229319808","0.2984188648","0.06562792832","0.2952150256","","","","","","","","74","J","1","","","53","main_expt"
"","bandit","133","527285","0.0-94.0-0.0","00296076","wem/bandit_either_2","ACDX50KGPE97I","either","7","136","","","","","","","0","0","1","","0.3280138586","0.4","0.6","0.8","0.2","0.3280138586","0.3353917468","0.04630081711","0.300320608","","","","","","","","","","","","72","H","0","img/none_selected.jpg","","54","main_expt"
"","bandit","134","528838","0.0-95.0-0.0","00296076","wem/bandit_either_2","ACDX50KGPE97I","either","7","40","","","","","","","0","0","1","0.03868373719","","0.4","0.6","0.8","0.2","","","","","0.2777260571","0.3259144651","0.03868373719","0.2985084879","","","","","","","","75","K","2","","","55","main_expt"
"","bandit","135","530390","0.0-96.0-0.0","00296076","wem/bandit_either_2","ACDX50KGPE97I","either","7","45","","","","","","","0","0","1","","0.2607009345","0.4","0.6","0.8","0.2","0.1791004868","0.3259049121","0.06235362297","0.2607009345","","","","","","","","","","","","76","L","3","","","56","main_expt"
"","bandit","136","531999","0.0-97.0-0.0","00296076","wem/bandit_either_2","ACDX50KGPE97I","either","7","95","","","","","","","0","1","0","","0.2565854794","0.4","0.6","0.8","0.2","0.2182265394","0.3687904078","0.04639461243","0.2565854794","","","","","","","","","","","","76","L","3","","","57","main_expt"
"","bandit","137","533984","0.0-98.0-0.0","00296076","wem/bandit_either_2","ACDX50KGPE97I","either","7","472","","","","","","","0","0","1","","0.319121847","0.4","0.6","0.8","0.2","0.2970860181","0.3422038875","0.08954448139","0.319121847","","","","","","","","","","","","76","L","3","","","58","main_expt"
"","bandit","138","535781","0.0-99.0-0.0","00296076","wem/bandit_either_2","ACDX50KGPE97I","either","7","284","","","","","","","0","1","0","","0.3269923399","0.4","0.6","0.8","0.2","0.3249685468","0.3771421139","0.07390342289","0.3269923399","","","","","","","","","","","","76","L","3","","","59","main_expt"
"","bandit","139","537703","0.0-100.0-0.0","00296076","wem/bandit_either_2","ACDX50KGPE97I","either","7","413","","","","","","","0","0","1","","0.3150968823","0.4","0.6","0.8","0.2","0.2931470039","0.3620124399","0.05801548519","0.3150968823","","","","","","","","","","","","76","L","3","","","60","main_expt"
"","bandit","140","539557","0.0-101.0-0.0","00296076","wem/bandit_either_2","ACDX50KGPE97I","either","7","343","","","","","","","0","0","1","","0.07333263924","0.4","0.6","0.8","0.2","0.2646536279","0.3958116198","0.07333263924","0.324539239","","","","","","","","","","","","75","K","2","","","61","main_expt"
"","bandit","141","541101","0.0-102.0-0.0","00296076","wem/bandit_either_2","ACDX50KGPE97I","either","7","38","","","","","","","0","1","0","","0.3066306166","0.4","0.6","0.8","0.2","0.242461968","0.3615218546","0.07563430262","0.3066306166","","","","","","","","","","","","76","L","3","","","62","main_expt"
"","bandit","142","542849","0.0-103.0-0.0","00296076","wem/bandit_either_2","ACDX50KGPE97I","either","7","240","","","","","","","0","1","0","","0.3068900116","0.4","0.6","0.8","0.2","0.2206683029","0.3574266064","0.06826526778","0.3068900116","","","","","","","","","","","","76","L","3","","","63","main_expt"
"","bandit","143","544621","0.0-104.0-0.0","00296076","wem/bandit_either_2","ACDX50KGPE97I","either","7","260","","","","","","","1","0","0","0.2936494982","","0.4","0.6","0.8","0.2","","","","","0.2288959862","0.3541915859","0.1175271989","0.2936494982","","","","","","","","76","L","3","","","64","main_expt"
"","bandit","144","546343","0.0-105.0-0.0","00296076","wem/bandit_either_2","ACDX50KGPE97I","either","7","209","","","","","","","0","0","1","","0.290236101","0.4","0.6","0.8","0.2","0.2346523549","0.3339820985","0.1273865191","0.290236101","","","","","","","","","","","","76","L","3","","","65","main_expt"
"","bandit","145","547948","0.0-106.0-0.0","00296076","wem/bandit_either_2","ACDX50KGPE97I","either","7","94","","","","","","","0","0","1","","0.2512036594","0.4","0.6","0.8","0.2","0.1881688105","0.3195467083","0.09075088943","0.2512036594","","","","","","","","","","","","76","L","3","","","66","main_expt"
"","bandit","146","549639","0.0-107.0-0.0","00296076","wem/bandit_either_2","ACDX50KGPE97I","either","7","183","","","","","","","0","0","1","","0.231043846","0.4","0.6","0.8","0.2","0.231043846","0.3477383846","0.08077075725","0.263747572","","","","","","","","","","","","72","H","0","img/none_selected.jpg","","67","main_expt"
"","bandit","147","551598","0.0-108.0-0.0","00296076","wem/bandit_either_2","ACDX50KGPE97I","either","7","446","","","","","","","0","0","1","0.08810311296","","0.4","0.6","0.8","0.2","","","","","0.2576664243","0.3365352069","0.08810311296","0.2892519303","","","","","","","","75","K","2","","","68","main_expt"
"","bandit","148","553289","0.0-109.0-0.0","00296076","wem/bandit_either_2","ACDX50KGPE97I","either","7","177","","","","","","","0","0","1","0.3148812039","","0.4","0.6","0.8","0.2","","","","","0.2183283259","0.3148812039","0.1260156682","0.2383664846","","","","","","","","74","J","1","","","69","main_expt"
"","bandit","149","554941","0.0-110.0-0.0","00296076","wem/bandit_either_2","ACDX50KGPE97I","either","7","140","","","","","","","0","0","1","","0.2497111545","0.4","0.6","0.8","0.2","0.2260484764","0.3154014692","0.08773951932","0.2497111545","","","","","","","","","","","","76","L","3","","","70","main_expt"
"","bandit","150","556672","0.0-111.0-0.0","00296076","wem/bandit_either_2","ACDX50KGPE97I","either","7","218","","","","","","","0","0","1","","0.2095843002","0.4","0.6","0.8","0.2","0.3196469567","0.219815459","0.1154304285","0.2095843002","","","","","","","","","","","","76","L","3","","","71","main_expt"
"","bandit","151","558267","0.0-112.0-0.0","00296076","wem/bandit_either_2","ACDX50KGPE97I","either","7","84","","","","","","","0","0","1","","0.10097247","0.4","0.6","0.8","0.2","0.3644141189","0.2623730272","0.10097247","0.1972488467","","","","","","","","","","","","75","K","2","","","72","main_expt"
"","bandit","152","559916","0.0-113.0-0.0","00296076","wem/bandit_either_2","ACDX50KGPE97I","either","7","143","","","","","","","0","0","1","0.4081842109","","0.4","0.6","0.8","0.2","","","","","0.4081842109","0.2639805735","0.0746930591","0.15494396","","","","","","","","72","H","0","img/none_selected.jpg","","73","main_expt"
"","bandit","153","561663","0.0-114.0-0.0","00296076","wem/bandit_either_2","ACDX50KGPE97I","either","7","233","","","","","","","0","0","1","0.2770925356","","0.4","0.6","0.8","0.2","","","","","0.4506698749","0.2770925356","0.1124392477","0.1324790415","","","","","","","","74","J","1","","","74","main_expt"
"","bandit","154","563304","0.0-115.0-0.0","00296076","wem/bandit_either_2","ACDX50KGPE97I","either","7","128","","","","","","","0","0","1","0.113494578","","0.4","0.6","0.8","0.2","","","","","0.454520075","0.2796652475","0.113494578","0.179195356","","","","","","","","75","K","2","","","75","main_expt"
"","bandit","155","564895","0.0-116.0-0.0","00296076","wem/bandit_either_2","ACDX50KGPE97I","either","7","78","","","","","","","0","1","0","","0.215808919","0.4","0.6","0.8","0.2","0.466199952","0.3153427244","0.1469344428","0.215808919","","","","","","","","","","","","76","L","3","","","76","main_expt"
"","bandit","156","566766","0.0-117.0-0.0","00296076","wem/bandit_either_2","ACDX50KGPE97I","either","7","357","","","","","","","0","0","1","","0.2312347408","0.4","0.6","0.8","0.2","0.4402141775","0.3676911864","0.2152215887","0.2312347408","","","","","","","","","","","","76","L","3","","","77","main_expt"
"","bandit","157","568437","0.0-118.0-0.0","00296076","wem/bandit_either_2","ACDX50KGPE97I","either","7","165","","","","","","","0","0","1","0.2197025874","","0.4","0.6","0.8","0.2","","","","","0.4525957793","0.3434277392","0.2055177618","0.2197025874","","","","","","","","76","L","3","","","78","main_expt"
"","bandit","158","570198","0.0-119.0-0.0","00296076","wem/bandit_either_2","ACDX50KGPE97I","either","7","254","","","","","","","0","0","1","0.4630799716","","0.4","0.6","0.8","0.2","","","","","0.4630799716","0.3758616161","0.222262525","0.2227420924","","","","","","","","72","H","0","img/none_selected.jpg","","79","main_expt"
"","bandit","159","572125","0.0-120.0-0.0","00296076","wem/bandit_either_2","ACDX50KGPE97I","either","7","415","","","","","","","0","0","1","0.3862393514","","0.4","0.6","0.8","0.2","","","","","0.423693353","0.3862393514","0.2700860438","0.2283057493","","","","","","","","74","J","1","","","80","main_expt"
"","bandit","160","573718","0.0-121.0-0.0","00296076","wem/bandit_either_2","ACDX50KGPE97I","either","7","80","","","","","","","0","0","1","0.2642688004","","0.4","0.6","0.8","0.2","","","","","0.4319112677","0.3593770893","0.2642688004","0.2721525977","","","","","","","","75","K","2","","","81","main_expt"
"","bandit","161","575400","0.0-122.0-0.0","00296076","wem/bandit_either_2","ACDX50KGPE97I","either","7","174","","","","","","","0","0","1","","0.2850237184","0.4","0.6","0.8","0.2","0.441827487","0.4035110645","0.2824164754","0.2850237184","","","","","","","","","","","","76","L","3","","","82","main_expt"
"","bandit","162","577240","0.0-123.0-0.0","00296076","wem/bandit_either_2","ACDX50KGPE97I","either","7","325","","","","","","","0","0","1","","0.4288861504","0.4","0.6","0.8","0.2","0.4288861504","0.3719627038","0.2819095575","0.3236436683","","","","","","","","","","","","72","H","0","img/none_selected.jpg","","83","main_expt"
"","bandit","163","579006","0.0-124.0-0.0","00296076","wem/bandit_either_2","ACDX50KGPE97I","either","7","259","","","","","","","0","0","1","0.3349288927","","0.4","0.6","0.8","0.2","","","","","0.4350385517","0.3349288927","0.2589745902","0.3339638593","","","","","","","","74","J","1","","","84","main_expt"
"","bandit","164","580825","0.0-125.0-0.0","00296076","wem/bandit_either_2","ACDX50KGPE97I","either","7","311","","","","","","","1","0","0","0.3626504113","","0.4","0.6","0.8","0.2","","","","","0.4255505645","0.3247899262","0.3626504113","0.3795022601","","","","","","","","75","K","2","","","85","main_expt"
"","bandit","165","582528","0.0-126.0-0.0","00296076","wem/bandit_either_2","ACDX50KGPE97I","either","7","189","","","","","","","0","0","1","","0.3598915268","0.4","0.6","0.8","0.2","0.4330938692","0.3443557019","0.3598915268","0.3835523064","","","","","","","","","","","","75","K","2","","","86","main_expt"
"","bandit","166","584216","0.0-127.0-0.0","00296076","wem/bandit_either_2","ACDX50KGPE97I","either","7","172","","","","","","","1","0","0","0.3433052933","","0.4","0.6","0.8","0.2","","","","","0.4548398529","0.3648776167","0.3433052933","0.3772514457","","","","","","","","75","K","2","","","87","main_expt"
"","bandit","167","585879","0.0-128.0-0.0","00296076","wem/bandit_either_2","ACDX50KGPE97I","either","7","156","","","","","","","1","0","0","0.4022938878","","0.4","0.6","0.8","0.2","","","","","0.4493124031","0.3609631839","0.4022938878","0.3766830519","","","","","","","","75","K","2","","","88","main_expt"
"","bandit","168","587551","0.0-129.0-0.0","00296076","wem/bandit_either_2","ACDX50KGPE97I","either","7","165","","","","","","","1","0","0","0.4141493151","","0.4","0.6","0.8","0.2","","","","","0.4161110063","0.3636167192","0.4141493151","0.3537755119","","","","","","","","75","K","2","","","89","main_expt"
"","bandit","169","589543","0.0-130.0-0.0","00296076","wem/bandit_either_2","ACDX50KGPE97I","either","7","476","","","","","","","0","1","0","","0.4136124289","0.4","0.6","0.8","0.2","0.405260856","0.3563441379","0.4136124289","0.3014761449","","","","","","","","","","","","75","K","2","","","90","main_expt"
"","bandit","170","591181","0.0-131.0-0.0","00296076","wem/bandit_either_2","ACDX50KGPE97I","either","7","126","","","","","","","0","0","1","","0.4184852842","0.4","0.6","0.8","0.2","0.3827048226","0.3389138503","0.4184852842","0.2694038268","","","","","","","","","","","","75","K","2","","","91","main_expt"
"","bandit","171","593351","0.0-132.0-0.0","00296076","wem/bandit_either_2","ACDX50KGPE97I","either","7","663","","","","","","","1","0","0","0.4456808576","","0.4","0.6","0.8","0.2","","","","","0.3552182969","0.3263360165","0.4456808576","0.2651536323","","","","","","","","75","K","2","","","92","main_expt"
"","bandit","172","595170","0.0-133.0-0.0","00296076","wem/bandit_either_2","ACDX50KGPE97I","either","7","311","","","","","","","0","1","0","","0.4355219805","0.4","0.6","0.8","0.2","0.3286897504","0.2844131911","0.4355219805","0.1997208586","","","","","","","","","","","","75","K","2","","","93","main_expt"
"","bandit","173","597046","0.0-134.0-0.0","00296076","wem/bandit_either_2","ACDX50KGPE97I","either","7","364","","","","","","","1","0","0","0.4609821192","","0.4","0.6","0.8","0.2","","","","","0.3422490236","0.2978465223","0.4609821192","0.2442555344","","","","","","","","75","K","2","","","94","main_expt"
"","bandit","174","598897","0.0-135.0-0.0","00296076","wem/bandit_either_2","ACDX50KGPE97I","either","7","342","","","","","","","0","0","1","0.4419374505","","0.4","0.6","0.8","0.2","","","","","0.3160161054","0.2638723705","0.4419374505","0.2638839348","","","","","","","","75","K","2","","","95","main_expt"
"","bandit","175","600463","0.0-136.0-0.0","00296076","wem/bandit_either_2","ACDX50KGPE97I","either","7","51","","","","","","","1","0","0","0.39438674","","0.4","0.6","0.8","0.2","","","","","0.2945538732","0.2276010735","0.39438674","0.2265245807","","","","","","","","75","K","2","","","96","main_expt"
"","bandit","176","602182","0.0-137.0-0.0","00296076","wem/bandit_either_2","ACDX50KGPE97I","either","7","206","","","","","","","1","0","0","0.3617668419","","0.4","0.6","0.8","0.2","","","","","0.393563827","0.2045446072","0.3617668419","0.1969189177","","","","","","","","75","K","2","","","97","main_expt"
"","bandit","177","603783","0.0-138.0-0.0","00296076","wem/bandit_either_2","ACDX50KGPE97I","either","7","86","","","","","","","0","0","1","0.3737913853","","0.4","0.6","0.8","0.2","","","","","0.4046254927","0.2436418828","0.3737913853","0.1761144245","","","","","","","","75","K","2","","","98","main_expt"
"","bandit","178","605375","0.0-139.0-0.0","00296076","wem/bandit_either_2","ACDX50KGPE97I","either","7","79","","","","","","","0","0","1","0.4221129479","","0.4","0.6","0.8","0.2","","","","","0.3659012549","0.2473144087","0.4221129479","0.1211630765","","","","","","","","75","K","2","","","99","main_expt"
"","bandit","179","607062","0.0-140.0-0.0","00296076","wem/bandit_either_2","ACDX50KGPE97I","either","7","176","","","","","","","0","0","1","","0.1257326749","0.4","0.6","0.8","0.2","0.400368336","0.2707360286","0.3857893684","0.1257326749","","","","","","","","","","","","76","L","3","","","100","main_expt"
"","bandit","180","608816","0.0-141.0-0.0","00296076","wem/bandit_either_2","ACDX50KGPE97I","either","7","245","","","","","","","0","0","1","0.3635527264","","0.4","0.6","0.8","0.2","","","","","0.4367931528","0.3250409822","0.3635527264","0.09975532208","","","","","","","","75","K","2","","","101","main_expt"
"","bandit","181","610399","0.0-142.0-0.0","00296076","wem/bandit_either_2","ACDX50KGPE97I","either","7","67","","","","","","","0","0","1","","0.3088580598","0.4","0.6","0.8","0.2","0.4371155326","0.3088580598","0.3738375489","0.1127414424","","","","","","","","","","","","74","J","1","","","102","main_expt"
"","bandit","182","611983","0.0-143.0-0.0","00296076","wem/bandit_either_2","ACDX50KGPE97I","either","7","68","","","","","","","0","0","1","0.388648264","","0.4","0.6","0.8","0.2","","","","","0.388648264","0.2901001995","0.3860163181","0.1232600734","","","","","","","","72","H","0","img/none_selected.jpg","","103","main_expt"
"","bandit","183","613551","0.0-144.0-0.0","00296076","wem/bandit_either_2","ACDX50KGPE97I","either","7","53","","","","","","","0","0","1","0.390692362","","0.4","0.6","0.8","0.2","","","","","0.3718469433","0.309645936","0.390692362","0.08156843846","","","","","","","","75","K","2","","","104","main_expt"
"","bandit","184","615157","0.0-145.0-0.0","00296076","wem/bandit_either_2","ACDX50KGPE97I","either","7","92","","","","","","","0","0","1","","0.08245659199","0.4","0.6","0.8","0.2","0.3920304628","0.3386062745","0.4139082553","0.08245659199","","","","","","","","","","","","76","L","3","","","105","main_expt"
"","bandit","185","616753","0.0-146.0-0.0","00296076","wem/bandit_either_2","ACDX50KGPE97I","either","7","87","","","","","","","0","1","0","","0.3827539061","0.4","0.6","0.8","0.2","0.3733497125","0.3827539061","0.3295275825","0.1276639339","","","","","","","","","","","","74","J","1","","","106","main_expt"
"","bandit","186","618455","0.0-147.0-0.0","00296076","wem/bandit_either_2","ACDX50KGPE97I","either","7","194","","","","","","","1","0","0","0.3401355396","","0.4","0.6","0.8","0.2","","","","","0.3878439861","0.3401355396","0.3499712774","0.1812689745","","","","","","","","74","J","1","","","107","main_expt"
"","bandit","187","620280","0.0-148.0-0.0","00296076","wem/bandit_either_2","ACDX50KGPE97I","either","7","309","","","","","","","0","0","1","0.3258039352","","0.4","0.6","0.8","0.2","","","","","0.3529013302","0.3258039352","0.2666891207","0.2187982558","","","","","","","","74","J","1","","","108","main_expt"
"","bandit","188","622006","0.0-149.0-0.0","00296076","wem/bandit_either_2","ACDX50KGPE97I","either","7","210","","","","","","","0","0","1","","0.374919859","0.4","0.6","0.8","0.2","0.3457683734","0.374919859","0.2575067634","0.2201216928","","","","","","","","","","","","74","J","1","","","109","main_expt"
"","bandit","189","623647","0.0-150.0-0.0","00296076","wem/bandit_either_2","ACDX50KGPE97I","either","7","132","","","","","","","0","0","1","0.3656186065","","0.4","0.6","0.8","0.2","","","","","0.3316873257","0.3656186065","0.2664913793","0.1789817232","","","","","","","","74","J","1","","","110","main_expt"
"","bandit","190","625200","0.0-151.0-0.0","00296076","wem/bandit_either_2","ACDX50KGPE97I","either","7","39","","","","","","","0","0","1","","0.3434945318","0.4","0.6","0.8","0.2","0.3434945318","0.3649701027","0.2233446911","0.2404947452","","","","","","","","","","","","72","H","0","img/none_selected.jpg","","111","main_expt"
"","bandit","191","626961","0.0-152.0-0.0","00296076","wem/bandit_either_2","ACDX50KGPE97I","either","7","246","","","","","","","1","0","0","0.2170082082","","0.4","0.6","0.8","0.2","","","","","0.2729480053","0.3371716456","0.2170082082","0.2959558532","","","","","","","","75","K","2","","","112","main_expt"
"","bandit","192","628567","0.0-153.0-0.0","00296076","wem/bandit_either_2","ACDX50KGPE97I","either","7","89","","","","","","","0","0","1","0.1912277411","","0.4","0.6","0.8","0.2","","","","","0.2579672073","0.2587224119","0.1912277411","0.2966985553","","","","","","","","75","K","2","","","113","main_expt"
"","bandit","193","630112","0.0-154.0-0.0","00296076","wem/bandit_either_2","ACDX50KGPE97I","either","7","38","","","","","","","1","0","0","0.1691995451","","0.4","0.6","0.8","0.2","","","","","0.24654084","0.2384324947","0.1691995451","0.3289730608","","","","","","","","75","K","2","","","114","main_expt"
"","bandit","194","632127","0.0-155.0-0.0","00296076","wem/bandit_either_2","ACDX50KGPE97I","either","7","499","","","","","","","0","0","1","0.1263730162","","0.4","0.6","0.8","0.2","","","","","0.246649757","0.2705755989","0.1263730162","0.2783705844","","","","","","","","75","K","2","","","115","main_expt"
"","bandit","195","634190","0.0-156.0-0.0","00296076","wem/bandit_either_2","ACDX50KGPE97I","either","7","554","","","","","","","0","0","1","","0.1130092975","0.4","0.6","0.8","0.2","0.2190482835","0.2666822","0.1130092975","0.2990421824","","","","","","","","","","","","75","K","2","","","116","main_expt"
"","bandit","196","635830","0.0-157.0-0.0","00296076","wem/bandit_either_2","ACDX50KGPE97I","either","7","125","","","","","","","0","0","1","","0.1860086181","0.4","0.6","0.8","0.2","0.1860086181","0.2664749026","0.1317362661","0.3214730448","","","","","","","","","","","","72","H","0","img/none_selected.jpg","","117","main_expt"
"","bandit","197","637377","0.0-158.0-0.0","00296076","wem/bandit_either_2","ACDX50KGPE97I","either","7","37","","","","","","","0","0","1","","0.3996160597","0.4","0.6","0.8","0.2","0.1765749983","0.285497096","0.08460291254","0.3996160597","","","","","","","","","","","","76","L","3","","","118","main_expt"
"","bandit","198","638998","0.0-159.0-0.0","00296076","wem/bandit_either_2","ACDX50KGPE97I","either","7","105","","","","","","","0","1","0","","0.3004427434","0.4","0.6","0.8","0.2","0.1840588368","0.3004427434","0.09168363065","0.4143362638","","","","","","","","","","","","74","J","1","","","119","main_expt"
"","bandit","199","640685","0.0-160.0-0.0","00296076","wem/bandit_either_2","ACDX50KGPE97I","either","7","171","","","","","","","0","0","1","","0.2419855731","0.4","0.6","0.8","0.2","0.1988357929","0.2419855731","0.06729372802","0.372340151","","","","","","","","","","","","74","J","1","","","120","main_expt"
"","bandit","200","642460","0.0-161.0-0.0","00296076","wem/bandit_either_2","ACDX50KGPE97I","either","7","266","","","","","","","0","0","1","","0.3054132847","0.4","0.6","0.8","0.2","0.2315674","0.3054132847","0.08346408207","0.3910424524","","","","","","","","","","","","74","J","1","","","121","main_expt"
"","bandit","201","644319","0.0-162.0-0.0","00296076","wem/bandit_either_2","ACDX50KGPE97I","either","7","350","","","","","","","0","0","1","0.05632743158","","0.4","0.6","0.8","0.2","","","","","0.2041322171","0.2473202095","0.05632743158","0.3813410711","","","","","","","","75","K","2","","","122","main_expt"
"","bandit","202","646007","0.0-163.0-0.0","00296076","wem/bandit_either_2","ACDX50KGPE97I","either","7","170","","","","","","","0","0","1","","0.1945268209","0.4","0.6","0.8","0.2","0.1945268209","0.2909195989","0.05516745574","0.4247291795","","","","","","","","","","","","72","H","0","img/none_selected.jpg","","123","main_expt"
"","bandit","203","647737","0.0-164.0-0.0","00296076","wem/bandit_either_2","ACDX50KGPE97I","either","7","214","","","","","","","0","0","1","","0.4311179713","0.4","0.6","0.8","0.2","0.2206749142","0.3493750294","0.05528311039","0.4311179713","","","","","","","","","","","","76","L","3","","","124","main_expt"
"","bandit","204","649502","0.0-165.0-0.0","00296076","wem/bandit_either_2","ACDX50KGPE97I","either","7","248","","","","","","","0","1","0","","0.3883668019","0.4","0.6","0.8","0.2","0.212012295","0.3883668019","0.07149807259","0.4085782939","","","","","","","","","","","","74","J","1","","","125","main_expt"
"","bandit","205","651310","0.0-166.0-0.0","00296076","wem/bandit_either_2","ACDX50KGPE97I","either","7","300","","","","","","","0","0","1","","0.3888129637","0.4","0.6","0.8","0.2","0.1656684785","0.3888129637","0.1137803622","0.4110861309","","","","","","","","","","","","74","J","1","","","126","main_expt"
"","bandit","206","652828","0.0-167.0-0.0","00296076","wem/bandit_either_2","ACDX50KGPE97I","either","7","2","","","","","","","0","0","1","","0.1003054442","0.4","0.6","0.8","0.2","0.1685301808","0.3659195129","0.1003054442","0.4214671818","","","","","","","","","","","","75","K","2","","","127","main_expt"
"","bandit","207","654672","0.0-168.0-0.0","00296076","wem/bandit_either_2","ACDX50KGPE97I","either","7","335","","","","","","","1","0","0","0.3689954399","","0.4","0.6","0.8","0.2","","","","","0.1703551811","0.3689954399","0.1378169536","0.36889317","","","","","","","","74","J","1","","","128","main_expt"
"","bandit","208","656534","0.0-169.0-0.0","00296076","wem/bandit_either_2","ACDX50KGPE97I","either","7","344","","","","","","","0","0","1","","0.3600340942","0.4","0.6","0.8","0.2","0.1624753709","0.3600340942","0.1333081235","0.3840267129","","","","","","","","","","","","74","J","1","","","129","main_expt"
"","bandit","209","658496","0.0-170.0-0.0","00296076","wem/bandit_either_2","ACDX50KGPE97I","either","7","442","","","","","","","0","0","1","","0.1682212827","0.4","0.6","0.8","0.2","0.2335662737","0.3580797835","0.1682212827","0.3809677701","","","","","","","","","","","","75","K","2","","","130","main_expt"
"","bandit","210","660014","0.0-171.0-0.0","00296076","wem/bandit_either_2","ACDX50KGPE97I","either","7","0","","","","","","","0","0","1","","0.240441026","0.4","0.6","0.8","0.2","0.240441026","0.3785893338","0.2193829955","0.3681933818","","","","","","","","","","","","72","H","0","img/none_selected.jpg","","131","main_expt"
"","bandit","211","661957","0.0-172.0-0.0","00296076","wem/bandit_either_2","ACDX50KGPE97I","either","7","425","","","","","","","0","1","0","","0.3664045944","0.4","0.6","0.8","0.2","0.2266699971","0.3764735404","0.2693349046","0.3664045944","","","","","","","","","","","","76","L","3","","","132","main_expt"
"","bandit","212","663800","0.0-173.0-0.0","00296076","wem/bandit_either_2","ACDX50KGPE97I","either","7","325","","","","","","","0","0","1","0.4046437197","","0.4","0.6","0.8","0.2","","","","","0.1994193025","0.3433534211","0.2576546077","0.4046437197","","","","","","","","76","L","3","","","133","main_expt"
"","bandit","213","665463","0.0-174.0-0.0","00296076","wem/bandit_either_2","ACDX50KGPE97I","either","7","147","","","","","","","0","0","1","","0.364490756","0.4","0.6","0.8","0.2","0.1891464922","0.3606247271","0.2412372273","0.364490756","","","","","","","","","","","","76","L","3","","","134","main_expt"
"","bandit","214","667207","0.0-175.0-0.0","00296076","wem/bandit_either_2","ACDX50KGPE97I","either","7","228","","","","","","","1","0","0","0.3268624306","","0.4","0.6","0.8","0.2","","","","","0.1614798668","0.3268624306","0.2198641054","0.311914316","","","","","","","","74","J","1","","","135","main_expt"
"","bandit","215","669041","0.0-176.0-0.0","00296076","wem/bandit_either_2","ACDX50KGPE97I","either","7","316","","","","","","","0","0","1","0.2854606769","","0.4","0.6","0.8","0.2","","","","","0.1880386222","0.2854606769","0.2504132697","0.2653901568","","","","","","","","74","J","1","","","136","main_expt"
"","bandit","216","670774","0.0-177.0-0.0","00296076","wem/bandit_either_2","ACDX50KGPE97I","either","7","215","","","","","","","0","0","1","","0.2413295316","0.4","0.6","0.8","0.2","0.1961818793","0.3311747399","0.1912230989","0.2413295316","","","","","","","","","","","","76","L","3","","","137","main_expt"
"","bandit","217","672311","0.0-178.0-0.0","00296076","wem/bandit_either_2","ACDX50KGPE97I","either","7","23","","","","","","","1","0","0","0.2570785188","","0.4","0.6","0.8","0.2","","","","","0.2857678963","0.2570785188","0.1576256809","0.2060295423","","","","","","","","74","J","1","","","138","main_expt"
"","bandit","218","673934","0.0-179.0-0.0","00296076","wem/bandit_either_2","ACDX50KGPE97I","either","7","104","","","","","","","0","0","1","","0.2858060749","0.4","0.6","0.8","0.2","0.3449131854","0.2858060749","0.1019788138","0.1809645164","","","","","","","","","","","","74","J","1","","","139","main_expt"
"","bandit","219","675677","0.0-180.0-0.0","00296076","wem/bandit_either_2","ACDX50KGPE97I","either","7","227","","","","","","","0","0","1","0.2975559752","","0.4","0.6","0.8","0.2","","","","","0.2537716732","0.2975559752","0.07754087054","0.1843216893","","","","","","","","74","J","1","","","140","main_expt"
"","bandit","220","677278","0.0-181.0-0.0","00296076","wem/bandit_either_2","ACDX50KGPE97I","either","7","92","","","","","","","0","0","1","0.09489610577","","0.4","0.6","0.8","0.2","","","","","0.2858111263","0.2802168405","0.09489610577","0.1651876155","","","","","","","","75","K","2","","","141","main_expt"
"","bandit","221","678806","0.0-182.0-0.0","00296076","wem/bandit_either_2","ACDX50KGPE97I","either","7","20","","","","","","","0","0","1","","0.2231986748","0.4","0.6","0.8","0.2","0.303049367","0.2231986748","0.09601428546","0.1536427928","","","","","","","","","","","","74","J","1","","","142","main_expt"
"","bandit","222","680527","0.0-183.0-0.0","00296076","wem/bandit_either_2","ACDX50KGPE97I","either","7","202","","","","","","","0","0","1","","0.1546140226","0.4","0.6","0.8","0.2","0.2969419413","0.2032880393","0.08301142993","0.1546140226","","","","","","","","","","","","76","L","3","","","143","main_expt"
"","bandit","223","682087","0.0-184.0-0.0","00296076","wem/bandit_either_2","ACDX50KGPE97I","either","7","50","","","","","","","0","0","1","","0.3128690494","0.4","0.6","0.8","0.2","0.3128690494","0.1967741464","0.09599686985","0.1746031107","","","","","","","","","","","","72","H","0","img/none_selected.jpg","","144","main_expt"
"","bandit","224","683767","0.0-185.0-0.0","00296076","wem/bandit_either_2","ACDX50KGPE97I","either","7","163","","","","","","","0","0","1","","0.07499383622","0.4","0.6","0.8","0.2","0.2991796355","0.2283154954","0.07499383622","0.2021387556","","","","","","","","","","","","75","K","2","","","145","main_expt"
"","bandit","225","685574","0.0-186.0-0.0","00296076","wem/bandit_either_2","ACDX50KGPE97I","either","7","298","","","","","","","0","0","1","","0.2118700154","0.4","0.6","0.8","0.2","0.3163763193","0.2118700154","0.09566861","0.2504344391","","","","","","","","","","","","74","J","1","","","146","main_expt"
"","bandit","226","687197","0.0-187.0-0.0","00296076","wem/bandit_either_2","ACDX50KGPE97I","either","7","107","","","","","","","0","1","0","","0.2437718569","0.4","0.6","0.8","0.2","0.3198025905","0.210437557","0.08578591382","0.2437718569","","","","","","","","","","","","76","L","3","","","147","main_expt"
"","bandit","227","688925","0.0-188.0-0.0","00296076","wem/bandit_either_2","ACDX50KGPE97I","either","7","220","","","","","","","0","0","1","","0.2446677265","0.4","0.6","0.8","0.2","0.2588245921","0.2370661354","0.1147887709","0.2446677265","","","","","","","","","","","","76","L","3","","","148","main_expt"
"","bandit","228","690976","0.0-189.0-0.0","00296076","wem/bandit_either_2","ACDX50KGPE97I","either","7","542","","","","","","","1","0","0","0.2430363771","","0.4","0.6","0.8","0.2","","","","","0.248712437","0.2430363771","0.1378203382","0.2911002833","","","","","","","","74","J","1","","","149","main_expt"
"","bandit","229","692576","0.0-190.0-0.0","00296076","wem/bandit_either_2","ACDX50KGPE97I","either","7","84","","","","","","","0","0","1","","0.2242182381","0.4","0.6","0.8","0.2","0.179144869","0.2242182381","0.1414499273","0.3529655025","","","","","","","","","","","","74","J","1","","","150","main_expt"
"","bandit","230","694551","0.0-191.0-0.0","00296076","wem/bandit_either_2","ACDX50KGPE97I","either","7","456","","","","","","","0","0","1","0.1997145133","","0.4","0.6","0.8","0.2","","","","","0.1545669956","0.1997145133","0.07852348772","0.3885741111","","","","","","","","74","J","1","","","151","main_expt"
"","bandit","231","696072","0.0-192.0-0.0","00296076","wem/bandit_either_2","ACDX50KGPE97I","either","7","3","","","","","","","0","0","1","0.08485793113","","0.4","0.6","0.8","0.2","","","","","0.1651714415","0.2195927633","0.08485793113","0.3690499696","","","","","","","","75","K","2","","","152","main_expt"
"","bandit","232","697736","0.0-193.0-0.0","00296076","wem/bandit_either_2","ACDX50KGPE97I","either","7","146","","","","","","","0","0","1","","0.2396245514","0.4","0.6","0.8","0.2","0.2396245514","0.2121816628","0.1083789561","0.3710492515","","","","","","","","","","","","72","H","0","img/none_selected.jpg","","153","main_expt"
"","bandit","233","699422","0.0-194.0-0.0","00296076","wem/bandit_either_2","ACDX50KGPE97I","either","7","176","","","","","","","0","1","0","","0.2085838567","0.4","0.6","0.8","0.2","0.2085838567","0.1830588608","0.109098481","0.3483335413","","","","","","","","","","","","72","H","0","img/none_selected.jpg","","154","main_expt"
"","bandit","234","701218","0.0-195.0-0.0","00296076","wem/bandit_either_2","ACDX50KGPE97I","either","7","279","","","","","","","0","1","0","","0.1864274254","0.4","0.6","0.8","0.2","0.1864274254","0.2031423662","0.1758262092","0.3343760247","","","","","","","","","","","","72","H","0","img/none_selected.jpg","","155","main_expt"
"","bandit","235","703010","0.0-196.0-0.0","00296076","wem/bandit_either_2","ACDX50KGPE97I","either","7","270","","","","","","","0","0","1","","0.1750870897","0.4","0.6","0.8","0.2","0.1750870897","0.2022731065","0.2046597001","0.3742013553","","","","","","","","","","","","72","H","0","img/none_selected.jpg","","156","main_expt"
"","bandit","236","704927","0.0-197.0-0.0","00296076","wem/bandit_either_2","ACDX50KGPE97I","either","7","399","","","","","","","1","0","0","0.1321985386","","0.4","0.6","0.8","0.2","","","","","0.1321985386","0.1826661219","0.1774751899","0.3620366094","","","","","","","","72","H","0","img/none_selected.jpg","","157","main_expt"
"","bandit","237","706719","0.0-198.0-0.0","00296076","wem/bandit_either_2","ACDX50KGPE97I","either","7","273","","","","","","","0","0","1","","0.1341899746","0.4","0.6","0.8","0.2","0.1341899746","0.1658993888","0.1612033886","0.3671714071","","","","","","","","","","","","72","H","0","img/none_selected.jpg","","158","main_expt"
"","bandit","238","708310","0.0-199.0-0.0","00296076","wem/bandit_either_2","ACDX50KGPE97I","either","7","82","","","","","","","0","0","1","","0.1567784951","0.4","0.6","0.8","0.2","0.1567784951","0.1620079643","0.1586838935","0.4015988616","","","","","","","","","","","","72","H","0","img/none_selected.jpg","","159","main_expt"
"","bandit","239","710110","0.0-200.0-0.0","00296076","wem/bandit_either_2","ACDX50KGPE97I","either","7","281","","","","","","","0","1","0","","0.1615549635","0.4","0.6","0.8","0.2","0.1615549635","0.2453635642","0.2159944071","0.4004877553","","","","","","","","","","","","72","H","0","img/none_selected.jpg","","160","main_expt"
"","bandit","240","711775","0.0-201.0-0.0","00296076","wem/bandit_either_2","ACDX50KGPE97I","either","7","148","","","","","","","0","0","1","","0.1854631015","0.4","0.6","0.8","0.2","0.1854631015","0.2456373749","0.2105769377","0.4095849454","","","","","","","","","","","","72","H","0","img/none_selected.jpg","","161","main_expt"
"","bandit","241","713289","0.0-202.0-0.0","00296076","wem/bandit_either_2","ACDX50KGPE97I","either","7","2","","","","","","","0","0","1","","0.21229469","0.4","0.6","0.8","0.2","0.21229469","0.2460125232","0.2006925765","0.3978002783","","","","","","","","","","","","72","H","0","img/none_selected.jpg","","162","main_expt"
"","bandit","242","715094","0.0-203.0-0.0","00296076","wem/bandit_either_2","ACDX50KGPE97I","either","7","287","","","","","","","0","0","1","","0.162194177","0.4","0.6","0.8","0.2","0.162194177","0.2013568893","0.2365124807","0.4180552148","","","","","","","","","","","","72","H","0","img/none_selected.jpg","","163","main_expt"
"","bandit","243","716950","0.0-204.0-0.0","00296076","wem/bandit_either_2","ACDX50KGPE97I","either","7","346","","","","","","","0","0","1","0.1535707797","","0.4","0.6","0.8","0.2","","","","","0.1535707797","0.1933595846","0.2157370886","0.4407560021","","","","","","","","72","H","0","img/none_selected.jpg","","164","main_expt"
"","bandit","244","718886","0.0-205.0-0.0","00296076","wem/bandit_either_2","ACDX50KGPE97I","either","7","420","","","","","","","0","0","1","0.2166787898","","0.4","0.6","0.8","0.2","","","","","0.2315934193","0.167552211","0.2166787898","0.4582960521","","","","","","","","75","K","2","","","165","main_expt"
"","bandit","245","720814","0.0-206.0-0.0","00296076","wem/bandit_either_2","ACDX50KGPE97I","either","7","416","","","","","","","0","0","1","","0.4337500892","0.4","0.6","0.8","0.2","0.2579087381","0.1311237951","0.1846262972","0.4337500892","","","","","","","","","","","","76","L","3","","","166","main_expt"
"","bandit","246","722441","0.0-207.0-0.0","00296076","wem/bandit_either_2","ACDX50KGPE97I","either","7","118","","","","","","","0","0","1","","0.2496457694","0.4","0.6","0.8","0.2","0.2496457694","0.1714029316","0.1888750078","0.4537582576","","","","","","","","","","","","72","H","0","img/none_selected.jpg","","167","main_expt"
"","bandit","247","724191","0.0-208.0-0.0","00296076","wem/bandit_either_2","ACDX50KGPE97I","either","7","238","","","","","","","0","0","1","0.1494402723","","0.4","0.6","0.8","0.2","","","","","0.234558796","0.1494402723","0.2315683769","0.4473485534","","","","","","","","74","J","1","","","168","main_expt"
"","bandit","248","726056","0.0-209.0-0.0","00296076","wem/bandit_either_2","ACDX50KGPE97I","either","7","346","","","","","","","0","0","1","","0.2018123945","0.4","0.6","0.8","0.2","0.2458600006","0.1819888556","0.2018123945","0.4471591033","","","","","","","","","","","","75","K","2","","","169","main_expt"
"","bandit","249","727710","0.0-210.0-0.0","00296076","wem/bandit_either_2","ACDX50KGPE97I","either","7","144","","","","","","","0","1","0","","0.4581839475","0.4","0.6","0.8","0.2","0.2214583157","0.2329206984","0.139238222","0.4581839475","","","","","","","","","","","","76","L","3","","","170","main_expt"
"","bandit","250","729326","0.0-211.0-0.0","00296076","wem/bandit_either_2","ACDX50KGPE97I","either","7","108","","","","","","","0","1","0","","0.4674995421","0.4","0.6","0.8","0.2","0.296208115","0.2000607923","0.1466511374","0.4674995421","","","","","","","","","","","","76","L","3","","","171","main_expt"
"","bandit","251","730975","0.0-212.0-0.0","00296076","wem/bandit_either_2","ACDX50KGPE97I","either","7","139","","","","","","","0","0","1","","0.4455620345","0.4","0.6","0.8","0.2","0.3062379281","0.2342957318","0.1348290388","0.4455620345","","","","","","","","","","","","76","L","3","","","172","main_expt"
"","bandit","252","732727","0.0-213.0-0.0","00296076","wem/bandit_either_2","ACDX50KGPE97I","either","7","231","","","","","","","0","0","1","0.4471610379","","0.4","0.6","0.8","0.2","","","","","0.2498067723","0.2189308077","0.1521691919","0.4471610379","","","","","","","","76","L","3","","","173","main_expt"
"","bandit","253","734373","0.0-214.0-0.0","00296076","wem/bandit_either_2","ACDX50KGPE97I","either","7","137","","","","","","","0","0","1","","0.1803522277","0.4","0.6","0.8","0.2","0.1803522277","0.2373932689","0.2191935525","0.4496576915","","","","","","","","","","","","72","H","0","img/none_selected.jpg","","174","main_expt"
"","bandit","254","736216","0.0-215.0-0.0","00296076","wem/bandit_either_2","ACDX50KGPE97I","either","7","325","","","","","","","0","0","1","0.2160264752","","0.4","0.6","0.8","0.2","","","","","0.2014319342","0.2160264752","0.219961305","0.4715297358","","","","","","","","74","J","1","","","175","main_expt"
"","bandit","255","737926","0.0-216.0-0.0","00296076","wem/bandit_either_2","ACDX50KGPE97I","either","7","197","","","","","","","0","0","1","0.1882485239","","0.4","0.6","0.8","0.2","","","","","0.2122003168","0.1990604306","0.1882485239","0.477956151","","","","","","","","75","K","2","","","176","main_expt"
"","bandit","256","739815","0.0-217.0-0.0","00296076","wem/bandit_either_2","ACDX50KGPE97I","either","7","381","","","","","","","0","1","0","","0.4563721206","0.4","0.6","0.8","0.2","0.2629069455","0.1729978196","0.1644902553","0.4563721206","","","","","","","","","","","","76","L","3","","","177","main_expt"
"","bandit","257","741696","0.0-218.0-0.0","00296076","wem/bandit_either_2","ACDX50KGPE97I","either","7","369","","","","","","","0","1","0","","0.4409869931","0.4","0.6","0.8","0.2","0.2336104206","0.1633080779","0.1713669852","0.4409869931","","","","","","","","","","","","76","L","3","","","178","main_expt"
"","bandit","258","743498","0.0-219.0-0.0","00296076","wem/bandit_either_2","ACDX50KGPE97I","either","7","291","","","","","","","0","0","1","","0.4243126063","0.4","0.6","0.8","0.2","0.1887504226","0.1243251356","0.2263400462","0.4243126063","","","","","","","","","","","","76","L","3","","","179","main_expt"
"","bandit","259","745221","0.0-220.0-0.0","00296076","wem/bandit_either_2","ACDX50KGPE97I","either","7","203","","","","","","","0","1","0","","0.4312830743","0.4","0.6","0.8","0.2","0.138376641","0.1150149055","0.2036870175","0.4312830743","","","","","","","","","","","","76","L","3","","","180","main_expt"
"","bandit","260","746766","0.0-221.0-0.0","00296076","wem/bandit_either_2","ACDX50KGPE97I","either","7","37","","","","","","","0","1","0","","0.4433127893","0.4","0.6","0.8","0.2","0.1883992559","0.1407924877","0.1934599198","0.4433127893","","","","","","","","","","","","76","L","3","","","181","main_expt"
"","bandit","261","748653","0.0-222.0-0.0","00296076","wem/bandit_either_2","ACDX50KGPE97I","either","7","373","","","","","","","0","0","1","","0.440136403","0.4","0.6","0.8","0.2","0.128889003","0.09672650852","0.2424515525","0.440136403","","","","","","","","","","","","76","L","3","","","182","main_expt"
"","bandit","262","750358","0.0-223.0-0.0","00296076","wem/bandit_either_2","ACDX50KGPE97I","either","7","196","","","","","","","0","0","1","0.09888002855","","0.4","0.6","0.8","0.2","","","","","0.1748769843","0.09888002855","0.1961777535","0.4347693449","","","","","","","","74","J","1","","","183","main_expt"
"","bandit","263","752046","0.0-224.0-0.0","00296076","wem/bandit_either_2","ACDX50KGPE97I","either","7","169","","","","","","","0","0","1","0.1489283113","","0.4","0.6","0.8","0.2","","","","","0.1945994373","0.07200145298","0.1489283113","0.4277130926","","","","","","","","75","K","2","","","184","main_expt"
"","bandit","264","753846","0.0-225.0-0.0","00296076","wem/bandit_either_2","ACDX50KGPE97I","either","7","293","","","","","","","0","0","1","0.3956248437","","0.4","0.6","0.8","0.2","","","","","0.1644748654","0.09476413333","0.1499965078","0.3956248437","","","","","","","","76","L","3","","","185","main_expt"
"","bandit","265","755629","0.0-226.0-0.0","00296076","wem/bandit_either_2","ACDX50KGPE97I","either","7","274","","","","","","","0","0","1","","0.1504635592","0.4","0.6","0.8","0.2","0.1504635592","0.06556422103","0.2169832988","0.3748928266","","","","","","","","","","","","72","H","0","img/none_selected.jpg","","186","main_expt"
"","bandit","266","757422","0.0-227.0-0.0","00296076","wem/bandit_either_2","ACDX50KGPE97I","either","7","274","","","","","","","0","1","0","","0.3848139325","0.4","0.6","0.8","0.2","0.1760039214","0.08901149072","0.2655186329","0.3848139325","","","","","","","","","","","","76","L","3","","","187","main_expt"
"","bandit","267","759228","0.0-228.0-0.0","00296076","wem/bandit_either_2","ACDX50KGPE97I","either","7","292","","","","","","","0","1","0","","0.3990176401","0.4","0.6","0.8","0.2","0.1203267588","0.09471428588","0.2738785118","0.3990176401","","","","","","","","","","","","76","L","3","","","188","main_expt"
"","bandit","268","761014","0.0-229.0-0.0","00296076","wem/bandit_either_2","ACDX50KGPE97I","either","7","274","","","","","","","0","0","1","","0.3581396838","0.4","0.6","0.8","0.2","0.1171540391","0.05118235823","0.3041874674","0.3581396838","","","","","","","","","","","","76","L","3","","","189","main_expt"
"","bandit","269","762790","0.0-230.0-0.0","00296076","wem/bandit_either_2","ACDX50KGPE97I","either","7","256","","","","","","","0","0","1","0.05788318751","","0.4","0.6","0.8","0.2","","","","","0.1535230761","0.05788318751","0.3229453735","0.2882972244","","","","","","","","74","J","1","","","190","main_expt"
"","bandit","270","764441","0.0-231.0-0.0","00296076","wem/bandit_either_2","ACDX50KGPE97I","either","7","141","","","","","","","1","0","0","0.3818249757","","0.4","0.6","0.8","0.2","","","","","0.1372750947","0.08736915481","0.3818249757","0.3145326233","","","","","","","","75","K","2","","","191","main_expt"
"","bandit","271","766158","0.0-232.0-0.0","00296076","wem/bandit_either_2","ACDX50KGPE97I","either","7","195","","","","","","","0","1","0","","0.4157726243","0.4","0.6","0.8","0.2","0.1047771501","0.08251019118","0.4157726243","0.3270603702","","","","","","","","","","","","75","K","2","","","192","main_expt"
"","bandit","272","767934","0.0-233.0-0.0","00296076","wem/bandit_either_2","ACDX50KGPE97I","either","7","256","","","","","","","0","0","1","0.4611608212","","0.4","0.6","0.8","0.2","","","","","0.1100845432","0.06897628064","0.4611608212","0.3604030797","","","","","","","","75","K","2","","","193","main_expt"
"","bandit","273","769558","0.0-234.0-0.0","00296076","wem/bandit_either_2","ACDX50KGPE97I","either","7","103","","","","","","","0","0","1","0.4508818777","","0.4","0.6","0.8","0.2","","","","","0.1468163818","0.06801266305","0.4508818777","0.357423186","","","","","","","","75","K","2","","","194","main_expt"
"","bandit","274","771431","0.0-235.0-0.0","00296076","wem/bandit_either_2","ACDX50KGPE97I","either","7","353","","","","","","","0","1","0","","0.3697779856","0.4","0.6","0.8","0.2","0.1495594621","0.09923709358","0.4278921451","0.3697779856","","","","","","","","","","","","76","L","3","","","195","main_expt"
"","bandit","275","773206","0.0-236.0-0.0","00296076","wem/bandit_either_2","ACDX50KGPE97I","either","7","265","","","","","","","1","0","0","0.3617177512","","0.4","0.6","0.8","0.2","","","","","0.2263220537","0.1103063831","0.4256293003","0.3617177512","","","","","","","","76","L","3","","","196","main_expt"
"","bandit","276","774986","0.0-237.0-0.0","00296076","wem/bandit_either_2","ACDX50KGPE97I","either","7","263","","","","","","","0","0","1","","0.3775990084","0.4","0.6","0.8","0.2","0.2204718804","0.07377144043","0.4476975038","0.3775990084","","","","","","","","","","","","76","L","3","","","197","main_expt"
"","bandit","277","776510","0.0-238.0-0.0","00296076","wem/bandit_either_2","ACDX50KGPE97I","either","7","4","","","","","","","0","0","1","","0.4434357272","0.4","0.6","0.8","0.2","0.2401118457","0.08863448313","0.4434357272","0.4144042571","","","","","","","","","","","","75","K","2","","","198","main_expt"
"","bandit","278","778237","0.0-239.0-0.0","00296076","wem/bandit_either_2","ACDX50KGPE97I","either","7","206","","","","","","","0","0","1","0.4081775392","","0.4","0.6","0.8","0.2","","","","","0.2673724497","0.1082179128","0.4245114622","0.4081775392","","","","","","","","76","L","3","","","199","main_expt"
"","bandit","279","780069","0.0-240.0-0.0","00296076","wem/bandit_either_2","ACDX50KGPE97I","either","7","319","","","","","","","0","0","1","0.09350688576","","0.4","0.6","0.8","0.2","","","","","0.3125307902","0.09350688576","0.4087100315","0.4166156547","","","","","","","","74","J","1","","","200","main_expt"
"","bandit","280","781797","0.0-241.0-0.0","00296076","wem/bandit_either_2","ACDX50KGPE97I","either","7","211","","","","","","","1","0","0","0.2914574258","","0.4","0.6","0.8","0.2","","","","","0.2914574258","0.1036625099","0.4361521275","0.4306537176","","","","","","","","72","H","0","img/none_selected.jpg","","201","main_expt"
"","bandit","281","783444","0.0-242.0-0.0","00296076","wem/bandit_either_2","ACDX50KGPE97I","either","7","128","","","","","","","0","0","1","","0.2550600684","0.4","0.6","0.8","0.2","0.2550600684","0.1216733889","0.3332596158","0.449382563","","","","","","","","","","","","72","H","0","img/none_selected.jpg","","202","main_expt"
"","bandit","282","785158","0.0-243.0-0.0","00296076","wem/bandit_either_2","ACDX50KGPE97I","either","7","196","","","","","","","0","0","1","0.2769745997","","0.4","0.6","0.8","0.2","","","","","0.2769745997","0.120655788","0.3581848779","0.4506576586","","","","","","","","72","H","0","img/none_selected.jpg","","203","main_expt"
"","bandit","283","787030","0.0-244.0-0.0","00296076","wem/bandit_either_2","ACDX50KGPE97I","either","7","361","","","","","","","0","0","1","0.2752990059","","0.4","0.6","0.8","0.2","","","","","0.2752990059","0.1082970726","0.3597133043","0.454839243","","","","","","","","72","H","0","img/none_selected.jpg","","204","main_expt"
"","bandit","284","788993","0.0-245.0-0.0","00296076","wem/bandit_either_2","ACDX50KGPE97I","either","7","440","","","","","","","0","0","1","0.3630183988","","0.4","0.6","0.8","0.2","","","","","0.2901512169","0.09143681274","0.3630183988","0.4512889682","","","","","","","","75","K","2","","","205","main_expt"
"","bandit","285","790860","0.0-246.0-0.0","00296076","wem/bandit_either_2","ACDX50KGPE97I","either","7","346","","","","","","","0","1","0","","0.4591490044","0.4","0.6","0.8","0.2","0.2823763913","0.08377413986","0.3737494834","0.4591490044","","","","","","","","","","","","76","L","3","","","206","main_expt"
"","bandit","286","792556","0.0-247.0-0.0","00296076","wem/bandit_either_2","ACDX50KGPE97I","either","7","185","","","","","","","0","0","1","0.4650593633","","0.4","0.6","0.8","0.2","","","","","0.2708062506","0.1585073664","0.3668784438","0.4650593633","","","","","","","","76","L","3","","","207","main_expt"
"","bandit","287","794519","0.0-248.0-0.0","00296076","wem/bandit_either_2","ACDX50KGPE97I","either","7","451","","","","","","","0","1","0","","0.162299901","0.4","0.6","0.8","0.2","0.2641553663","0.162299901","0.4045351895","0.4641513068","","","","","","","","","","","","74","J","1","","","208","main_expt"
"","bandit","288","796181","0.0-249.0-0.0","00296076","wem/bandit_either_2","ACDX50KGPE97I","either","7","143","","","","","","","0","0","1","0.1542266077","","0.4","0.6","0.8","0.2","","","","","0.2704675845","0.1542266077","0.4402386934","0.4567807332","","","","","","","","74","J","1","","","209","main_expt"
"","bandit","289","797861","0.0-250.0-0.0","00296076","wem/bandit_either_2","ACDX50KGPE97I","either","7","169","","","","","","","0","0","1","","0.1890415559","0.4","0.6","0.8","0.2","0.3420868926","0.1890415559","0.4483623408","0.428253188","","","","","","","","","","","","74","J","1","","","210","main_expt"
"","bandit","290","799534","0.0-251.0-0.0","00296076","wem/bandit_either_2","ACDX50KGPE97I","either","7","163","","","","","","","0","1","0","","0.410271385","0.4","0.6","0.8","0.2","0.3069688952","0.1818133019","0.4471415093","0.410271385","","","","","","","","","","","","76","L","3","","","211","main_expt"
"","bandit","291","801238","0.0-252.0-0.0","00296076","wem/bandit_either_2","ACDX50KGPE97I","either","7","191","","","","","","","0","1","0","","0.4065587724","0.4","0.6","0.8","0.2","0.3005379093","0.1782747956","0.4374655127","0.4065587724","","","","","","","","","","","","76","L","3","","","212","main_expt"
"","bandit","292","803085","0.0-253.0-0.0","00296076","wem/bandit_either_2","ACDX50KGPE97I","either","7","325","","","","","","","0","0","1","","0.4007116542","0.4","0.6","0.8","0.2","0.213882915","0.1935195711","0.4381457257","0.4007116542","","","","","","","","","","","","76","L","3","","","213","main_expt"
"","bandit","293","804684","0.0-254.0-0.0","00296076","wem/bandit_either_2","ACDX50KGPE97I","either","7","90","","","","","","","1","0","0","0.4643769008","","0.4","0.6","0.8","0.2","","","","","0.2138557204","0.2421176173","0.4643769008","0.4246209323","","","","","","","","75","K","2","","","214","main_expt"
"","bandit","294","806461","0.0-255.0-0.0","00296076","wem/bandit_either_2","ACDX50KGPE97I","either","7","257","","","","","","","0","0","1","","0.4328812357","0.4","0.6","0.8","0.2","0.2142566612","0.2629876012","0.4328812357","0.3993057066","","","","","","","","","","","","75","K","2","","","215","main_expt"
"","bandit","295","808007","0.0-256.0-0.0","00296076","wem/bandit_either_2","ACDX50KGPE97I","either","7","35","","","","","","","0","0","1","","0.4064507999","0.4","0.6","0.8","0.2","0.1900351118","0.2977714141","0.4064507999","0.3987772474","","","","","","","","","","","","75","K","2","","","216","main_expt"
"","bandit","296","809622","0.0-257.0-0.0","00296076","wem/bandit_either_2","ACDX50KGPE97I","either","7","95","","","","","","","0","0","1","","0.2185169477","0.4","0.6","0.8","0.2","0.2185169477","0.3017601552","0.4197961641","0.4101433534","","","","","","","","","","","","72","H","0","img/none_selected.jpg","","217","main_expt"
"","bandit","297","811134","0.0-258.0-0.0","00296076","wem/bandit_either_2","ACDX50KGPE97I","either","7","2","","","","","","","0","0","1","","0.4448029092","0.4","0.6","0.8","0.2","0.2240895604","0.2888566207","0.4167397569","0.4448029092","","","","","","","","","","","","76","L","3","","","218","main_expt"
"","bandit","298","813096","0.0-259.0-0.0","00296076","wem/bandit_either_2","ACDX50KGPE97I","either","7","450","","","","","","","1","0","0","0.2844008008","","0.4","0.6","0.8","0.2","","","","","0.1990808675","0.2844008008","0.4250944588","0.4454766299","","","","","","","","74","J","1","","","219","main_expt"
"","bandit","299","814661","0.0-260.0-0.0","00296076","wem/bandit_either_2","ACDX50KGPE97I","either","7","43","","","","","","","0","0","1","","0.2225062479","0.4","0.6","0.8","0.2","0.266602996","0.2225062479","0.4173336587","0.4610997771","","","","","","","","","","","","74","J","1","","","220","main_expt"
"","bandit","300","816398","0.0-261.0-0.0","00296076","wem/bandit_either_2","ACDX50KGPE97I","either","7","214","","","","","","","1","0","0","0.3944711005","","0.4","0.6","0.8","0.2","","","","","0.2443661227","0.2409900116","0.3944711005","0.4642289789","","","","","","","","75","K","2","","","221","main_expt"
"","bandit","301","817962","0.0-262.0-0.0","00296076","wem/bandit_either_2","ACDX50KGPE97I","either","7","47","","","","","","","0","0","1","0.3619306912","","0.4","0.6","0.8","0.2","","","","","0.2205922116","0.1989678636","0.3619306912","0.4641270597","","","","","","","","75","K","2","","","222","main_expt"
"","bandit","302","819632","0.0-263.0-0.0","00296076","wem/bandit_either_2","ACDX50KGPE97I","either","7","145","","","","","","","0","0","1","0.1902867071","","0.4","0.6","0.8","0.2","","","","","0.1861223506","0.1902867071","0.4117842179","0.4697433819","","","","","","","","74","J","1","","","223","main_expt"
"","bandit","303","821287","0.0-264.0-0.0","00296076","wem/bandit_either_2","ACDX50KGPE97I","either","7","134","","","","","","","1","0","0","0.460898083","","0.4","0.6","0.8","0.2","","","","","0.1668884863","0.2076415522","0.3965092367","0.460898083","","","","","","","","76","L","3","","","224","main_expt"
"","bandit","304","822960","0.0-265.0-0.0","00296076","wem/bandit_either_2","ACDX50KGPE97I","either","7","162","","","","","","","1","0","0","0.4394890665","","0.4","0.6","0.8","0.2","","","","","0.1481472712","0.2393469174","0.4084477862","0.4394890665","","","","","","","","76","L","3","","","225","main_expt"
"","bandit","305","824671","0.0-266.0-0.0","00296076","wem/bandit_either_2","ACDX50KGPE97I","either","7","199","","","","","","","0","0","1","","0.4520955237","0.4","0.6","0.8","0.2","0.1140846591","0.2425440376","0.4104601526","0.4520955237","","","","","","","","","","","","76","L","3","","","226","main_expt"
"","bandit","306","826296","0.0-267.0-0.0","00296076","wem/bandit_either_2","ACDX50KGPE97I","either","7","105","","","","","","","1","0","0","0.4324220164","","0.4","0.6","0.8","0.2","","","","","0.1074218354","0.2365603363","0.3899733519","0.4324220164","","","","","","","","76","L","3","","","227","main_expt"
"","bandit","307","828049","0.0-268.0-0.0","00296076","wem/bandit_either_2","ACDX50KGPE97I","either","7","242","","","","","","","0","1","0","","0.4220482421","0.4","0.6","0.8","0.2","0.08065165665","0.2127958296","0.3796730737","0.4220482421","","","","","","","","","","","","76","L","3","","","228","main_expt"
"","bandit","308","829728","0.0-269.0-0.0","00296076","wem/bandit_either_2","ACDX50KGPE97I","either","7","153","","","","","","","0","0","1","0.3885749154","","0.4","0.6","0.8","0.2","","","","","0.07774059362","0.2207861463","0.4046866514","0.3885749154","","","","","","","","76","L","3","","","229","main_expt"
"","bandit","309","831336","0.0-270.0-0.0","00296076","wem/bandit_either_2","ACDX50KGPE97I","either","7","85","","","","","","","0","1","0","","0.4023755806","0.4","0.6","0.8","0.2","0.1109483114","0.2589226453","0.3988793555","0.4023755806","","","","","","","","","","","","76","L","3","","","230","main_expt"
"","bandit","310","833031","0.0-271.0-0.0","00296076","wem/bandit_either_2","ACDX50KGPE97I","either","7","172","","","","","","","0","0","1","","0.3768725222","0.4","0.6","0.8","0.2","0.05902300203","0.2956158432","0.3981898202","0.3768725222","","","","","","","","","","","","76","L","3","","","231","main_expt"
"","bandit","311","834553","0.0-272.0-0.0","00296076","wem/bandit_either_2","ACDX50KGPE97I","either","7","9","","","","","","","0","0","1","","0.3619917427","0.4","0.6","0.8","0.2","0.06675855664","0.3202484073","0.4411941832","0.3619917427","","","","","","","","","","","","76","L","3","","","232","main_expt"
"","bandit","312","836118","0.0-273.0-0.0","00296076","wem/bandit_either_2","ACDX50KGPE97I","either","7","54","","","","","","","0","0","1","0.2933644042","","0.4","0.6","0.8","0.2","","","","","0.06703699679","0.2933644042","0.42967461","0.3833578816","","","","","","","","74","J","1","","","233","main_expt"
"","bandit","313","838119","0.0-274.0-0.0","00296076","wem/bandit_either_2","ACDX50KGPE97I","either","7","479","","","","","","","0","0","1","0.4242798354","","0.4","0.6","0.8","0.2","","","","","0.05331023031","0.3106154811","0.4242798354","0.3552131768","","","","","","","","75","K","2","","","234","main_expt"
"","bandit","314","839711","0.0-275.0-0.0","00296076","wem/bandit_either_2","ACDX50KGPE97I","either","7","69","","","","","","","0","0","1","0.05187545802","","0.4","0.6","0.8","0.2","","","","","0.05187545802","0.3158990995","0.4617388459","0.3135084543","","","","","","","","72","H","0","img/none_selected.jpg","","235","main_expt"
"","bandit","315","841366","0.0-276.0-0.0","00296076","wem/bandit_either_2","ACDX50KGPE97I","either","7","134","","","","","","","0","0","1","","0.244945467","0.4","0.6","0.8","0.2","0.06939909985","0.3036927748","0.4619510484","0.244945467","","","","","","","","","","","","76","L","3","","","236","main_expt"
"","bandit","316","842966","0.0-277.0-0.0","00296076","wem/bandit_either_2","ACDX50KGPE97I","either","7","90","","","","","","","0","0","1","","0.1823839079","0.4","0.6","0.8","0.2","0.1210409879","0.3491021326","0.4482398789","0.1823839079","","","","","","","","","","","","76","L","3","","","237","main_expt"
"","bandit","317","844681","0.0-278.0-0.0","00296076","wem/bandit_either_2","ACDX50KGPE97I","either","7","197","","","","","","","0","0","1","","0.3939254097","0.4","0.6","0.8","0.2","0.1147840357","0.3939254097","0.4193969143","0.1685050226","","","","","","","","","","","","74","J","1","","","238","main_expt"
"","bandit","318","846446","0.0-279.0-0.0","00296076","wem/bandit_either_2","ACDX50KGPE97I","either","7","243","","","","","","","0","0","1","0.4203848948","","0.4","0.6","0.8","0.2","","","","","0.1006463842","0.379108978","0.4203848948","0.1606472637","","","","","","","","75","K","2","","","239","main_expt"
"","bandit","319","848119","0.0-280.0-0.0","00296076","wem/bandit_either_2","ACDX50KGPE97I","either","7","156","","","","","","","0","0","1","0.1008771133","","0.4","0.6","0.8","0.2","","","","","0.1008771133","0.3876209848","0.4489383263","0.1512795466","","","","","","","","72","H","0","img/none_selected.jpg","","240","main_expt"
"","bandit","320","849962","0.0-281.0-0.0","00296076","wem/bandit_either_2","ACDX50KGPE97I","either","7","326","","","","","","","1","0","0","0.3839625774","","0.4","0.6","0.8","0.2","","","","","0.09981833296","0.3839625774","0.4636195567","0.1916219391","","","","","","","","74","J","1","","","241","main_expt"
"","bandit","321","851680","0.0-282.0-0.0","00296076","wem/bandit_either_2","ACDX50KGPE97I","either","7","205","","","","","","","0","0","1","","0.3477958629","0.4","0.6","0.8","0.2","0.1171772993","0.3477958629","0.4575307695","0.1641013935","","","","","","","","","","","","74","J","1","","","242","main_expt"
"","bandit","322","853407","0.0-283.0-0.0","00296076","wem/bandit_either_2","ACDX50KGPE97I","either","7","200","","","","","","","0","1","0","","0.3500658948","0.4","0.6","0.8","0.2","0.1239984651","0.3500658948","0.4449554393","0.2064320789","","","","","","","","","","","","74","J","1","","","243","main_expt"
"","bandit","323","855255","0.0-284.0-0.0","00296076","wem/bandit_either_2","ACDX50KGPE97I","either","7","326","","","","","","","0","0","1","","0.3452717574","0.4","0.6","0.8","0.2","0.1126152289","0.3452717574","0.4525763452","0.2205496082","","","","","","","","","","","","74","J","1","","","244","main_expt"
"","bandit","324","857071","0.0-285.0-0.0","00296076","wem/bandit_either_2","ACDX50KGPE97I","either","7","290","","","","","","","0","0","1","","0.3162288444","0.4","0.6","0.8","0.2","0.1524829061","0.3162288444","0.4753838692","0.214276823","","","","","","","","","","","","74","J","1","","","245","main_expt"
"","bandit","325","859065","0.0-286.0-0.0","00296076","wem/bandit_either_2","ACDX50KGPE97I","either","7","470","","","","","","","0","0","1","0.4623654582","","0.4","0.6","0.8","0.2","","","","","0.1921750243","0.2894596967","0.4623654582","0.2084567316","","","","","","","","75","K","2","","","246","main_expt"
"","bandit","326","860854","0.0-287.0-0.0","00296076","wem/bandit_either_2","ACDX50KGPE97I","either","7","267","","","","","","","0","0","1","","0.2232303491","0.4","0.6","0.8","0.2","0.1931065189","0.2642296388","0.4331165165","0.2232303491","","","","","","","","","","","","76","L","3","","","247","main_expt"
"","bandit","327","862520","0.0-288.0-0.0","00296076","wem/bandit_either_2","ACDX50KGPE97I","either","7","145","","","","","","","0","0","1","0.2189994516","","0.4","0.6","0.8","0.2","","","","","0.2189994516","0.2534255255","0.4401602984","0.2541796534","","","","","","","","72","H","0","img/none_selected.jpg","","248","main_expt"
"","bandit","328","864230","0.0-289.0-0.0","00296076","wem/bandit_either_2","ACDX50KGPE97I","either","7","189","","","","","","","0","1","0","","0.430892824","0.4","0.6","0.8","0.2","0.1989243371","0.2252980971","0.430892824","0.232462199","","","","","","","","","","","","75","K","2","","","249","main_expt"
"","bandit","329","865902","0.0-290.0-0.0","00296076","wem/bandit_either_2","ACDX50KGPE97I","either","7","156","","","","","","","0","0","1","","0.4282509168","0.4","0.6","0.8","0.2","0.1635706079","0.298830738","0.4282509168","0.2877664065","","","","","","","","","","","","75","K","2","","","250","main_expt"
