"consent","trial_type","trial_index","time_elapsed","internal_node_id","subjID","study","MID","cond","drift","rt","responses","key_press","expt_phase","like","value","connected","gems","bombs","no_reward","GemPrChosen","BombPrChosen","GainOverPainPr_0","GainOverPainPr_1","GainOverPainPr_2","GainOverPainPr_3","LosePr_0","LosePr_1","LosePr_2","LosePr_3","WinPr_0","WinPr_1","WinPr_2","WinPr_3","Q0","Q1","Q2","gender","age","ethnicity","target","respCharCode","respKey","respChoiceNum","respChoice","practice","trial_counter","trial_label"
"INL_behavioral_consent_30min_online.html","consent","0","17432","0.0-0.0","00526075","wem/bandit_either_2","AR75XTT2KAUL2","either","8","","","","","","","","","","","","","","","","","","","","","","","","","","","","","","","","","","","","","",""
"","survey-text","1","23847","0.0-1.0","00526075","wem/bandit_either_2","AR75XTT2KAUL2","either","8","5410","{""Q0"":""AR75XTT2KAUL2""}","","","","","","","","","","","","","","","","","","","","","","","","","","","","","","","","","","","",""
"","text","2","34625","0.0-2.0","00526075","wem/bandit_either_2","AR75XTT2KAUL2","either","8","9775","","32","","","","","","","","","","","","","","","","","","","","","","","","","","","","","","","","","","",""
"","text","3","41137","0.0-3.0","00526075","wem/bandit_either_2","AR75XTT2KAUL2","either","8","6511","","32","","","","","","","","","","","","","","","","","","","","","","","","","","","","","","","","","","",""
"","text","4","118438","0.0-4.0","00526075","wem/bandit_either_2","AR75XTT2KAUL2","either","8","77300","","32","","","","","","","","","","","","","","","","","","","","","","","","","","","","","","","","","","",""
"","text","5","136045","0.0-5.0","00526075","wem/bandit_either_2","AR75XTT2KAUL2","either","8","17606","","32","","","","","","","","","","","","","","","","","","","","","","","","","","","","","","","","","","",""
"","text","6","154527","0.0-6.0","00526075","wem/bandit_either_2","AR75XTT2KAUL2","either","8","18481","","32","","","","","","","","","","","","","","","","","","","","","","","","","","","","","","","","","","",""
"","text","7","165974","0.0-7.0","00526075","wem/bandit_either_2","AR75XTT2KAUL2","either","8","11445","","32","","","","","","","","","","","","","","","","","","","","","","","","","","","","","","","","","","",""
"","text","8","172640","0.0-8.0","00526075","wem/bandit_either_2","AR75XTT2KAUL2","either","8","6664","","32","","","","","","","","","","","","","","","","","","","","","","","","","","","","","","","","","","",""
"","identification","9","186994","0.0-9.0-0.0","00526075","wem/bandit_either_2","AR75XTT2KAUL2","either","8","14339","","","","3","3","3","","","","","","","","","","","","","","","","","","","","","","","","the village of Zur","","","","","","",""
"","identification","10","192409","0.0-9.0-1.0","00526075","wem/bandit_either_2","AR75XTT2KAUL2","either","8","4403","","","","3","3","3","","","","","","","","","","","","","","","","","","","","","","","","the village of Nyx","","","","","","",""
"","text","11","204243","0.0-10.0","00526075","wem/bandit_either_2","AR75XTT2KAUL2","either","8","10833","","32","","","","","","","","","","","","","","","","","","","","","","","","","","","","","","","","","","",""
"","text","12","209910","0.0-11.0","00526075","wem/bandit_either_2","AR75XTT2KAUL2","either","8","5666","","32","","","","","","","","","","","","","","","","","","","","","","","","","","","","","","","","","","",""
"","text","13","212713","0.0-12.0","00526075","wem/bandit_either_2","AR75XTT2KAUL2","either","8","2801","","32","","","","","","","","","","","","","","","","","","","","","","","","","","","","","","","","","","",""
"","text","14","216904","0.0-13.0","00526075","wem/bandit_either_2","AR75XTT2KAUL2","either","8","4190","","32","","","","","","","","","","","","","","","","","","","","","","","","","","","","","","","","","","",""
"","bandit","15","222433","0.0-14.0-0.0","00526075","wem/bandit_either_2","AR75XTT2KAUL2","either","8","4025","","","","","","","0","0","1","0","0","","","","","0","","","","0","","","","","","","","","","","74","J","0","img/none_selected_demo.jpg","true","0",""
"","bandit","16","225259","0.0-15.0-0.0","00526075","wem/bandit_either_2","AR75XTT2KAUL2","either","8","1322","","","","","","","0","0","1","0","0","","","","","0","","","","0","","","","","","","","","","","75","K","0","img/none_selected_demo.jpg","true","0",""
"","text","17","233718","0.0-16.0","00526075","wem/bandit_either_2","AR75XTT2KAUL2","either","8","8457","","32","","","","","","","","","","","","","","","","","","","","","","","","","","","","","","","","","","",""
"","text","18","246151","0.0-17.0","00526075","wem/bandit_either_2","AR75XTT2KAUL2","either","8","12432","","32","","","","","","","","","","","","","","","","","","","","","","","","","","","","","","","","","","",""
"","text","19","254500","0.0-18.0","00526075","wem/bandit_either_2","AR75XTT2KAUL2","either","8","8347","","32","","","","","","","","","","","","","","","","","","","","","","","","","","","","","","","","","","",""
"","text","20","258463","0.0-19.0","00526075","wem/bandit_either_2","AR75XTT2KAUL2","either","8","3961","","32","","","","","","","","","","","","","","","","","","","","","","","","","","","","","","","","","","",""
"","bandit","21","261497","0.0-20.0-0.0","00526075","wem/bandit_either_2","AR75XTT2KAUL2","either","8","1531","","","","","","","0","0","1","","0.8","0.5","0.5","","","0.8","0.2","","","","","","","","","","","","","","74","J","0","img/none_selected_demo.jpg","true","0","80_20_practice"
"","bandit","22","263642","0.0-20.0-1.0","00526075","wem/bandit_either_2","AR75XTT2KAUL2","either","8","640","","","","","","","0","1","0","","0.8","0.5","0.5","","","0.8","0.2","","","","","","","","","","","","","","74","J","0","img/none_selected_demo.jpg","true","0","80_20_practice"
"","bandit","23","266344","0.0-20.0-2.0","00526075","wem/bandit_either_2","AR75XTT2KAUL2","either","8","1199","","","","","","","0","1","0","","0.8","0.5","0.5","","","0.8","0.2","","","","","","","","","","","","","","74","J","0","img/none_selected_demo.jpg","true","0","80_20_practice"
"","bandit","24","268949","0.0-20.0-3.0","00526075","wem/bandit_either_2","AR75XTT2KAUL2","either","8","1102","","","","","","","0","1","0","","0.8","0.5","0.5","","","0.8","0.2","","","","","","","","","","","","","","74","J","0","img/none_selected_demo.jpg","true","0","80_20_practice"
"","bandit","25","271395","0.0-20.0-4.0","00526075","wem/bandit_either_2","AR75XTT2KAUL2","either","8","943","","","","","","","1","0","0","0.8","","0.5","0.5","","","","","","","0.8","0.2","","","","","","","","","","74","J","0","img/none_selected_demo.jpg","true","0","80_20_practice"
"","bandit","26","273681","0.0-20.0-5.0","00526075","wem/bandit_either_2","AR75XTT2KAUL2","either","8","782","","","","","","","0","1","0","","0.8","0.5","0.5","","","0.8","0.2","","","","","","","","","","","","","","74","J","0","img/none_selected_demo.jpg","true","0","80_20_practice"
"","bandit","27","275706","0.0-20.0-6.0","00526075","wem/bandit_either_2","AR75XTT2KAUL2","either","8","521","","","","","","","0","1","0","","0.8","0.5","0.5","","","0.8","0.2","","","","","","","","","","","","","","74","J","0","img/none_selected_demo.jpg","true","0","80_20_practice"
"","bandit","28","277725","0.0-20.0-7.0","00526075","wem/bandit_either_2","AR75XTT2KAUL2","either","8","515","","","","","","","1","0","0","0.8","","0.5","0.5","","","","","","","0.8","0.2","","","","","","","","","","74","J","0","img/none_selected_demo.jpg","true","0","80_20_practice"
"","bandit","29","279768","0.0-20.0-8.0","00526075","wem/bandit_either_2","AR75XTT2KAUL2","either","8","541","","","","","","","0","0","1","0.8","","0.5","0.5","","","","","","","0.8","0.2","","","","","","","","","","74","J","0","img/none_selected_demo.jpg","true","0","80_20_practice"
"","bandit","30","281751","0.0-20.0-9.0","00526075","wem/bandit_either_2","AR75XTT2KAUL2","either","8","479","","","","","","","0","1","0","","0.8","0.5","0.5","","","0.8","0.2","","","","","","","","","","","","","","74","J","0","img/none_selected_demo.jpg","true","0","80_20_practice"
"","bandit","31","283708","0.0-20.0-10.0","00526075","wem/bandit_either_2","AR75XTT2KAUL2","either","8","454","","","","","","","0","1","0","","0.8","0.5","0.5","","","0.8","0.2","","","","","","","","","","","","","","74","J","0","img/none_selected_demo.jpg","true","0","80_20_practice"
"","bandit","32","285686","0.0-20.0-11.0","00526075","wem/bandit_either_2","AR75XTT2KAUL2","either","8","475","","","","","","","0","1","0","","0.8","0.5","0.5","","","0.8","0.2","","","","","","","","","","","","","","74","J","0","img/none_selected_demo.jpg","true","0","80_20_practice"
"","bandit","33","288009","0.0-20.0-12.0","00526075","wem/bandit_either_2","AR75XTT2KAUL2","either","8","819","","","","","","","1","0","0","0.8","","0.5","0.5","","","","","","","0.8","0.2","","","","","","","","","","74","J","0","img/none_selected_demo.jpg","true","0","80_20_practice"
"","bandit","34","289988","0.0-20.0-13.0","00526075","wem/bandit_either_2","AR75XTT2KAUL2","either","8","474","","","","","","","0","0","1","0.8","","0.5","0.5","","","","","","","0.8","0.2","","","","","","","","","","74","J","0","img/none_selected_demo.jpg","true","0","80_20_practice"
"","bandit","35","291998","0.0-20.0-14.0","00526075","wem/bandit_either_2","AR75XTT2KAUL2","either","8","506","","","","","","","0","0","1","","0.8","0.5","0.5","","","0.8","0.2","","","","","","","","","","","","","","74","J","0","img/none_selected_demo.jpg","true","0","80_20_practice"
"","bandit","36","293836","0.0-20.0-15.0","00526075","wem/bandit_either_2","AR75XTT2KAUL2","either","8","333","","","","","","","0","0","1","0.8","","0.5","0.5","","","","","","","0.8","0.2","","","","","","","","","","74","J","0","img/none_selected_demo.jpg","true","0","80_20_practice"
"","bandit","37","295650","0.0-20.0-16.0","00526075","wem/bandit_either_2","AR75XTT2KAUL2","either","8","310","","","","","","","0","1","0","","0.8","0.5","0.5","","","0.8","0.2","","","","","","","","","","","","","","74","J","0","img/none_selected_demo.jpg","true","0","80_20_practice"
"","bandit","38","298118","0.0-20.0-17.0","00526075","wem/bandit_either_2","AR75XTT2KAUL2","either","8","965","","","","","","","0","0","1","","0.8","0.5","0.5","","","0.8","0.2","","","","","","","","","","","","","","74","J","0","img/none_selected_demo.jpg","true","0","80_20_practice"
"","bandit","39","299941","0.0-20.0-18.0","00526075","wem/bandit_either_2","AR75XTT2KAUL2","either","8","319","","","","","","","0","0","1","","0.2","0.5","0.5","","","0.8","0.2","","","","","","","","","","","","","","75","K","1","","true","0","80_20_practice"
"","bandit","40","301735","0.0-20.0-19.0","00526075","wem/bandit_either_2","AR75XTT2KAUL2","either","8","290","","","","","","","1","0","0","0.8","","0.5","0.5","","","","","","","0.8","0.2","","","","","","","","","","74","J","0","img/none_selected_demo.jpg","true","0","80_20_practice"
"","text","41","305216","0.0-21.0","00526075","wem/bandit_either_2","AR75XTT2KAUL2","either","8","3479","","32","","","","","","","","","","","","","","","","","","","","","","","","","","","","","","","","","","",""
"","bandit","42","307921","0.0-22.0-0.0","00526075","wem/bandit_either_2","AR75XTT2KAUL2","either","8","1202","","","","","","","1","0","0","1","0","","","","","0","1","","","1","0","","","","","","","","","","74","J","0","img/none_selected_demo.jpg","true","0",""
"","text","43","314523","0.0-23.0","00526075","wem/bandit_either_2","AR75XTT2KAUL2","either","8","6600","","32","","","","","","","","","","","","","","","","","","","","","","","","","","","","","","","","","","",""
"","text","44","318559","0.0-24.0","00526075","wem/bandit_either_2","AR75XTT2KAUL2","either","8","4033","","32","","","","","","","","","","","","","","","","","","","","","","","","","","","","","","","","","","",""
"","text","45","322797","0.0-25.0","00526075","wem/bandit_either_2","AR75XTT2KAUL2","either","8","4236","","32","","","","","","","","","","","","","","","","","","","","","","","","","","","","","","","","","","",""
"","text","46","329912","0.0-26.0","00526075","wem/bandit_either_2","AR75XTT2KAUL2","either","8","7114","","32","","","","","","","","","","","","","","","","","","","","","","","","","","","","","","","","","","",""
"","text","47","341250","0.0-27.0","00526075","wem/bandit_either_2","AR75XTT2KAUL2","either","8","11337","","32","","","","","","","","","","","","","","","","","","","","","","","","","","","","","","","","","","",""
"","text","48","344979","0.0-28.0","00526075","wem/bandit_either_2","AR75XTT2KAUL2","either","8","3728","","32","","","","","","","","","","","","","","","","","","","","","","","","","","","","","","","","","","",""
"","text","49","358724","0.0-29.0","00526075","wem/bandit_either_2","AR75XTT2KAUL2","either","8","13743","","32","","","","","","","","","","","","","","","","","","","","","","","","","","","","","","","","","","",""
"","text","50","363530","0.0-30.0","00526075","wem/bandit_either_2","AR75XTT2KAUL2","either","8","4806","","32","","","","","","","","","","","","","","","","","","","","","","","","","","","","","","","","","","",""
"","text","51","372523","0.0-31.0","00526075","wem/bandit_either_2","AR75XTT2KAUL2","either","8","8991","","32","","","","","","","","","","","","","","","","","","","","","","","","","","","","","","","","","","",""
"","text","52","374684","0.0-32.0","00526075","wem/bandit_either_2","AR75XTT2KAUL2","either","8","2160","","32","","","","","","","","","","","","","","","","","","","","","","","","","","","","","","","","","","",""
"","text","53","383044","0.0-33.0","00526075","wem/bandit_either_2","AR75XTT2KAUL2","either","8","8357","","32","","","","","","","","","","","","","","","","","","","","","","","","","","","","","","","","","","",""
"","bandit","54","385855","0.0-34.0-0.0","00526075","wem/bandit_either_2","AR75XTT2KAUL2","either","8","1306","","","","","","","0","0","1","0.2","","0.5","0.5","0.5","0.5","","","","","0.8","0.2","0.6","0.2","","","","","","","","74","J","1","","true","0","full_practice"
"","bandit","55","387681","0.0-34.0-1.0","00526075","wem/bandit_either_2","AR75XTT2KAUL2","either","8","323","","","","","","","1","0","0","0.2","","0.5","0.5","0.5","0.5","","","","","0.8","0.2","0.6","0.2","","","","","","","","74","J","1","","true","0","full_practice"
"","bandit","56","389605","0.0-34.0-2.0","00526075","wem/bandit_either_2","AR75XTT2KAUL2","either","8","420","","","","","","","0","0","1","","0.2","0.5","0.5","0.5","0.5","0.8","0.2","0.6","0.2","","","","","","","","","","","","74","J","1","","true","0","full_practice"
"","bandit","57","391450","0.0-34.0-3.0","00526075","wem/bandit_either_2","AR75XTT2KAUL2","either","8","343","","","","","","","0","0","1","0.2","","0.5","0.5","0.5","0.5","","","","","0.8","0.2","0.6","0.2","","","","","","","","74","J","1","","true","0","full_practice"
"","bandit","58","393367","0.0-34.0-4.0","00526075","wem/bandit_either_2","AR75XTT2KAUL2","either","8","413","","","","","","","0","1","0","","0.2","0.5","0.5","0.5","0.5","0.8","0.2","0.6","0.2","","","","","","","","","","","","74","J","1","","true","0","full_practice"
"","bandit","59","395289","0.0-34.0-5.0","00526075","wem/bandit_either_2","AR75XTT2KAUL2","either","8","417","","","","","","","0","0","1","","0.2","0.5","0.5","0.5","0.5","0.8","0.2","0.6","0.2","","","","","","","","","","","","74","J","1","","true","0","full_practice"
"","bandit","60","397124","0.0-34.0-6.0","00526075","wem/bandit_either_2","AR75XTT2KAUL2","either","8","332","","","","","","","0","0","1","","0.6","0.5","0.5","0.5","0.5","0.8","0.2","0.6","0.2","","","","","","","","","","","","75","K","2","","true","0","full_practice"
"","bandit","61","398692","0.0-34.0-7.0","00526075","wem/bandit_either_2","AR75XTT2KAUL2","either","8","64","","","","","","","1","0","0","0.6","","0.5","0.5","0.5","0.5","","","","","0.8","0.2","0.6","0.2","","","","","","","","75","K","2","","true","0","full_practice"
"","bandit","62","400534","0.0-34.0-8.0","00526075","wem/bandit_either_2","AR75XTT2KAUL2","either","8","338","","","","","","","0","0","1","","0.6","0.5","0.5","0.5","0.5","0.8","0.2","0.6","0.2","","","","","","","","","","","","75","K","2","","true","0","full_practice"
"","bandit","63","402156","0.0-34.0-9.0","00526075","wem/bandit_either_2","AR75XTT2KAUL2","either","8","118","","","","","","","0","0","1","0.6","","0.5","0.5","0.5","0.5","","","","","0.8","0.2","0.6","0.2","","","","","","","","75","K","2","","true","0","full_practice"
"","bandit","64","404010","0.0-34.0-10.0","00526075","wem/bandit_either_2","AR75XTT2KAUL2","either","8","350","","","","","","","0","0","1","0.2","","0.5","0.5","0.5","0.5","","","","","0.8","0.2","0.6","0.2","","","","","","","","76","L","3","","true","0","full_practice"
"","bandit","65","405946","0.0-34.0-11.0","00526075","wem/bandit_either_2","AR75XTT2KAUL2","either","8","432","","","","","","","0","0","1","","0.2","0.5","0.5","0.5","0.5","0.8","0.2","0.6","0.2","","","","","","","","","","","","76","L","3","","true","0","full_practice"
"","bandit","66","407712","0.0-34.0-12.0","00526075","wem/bandit_either_2","AR75XTT2KAUL2","either","8","262","","","","","","","0","1","0","","0.6","0.5","0.5","0.5","0.5","0.8","0.2","0.6","0.2","","","","","","","","","","","","75","K","2","","true","0","full_practice"
"","bandit","67","409596","0.0-34.0-13.0","00526075","wem/bandit_either_2","AR75XTT2KAUL2","either","8","379","","","","","","","0","0","1","0.6","","0.5","0.5","0.5","0.5","","","","","0.8","0.2","0.6","0.2","","","","","","","","75","K","2","","true","0","full_practice"
"","bandit","68","411409","0.0-34.0-14.0","00526075","wem/bandit_either_2","AR75XTT2KAUL2","either","8","309","","","","","","","0","1","0","","0.6","0.5","0.5","0.5","0.5","0.8","0.2","0.6","0.2","","","","","","","","","","","","75","K","2","","true","0","full_practice"
"","bandit","69","412914","0.0-34.0-15.0","00526075","wem/bandit_either_2","AR75XTT2KAUL2","either","8","1","","","","","","","1","0","0","0.6","","0.5","0.5","0.5","0.5","","","","","0.8","0.2","0.6","0.2","","","","","","","","75","K","2","","true","0","full_practice"
"","bandit","70","414673","0.0-34.0-16.0","00526075","wem/bandit_either_2","AR75XTT2KAUL2","either","8","256","","","","","","","1","0","0","0.6","","0.5","0.5","0.5","0.5","","","","","0.8","0.2","0.6","0.2","","","","","","","","75","K","2","","true","0","full_practice"
"","bandit","71","416396","0.0-34.0-17.0","00526075","wem/bandit_either_2","AR75XTT2KAUL2","either","8","219","","","","","","","0","1","0","","0.6","0.5","0.5","0.5","0.5","0.8","0.2","0.6","0.2","","","","","","","","","","","","75","K","2","","true","0","full_practice"
"","bandit","72","418175","0.0-34.0-18.0","00526075","wem/bandit_either_2","AR75XTT2KAUL2","either","8","276","","","","","","","0","0","1","0.6","","0.5","0.5","0.5","0.5","","","","","0.8","0.2","0.6","0.2","","","","","","","","75","K","2","","true","0","full_practice"
"","bandit","73","419961","0.0-34.0-19.0","00526075","wem/bandit_either_2","AR75XTT2KAUL2","either","8","282","","","","","","","1","0","0","0.6","","0.5","0.5","0.5","0.5","","","","","0.8","0.2","0.6","0.2","","","","","","","","75","K","2","","true","0","full_practice"
"","text","74","423616","0.0-35.0","00526075","wem/bandit_either_2","AR75XTT2KAUL2","either","8","3650","","32","","","","","","","","","","","","","","","","","","","","","","","","","","","","","","","","","","",""
"","text","75","440988","0.0-36.0","00526075","wem/bandit_either_2","AR75XTT2KAUL2","either","8","16371","","32","","","","","","","","","","","","","","","","","","","","","","","","","","","","","","","","","","",""
"","text","76","456491","0.0-37.0","00526075","wem/bandit_either_2","AR75XTT2KAUL2","either","8","15501","","32","","","","","","","","","","","","","","","","","","","","","","","","","","","","","","","","","","",""
"","text","77","462035","0.0-38.0","00526075","wem/bandit_either_2","AR75XTT2KAUL2","either","8","5543","","32","","","","","","","","","","","","","","","","","","","","","","","","","","","","","","","","","","",""
"","text","78","470816","0.0-39.0","00526075","wem/bandit_either_2","AR75XTT2KAUL2","either","8","8779","","32","","","","","","","","","","","","","","","","","","","","","","","","","","","","","","","","","","",""
"","text","79","476910","0.0-40.0","00526075","wem/bandit_either_2","AR75XTT2KAUL2","either","8","6093","","32","","","","","","","","","","","","","","","","","","","","","","","","","","","","","","","","","","",""
"","bandit","80","483998","0.0-41.0-0.0","00526075","wem/bandit_either_2","AR75XTT2KAUL2","either","8","5583","","","","","","","1","0","0","0.3540548627","","0.8","0.2","0.6","0.4","","","","","0.3540548627","0.1351790469","0.2928194041","0.2637293772","","","","","","","","72","H","0","img/none_selected.jpg","","1","main_expt"
"","bandit","81","485894","0.0-42.0-0.0","00526075","wem/bandit_either_2","AR75XTT2KAUL2","either","8","392","","","","","","","1","0","0","0.3812516843","","0.8","0.2","0.6","0.4","","","","","0.3812516843","0.125602744","0.3040419902","0.2760013096","","","","","","","","72","H","0","img/none_selected.jpg","","2","main_expt"
"","bandit","82","487786","0.0-43.0-0.0","00526075","wem/bandit_either_2","AR75XTT2KAUL2","either","8","388","","","","","","","0","0","1","","0.3901316494","0.8","0.2","0.6","0.4","0.3901316494","0.09574082279","0.2875251023","0.3240499928","","","","","","","","","","","","72","H","0","img/none_selected.jpg","","3","main_expt"
"","bandit","83","489582","0.0-44.0-0.0","00526075","wem/bandit_either_2","AR75XTT2KAUL2","either","8","292","","","","","","","0","0","1","0.3945399471","","0.8","0.2","0.6","0.4","","","","","0.3945399471","0.0913382225","0.2965567903","0.3510822359","","","","","","","","72","H","0","img/none_selected.jpg","","4","main_expt"
"","bandit","84","491401","0.0-45.0-0.0","00526075","wem/bandit_either_2","AR75XTT2KAUL2","either","8","315","","","","","","","0","0","1","0.106177601","","0.8","0.2","0.6","0.4","","","","","0.3997977613","0.106177601","0.2681113314","0.3522827721","","","","","","","","74","J","1","","","5","main_expt"
"","bandit","85","493199","0.0-46.0-0.0","00526075","wem/bandit_either_2","AR75XTT2KAUL2","either","8","294","","","","","","","0","0","1","0.2330443498","","0.8","0.2","0.6","0.4","","","","","0.390783501","0.08998955495","0.2330443498","0.382674005","","","","","","","","75","K","2","","","6","main_expt"
"","bandit","86","495294","0.0-47.0-0.0","00526075","wem/bandit_either_2","AR75XTT2KAUL2","either","8","590","","","","","","","0","0","1","","0.1077526668","0.8","0.2","0.6","0.4","0.3305693427","0.1077526668","0.1630509172","0.3998463606","","","","","","","","","","","","74","J","1","","","7","main_expt"
"","bandit","87","496915","0.0-48.0-0.0","00526075","wem/bandit_either_2","AR75XTT2KAUL2","either","8","118","","","","","","","0","0","1","","0.3056545716","0.8","0.2","0.6","0.4","0.3056545716","0.1243697388","0.2002468685","0.3832029687","","","","","","","","","","","","72","H","0","img/none_selected.jpg","","8","main_expt"
"","bandit","88","499107","0.0-49.0-0.0","00526075","wem/bandit_either_2","AR75XTT2KAUL2","either","8","688","","","","","","","0","0","1","0.3278889804","","0.8","0.2","0.6","0.4","","","","","0.3278889804","0.1698108096","0.1835034381","0.3796681134","","","","","","","","72","H","0","img/none_selected.jpg","","9","main_expt"
"","bandit","89","501061","0.0-50.0-0.0","00526075","wem/bandit_either_2","AR75XTT2KAUL2","either","8","450","","","","","","","1","0","0","0.221757114","","0.8","0.2","0.6","0.4","","","","","0.3137855556","0.221757114","0.1939723001","0.3614311416","","","","","","","","74","J","1","","","10","main_expt"
"","bandit","90","503489","0.0-51.0-0.0","00526075","wem/bandit_either_2","AR75XTT2KAUL2","either","8","924","","","","","","","0","0","1","","0.1961062924","0.8","0.2","0.6","0.4","0.3253079181","0.1961062924","0.1949806013","0.3938737051","","","","","","","","","","","","74","J","1","","","11","main_expt"
"","bandit","91","505299","0.0-52.0-0.0","00526075","wem/bandit_either_2","AR75XTT2KAUL2","either","8","306","","","","","","","0","0","1","","0.1907056259","0.8","0.2","0.6","0.4","0.3298150516","0.1907056259","0.2587943474","0.3810544723","","","","","","","","","","","","74","J","1","","","12","main_expt"
"","bandit","92","507136","0.0-53.0-0.0","00526075","wem/bandit_either_2","AR75XTT2KAUL2","either","8","332","","","","","","","0","0","1","","0.2162865666","0.8","0.2","0.6","0.4","0.3673307406","0.2162865666","0.3085985727","0.3707046684","","","","","","","","","","","","74","J","1","","","13","main_expt"
"","bandit","93","508974","0.0-54.0-0.0","00526075","wem/bandit_either_2","AR75XTT2KAUL2","either","8","334","","","","","","","1","0","0","0.2399362825","","0.8","0.2","0.6","0.4","","","","","0.3679224674","0.2399362825","0.2464992766","0.3486531997","","","","","","","","74","J","1","","","14","main_expt"
"","bandit","94","510814","0.0-55.0-0.0","00526075","wem/bandit_either_2","AR75XTT2KAUL2","either","8","336","","","","","","","0","1","0","","0.1986859052","0.8","0.2","0.6","0.4","0.3062507314","0.1986859052","0.2474611475","0.3263578384","","","","","","","","","","","","74","J","1","","","15","main_expt"
"","bandit","95","512620","0.0-56.0-0.0","00526075","wem/bandit_either_2","AR75XTT2KAUL2","either","8","301","","","","","","","0","0","1","","0.1865641621","0.8","0.2","0.6","0.4","0.2892976033","0.1865641621","0.2835538477","0.3514189979","","","","","","","","","","","","74","J","1","","","16","main_expt"
"","bandit","96","514400","0.0-57.0-0.0","00526075","wem/bandit_either_2","AR75XTT2KAUL2","either","8","276","","","","","","","1","0","0","0.2035525071","","0.8","0.2","0.6","0.4","","","","","0.2861796528","0.2035525071","0.3256112075","0.3532592314","","","","","","","","74","J","1","","","17","main_expt"
"","bandit","97","516205","0.0-58.0-0.0","00526075","wem/bandit_either_2","AR75XTT2KAUL2","either","8","301","","","","","","","0","0","1","0.2039336531","","0.8","0.2","0.6","0.4","","","","","0.2958570682","0.2039336531","0.3802227677","0.3858608091","","","","","","","","74","J","1","","","18","main_expt"
"","bandit","98","518260","0.0-59.0-0.0","00526075","wem/bandit_either_2","AR75XTT2KAUL2","either","8","551","","","","","","","0","0","1","0.360566968","","0.8","0.2","0.6","0.4","","","","","0.3353028819","0.1598579642","0.360566968","0.3837638756","","","","","","","","75","K","2","","","19","main_expt"
"","bandit","99","520044","0.0-60.0-0.0","00526075","wem/bandit_either_2","AR75XTT2KAUL2","either","8","280","","","","","","","0","0","1","0.2872100501","","0.8","0.2","0.6","0.4","","","","","0.3139704528","0.1437622327","0.3696799013","0.2872100501","","","","","","","","76","L","3","","","20","main_expt"
"","bandit","100","521672","0.0-61.0-0.0","00526075","wem/bandit_either_2","AR75XTT2KAUL2","either","8","124","","","","","","","0","0","1","0.2524707143","","0.8","0.2","0.6","0.4","","","","","0.2524707143","0.07974703335","0.4006907501","0.2975414498","","","","","","","","72","H","0","img/none_selected.jpg","","21","main_expt"
"","bandit","101","523507","0.0-62.0-0.0","00526075","wem/bandit_either_2","AR75XTT2KAUL2","either","8","330","","","","","","","0","0","1","","0.1361132429","0.8","0.2","0.6","0.4","0.248326021","0.1361132429","0.4081217326","0.2741965999","","","","","","","","","","","","74","J","1","","","22","main_expt"
"","bandit","102","525265","0.0-63.0-0.0","00526075","wem/bandit_either_2","AR75XTT2KAUL2","either","8","254","","","","","","","0","0","1","","0.1705973249","0.8","0.2","0.6","0.4","0.2937153481","0.1705973249","0.3740207531","0.2379064449","","","","","","","","","","","","74","J","1","","","23","main_expt"
"","bandit","103","527099","0.0-64.0-0.0","00526075","wem/bandit_either_2","AR75XTT2KAUL2","either","8","328","","","","","","","0","0","1","","0.1392759225","0.8","0.2","0.6","0.4","0.2625315469","0.1392759225","0.3913756451","0.2078598572","","","","","","","","","","","","74","J","1","","","24","main_expt"
"","bandit","104","528606","0.0-65.0-0.0","00526075","wem/bandit_either_2","AR75XTT2KAUL2","either","8","2","","","","","","","0","1","0","","0.1800538527","0.8","0.2","0.6","0.4","0.2405651368","0.1800538527","0.4100905738","0.2764850733","","","","","","","","","","","","74","J","1","","","25","main_expt"
"","bandit","105","530978","0.0-66.0-0.0","00526075","wem/bandit_either_2","AR75XTT2KAUL2","either","8","867","","","","","","","0","0","1","","0.2146400533","0.8","0.2","0.6","0.4","0.2503350336","0.2146400533","0.3600668969","0.3080191348","","","","","","","","","","","","74","J","1","","","26","main_expt"
"","bandit","106","532771","0.0-67.0-0.0","00526075","wem/bandit_either_2","AR75XTT2KAUL2","either","8","288","","","","","","","0","0","1","0.354091838","","0.8","0.2","0.6","0.4","","","","","0.354091838","0.1948367851","0.3703096079","0.3606197488","","","","","","","","72","H","0","img/none_selected.jpg","","27","main_expt"
"","bandit","107","534621","0.0-68.0-0.0","00526075","wem/bandit_either_2","AR75XTT2KAUL2","either","8","346","","","","","","","1","0","0","0.3419366675","","0.8","0.2","0.6","0.4","","","","","0.3419366675","0.2282666016","0.3527269899","0.3696097963","","","","","","","","72","H","0","img/none_selected.jpg","","28","main_expt"
"","bandit","108","536732","0.0-69.0-0.0","00526075","wem/bandit_either_2","AR75XTT2KAUL2","either","8","606","","","","","","","0","0","1","0.361896517","","0.8","0.2","0.6","0.4","","","","","0.361896517","0.1842618798","0.2854860911","0.3434444954","","","","","","","","72","H","0","img/none_selected.jpg","","29","main_expt"
"","bandit","109","538615","0.0-70.0-0.0","00526075","wem/bandit_either_2","AR75XTT2KAUL2","either","8","379","","","","","","","0","0","1","0.3701160785","","0.8","0.2","0.6","0.4","","","","","0.3701160785","0.1930267653","0.2971434158","0.3528183973","","","","","","","","72","H","0","img/none_selected.jpg","","30","main_expt"
"","bandit","110","540587","0.0-71.0-0.0","00526075","wem/bandit_either_2","AR75XTT2KAUL2","either","8","465","","","","","","","0","0","1","0.3602312343","","0.8","0.2","0.6","0.4","","","","","0.3602312343","0.2279264959","0.3192935598","0.3436926249","","","","","","","","72","H","0","img/none_selected.jpg","","31","main_expt"
"","bandit","111","542471","0.0-72.0-0.0","00526075","wem/bandit_either_2","AR75XTT2KAUL2","either","8","380","","","","","","","0","0","1","0.3550043818","","0.8","0.2","0.6","0.4","","","","","0.3550043818","0.1922668126","0.2910845839","0.3392376576","","","","","","","","72","H","0","img/none_selected.jpg","","32","main_expt"
"","bandit","112","544265","0.0-73.0-0.0","00526075","wem/bandit_either_2","AR75XTT2KAUL2","either","8","290","","","","","","","1","0","0","0.2956883229","","0.8","0.2","0.6","0.4","","","","","0.3927862597","0.1503247695","0.2956883229","0.2524106513","","","","","","","","75","K","2","","","33","main_expt"
"","bandit","113","546334","0.0-74.0-0.0","00526075","wem/bandit_either_2","AR75XTT2KAUL2","either","8","566","","","","","","","1","0","0","0.2918182698","","0.8","0.2","0.6","0.4","","","","","0.4185963197","0.1875072744","0.2918182698","0.2378308988","","","","","","","","75","K","2","","","34","main_expt"
"","bandit","114","548229","0.0-75.0-0.0","00526075","wem/bandit_either_2","AR75XTT2KAUL2","either","8","390","","","","","","","0","0","1","","0.3063909307","0.8","0.2","0.6","0.4","0.441983755","0.2135507624","0.3063909307","0.2683654211","","","","","","","","","","","","75","K","2","","","35","main_expt"
"","bandit","115","550265","0.0-76.0-0.0","00526075","wem/bandit_either_2","AR75XTT2KAUL2","either","8","532","","","","","","","0","1","0","","0.2820805085","0.8","0.2","0.6","0.4","0.4352827683","0.2042402853","0.2820805085","0.2645223933","","","","","","","","","","","","75","K","2","","","36","main_expt"
"","bandit","116","551837","0.0-77.0-0.0","00526075","wem/bandit_either_2","AR75XTT2KAUL2","either","8","67","","","","","","","0","0","1","","0.2610370824","0.8","0.2","0.6","0.4","0.450520142","0.2024605481","0.2610370824","0.2360561858","","","","","","","","","","","","75","K","2","","","37","main_expt"
"","bandit","117","553979","0.0-78.0-0.0","00526075","wem/bandit_either_2","AR75XTT2KAUL2","either","8","638","","","","","","","0","0","1","0.1896233007","","0.8","0.2","0.6","0.4","","","","","0.4681224698","0.1677713785","0.1896233007","0.2001865083","","","","","","","","75","K","2","","","38","main_expt"
"","bandit","118","555923","0.0-79.0-0.0","00526075","wem/bandit_either_2","AR75XTT2KAUL2","either","8","440","","","","","","","1","0","0","0.4711022053","","0.8","0.2","0.6","0.4","","","","","0.4711022053","0.221779122","0.168851025","0.1687915361","","","","","","","","72","H","0","img/none_selected.jpg","","39","main_expt"
"","bandit","119","557891","0.0-80.0-0.0","00526075","wem/bandit_either_2","AR75XTT2KAUL2","either","8","465","","","","","","","1","0","0","0.4559447699","","0.8","0.2","0.6","0.4","","","","","0.4559447699","0.2722397218","0.1615787635","0.1503151413","","","","","","","","72","H","0","img/none_selected.jpg","","40","main_expt"
"","bandit","120","559717","0.0-81.0-0.0","00526075","wem/bandit_either_2","AR75XTT2KAUL2","either","8","322","","","","","","","0","0","1","0.1472326003","","0.8","0.2","0.6","0.4","","","","","0.4412687596","0.3298230943","0.1472326003","0.08168262283","","","","","","","","75","K","2","","","41","main_expt"
"","bandit","121","561544","0.0-82.0-0.0","00526075","wem/bandit_either_2","AR75XTT2KAUL2","either","8","322","","","","","","","0","0","1","0.1533480506","","0.8","0.2","0.6","0.4","","","","","0.4457751761","0.3104885444","0.1533480506","0.07668629145","","","","","","","","75","K","2","","","42","main_expt"
"","bandit","122","564142","0.0-83.0-0.0","00526075","wem/bandit_either_2","AR75XTT2KAUL2","either","8","1094","","","","","","","0","0","1","","0.4298378352","0.8","0.2","0.6","0.4","0.4298378352","0.3005355489","0.1414351437","0.07394587158","","","","","","","","","","","","72","H","0","img/none_selected.jpg","","43","main_expt"
"","bandit","123","566046","0.0-84.0-0.0","00526075","wem/bandit_either_2","AR75XTT2KAUL2","either","8","399","","","","","","","1","0","0","0.4416915379","","0.8","0.2","0.6","0.4","","","","","0.4416915379","0.2456242138","0.1067646429","0.1192337685","","","","","","","","72","H","0","img/none_selected.jpg","","44","main_expt"
"","bandit","124","568028","0.0-85.0-0.0","00526075","wem/bandit_either_2","AR75XTT2KAUL2","either","8","478","","","","","","","1","0","0","0.3915522423","","0.8","0.2","0.6","0.4","","","","","0.3915522423","0.2839901561","0.1250796286","0.1285724119","","","","","","","","72","H","0","img/none_selected.jpg","","45","main_expt"
"","bandit","125","571023","0.0-86.0-0.0","00526075","wem/bandit_either_2","AR75XTT2KAUL2","either","8","1491","","","","","","","0","0","1","0.4318427431","","0.8","0.2","0.6","0.4","","","","","0.4318427431","0.2353621531","0.1927264636","0.1112684106","","","","","","","","72","H","0","img/none_selected.jpg","","46","main_expt"
"","bandit","126","573279","0.0-87.0-0.0","00526075","wem/bandit_either_2","AR75XTT2KAUL2","either","8","752","","","","","","","0","0","1","0.4395998441","","0.8","0.2","0.6","0.4","","","","","0.4395998441","0.2405257196","0.1804488412","0.1207340475","","","","","","","","72","H","0","img/none_selected.jpg","","47","main_expt"
"","bandit","127","575085","0.0-88.0-0.0","00526075","wem/bandit_either_2","AR75XTT2KAUL2","either","8","301","","","","","","","0","0","1","","0.2629408555","0.8","0.2","0.6","0.4","0.4630443269","0.2629408555","0.168268176","0.1182533935","","","","","","","","","","","","74","J","1","","","48","main_expt"
"","bandit","128","576857","0.0-89.0-0.0","00526075","wem/bandit_either_2","AR75XTT2KAUL2","either","8","268","","","","","","","0","1","0","","0.2902453213","0.8","0.2","0.6","0.4","0.4794982466","0.2902453213","0.1466838001","0.1460801474","","","","","","","","","","","","74","J","1","","","49","main_expt"
"","bandit","129","578707","0.0-90.0-0.0","00526075","wem/bandit_either_2","AR75XTT2KAUL2","either","8","345","","","","","","","0","0","1","","0.3033715012","0.8","0.2","0.6","0.4","0.4562783041","0.3033715012","0.1336340117","0.1765155983","","","","","","","","","","","","74","J","1","","","50","main_expt"
"","bandit","130","580449","0.0-91.0-0.0","00526075","wem/bandit_either_2","AR75XTT2KAUL2","either","8","238","","","","","","","0","0","1","","0.3536831403","0.8","0.2","0.6","0.4","0.4515646323","0.3536831403","0.1067821754","0.1614266163","","","","","","","","","","","","74","J","1","","","51","main_expt"
"","bandit","131","582253","0.0-92.0-0.0","00526075","wem/bandit_either_2","AR75XTT2KAUL2","either","8","299","","","","","","","0","0","1","0.3058792917","","0.8","0.2","0.6","0.4","","","","","0.4344137529","0.3058792917","0.07294577227","0.1938643747","","","","","","","","74","J","1","","","52","main_expt"
"","bandit","132","584053","0.0-93.0-0.0","00526075","wem/bandit_either_2","AR75XTT2KAUL2","either","8","295","","","","","","","0","0","1","0.4421766306","","0.8","0.2","0.6","0.4","","","","","0.4421766306","0.3466820038","0.07676454597","0.1721886996","","","","","","","","72","H","0","img/none_selected.jpg","","53","main_expt"
"","bandit","133","585829","0.0-94.0-0.0","00526075","wem/bandit_either_2","AR75XTT2KAUL2","either","8","271","","","","","","","0","0","1","0.07707135067","","0.8","0.2","0.6","0.4","","","","","0.4591875032","0.3159173384","0.07707135067","0.1542880765","","","","","","","","75","K","2","","","54","main_expt"
"","bandit","134","587630","0.0-95.0-0.0","00526075","wem/bandit_either_2","AR75XTT2KAUL2","either","8","297","","","","","","","0","0","1","0.4455250987","","0.8","0.2","0.6","0.4","","","","","0.4455250987","0.3205246683","0.08227932488","0.2155598061","","","","","","","","72","H","0","img/none_selected.jpg","","55","main_expt"
"","bandit","135","589462","0.0-96.0-0.0","00526075","wem/bandit_either_2","AR75XTT2KAUL2","either","8","327","","","","","","","0","0","1","0.4200701886","","0.8","0.2","0.6","0.4","","","","","0.4200701886","0.3067659888","0.09013031375","0.199350645","","","","","","","","72","H","0","img/none_selected.jpg","","56","main_expt"
"","bandit","136","591624","0.0-97.0-0.0","00526075","wem/bandit_either_2","AR75XTT2KAUL2","either","8","657","","","","","","","0","0","1","0.3635567377","","0.8","0.2","0.6","0.4","","","","","0.3635567377","0.3786279545","0.106866739","0.1991981904","","","","","","","","72","H","0","img/none_selected.jpg","","57","main_expt"
"","bandit","137","593768","0.0-98.0-0.0","00526075","wem/bandit_either_2","AR75XTT2KAUL2","either","8","639","","","","","","","0","0","1","","0.0915584437","0.8","0.2","0.6","0.4","0.3647217687","0.3796022377","0.0915584437","0.1307276253","","","","","","","","","","","","75","K","2","","","58","main_expt"
"","bandit","138","595582","0.0-99.0-0.0","00526075","wem/bandit_either_2","AR75XTT2KAUL2","either","8","310","","","","","","","0","0","1","0.1540949786","","0.8","0.2","0.6","0.4","","","","","0.3975499765","0.3570845549","0.1036540812","0.1540949786","","","","","","","","76","L","3","","","59","main_expt"
"","bandit","139","597344","0.0-100.0-0.0","00526075","wem/bandit_either_2","AR75XTT2KAUL2","either","8","256","","","","","","","1","0","0","0.1187181044","","0.8","0.2","0.6","0.4","","","","","0.376383165","0.398525789","0.07948280662","0.1187181044","","","","","","","","76","L","3","","","60","main_expt"
"","bandit","140","599186","0.0-101.0-0.0","00526075","wem/bandit_either_2","AR75XTT2KAUL2","either","8","338","","","","","","","0","0","1","","0.1734870435","0.8","0.2","0.6","0.4","0.3384437455","0.380986593","0.0685056185","0.1734870435","","","","","","","","","","","","76","L","3","","","61","main_expt"
"","bandit","141","600968","0.0-102.0-0.0","00526075","wem/bandit_either_2","AR75XTT2KAUL2","either","8","276","","","","","","","0","0","1","","0.2056999461","0.8","0.2","0.6","0.4","0.3086389155","0.3928002855","0.04196312691","0.2056999461","","","","","","","","","","","","76","L","3","","","62","main_expt"
"","bandit","142","602787","0.0-103.0-0.0","00526075","wem/bandit_either_2","AR75XTT2KAUL2","either","8","314","","","","","","","0","1","0","","0.2421495796","0.8","0.2","0.6","0.4","0.3098998428","0.4097838671","0.06524357318","0.2421495796","","","","","","","","","","","","76","L","3","","","63","main_expt"
"","bandit","143","604759","0.0-104.0-0.0","00526075","wem/bandit_either_2","AR75XTT2KAUL2","either","8","467","","","","","","","1","0","0","0.2678986655","","0.8","0.2","0.6","0.4","","","","","0.2859800092","0.3942475769","0.04599317762","0.2678986655","","","","","","","","76","L","3","","","64","main_expt"
"","bandit","144","606569","0.0-105.0-0.0","00526075","wem/bandit_either_2","AR75XTT2KAUL2","either","8","305","","","","","","","0","0","1","","0.2780805564","0.8","0.2","0.6","0.4","0.2780623804","0.3756823908","0.04738713632","0.2780805564","","","","","","","","","","","","76","L","3","","","65","main_expt"
"","bandit","145","608507","0.0-106.0-0.0","00526075","wem/bandit_either_2","AR75XTT2KAUL2","either","8","433","","","","","","","0","0","1","","0.2923516192","0.8","0.2","0.6","0.4","0.2740889186","0.3780323226","0.02873144913","0.2923516192","","","","","","","","","","","","76","L","3","","","66","main_expt"
"","bandit","146","610309","0.0-107.0-0.0","00526075","wem/bandit_either_2","AR75XTT2KAUL2","either","8","298","","","","","","","0","0","1","","0.3481747094","0.8","0.2","0.6","0.4","0.3122756929","0.382091886","0.0355516853","0.3481747094","","","","","","","","","","","","76","L","3","","","67","main_expt"
"","bandit","147","612269","0.0-108.0-0.0","00526075","wem/bandit_either_2","AR75XTT2KAUL2","either","8","454","","","","","","","0","1","0","","0.3540590834","0.8","0.2","0.6","0.4","0.3004294993","0.4080562953","0.04483006882","0.3540590834","","","","","","","","","","","","76","L","3","","","68","main_expt"
"","bandit","148","615241","0.0-109.0-0.0","00526075","wem/bandit_either_2","AR75XTT2KAUL2","either","8","1467","","","","","","","0","1","0","","0.3348318208","0.8","0.2","0.6","0.4","0.3312842332","0.419826639","0.04300650393","0.3348318208","","","","","","","","","","","","76","L","3","","","69","main_expt"
"","bandit","149","618170","0.0-110.0-0.0","00526075","wem/bandit_either_2","AR75XTT2KAUL2","either","8","1423","","","","","","","1","0","0","0.3844983113","","0.8","0.2","0.6","0.4","","","","","0.2362018798","0.3889643965","0.03960880855","0.3844983113","","","","","","","","76","L","3","","","70","main_expt"
"","bandit","150","620775","0.0-111.0-0.0","00526075","wem/bandit_either_2","AR75XTT2KAUL2","either","8","1099","","","","","","","0","1","0","","0.3753843975","0.8","0.2","0.6","0.4","0.1838323472","0.3492343966","0.02401392238","0.3753843975","","","","","","","","","","","","76","L","3","","","71","main_expt"
"","bandit","151","623444","0.0-112.0-0.0","00526075","wem/bandit_either_2","AR75XTT2KAUL2","either","8","1165","","","","","","","0","0","1","","0.3861429343","0.8","0.2","0.6","0.4","0.1749810972","0.3502155883","0.008756159955","0.3861429343","","","","","","","","","","","","76","L","3","","","72","main_expt"
"","bandit","152","626438","0.0-113.0-0.0","00526075","wem/bandit_either_2","AR75XTT2KAUL2","either","8","1490","","","","","","","0","0","1","0.3978436086","","0.8","0.2","0.6","0.4","","","","","0.1664097112","0.3568691787","0.006257651783","0.3978436086","","","","","","","","76","L","3","","","73","main_expt"
"","bandit","153","628577","0.0-114.0-0.0","00526075","wem/bandit_either_2","AR75XTT2KAUL2","either","8","634","","","","","","","0","0","1","0.2001176207","","0.8","0.2","0.6","0.4","","","","","0.2001176207","0.3303653739","0.004732084297","0.3847979518","","","","","","","","72","H","0","img/none_selected.jpg","","74","main_expt"
"","bandit","154","630640","0.0-115.0-0.0","00526075","wem/bandit_either_2","AR75XTT2KAUL2","either","8","558","","","","","","","0","0","1","","0.1848717924","0.8","0.2","0.6","0.4","0.1848717924","0.3353283381","0.006967558871","0.3974319157","","","","","","","","","","","","72","H","0","img/none_selected.jpg","","75","main_expt"
"","bandit","155","632422","0.0-116.0-0.0","00526075","wem/bandit_either_2","AR75XTT2KAUL2","either","8","278","","","","","","","0","0","1","","0.3987985884","0.8","0.2","0.6","0.4","0.1510178238","0.3009524994","0.004525860487","0.3987985884","","","","","","","","","","","","76","L","3","","","76","main_expt"
"","bandit","156","634221","0.0-117.0-0.0","00526075","wem/bandit_either_2","AR75XTT2KAUL2","either","8","294","","","","","","","0","0","1","","0.007245535115","0.8","0.2","0.6","0.4","0.2089633591","0.3316028908","0.007245535115","0.4127312768","","","","","","","","","","","","75","K","2","","","77","main_expt"
"","bandit","157","635999","0.0-118.0-0.0","00526075","wem/bandit_either_2","AR75XTT2KAUL2","either","8","273","","","","","","","0","1","0","","0.4257675477","0.8","0.2","0.6","0.4","0.2285147345","0.3571024926","0.00483057751","0.4257675477","","","","","","","","","","","","76","L","3","","","78","main_expt"
"","bandit","158","638050","0.0-119.0-0.0","00526075","wem/bandit_either_2","AR75XTT2KAUL2","either","8","545","","","","","","","0","0","1","","0.3542776451","0.8","0.2","0.6","0.4","0.2246975601","0.3542776451","0.005956317848","0.4331167668","","","","","","","","","","","","74","J","1","","","79","main_expt"
"","bandit","159","639904","0.0-120.0-0.0","00526075","wem/bandit_either_2","AR75XTT2KAUL2","either","8","349","","","","","","","1","0","0","0.4294395537","","0.8","0.2","0.6","0.4","","","","","0.1878766281","0.3201174307","0.0076590047","0.4294395537","","","","","","","","76","L","3","","","80","main_expt"
"","bandit","160","641877","0.0-121.0-0.0","00526075","wem/bandit_either_2","AR75XTT2KAUL2","either","8","469","","","","","","","1","0","0","0.4234249918","","0.8","0.2","0.6","0.4","","","","","0.2436254364","0.3503003334","0.009115568074","0.4234249918","","","","","","","","76","L","3","","","81","main_expt"
"","bandit","161","643417","0.0-122.0-0.0","00526075","wem/bandit_either_2","AR75XTT2KAUL2","either","8","35","","","","","","","0","0","1","","0.3956977209","0.8","0.2","0.6","0.4","0.2627531714","0.3509066846","0.01382977225","0.3956977209","","","","","","","","","","","","76","L","3","","","82","main_expt"
"","bandit","162","645266","0.0-123.0-0.0","00526075","wem/bandit_either_2","AR75XTT2KAUL2","either","8","344","","","","","","","1","0","0","0.4248650233","","0.8","0.2","0.6","0.4","","","","","0.2672212524","0.3951868033","0.01500629599","0.4248650233","","","","","","","","76","L","3","","","83","main_expt"
"","bandit","163","647678","0.0-124.0-0.0","00526075","wem/bandit_either_2","AR75XTT2KAUL2","either","8","907","","","","","","","0","0","1","","0.4196907627","0.8","0.2","0.6","0.4","0.2817484998","0.4131477378","0.02310127573","0.4196907627","","","","","","","","","","","","76","L","3","","","84","main_expt"
"","bandit","164","651311","0.0-125.0-0.0","00526075","wem/bandit_either_2","AR75XTT2KAUL2","either","8","2128","","","","","","","0","0","1","","0.435633498","0.8","0.2","0.6","0.4","0.3074775227","0.3889697292","0.02639065846","0.435633498","","","","","","","","","","","","76","L","3","","","85","main_expt"
"","bandit","165","653576","0.0-126.0-0.0","00526075","wem/bandit_either_2","AR75XTT2KAUL2","either","8","759","","","","","","","0","1","0","","0.4322222521","0.8","0.2","0.6","0.4","0.2717847629","0.3885636443","0.01746441632","0.4322222521","","","","","","","","","","","","76","L","3","","","86","main_expt"
"","bandit","166","655597","0.0-127.0-0.0","00526075","wem/bandit_either_2","AR75XTT2KAUL2","either","8","516","","","","","","","0","0","1","0.4476119451","","0.8","0.2","0.6","0.4","","","","","0.2183858348","0.4028282504","0.01256144444","0.4476119451","","","","","","","","76","L","3","","","87","main_expt"
"","bandit","167","657467","0.0-128.0-0.0","00526075","wem/bandit_either_2","AR75XTT2KAUL2","either","8","366","","","","","","","0","0","1","0.2054961256","","0.8","0.2","0.6","0.4","","","","","0.2054961256","0.4306890759","0.01178158386","0.4073123198","","","","","","","","72","H","0","img/none_selected.jpg","","88","main_expt"
"","bandit","168","659402","0.0-129.0-0.0","00526075","wem/bandit_either_2","AR75XTT2KAUL2","either","8","427","","","","","","","0","0","1","","0.3862301724","0.8","0.2","0.6","0.4","0.1452714398","0.4103738654","0.008722555822","0.3862301724","","","","","","","","","","","","76","L","3","","","89","main_expt"
"","bandit","169","661273","0.0-130.0-0.0","00526075","wem/bandit_either_2","AR75XTT2KAUL2","either","8","366","","","","","","","0","1","0","","0.3980827974","0.8","0.2","0.6","0.4","0.1077779513","0.3980827974","0.008232471735","0.3596745144","","","","","","","","","","","","74","J","1","","","90","main_expt"
"","bandit","170","663215","0.0-131.0-0.0","00526075","wem/bandit_either_2","AR75XTT2KAUL2","either","8","437","","","","","","","0","1","0","","0.4040531024","0.8","0.2","0.6","0.4","0.1308407065","0.4040531024","0.01249180717","0.3082854458","","","","","","","","","","","","74","J","1","","","91","main_expt"
"","bandit","171","665015","0.0-132.0-0.0","00526075","wem/bandit_either_2","AR75XTT2KAUL2","either","8","295","","","","","","","0","0","1","","0.3462944796","0.8","0.2","0.6","0.4","0.1652322036","0.3462944796","0.01470986316","0.312225492","","","","","","","","","","","","74","J","1","","","92","main_expt"
"","bandit","172","680886","0.0-133.0-0.0","00526075","wem/bandit_either_2","AR75XTT2KAUL2","either","8","14365","","","","","","","0","1","0","","0.3671658277","0.8","0.2","0.6","0.4","0.1344678182","0.3411451966","0.02655281846","0.3671658277","","","","","","","","","","","","76","L","3","","","93","main_expt"
"","bandit","173","685851","0.0-134.0-0.0","00526075","wem/bandit_either_2","AR75XTT2KAUL2","either","8","3460","","","","","","","0","0","1","0.3401731108","","0.8","0.2","0.6","0.4","","","","","0.1301314301","0.3384154489","0.02575246025","0.3401731108","","","","","","","","76","L","3","","","94","main_expt"
"","bandit","174","690457","0.0-135.0-0.0","00526075","wem/bandit_either_2","AR75XTT2KAUL2","either","8","3100","","","","","","","0","0","1","0.3413923724","","0.8","0.2","0.6","0.4","","","","","0.1746055711","0.3126988266","0.02262355665","0.3413923724","","","","","","","","76","L","3","","","95","main_expt"
"","bandit","175","696294","0.0-136.0-0.0","00526075","wem/bandit_either_2","AR75XTT2KAUL2","either","8","4330","","","","","","","0","1","0","","0.3570420485","0.8","0.2","0.6","0.4","0.1994244555","0.3800019137","0.02047181149","0.3570420485","","","","","","","","","","","","76","L","3","","","96","main_expt"
"","bandit","176","705113","0.0-137.0-0.0","00526075","wem/bandit_either_2","AR75XTT2KAUL2","either","8","7314","","","","","","","0","0","1","","0.3435474977","0.8","0.2","0.6","0.4","0.1834602947","0.3328121005","0.0207754381","0.3435474977","","","","","","","","","","","","76","L","3","","","97","main_expt"
"","bandit","177","706994","0.0-138.0-0.0","00526075","wem/bandit_either_2","AR75XTT2KAUL2","either","8","377","","","","","","","0","0","1","","0.02955834597","0.8","0.2","0.6","0.4","0.1719221531","0.332228596","0.02955834597","0.3614714926","","","","","","","","","","","","75","K","2","","","98","main_expt"
"","bandit","178","711420","0.0-139.0-0.0","00526075","wem/bandit_either_2","AR75XTT2KAUL2","either","8","2920","","","","","","","0","0","1","","0.0383131093","0.8","0.2","0.6","0.4","0.1183399241","0.2843854285","0.0383131093","0.3176405447","","","","","","","","","","","","75","K","2","","","99","main_expt"
"","bandit","179","713472","0.0-140.0-0.0","00526075","wem/bandit_either_2","AR75XTT2KAUL2","either","8","547","","","","","","","0","0","1","0.3586553183","","0.8","0.2","0.6","0.4","","","","","0.1558635017","0.309751149","0.03580757471","0.3586553183","","","","","","","","76","L","3","","","100","main_expt"
"","bandit","180","715564","0.0-141.0-0.0","00526075","wem/bandit_either_2","AR75XTT2KAUL2","either","8","586","","","","","","","0","0","1","","0.2993195944","0.8","0.2","0.6","0.4","0.1389665978","0.2993195944","0.04899620691","0.2951503345","","","","","","","","","","","","74","J","1","","","101","main_expt"
"","bandit","181","717522","0.0-142.0-0.0","00526075","wem/bandit_either_2","AR75XTT2KAUL2","either","8","453","","","","","","","0","1","0","","0.3551890872","0.8","0.2","0.6","0.4","0.1377203561","0.3551890872","0.08055650644","0.2998391809","","","","","","","","","","","","74","J","1","","","102","main_expt"
"","bandit","182","728460","0.0-143.0-0.0","00526075","wem/bandit_either_2","AR75XTT2KAUL2","either","8","9433","","","","","","","0","0","1","0.3148404956","","0.8","0.2","0.6","0.4","","","","","0.1285548106","0.3148404956","0.1040447627","0.2791823827","","","","","","","","74","J","1","","","103","main_expt"
"","bandit","183","730602","0.0-144.0-0.0","00526075","wem/bandit_either_2","AR75XTT2KAUL2","either","8","638","","","","","","","0","1","0","","0.3286912191","0.8","0.2","0.6","0.4","0.1555523735","0.3286912191","0.1143547335","0.3382769334","","","","","","","","","","","","74","J","1","","","104","main_expt"
"","bandit","184","732787","0.0-145.0-0.0","00526075","wem/bandit_either_2","AR75XTT2KAUL2","either","8","679","","","","","","","0","0","1","","0.298340497","0.8","0.2","0.6","0.4","0.1775592141","0.298340497","0.1487676438","0.3339697125","","","","","","","","","","","","74","J","1","","","105","main_expt"
"","bandit","185","734671","0.0-146.0-0.0","00526075","wem/bandit_either_2","AR75XTT2KAUL2","either","8","376","","","","","","","1","0","0","0.2263451353","","0.8","0.2","0.6","0.4","","","","","0.2263451353","0.3504464386","0.152088545","0.3124129253","","","","","","","","72","H","0","img/none_selected.jpg","","106","main_expt"
"","bandit","186","736468","0.0-147.0-0.0","00526075","wem/bandit_either_2","AR75XTT2KAUL2","either","8","293","","","","","","","0","0","1","0.1679769802","","0.8","0.2","0.6","0.4","","","","","0.1679769802","0.3510410077","0.2406734145","0.3400683723","","","","","","","","72","H","0","img/none_selected.jpg","","107","main_expt"
"","bandit","187","739028","0.0-148.0-0.0","00526075","wem/bandit_either_2","AR75XTT2KAUL2","either","8","1054","","","","","","","0","0","1","0.1999870147","","0.8","0.2","0.6","0.4","","","","","0.1999870147","0.3282766846","0.3048040024","0.3557340834","","","","","","","","72","H","0","img/none_selected.jpg","","108","main_expt"
"","bandit","188","740862","0.0-149.0-0.0","00526075","wem/bandit_either_2","AR75XTT2KAUL2","either","8","329","","","","","","","0","0","1","0.208992856","","0.8","0.2","0.6","0.4","","","","","0.208992856","0.3561186451","0.3418503096","0.3846418901","","","","","","","","72","H","0","img/none_selected.jpg","","109","main_expt"
"","bandit","189","742961","0.0-150.0-0.0","00526075","wem/bandit_either_2","AR75XTT2KAUL2","either","8","593","","","","","","","0","0","1","","0.3576445865","0.8","0.2","0.6","0.4","0.1716040471","0.3576445865","0.3198501315","0.4057962062","","","","","","","","","","","","74","J","1","","","110","main_expt"
"","bandit","190","744787","0.0-151.0-0.0","00526075","wem/bandit_either_2","AR75XTT2KAUL2","either","8","320","","","","","","","0","0","1","","0.3377543854","0.8","0.2","0.6","0.4","0.08984071331","0.3377543854","0.3681534847","0.3692451483","","","","","","","","","","","","74","J","1","","","111","main_expt"
"","bandit","191","746624","0.0-152.0-0.0","00526075","wem/bandit_either_2","AR75XTT2KAUL2","either","8","332","","","","","","","1","0","0","0.3757830796","","0.8","0.2","0.6","0.4","","","","","0.1243463141","0.286234052","0.3757830796","0.3577317973","","","","","","","","75","K","2","","","112","main_expt"
"","bandit","192","748476","0.0-153.0-0.0","00526075","wem/bandit_either_2","AR75XTT2KAUL2","either","8","346","","","","","","","0","0","1","0.3838999828","","0.8","0.2","0.6","0.4","","","","","0.1433440675","0.1932674395","0.3838999828","0.3328808086","","","","","","","","75","K","2","","","113","main_expt"
"","bandit","193","750448","0.0-154.0-0.0","00526075","wem/bandit_either_2","AR75XTT2KAUL2","either","8","465","","","","","","","0","0","1","","0.4157938717","0.8","0.2","0.6","0.4","0.1510662198","0.2403040534","0.4157938717","0.3416979579","","","","","","","","","","","","75","K","2","","","114","main_expt"
"","bandit","194","752658","0.0-155.0-0.0","00526075","wem/bandit_either_2","AR75XTT2KAUL2","either","8","705","","","","","","","0","0","1","0.4055870595","","0.8","0.2","0.6","0.4","","","","","0.09845245139","0.254937398","0.4055870595","0.3377137281","","","","","","","","75","K","2","","","115","main_expt"
"","bandit","195","755824","0.0-156.0-0.0","00526075","wem/bandit_either_2","AR75XTT2KAUL2","either","8","1661","","","","","","","0","0","1","","0.4161015278","0.8","0.2","0.6","0.4","0.107393795","0.2605063941","0.4161015278","0.3039448029","","","","","","","","","","","","75","K","2","","","116","main_expt"
"","bandit","196","760428","0.0-157.0-0.0","00526075","wem/bandit_either_2","AR75XTT2KAUL2","either","8","3098","","","","","","","0","0","1","0.2974336912","","0.8","0.2","0.6","0.4","","","","","0.07879800556","0.2161328783","0.414877819","0.2974336912","","","","","","","","76","L","3","","","117","main_expt"
"","bandit","197","762593","0.0-158.0-0.0","00526075","wem/bandit_either_2","AR75XTT2KAUL2","either","8","659","","","","","","","1","0","0","0.2651867246","","0.8","0.2","0.6","0.4","","","","","0.08383735875","0.1931197841","0.3968259953","0.2651867246","","","","","","","","76","L","3","","","118","main_expt"
"","bandit","198","765627","0.0-159.0-0.0","00526075","wem/bandit_either_2","AR75XTT2KAUL2","either","8","1527","","","","","","","1","0","0","0.3131666206","","0.8","0.2","0.6","0.4","","","","","0.1392474383","0.1638183597","0.4198241006","0.3131666206","","","","","","","","76","L","3","","","119","main_expt"
"","bandit","199","767737","0.0-160.0-0.0","00526075","wem/bandit_either_2","AR75XTT2KAUL2","either","8","605","","","","","","","0","1","0","","0.358829095","0.8","0.2","0.6","0.4","0.1649404926","0.1893282748","0.4286088018","0.358829095","","","","","","","","","","","","76","L","3","","","120","main_expt"
"","bandit","200","770235","0.0-161.0-0.0","00526075","wem/bandit_either_2","AR75XTT2KAUL2","either","8","993","","","","","","","0","1","0","","0.3189860171","0.8","0.2","0.6","0.4","0.1764152442","0.2290368179","0.4253829576","0.3189860171","","","","","","","","","","","","76","L","3","","","121","main_expt"
"","bandit","201","772749","0.0-162.0-0.0","00526075","wem/bandit_either_2","AR75XTT2KAUL2","either","8","1008","","","","","","","0","1","0","","0.3011672979","0.8","0.2","0.6","0.4","0.2092397698","0.2445441383","0.4235175979","0.3011672979","","","","","","","","","","","","76","L","3","","","122","main_expt"
"","bandit","202","774699","0.0-163.0-0.0","00526075","wem/bandit_either_2","AR75XTT2KAUL2","either","8","445","","","","","","","0","0","1","0.3037948063","","0.8","0.2","0.6","0.4","","","","","0.1884058447","0.2091075756","0.4182090072","0.3037948063","","","","","","","","76","L","3","","","123","main_expt"
"","bandit","203","777072","0.0-164.0-0.0","00526075","wem/bandit_either_2","AR75XTT2KAUL2","either","8","867","","","","","","","0","0","1","","0.2446200253","0.8","0.2","0.6","0.4","0.1876417206","0.2216111921","0.4356016004","0.2446200253","","","","","","","","","","","","76","L","3","","","124","main_expt"
"","bandit","204","779052","0.0-165.0-0.0","00526075","wem/bandit_either_2","AR75XTT2KAUL2","either","8","473","","","","","","","0","0","1","","0.403953628","0.8","0.2","0.6","0.4","0.1890564589","0.1622020501","0.403953628","0.2464628806","","","","","","","","","","","","75","K","2","","","125","main_expt"
"","bandit","205","780895","0.0-166.0-0.0","00526075","wem/bandit_either_2","AR75XTT2KAUL2","either","8","337","","","","","","","0","0","1","0.281169445","","0.8","0.2","0.6","0.4","","","","","0.1659850756","0.173533554","0.4020675328","0.281169445","","","","","","","","76","L","3","","","126","main_expt"
"","bandit","206","782891","0.0-167.0-0.0","00526075","wem/bandit_either_2","AR75XTT2KAUL2","either","8","491","","","","","","","0","1","0","","0.338443572","0.8","0.2","0.6","0.4","0.2006343121","0.189829559","0.338443572","0.290080064","","","","","","","","","","","","75","K","2","","","127","main_expt"
"","bandit","207","784858","0.0-168.0-0.0","00526075","wem/bandit_either_2","AR75XTT2KAUL2","either","8","461","","","","","","","0","0","1","0.3280989756","","0.8","0.2","0.6","0.4","","","","","0.2637444583","0.1764696366","0.323123489","0.3280989756","","","","","","","","76","L","3","","","128","main_expt"
"","bandit","208","786704","0.0-169.0-0.0","00526075","wem/bandit_either_2","AR75XTT2KAUL2","either","8","341","","","","","","","0","0","1","0.3615310162","","0.8","0.2","0.6","0.4","","","","","0.2783394686","0.172709194","0.3615310162","0.3052704822","","","","","","","","75","K","2","","","129","main_expt"
"","bandit","209","788589","0.0-170.0-0.0","00526075","wem/bandit_either_2","AR75XTT2KAUL2","either","8","380","","","","","","","0","0","1","","0.1407460215","0.8","0.2","0.6","0.4","0.2674474002","0.1407460215","0.3667448715","0.314718742","","","","","","","","","","","","74","J","1","","","130","main_expt"
"","bandit","210","790582","0.0-171.0-0.0","00526075","wem/bandit_either_2","AR75XTT2KAUL2","either","8","487","","","","","","","0","0","1","","0.143826562","0.8","0.2","0.6","0.4","0.2122920843","0.143826562","0.341745941","0.2492347367","","","","","","","","","","","","74","J","1","","","131","main_expt"
"","bandit","211","792374","0.0-172.0-0.0","00526075","wem/bandit_either_2","AR75XTT2KAUL2","either","8","287","","","","","","","0","0","1","0.1862992663","","0.8","0.2","0.6","0.4","","","","","0.1969346152","0.1862992663","0.2615325727","0.2495736985","","","","","","","","74","J","1","","","132","main_expt"
"","bandit","212","794160","0.0-173.0-0.0","00526075","wem/bandit_either_2","AR75XTT2KAUL2","either","8","281","","","","","","","0","0","1","","0.2487120015","0.8","0.2","0.6","0.4","0.1390835973","0.185648564","0.27905624","0.2487120015","","","","","","","","","","","","76","L","3","","","133","main_expt"
"","bandit","213","795955","0.0-174.0-0.0","00526075","wem/bandit_either_2","AR75XTT2KAUL2","either","8","289","","","","","","","0","1","0","","0.3239420422","0.8","0.2","0.6","0.4","0.1437640715","0.2002276213","0.2751163123","0.3239420422","","","","","","","","","","","","76","L","3","","","134","main_expt"
"","bandit","214","797879","0.0-175.0-0.0","00526075","wem/bandit_either_2","AR75XTT2KAUL2","either","8","419","","","","","","","0","1","0","","0.3903525049","0.8","0.2","0.6","0.4","0.1175999949","0.2474552851","0.2586507773","0.3903525049","","","","","","","","","","","","76","L","3","","","135","main_expt"
"","bandit","215","799794","0.0-176.0-0.0","00526075","wem/bandit_either_2","AR75XTT2KAUL2","either","8","407","","","","","","","0","0","1","0.3703049055","","0.8","0.2","0.6","0.4","","","","","0.1108499649","0.2454982057","0.2385277364","0.3703049055","","","","","","","","76","L","3","","","136","main_expt"
"","bandit","216","802039","0.0-177.0-0.0","00526075","wem/bandit_either_2","AR75XTT2KAUL2","either","8","740","","","","","","","0","0","1","0.1208727618","","0.8","0.2","0.6","0.4","","","","","0.1208727618","0.2708690816","0.1935782534","0.3657944308","","","","","","","","72","H","0","img/none_selected.jpg","","137","main_expt"
"","bandit","217","803944","0.0-178.0-0.0","00526075","wem/bandit_either_2","AR75XTT2KAUL2","either","8","398","","","","","","","0","1","0","","0.3452946514","0.8","0.2","0.6","0.4","0.1098805161","0.2219039101","0.14087624","0.3452946514","","","","","","","","","","","","76","L","3","","","138","main_expt"
"","bandit","218","805784","0.0-179.0-0.0","00526075","wem/bandit_either_2","AR75XTT2KAUL2","either","8","335","","","","","","","0","0","1","0.3225052804","","0.8","0.2","0.6","0.4","","","","","0.1359731218","0.2485571535","0.1340930794","0.3225052804","","","","","","","","76","L","3","","","139","main_expt"
"","bandit","219","807596","0.0-180.0-0.0","00526075","wem/bandit_either_2","AR75XTT2KAUL2","either","8","306","","","","","","","0","0","1","","0.2997250911","0.8","0.2","0.6","0.4","0.1419248406","0.2605640439","0.1170750994","0.2997250911","","","","","","","","","","","","76","L","3","","","140","main_expt"
"","bandit","220","809791","0.0-181.0-0.0","00526075","wem/bandit_either_2","AR75XTT2KAUL2","either","8","690","","","","","","","1","0","0","0.311933389","","0.8","0.2","0.6","0.4","","","","","0.1269577117","0.2260680923","0.1316830279","0.311933389","","","","","","","","76","L","3","","","141","main_expt"
"","bandit","221","812126","0.0-182.0-0.0","00526075","wem/bandit_either_2","AR75XTT2KAUL2","either","8","829","","","","","","","0","0","1","","0.3442568425","0.8","0.2","0.6","0.4","0.1073819056","0.2354846983","0.09490366034","0.3442568425","","","","","","","","","","","","76","L","3","","","142","main_expt"
"","bandit","222","814236","0.0-183.0-0.0","00526075","wem/bandit_either_2","AR75XTT2KAUL2","either","8","605","","","","","","","0","1","0","","0.3117203045","0.8","0.2","0.6","0.4","0.1152767294","0.2089358464","0.1246024154","0.3117203045","","","","","","","","","","","","76","L","3","","","143","main_expt"
"","bandit","223","816357","0.0-184.0-0.0","00526075","wem/bandit_either_2","AR75XTT2KAUL2","either","8","615","","","","","","","0","1","0","","0.3080771123","0.8","0.2","0.6","0.4","0.1317444946","0.1844607625","0.1179874238","0.3080771123","","","","","","","","","","","","76","L","3","","","144","main_expt"
"","bandit","224","818304","0.0-185.0-0.0","00526075","wem/bandit_either_2","AR75XTT2KAUL2","either","8","443","","","","","","","0","0","1","","0.3146876691","0.8","0.2","0.6","0.4","0.1058600218","0.1940384654","0.1211842963","0.3146876691","","","","","","","","","","","","76","L","3","","","145","main_expt"
"","bandit","225","820282","0.0-186.0-0.0","00526075","wem/bandit_either_2","AR75XTT2KAUL2","either","8","473","","","","","","","0","1","0","","0.3526806189","0.8","0.2","0.6","0.4","0.1862633901","0.2532022814","0.06212451067","0.3526806189","","","","","","","","","","","","76","L","3","","","146","main_expt"
"","bandit","226","822202","0.0-187.0-0.0","00526075","wem/bandit_either_2","AR75XTT2KAUL2","either","8","415","","","","","","","0","1","0","","0.3859334927","0.8","0.2","0.6","0.4","0.1944793183","0.272856749","0.05826033827","0.3859334927","","","","","","","","","","","","76","L","3","","","147","main_expt"
"","bandit","227","824275","0.0-188.0-0.0","00526075","wem/bandit_either_2","AR75XTT2KAUL2","either","8","567","","","","","","","0","0","1","0.4089873985","","0.8","0.2","0.6","0.4","","","","","0.1572605535","0.2441255329","0.04847575149","0.4089873985","","","","","","","","76","L","3","","","148","main_expt"
"","bandit","228","826716","0.0-189.0-0.0","00526075","wem/bandit_either_2","AR75XTT2KAUL2","either","8","936","","","","","","","1","0","0","0.3317076441","","0.8","0.2","0.6","0.4","","","","","0.1632070519","0.2304797635","0.07397138717","0.3317076441","","","","","","","","76","L","3","","","149","main_expt"
"","bandit","229","829020","0.0-190.0-0.0","00526075","wem/bandit_either_2","AR75XTT2KAUL2","either","8","798","","","","","","","0","0","1","","0.2514439341","0.8","0.2","0.6","0.4","0.2162169298","0.2645424191","0.1178437277","0.2514439341","","","","","","","","","","","","76","L","3","","","150","main_expt"
"","bandit","230","830950","0.0-191.0-0.0","00526075","wem/bandit_either_2","AR75XTT2KAUL2","either","8","424","","","","","","","0","0","1","","0.2209696772","0.8","0.2","0.6","0.4","0.2806681102","0.2919476008","0.1116740648","0.2209696772","","","","","","","","","","","","76","L","3","","","151","main_expt"
"","bandit","231","838647","0.0-192.0-0.0","00526075","wem/bandit_either_2","AR75XTT2KAUL2","either","8","6192","","","","","","","0","0","1","","0.2004300668","0.8","0.2","0.6","0.4","0.25223767","0.3004198658","0.09681320826","0.2004300668","","","","","","","","","","","","76","L","3","","","152","main_expt"
"","bandit","232","843615","0.0-193.0-0.0","00526075","wem/bandit_either_2","AR75XTT2KAUL2","either","8","3463","","","","","","","0","0","1","0.1803159607","","0.8","0.2","0.6","0.4","","","","","0.2259503681","0.2910243242","0.1162344283","0.1803159607","","","","","","","","76","L","3","","","153","main_expt"
"","bandit","233","846691","0.0-194.0-0.0","00526075","wem/bandit_either_2","AR75XTT2KAUL2","either","8","1570","","","","","","","0","0","1","","0.1793353988","0.8","0.2","0.6","0.4","0.2520515582","0.2858680692","0.1441765144","0.1793353988","","","","","","","","","","","","76","L","3","","","154","main_expt"
"","bandit","234","848889","0.0-195.0-0.0","00526075","wem/bandit_either_2","AR75XTT2KAUL2","either","8","692","","","","","","","0","0","1","0.246895917","","0.8","0.2","0.6","0.4","","","","","0.246895917","0.276906037","0.1506434262","0.175125938","","","","","","","","72","H","0","img/none_selected.jpg","","155","main_expt"
"","bandit","235","851705","0.0-196.0-0.0","00526075","wem/bandit_either_2","AR75XTT2KAUL2","either","8","1309","","","","","","","0","0","1","0.2067462234","","0.8","0.2","0.6","0.4","","","","","0.2067462234","0.3087514371","0.1691825384","0.19004546","","","","","","","","72","H","0","img/none_selected.jpg","","156","main_expt"
"","bandit","236","853803","0.0-197.0-0.0","00526075","wem/bandit_either_2","AR75XTT2KAUL2","either","8","593","","","","","","","0","0","1","","0.3400763937","0.8","0.2","0.6","0.4","0.1736677602","0.3400763937","0.1465267651","0.1538528063","","","","","","","","","","","","74","J","1","","","157","main_expt"
"","bandit","237","855627","0.0-198.0-0.0","00526075","wem/bandit_either_2","AR75XTT2KAUL2","either","8","318","","","","","","","0","0","1","","0.3388441277","0.8","0.2","0.6","0.4","0.2437422656","0.3388441277","0.1517260174","0.1624419901","","","","","","","","","","","","74","J","1","","","158","main_expt"
"","bandit","238","858356","0.0-199.0-0.0","00526075","wem/bandit_either_2","AR75XTT2KAUL2","either","8","1224","","","","","","","0","0","1","0.3496437485","","0.8","0.2","0.6","0.4","","","","","0.2627628197","0.3496437485","0.143579764","0.1749682205","","","","","","","","74","J","1","","","159","main_expt"
"","bandit","239","860362","0.0-200.0-0.0","00526075","wem/bandit_either_2","AR75XTT2KAUL2","either","8","500","","","","","","","0","0","1","","0.1701049762","0.8","0.2","0.6","0.4","0.2532756584","0.3347491532","0.1701049762","0.2227833177","","","","","","","","","","","","75","K","2","","","160","main_expt"
"","bandit","240","862550","0.0-201.0-0.0","00526075","wem/bandit_either_2","AR75XTT2KAUL2","either","8","683","","","","","","","0","0","1","","0.1616195486","0.8","0.2","0.6","0.4","0.2846030245","0.3036625801","0.1596038406","0.1616195486","","","","","","","","","","","","76","L","3","","","161","main_expt"
"","bandit","241","864604","0.0-202.0-0.0","00526075","wem/bandit_either_2","AR75XTT2KAUL2","either","8","548","","","","","","","0","0","1","","0.1440802068","0.8","0.2","0.6","0.4","0.2480450928","0.2735804545","0.1186271452","0.1440802068","","","","","","","","","","","","76","L","3","","","162","main_expt"
"","bandit","242","866416","0.0-203.0-0.0","00526075","wem/bandit_either_2","AR75XTT2KAUL2","either","8","307","","","","","","","0","0","1","","0.1460830151","0.8","0.2","0.6","0.4","0.3217860246","0.2219233964","0.1460830151","0.1349250059","","","","","","","","","","","","75","K","2","","","163","main_expt"
"","bandit","243","868190","0.0-204.0-0.0","00526075","wem/bandit_either_2","AR75XTT2KAUL2","either","8","268","","","","","","","0","0","1","0.1924179555","","0.8","0.2","0.6","0.4","","","","","0.3528623486","0.2489701673","0.1924179555","0.1482528248","","","","","","","","75","K","2","","","164","main_expt"
"","bandit","244","870473","0.0-205.0-0.0","00526075","wem/bandit_either_2","AR75XTT2KAUL2","either","8","776","","","","","","","0","0","1","","0.1909643941","0.8","0.2","0.6","0.4","0.3113737792","0.2424219606","0.1909643941","0.1444116863","","","","","","","","","","","","75","K","2","","","165","main_expt"
"","bandit","245","872262","0.0-206.0-0.0","00526075","wem/bandit_either_2","AR75XTT2KAUL2","either","8","283","","","","","","","0","0","1","","0.1899742571","0.8","0.2","0.6","0.4","0.2820045276","0.1899742571","0.1917506842","0.1621449425","","","","","","","","","","","","74","J","1","","","166","main_expt"
"","bandit","246","874405","0.0-207.0-0.0","00526075","wem/bandit_either_2","AR75XTT2KAUL2","either","8","638","","","","","","","0","1","0","","0.2298880826","0.8","0.2","0.6","0.4","0.2539690707","0.2298880826","0.2238056512","0.1695256229","","","","","","","","","","","","74","J","1","","","167","main_expt"
"","bandit","247","876231","0.0-208.0-0.0","00526075","wem/bandit_either_2","AR75XTT2KAUL2","either","8","319","","","","","","","0","0","1","","0.241220494","0.8","0.2","0.6","0.4","0.2177565821","0.241220494","0.2132240521","0.1712445676","","","","","","","","","","","","74","J","1","","","168","main_expt"
"","bandit","248","877999","0.0-209.0-0.0","00526075","wem/bandit_either_2","AR75XTT2KAUL2","either","8","262","","","","","","","0","0","1","","0.2113351254","0.8","0.2","0.6","0.4","0.183214586","0.2113351254","0.1363713625","0.191079104","","","","","","","","","","","","74","J","1","","","169","main_expt"
"","bandit","249","879763","0.0-210.0-0.0","00526075","wem/bandit_either_2","AR75XTT2KAUL2","either","8","258","","","","","","","0","0","1","","0.2224744884","0.8","0.2","0.6","0.4","0.1757282231","0.2224744884","0.2007690262","0.2227666825","","","","","","","","","","","","74","J","1","","","170","main_expt"
"","bandit","250","881535","0.0-211.0-0.0","00526075","wem/bandit_either_2","AR75XTT2KAUL2","either","8","267","","","","","","","0","0","1","0.1679331046","","0.8","0.2","0.6","0.4","","","","","0.1679331046","0.262177911","0.1238998316","0.2719914804","","","","","","","","72","H","0","img/none_selected.jpg","","171","main_expt"
"","bandit","251","883425","0.0-212.0-0.0","00526075","wem/bandit_either_2","AR75XTT2KAUL2","either","8","383","","","","","","","0","0","1","0.14560319","","0.8","0.2","0.6","0.4","","","","","0.14560319","0.2822992514","0.09746419185","0.2330128459","","","","","","","","72","H","0","img/none_selected.jpg","","172","main_expt"
"","bandit","252","885065","0.0-213.0-0.0","00526075","wem/bandit_either_2","AR75XTT2KAUL2","either","8","135","","","","","","","0","0","1","0.2840251313","","0.8","0.2","0.6","0.4","","","","","0.1341549344","0.2545762091","0.1018164217","0.2840251313","","","","","","","","76","L","3","","","173","main_expt"
"","bandit","253","886829","0.0-214.0-0.0","00526075","wem/bandit_either_2","AR75XTT2KAUL2","either","8","259","","","","","","","0","0","1","0.2739042306","","0.8","0.2","0.6","0.4","","","","","0.1471305278","0.2838184637","0.1401689619","0.2739042306","","","","","","","","76","L","3","","","174","main_expt"
"","bandit","254","888695","0.0-215.0-0.0","00526075","wem/bandit_either_2","AR75XTT2KAUL2","either","8","361","","","","","","","0","0","1","","0.3444735506","0.8","0.2","0.6","0.4","0.173963405","0.3002790513","0.1697524679","0.3444735506","","","","","","","","","","","","76","L","3","","","175","main_expt"
"","bandit","255","890751","0.0-216.0-0.0","00526075","wem/bandit_either_2","AR75XTT2KAUL2","either","8","550","","","","","","","0","0","1","","0.3223017316","0.8","0.2","0.6","0.4","0.1821857965","0.3771690292","0.1896898672","0.3223017316","","","","","","","","","","","","76","L","3","","","176","main_expt"
"","bandit","256","892528","0.0-217.0-0.0","00526075","wem/bandit_either_2","AR75XTT2KAUL2","either","8","273","","","","","","","0","0","1","","0.2964924158","0.8","0.2","0.6","0.4","0.1444884472","0.4047809956","0.2441254625","0.2964924158","","","","","","","","","","","","76","L","3","","","177","main_expt"
"","bandit","257","894352","0.0-218.0-0.0","00526075","wem/bandit_either_2","AR75XTT2KAUL2","either","8","317","","","","","","","0","1","0","","0.2780576925","0.8","0.2","0.6","0.4","0.1207783293","0.4344960837","0.2427722412","0.2780576925","","","","","","","","","","","","76","L","3","","","178","main_expt"
"","bandit","258","896612","0.0-219.0-0.0","00526075","wem/bandit_either_2","AR75XTT2KAUL2","either","8","754","","","","","","","0","0","1","","0.2859751729","0.8","0.2","0.6","0.4","0.111585665","0.4287912686","0.2284650367","0.2859751729","","","","","","","","","","","","76","L","3","","","179","main_expt"
"","bandit","259","898613","0.0-220.0-0.0","00526075","wem/bandit_either_2","AR75XTT2KAUL2","either","8","495","","","","","","","0","0","1","0.283533164","","0.8","0.2","0.6","0.4","","","","","0.06891525065","0.4294180747","0.2694081366","0.283533164","","","","","","","","76","L","3","","","180","main_expt"
"","bandit","260","900499","0.0-221.0-0.0","00526075","wem/bandit_either_2","AR75XTT2KAUL2","either","8","380","","","","","","","0","0","1","","0.2430023428","0.8","0.2","0.6","0.4","0.07407739619","0.3887332701","0.2471628034","0.2430023428","","","","","","","","","","","","76","L","3","","","181","main_expt"
"","bandit","261","902394","0.0-222.0-0.0","00526075","wem/bandit_either_2","AR75XTT2KAUL2","either","8","390","","","","","","","0","1","0","","0.275372354","0.8","0.2","0.6","0.4","0.07501704201","0.3910635387","0.275372354","0.223254837","","","","","","","","","","","","75","K","2","","","182","main_expt"
"","bandit","262","904463","0.0-223.0-0.0","00526075","wem/bandit_either_2","AR75XTT2KAUL2","either","8","563","","","","","","","0","1","0","","0.2378950907","0.8","0.2","0.6","0.4","0.09354103142","0.3957792538","0.2378950907","0.2274286797","","","","","","","","","","","","75","K","2","","","183","main_expt"
"","bandit","263","906380","0.0-224.0-0.0","00526075","wem/bandit_either_2","AR75XTT2KAUL2","either","8","411","","","","","","","1","0","0","0.2611999536","","0.8","0.2","0.6","0.4","","","","","0.06673830493","0.3777829694","0.2611999536","0.2485964068","","","","","","","","75","K","2","","","184","main_expt"
"","bandit","264","908309","0.0-225.0-0.0","00526075","wem/bandit_either_2","AR75XTT2KAUL2","either","8","425","","","","","","","0","0","1","","0.2799245071","0.8","0.2","0.6","0.4","0.08617836821","0.4130939835","0.2799245071","0.2080173303","","","","","","","","","","","","75","K","2","","","185","main_expt"
"","bandit","265","910209","0.0-226.0-0.0","00526075","wem/bandit_either_2","AR75XTT2KAUL2","either","8","393","","","","","","","0","0","1","","0.2538883687","0.8","0.2","0.6","0.4","0.05054014018","0.376930599","0.2275386122","0.2538883687","","","","","","","","","","","","76","L","3","","","186","main_expt"
"","bandit","266","911950","0.0-227.0-0.0","00526075","wem/bandit_either_2","AR75XTT2KAUL2","either","8","235","","","","","","","0","0","1","","0.2267652077","0.8","0.2","0.6","0.4","0.1101456656","0.3934592684","0.2558518805","0.2267652077","","","","","","","","","","","","76","L","3","","","187","main_expt"
"","bandit","267","913758","0.0-228.0-0.0","00526075","wem/bandit_either_2","AR75XTT2KAUL2","either","8","302","","","","","","","0","0","1","0.2583789709","","0.8","0.2","0.6","0.4","","","","","0.1076418148","0.4086060551","0.2757393749","0.2583789709","","","","","","","","76","L","3","","","188","main_expt"
"","bandit","268","915574","0.0-229.0-0.0","00526075","wem/bandit_either_2","AR75XTT2KAUL2","either","8","311","","","","","","","0","0","1","0.2329768584","","0.8","0.2","0.6","0.4","","","","","0.1230456027","0.447145564","0.3326758055","0.2329768584","","","","","","","","76","L","3","","","189","main_expt"
"","bandit","269","917439","0.0-230.0-0.0","00526075","wem/bandit_either_2","AR75XTT2KAUL2","either","8","360","","","","","","","0","0","1","0.332927569","","0.8","0.2","0.6","0.4","","","","","0.1872873117","0.386091063","0.332927569","0.2002510669","","","","","","","","75","K","2","","","190","main_expt"
"","bandit","270","919184","0.0-231.0-0.0","00526075","wem/bandit_either_2","AR75XTT2KAUL2","either","8","239","","","","","","","0","0","1","0.3859199101","","0.8","0.2","0.6","0.4","","","","","0.1413073252","0.4221145333","0.3859199101","0.2182600554","","","","","","","","75","K","2","","","191","main_expt"
"","bandit","271","920949","0.0-232.0-0.0","00526075","wem/bandit_either_2","AR75XTT2KAUL2","either","8","260","","","","","","","0","0","1","","0.3913199708","0.8","0.2","0.6","0.4","0.1868627967","0.3913199708","0.392668484","0.2681613901","","","","","","","","","","","","74","J","1","","","192","main_expt"
"","bandit","272","922529","0.0-233.0-0.0","00526075","wem/bandit_either_2","AR75XTT2KAUL2","either","8","74","","","","","","","0","0","1","","0.4013624592","0.8","0.2","0.6","0.4","0.2312719224","0.4013624592","0.3789843676","0.3035027483","","","","","","","","","","","","74","J","1","","","193","main_expt"
"","bandit","273","924387","0.0-234.0-0.0","00526075","wem/bandit_either_2","AR75XTT2KAUL2","either","8","352","","","","","","","0","0","1","0.3668237699","","0.8","0.2","0.6","0.4","","","","","0.2585201677","0.3668237699","0.3689216281","0.275531754","","","","","","","","74","J","1","","","194","main_expt"
"","bandit","274","926245","0.0-235.0-0.0","00526075","wem/bandit_either_2","AR75XTT2KAUL2","either","8","353","","","","","","","0","0","1","0.2786104129","","0.8","0.2","0.6","0.4","","","","","0.2786104129","0.3856266791","0.4136905162","0.2716401532","","","","","","","","72","H","0","img/none_selected.jpg","","195","main_expt"
"","bandit","275","928097","0.0-236.0-0.0","00526075","wem/bandit_either_2","AR75XTT2KAUL2","either","8","345","","","","","","","0","1","0","","0.4258575101","0.8","0.2","0.6","0.4","0.2407834285","0.3702439493","0.4258575101","0.2814611543","","","","","","","","","","","","75","K","2","","","196","main_expt"
"","bandit","276","930179","0.0-237.0-0.0","00526075","wem/bandit_either_2","AR75XTT2KAUL2","either","8","576","","","","","","","0","0","1","","0.3665926528","0.8","0.2","0.6","0.4","0.2550568011","0.3665926528","0.3976178043","0.2588010394","","","","","","","","","","","","74","J","1","","","197","main_expt"
"","bandit","277","931767","0.0-238.0-0.0","00526075","wem/bandit_either_2","AR75XTT2KAUL2","either","8","81","","","","","","","0","0","1","0.3802378075","","0.8","0.2","0.6","0.4","","","","","0.3094863904","0.3432124584","0.3802378075","0.3094610495","","","","","","","","75","K","2","","","198","main_expt"
"","bandit","278","933579","0.0-239.0-0.0","00526075","wem/bandit_either_2","AR75XTT2KAUL2","either","8","306","","","","","","","0","0","1","0.3926800246","","0.8","0.2","0.6","0.4","","","","","0.3012985694","0.4096574544","0.3926800246","0.3139278769","","","","","","","","75","K","2","","","199","main_expt"
"","bandit","279","935347","0.0-240.0-0.0","00526075","wem/bandit_either_2","AR75XTT2KAUL2","either","8","262","","","","","","","0","0","1","","0.3459706187","0.8","0.2","0.6","0.4","0.3149132519","0.3799023259","0.3814844917","0.3459706187","","","","","","","","","","","","76","L","3","","","200","main_expt"
"","bandit","280","937159","0.0-241.0-0.0","00526075","wem/bandit_either_2","AR75XTT2KAUL2","either","8","307","","","","","","","0","0","1","","0.3038365479","0.8","0.2","0.6","0.4","0.3236307962","0.3513783521","0.3831630738","0.3038365479","","","","","","","","","","","","76","L","3","","","201","main_expt"
"","bandit","281","939018","0.0-242.0-0.0","00526075","wem/bandit_either_2","AR75XTT2KAUL2","either","8","353","","","","","","","0","0","1","0.2964599608","","0.8","0.2","0.6","0.4","","","","","0.3163717903","0.3439351057","0.3957430938","0.2964599608","","","","","","","","76","L","3","","","202","main_expt"
"","bandit","282","941110","0.0-243.0-0.0","00526075","wem/bandit_either_2","AR75XTT2KAUL2","either","8","585","","","","","","","0","0","1","","0.280336616","0.8","0.2","0.6","0.4","0.3165936227","0.2615327891","0.4175506619","0.280336616","","","","","","","","","","","","76","L","3","","","203","main_expt"
"","bandit","283","942912","0.0-244.0-0.0","00526075","wem/bandit_either_2","AR75XTT2KAUL2","either","8","295","","","","","","","0","0","1","0.4356800279","","0.8","0.2","0.6","0.4","","","","","0.3166231072","0.2211517471","0.4356800279","0.262900641","","","","","","","","75","K","2","","","204","main_expt"
"","bandit","284","945174","0.0-245.0-0.0","00526075","wem/bandit_either_2","AR75XTT2KAUL2","either","8","756","","","","","","","0","0","1","0.2983153058","","0.8","0.2","0.6","0.4","","","","","0.2983153058","0.1955747294","0.4342993254","0.3403150927","","","","","","","","72","H","0","img/none_selected.jpg","","205","main_expt"
"","bandit","285","946984","0.0-246.0-0.0","00526075","wem/bandit_either_2","AR75XTT2KAUL2","either","8","304","","","","","","","0","0","1","0.255573156","","0.8","0.2","0.6","0.4","","","","","0.255573156","0.3137251184","0.4515967499","0.3407188883","","","","","","","","72","H","0","img/none_selected.jpg","","206","main_expt"
"","bandit","286","949002","0.0-247.0-0.0","00526075","wem/bandit_either_2","AR75XTT2KAUL2","either","8","511","","","","","","","0","0","1","0.2816724171","","0.8","0.2","0.6","0.4","","","","","0.2816724171","0.2982459604","0.4559700358","0.2955601217","","","","","","","","72","H","0","img/none_selected.jpg","","207","main_expt"
"","bandit","287","950792","0.0-248.0-0.0","00526075","wem/bandit_either_2","AR75XTT2KAUL2","either","8","284","","","","","","","0","0","1","","0.2359404152","0.8","0.2","0.6","0.4","0.2462622089","0.2359404152","0.4711787588","0.2832193826","","","","","","","","","","","","74","J","1","","","208","main_expt"
"","bandit","288","952532","0.0-249.0-0.0","00526075","wem/bandit_either_2","AR75XTT2KAUL2","either","8","234","","","","","","","0","0","1","","0.2396635106","0.8","0.2","0.6","0.4","0.2608633631","0.2396635106","0.4859779177","0.25637755","","","","","","","","","","","","74","J","1","","","209","main_expt"
"","bandit","289","954384","0.0-250.0-0.0","00526075","wem/bandit_either_2","AR75XTT2KAUL2","either","8","344","","","","","","","0","1","0","","0.4798195452","0.8","0.2","0.6","0.4","0.2649708152","0.2320506775","0.4798195452","0.2500912527","","","","","","","","","","","","75","K","2","","","210","main_expt"
"","bandit","290","956392","0.0-251.0-0.0","00526075","wem/bandit_either_2","AR75XTT2KAUL2","either","8","501","","","","","","","0","0","1","","0.4754072522","0.8","0.2","0.6","0.4","0.2658594566","0.1894847828","0.4754072522","0.2481129288","","","","","","","","","","","","75","K","2","","","211","main_expt"
"","bandit","291","958338","0.0-252.0-0.0","00526075","wem/bandit_either_2","AR75XTT2KAUL2","either","8","438","","","","","","","0","0","1","0.4780703898","","0.8","0.2","0.6","0.4","","","","","0.2648449814","0.2330804604","0.4780703898","0.3192168596","","","","","","","","75","K","2","","","212","main_expt"
"","bandit","292","960224","0.0-253.0-0.0","00526075","wem/bandit_either_2","AR75XTT2KAUL2","either","8","381","","","","","","","0","0","1","","0.4883488692","0.8","0.2","0.6","0.4","0.286492297","0.2484053244","0.4883488692","0.2361953268","","","","","","","","","","","","75","K","2","","","213","main_expt"
"","bandit","293","961944","0.0-254.0-0.0","00526075","wem/bandit_either_2","AR75XTT2KAUL2","either","8","214","","","","","","","0","0","1","0.2308921763","","0.8","0.2","0.6","0.4","","","","","0.2540339129","0.2182548364","0.4872562331","0.2308921763","","","","","","","","76","L","3","","","214","main_expt"
"","bandit","294","963816","0.0-255.0-0.0","00526075","wem/bandit_either_2","AR75XTT2KAUL2","either","8","365","","","","","","","0","1","0","","0.4749609167","0.8","0.2","0.6","0.4","0.254651127","0.1824073789","0.4749609167","0.2161033537","","","","","","","","","","","","75","K","2","","","215","main_expt"
"","bandit","295","965772","0.0-256.0-0.0","00526075","wem/bandit_either_2","AR75XTT2KAUL2","either","8","450","","","","","","","0","1","0","","0.4798413464","0.8","0.2","0.6","0.4","0.3140517816","0.1923730387","0.4798413464","0.1896756427","","","","","","","","","","","","75","K","2","","","216","main_expt"
"","bandit","296","967621","0.0-257.0-0.0","00526075","wem/bandit_either_2","AR75XTT2KAUL2","either","8","344","","","","","","","0","0","1","0.1724286307","","0.8","0.2","0.6","0.4","","","","","0.3338676317","0.2266612446","0.4865144435","0.1724286307","","","","","","","","76","L","3","","","217","main_expt"
"","bandit","297","969457","0.0-258.0-0.0","00526075","wem/bandit_either_2","AR75XTT2KAUL2","either","8","330","","","","","","","0","0","1","","0.4789145001","0.8","0.2","0.6","0.4","0.3397001125","0.1702705737","0.4789145001","0.161168334","","","","","","","","","","","","75","K","2","","","218","main_expt"
"","bandit","298","971290","0.0-259.0-0.0","00526075","wem/bandit_either_2","AR75XTT2KAUL2","either","8","327","","","","","","","1","0","0","0.4834748692","","0.8","0.2","0.6","0.4","","","","","0.2982528089","0.1159766116","0.4834748692","0.2021763003","","","","","","","","75","K","2","","","219","main_expt"
"","bandit","299","973130","0.0-260.0-0.0","00526075","wem/bandit_either_2","AR75XTT2KAUL2","either","8","330","","","","","","","0","0","1","0.4722371777","","0.8","0.2","0.6","0.4","","","","","0.2770934022","0.09529473055","0.4722371777","0.2142164272","","","","","","","","75","K","2","","","220","main_expt"
"","bandit","300","974922","0.0-261.0-0.0","00526075","wem/bandit_either_2","AR75XTT2KAUL2","either","8","286","","","","","","","0","0","1","","0.09060922323","0.8","0.2","0.6","0.4","0.2696770889","0.09060922323","0.4654689219","0.189068297","","","","","","","","","","","","74","J","1","","","221","main_expt"
"","bandit","301","976722","0.0-262.0-0.0","00526075","wem/bandit_either_2","AR75XTT2KAUL2","either","8","293","","","","","","","1","0","0","0.4533789701","","0.8","0.2","0.6","0.4","","","","","0.3103502417","0.1250772464","0.4533789701","0.2120997892","","","","","","","","75","K","2","","","222","main_expt"
"","bandit","302","978562","0.0-263.0-0.0","00526075","wem/bandit_either_2","AR75XTT2KAUL2","either","8","333","","","","","","","0","0","1","","0.1937664477","0.8","0.2","0.6","0.4","0.3477728299","0.1177235221","0.4473019993","0.1937664477","","","","","","","","","","","","76","L","3","","","223","main_expt"
"","bandit","303","980356","0.0-264.0-0.0","00526075","wem/bandit_either_2","AR75XTT2KAUL2","either","8","287","","","","","","","0","0","1","0.4651086175","","0.8","0.2","0.6","0.4","","","","","0.3230244909","0.1589673504","0.4651086175","0.2195846313","","","","","","","","75","K","2","","","224","main_expt"
"","bandit","304","982137","0.0-265.0-0.0","00526075","wem/bandit_either_2","AR75XTT2KAUL2","either","8","274","","","","","","","0","0","1","","0.4704934375","0.8","0.2","0.6","0.4","0.3641913847","0.1582937281","0.4704934375","0.1973587738","","","","","","","","","","","","75","K","2","","","225","main_expt"
"","bandit","305","983796","0.0-266.0-0.0","00526075","wem/bandit_either_2","AR75XTT2KAUL2","either","8","153","","","","","","","0","0","1","","0.4545632724","0.8","0.2","0.6","0.4","0.3211822138","0.1585786296","0.4545632724","0.2029059012","","","","","","","","","","","","75","K","2","","","226","main_expt"
"","bandit","306","985528","0.0-267.0-0.0","00526075","wem/bandit_either_2","AR75XTT2KAUL2","either","8","225","","","","","","","0","0","1","0.1614007709","","0.8","0.2","0.6","0.4","","","","","0.3318596792","0.1614007709","0.4313330006","0.1677618241","","","","","","","","74","J","1","","","227","main_expt"
"","bandit","307","987265","0.0-268.0-0.0","00526075","wem/bandit_either_2","AR75XTT2KAUL2","either","8","230","","","","","","","0","0","1","","0.4253897179","0.8","0.2","0.6","0.4","0.3715738924","0.1160982884","0.4253897179","0.2079318551","","","","","","","","","","","","75","K","2","","","228","main_expt"
"","bandit","308","989073","0.0-269.0-0.0","00526075","wem/bandit_either_2","AR75XTT2KAUL2","either","8","301","","","","","","","0","0","1","","0.4416009531","0.8","0.2","0.6","0.4","0.3571583743","0.1327168588","0.4416009531","0.1860779256","","","","","","","","","","","","75","K","2","","","229","main_expt"
"","bandit","309","990940","0.0-270.0-0.0","00526075","wem/bandit_either_2","AR75XTT2KAUL2","either","8","360","","","","","","","0","0","1","0.3455313741","","0.8","0.2","0.6","0.4","","","","","0.3455313741","0.1751239199","0.4612445757","0.1294985144","","","","","","","","72","H","0","img/none_selected.jpg","","230","main_expt"
"","bandit","310","992780","0.0-271.0-0.0","00526075","wem/bandit_either_2","AR75XTT2KAUL2","either","8","334","","","","","","","0","1","0","","0.4455927364","0.8","0.2","0.6","0.4","0.3114256563","0.2080149414","0.4455927364","0.1424139305","","","","","","","","","","","","75","K","2","","","231","main_expt"
"","bandit","311","994699","0.0-272.0-0.0","00526075","wem/bandit_either_2","AR75XTT2KAUL2","either","8","412","","","","","","","0","0","1","0.4449483857","","0.8","0.2","0.6","0.4","","","","","0.3127001645","0.2305008548","0.4449483857","0.1777617008","","","","","","","","75","K","2","","","232","main_expt"
"","bandit","312","996495","0.0-273.0-0.0","00526075","wem/bandit_either_2","AR75XTT2KAUL2","either","8","289","","","","","","","0","0","1","0.2953609795","","0.8","0.2","0.6","0.4","","","","","0.2953609795","0.2331895239","0.4570404202","0.1408291819","","","","","","","","72","H","0","img/none_selected.jpg","","233","main_expt"
"","bandit","313","998443","0.0-274.0-0.0","00526075","wem/bandit_either_2","AR75XTT2KAUL2","either","8","440","","","","","","","0","0","1","","0.09563300426","0.8","0.2","0.6","0.4","0.2743769666","0.2007149185","0.4785018613","0.09563300426","","","","","","","","","","","","76","L","3","","","234","main_expt"
"","bandit","314","999972","0.0-275.0-0.0","00526075","wem/bandit_either_2","AR75XTT2KAUL2","either","8","20","","","","","","","0","1","0","","0.1428876463","0.8","0.2","0.6","0.4","0.2842570603","0.1428876463","0.4708517218","0.06508254785","","","","","","","","","","","","74","J","1","","","235","main_expt"
"","bandit","315","1002064","0.0-276.0-0.0","00526075","wem/bandit_either_2","AR75XTT2KAUL2","either","8","585","","","","","","","1","0","0","0.4721911582","","0.8","0.2","0.6","0.4","","","","","0.3536106974","0.1327756685","0.4721911582","0.05272484418","","","","","","","","75","K","2","","","236","main_expt"
"","bandit","316","1004303","0.0-277.0-0.0","00526075","wem/bandit_either_2","AR75XTT2KAUL2","either","8","730","","","","","","","0","1","0","","0.1969646424","0.8","0.2","0.6","0.4","0.3777879982","0.1969646424","0.4567984566","0.05000735717","","","","","","","","","","","","74","J","1","","","237","main_expt"
"","bandit","317","1006224","0.0-278.0-0.0","00526075","wem/bandit_either_2","AR75XTT2KAUL2","either","8","415","","","","","","","0","0","1","0.4601910044","","0.8","0.2","0.6","0.4","","","","","0.3819628943","0.2040955009","0.4601910044","0.03409798278","","","","","","","","75","K","2","","","238","main_expt"
"","bandit","318","1008091","0.0-279.0-0.0","00526075","wem/bandit_either_2","AR75XTT2KAUL2","either","8","359","","","","","","","0","0","1","0.4663275819","","0.8","0.2","0.6","0.4","","","","","0.3590612953","0.1885012088","0.4663275819","0.03555143528","","","","","","","","75","K","2","","","239","main_expt"
"","bandit","319","1010032","0.0-280.0-0.0","00526075","wem/bandit_either_2","AR75XTT2KAUL2","either","8","432","","","","","","","0","1","0","","0.1779850251","0.8","0.2","0.6","0.4","0.3943681209","0.1779850251","0.4781926851","0.06633834621","","","","","","","","","","","","74","J","1","","","240","main_expt"
"","bandit","320","1012499","0.0-281.0-0.0","00526075","wem/bandit_either_2","AR75XTT2KAUL2","either","8","960","","","","","","","0","0","1","0.2132761508","","0.8","0.2","0.6","0.4","","","","","0.4178476804","0.2132761508","0.4813407325","0.0332650027","","","","","","","","74","J","1","","","241","main_expt"
"","bandit","321","1043533","0.0-282.0-0.0","00526075","wem/bandit_either_2","AR75XTT2KAUL2","either","8","29526","","","","","","","0","0","1","","0.03674005559","0.8","0.2","0.6","0.4","0.4083523659","0.2181708985","0.4758201438","0.03674005559","","","","","","","","","","","","76","L","3","","","242","main_expt"
"","bandit","322","1045309","0.0-283.0-0.0","00526075","wem/bandit_either_2","AR75XTT2KAUL2","either","8","268","","","","","","","0","0","1","","0.02732183546","0.8","0.2","0.6","0.4","0.4107673147","0.1880751836","0.4739127226","0.02732183546","","","","","","","","","","","","76","L","3","","","243","main_expt"
"","bandit","323","1047223","0.0-284.0-0.0","00526075","wem/bandit_either_2","AR75XTT2KAUL2","either","8","406","","","","","","","0","0","1","","0.4467527753","0.8","0.2","0.6","0.4","0.3914084711","0.2693527465","0.4467527753","0.02742276317","","","","","","","","","","","","75","K","2","","","244","main_expt"
"","bandit","324","1048851","0.0-285.0-0.0","00526075","wem/bandit_either_2","AR75XTT2KAUL2","either","8","121","","","","","","","0","0","1","0.4492118003","","0.8","0.2","0.6","0.4","","","","","0.4117032301","0.2474629182","0.4492118003","0.03322496416","","","","","","","","75","K","2","","","245","main_expt"
"","bandit","325","1050771","0.0-286.0-0.0","00526075","wem/bandit_either_2","AR75XTT2KAUL2","either","8","413","","","","","","","0","0","1","","0.4702058379","0.8","0.2","0.6","0.4","0.4225436654","0.3019125269","0.4702058379","0.0538648904","","","","","","","","","","","","75","K","2","","","246","main_expt"
"","bandit","326","1052530","0.0-287.0-0.0","00526075","wem/bandit_either_2","AR75XTT2KAUL2","either","8","252","","","","","","","0","0","1","","0.3013832462","0.8","0.2","0.6","0.4","0.4327875568","0.3013832462","0.4717010128","0.05538537946","","","","","","","","","","","","74","J","1","","","247","main_expt"
"","bandit","327","1054364","0.0-288.0-0.0","00526075","wem/bandit_either_2","AR75XTT2KAUL2","either","8","328","","","","","","","0","0","1","","0.2917300956","0.8","0.2","0.6","0.4","0.4478523955","0.2917300956","0.4750055548","0.07377210468","","","","","","","","","","","","74","J","1","","","248","main_expt"
"","bandit","328","1056176","0.0-289.0-0.0","00526075","wem/bandit_either_2","AR75XTT2KAUL2","either","8","304","","","","","","","0","0","1","0.4221620221","","0.8","0.2","0.6","0.4","","","","","0.4221620221","0.2976682537","0.4608113614","0.07098242635","","","","","","","","72","H","0","img/none_selected.jpg","","249","main_expt"
