"consent","trial_type","trial_index","time_elapsed","internal_node_id","subjID","study","MID","cond","drift","rt","responses","key_press","expt_phase","like","value","connected","gems","bombs","no_reward","GemPrChosen","BombPrChosen","GainOverPainPr_0","GainOverPainPr_1","GainOverPainPr_2","GainOverPainPr_3","LosePr_0","LosePr_1","LosePr_2","LosePr_3","WinPr_0","WinPr_1","WinPr_2","WinPr_3","Q0","Q1","Q2","gender","age","ethnicity","target","respCharCode","respKey","respChoiceNum","respChoice","practice","trial_counter","trial_label"
"INL_behavioral_consent_30min_online.html","consent","0","16444","0.0-0.0","00588330","wem/bandit_either_2","A20NITCOBY4775","either","5","","","","","","","","","","","","","","","","","","","","","","","","","","","","","","","","","","","","","",""
"","survey-text","1","24862","0.0-1.0","00588330","wem/bandit_either_2","A20NITCOBY4775","either","5","6796","{""Q0"":""A20NITCOBY4775""}","","","","","","","","","","","","","","","","","","","","","","","","","","","","","","","","","","","",""
"","text","2","56399","0.0-2.0","00588330","wem/bandit_either_2","A20NITCOBY4775","either","5","30500","","32","","","","","","","","","","","","","","","","","","","","","","","","","","","","","","","","","","",""
"","text","3","70744","0.0-3.0","00588330","wem/bandit_either_2","A20NITCOBY4775","either","5","14342","","32","","","","","","","","","","","","","","","","","","","","","","","","","","","","","","","","","","",""
"","text","4","103126","0.0-4.0","00588330","wem/bandit_either_2","A20NITCOBY4775","either","5","32378","","32","","","","","","","","","","","","","","","","","","","","","","","","","","","","","","","","","","",""
"","text","5","121567","0.0-5.0","00588330","wem/bandit_either_2","A20NITCOBY4775","either","5","18437","","32","","","","","","","","","","","","","","","","","","","","","","","","","","","","","","","","","","",""
"","text","6","151512","0.0-6.0","00588330","wem/bandit_either_2","A20NITCOBY4775","either","5","29940","","32","","","","","","","","","","","","","","","","","","","","","","","","","","","","","","","","","","",""
"","text","7","174081","0.0-7.0","00588330","wem/bandit_either_2","A20NITCOBY4775","either","5","22565","","32","","","","","","","","","","","","","","","","","","","","","","","","","","","","","","","","","","",""
"","text","8","182577","0.0-8.0","00588330","wem/bandit_either_2","A20NITCOBY4775","either","5","8491","","32","","","","","","","","","","","","","","","","","","","","","","","","","","","","","","","","","","",""
"","identification","9","199774","0.0-9.0-0.0","00588330","wem/bandit_either_2","A20NITCOBY4775","either","5","17160","","","","0","3","6","","","","","","","","","","","","","","","","","","","","","","","","the village of Zur","","","","","","",""
"","identification","10","211710","0.0-9.0-1.0","00588330","wem/bandit_either_2","A20NITCOBY4775","either","5","10902","","","","3","3","0","","","","","","","","","","","","","","","","","","","","","","","","the village of Nyx","","","","","","",""
"","text","11","220645","0.0-10.0","00588330","wem/bandit_either_2","A20NITCOBY4775","either","5","7676","","32","","","","","","","","","","","","","","","","","","","","","","","","","","","","","","","","","","",""
"","text","12","230685","0.0-11.0","00588330","wem/bandit_either_2","A20NITCOBY4775","either","5","10038","","32","","","","","","","","","","","","","","","","","","","","","","","","","","","","","","","","","","",""
"","text","13","235931","0.0-12.0","00588330","wem/bandit_either_2","A20NITCOBY4775","either","5","5244","","32","","","","","","","","","","","","","","","","","","","","","","","","","","","","","","","","","","",""
"","text","14","240820","0.0-13.0","00588330","wem/bandit_either_2","A20NITCOBY4775","either","5","4886","","32","","","","","","","","","","","","","","","","","","","","","","","","","","","","","","","","","","",""
"","bandit","15","248806","0.0-14.0-0.0","00588330","wem/bandit_either_2","A20NITCOBY4775","either","5","6469","","","","","","","0","0","1","0","0","","","","","0","","","","0","","","","","","","","","","","74","J","0","img/none_selected_demo.jpg","true","0",""
"","bandit","16","256786","0.0-15.0-0.0","00588330","wem/bandit_either_2","A20NITCOBY4775","either","5","6434","","","","","","","0","0","1","0","0","","","","","0","","","","0","","","","","","","","","","","75","K","0","img/none_selected_demo.jpg","true","0",""
"","text","17","279439","0.0-16.0","00588330","wem/bandit_either_2","A20NITCOBY4775","either","5","22648","","32","","","","","","","","","","","","","","","","","","","","","","","","","","","","","","","","","","",""
"","text","18","304050","0.0-17.0","00588330","wem/bandit_either_2","A20NITCOBY4775","either","5","24606","","32","","","","","","","","","","","","","","","","","","","","","","","","","","","","","","","","","","",""
"","text","19","313809","0.0-18.0","00588330","wem/bandit_either_2","A20NITCOBY4775","either","5","9756","","32","","","","","","","","","","","","","","","","","","","","","","","","","","","","","","","","","","",""
"","text","20","328081","0.0-19.0","00588330","wem/bandit_either_2","A20NITCOBY4775","either","5","14268","","32","","","","","","","","","","","","","","","","","","","","","","","","","","","","","","","","","","",""
"","bandit","21","333012","0.0-20.0-0.0","00588330","wem/bandit_either_2","A20NITCOBY4775","either","5","2667","","","","","","","0","0","1","","0.2","0.5","0.5","","","0.8","0.2","","","","","","","","","","","","","","75","K","1","","true","0","80_20_practice"
"","bandit","22","337713","0.0-20.0-1.0","00588330","wem/bandit_either_2","A20NITCOBY4775","either","5","2295","","","","","","","0","0","1","0.2","","0.5","0.5","","","","","","","0.8","0.2","","","","","","","","","","75","K","1","","true","0","80_20_practice"
"","bandit","23","340603","0.0-20.0-2.0","00588330","wem/bandit_either_2","A20NITCOBY4775","either","5","1379","","","","","","","0","1","0","","0.8","0.5","0.5","","","0.8","0.2","","","","","","","","","","","","","","74","J","0","img/none_selected_demo.jpg","true","0","80_20_practice"
"","bandit","24","345761","0.0-20.0-3.0","00588330","wem/bandit_either_2","A20NITCOBY4775","either","5","3647","","","","","","","1","0","0","0.8","","0.5","0.5","","","","","","","0.8","0.2","","","","","","","","","","74","J","0","img/none_selected_demo.jpg","true","0","80_20_practice"
"","bandit","25","349510","0.0-20.0-4.0","00588330","wem/bandit_either_2","A20NITCOBY4775","either","5","1390","","","","","","","1","0","0","0.8","","0.5","0.5","","","","","","","0.8","0.2","","","","","","","","","","74","J","0","img/none_selected_demo.jpg","true","0","80_20_practice"
"","bandit","26","352337","0.0-20.0-5.0","00588330","wem/bandit_either_2","A20NITCOBY4775","either","5","1315","","","","","","","0","0","1","0.2","","0.5","0.5","","","","","","","0.8","0.2","","","","","","","","","","75","K","1","","true","0","80_20_practice"
"","bandit","27","354856","0.0-20.0-6.0","00588330","wem/bandit_either_2","A20NITCOBY4775","either","5","1009","","","","","","","0","1","0","","0.2","0.5","0.5","","","0.8","0.2","","","","","","","","","","","","","","75","K","1","","true","0","80_20_practice"
"","bandit","28","358211","0.0-20.0-7.0","00588330","wem/bandit_either_2","A20NITCOBY4775","either","5","1277","","","","","","","0","1","0","","0.2","0.5","0.5","","","0.8","0.2","","","","","","","","","","","","","","75","K","1","","true","0","80_20_practice"
"","bandit","29","360794","0.0-20.0-8.0","00588330","wem/bandit_either_2","A20NITCOBY4775","either","5","1073","","","","","","","0","0","1","0.2","","0.5","0.5","","","","","","","0.8","0.2","","","","","","","","","","75","K","1","","true","0","80_20_practice"
"","bandit","30","364739","0.0-20.0-9.0","00588330","wem/bandit_either_2","A20NITCOBY4775","either","5","1378","","","","","","","1","0","0","0.8","","0.5","0.5","","","","","","","0.8","0.2","","","","","","","","","","74","J","0","img/none_selected_demo.jpg","true","0","80_20_practice"
"","bandit","31","367022","0.0-20.0-10.0","00588330","wem/bandit_either_2","A20NITCOBY4775","either","5","766","","","","","","","1","0","0","0.8","","0.5","0.5","","","","","","","0.8","0.2","","","","","","","","","","74","J","0","img/none_selected_demo.jpg","true","0","80_20_practice"
"","bandit","32","370086","0.0-20.0-11.0","00588330","wem/bandit_either_2","A20NITCOBY4775","either","5","1552","","","","","","","0","1","0","","0.8","0.5","0.5","","","0.8","0.2","","","","","","","","","","","","","","74","J","0","img/none_selected_demo.jpg","true","0","80_20_practice"
"","bandit","33","373448","0.0-20.0-12.0","00588330","wem/bandit_either_2","A20NITCOBY4775","either","5","1190","","","","","","","1","0","0","0.8","","0.5","0.5","","","","","","","0.8","0.2","","","","","","","","","","74","J","0","img/none_selected_demo.jpg","true","0","80_20_practice"
"","bandit","34","375494","0.0-20.0-13.0","00588330","wem/bandit_either_2","A20NITCOBY4775","either","5","536","","","","","","","1","0","0","0.8","","0.5","0.5","","","","","","","0.8","0.2","","","","","","","","","","74","J","0","img/none_selected_demo.jpg","true","0","80_20_practice"
"","bandit","35","378301","0.0-20.0-14.0","00588330","wem/bandit_either_2","A20NITCOBY4775","either","5","657","","","","","","","0","0","1","","0.2","0.5","0.5","","","0.8","0.2","","","","","","","","","","","","","","75","K","1","","true","0","80_20_practice"
"","bandit","36","380787","0.0-20.0-15.0","00588330","wem/bandit_either_2","A20NITCOBY4775","either","5","968","","","","","","","0","1","0","","0.8","0.5","0.5","","","0.8","0.2","","","","","","","","","","","","","","74","J","0","img/none_selected_demo.jpg","true","0","80_20_practice"
"","bandit","37","384084","0.0-20.0-16.0","00588330","wem/bandit_either_2","A20NITCOBY4775","either","5","1084","","","","","","","1","0","0","0.8","","0.5","0.5","","","","","","","0.8","0.2","","","","","","","","","","74","J","0","img/none_selected_demo.jpg","true","0","80_20_practice"
"","bandit","38","386101","0.0-20.0-17.0","00588330","wem/bandit_either_2","A20NITCOBY4775","either","5","486","","","","","","","1","0","0","0.8","","0.5","0.5","","","","","","","0.8","0.2","","","","","","","","","","74","J","0","img/none_selected_demo.jpg","true","0","80_20_practice"
"","bandit","39","390618","0.0-20.0-18.0","00588330","wem/bandit_either_2","A20NITCOBY4775","either","5","3003","","","","","","","1","0","0","0.8","","0.5","0.5","","","","","","","0.8","0.2","","","","","","","","","","74","J","0","img/none_selected_demo.jpg","true","0","80_20_practice"
"","bandit","40","393885","0.0-20.0-19.0","00588330","wem/bandit_either_2","A20NITCOBY4775","either","5","1030","","","","","","","0","0","1","0.8","","0.5","0.5","","","","","","","0.8","0.2","","","","","","","","","","74","J","0","img/none_selected_demo.jpg","true","0","80_20_practice"
"","text","41","403725","0.0-21.0","00588330","wem/bandit_either_2","A20NITCOBY4775","either","5","9837","","32","","","","","","","","","","","","","","","","","","","","","","","","","","","","","","","","","","",""
"","bandit","42","408552","0.0-22.0-0.0","00588330","wem/bandit_either_2","A20NITCOBY4775","either","5","3314","","","","","","","1","0","0","1","0","","","","","0","1","","","1","0","","","","","","","","","","74","J","0","img/none_selected_demo.jpg","true","0",""
"","text","43","418634","0.0-23.0","00588330","wem/bandit_either_2","A20NITCOBY4775","either","5","10078","","32","","","","","","","","","","","","","","","","","","","","","","","","","","","","","","","","","","",""
"","text","44","427329","0.0-24.0","00588330","wem/bandit_either_2","A20NITCOBY4775","either","5","8691","","32","","","","","","","","","","","","","","","","","","","","","","","","","","","","","","","","","","",""
"","text","45","430742","0.0-25.0","00588330","wem/bandit_either_2","A20NITCOBY4775","either","5","3407","","32","","","","","","","","","","","","","","","","","","","","","","","","","","","","","","","","","","",""
"","text","46","436008","0.0-26.0","00588330","wem/bandit_either_2","A20NITCOBY4775","either","5","5259","","32","","","","","","","","","","","","","","","","","","","","","","","","","","","","","","","","","","",""
"","text","47","446776","0.0-27.0","00588330","wem/bandit_either_2","A20NITCOBY4775","either","5","10761","","32","","","","","","","","","","","","","","","","","","","","","","","","","","","","","","","","","","",""
"","text","48","453149","0.0-28.0","00588330","wem/bandit_either_2","A20NITCOBY4775","either","5","6366","","32","","","","","","","","","","","","","","","","","","","","","","","","","","","","","","","","","","",""
"","text","49","463389","0.0-29.0","00588330","wem/bandit_either_2","A20NITCOBY4775","either","5","10235","","32","","","","","","","","","","","","","","","","","","","","","","","","","","","","","","","","","","",""
"","text","50","467181","0.0-30.0","00588330","wem/bandit_either_2","A20NITCOBY4775","either","5","3786","","32","","","","","","","","","","","","","","","","","","","","","","","","","","","","","","","","","","",""
"","text","51","474600","0.0-31.0","00588330","wem/bandit_either_2","A20NITCOBY4775","either","5","7413","","32","","","","","","","","","","","","","","","","","","","","","","","","","","","","","","","","","","",""
"","text","52","477897","0.0-32.0","00588330","wem/bandit_either_2","A20NITCOBY4775","either","5","3292","","32","","","","","","","","","","","","","","","","","","","","","","","","","","","","","","","","","","",""
"","text","53","560829","0.0-33.0","00588330","wem/bandit_either_2","A20NITCOBY4775","either","5","82925","","32","","","","","","","","","","","","","","","","","","","","","","","","","","","","","","","","","","",""
"","bandit","54","566419","0.0-34.0-0.0","00588330","wem/bandit_either_2","A20NITCOBY4775","either","5","4069","","","","","","","1","0","0","0.8","","0.5","0.5","0.5","0.5","","","","","0.8","0.2","0.6","0.2","","","","","","","","72","H","0","img/none_selected.jpg","true","0","full_practice"
"","bandit","55","570732","0.0-34.0-1.0","00588330","wem/bandit_either_2","A20NITCOBY4775","either","5","2798","","","","","","","0","0","1","","0.8","0.5","0.5","0.5","0.5","0.8","0.2","0.6","0.2","","","","","","","","","","","","72","H","0","img/none_selected.jpg","true","0","full_practice"
"","bandit","56","574873","0.0-34.0-2.0","00588330","wem/bandit_either_2","A20NITCOBY4775","either","5","2623","","","","","","","0","0","1","0.8","","0.5","0.5","0.5","0.5","","","","","0.8","0.2","0.6","0.2","","","","","","","","72","H","0","img/none_selected.jpg","true","0","full_practice"
"","bandit","57","578211","0.0-34.0-3.0","00588330","wem/bandit_either_2","A20NITCOBY4775","either","5","977","","","","","","","0","0","1","","0.2","0.5","0.5","0.5","0.5","0.8","0.2","0.6","0.2","","","","","","","","","","","","74","J","1","","true","0","full_practice"
"","bandit","58","580608","0.0-34.0-4.0","00588330","wem/bandit_either_2","A20NITCOBY4775","either","5","796","","","","","","","1","0","0","0.6","","0.5","0.5","0.5","0.5","","","","","0.8","0.2","0.6","0.2","","","","","","","","75","K","2","","true","0","full_practice"
"","bandit","59","583955","0.0-34.0-5.0","00588330","wem/bandit_either_2","A20NITCOBY4775","either","5","1330","","","","","","","1","0","0","0.6","","0.5","0.5","0.5","0.5","","","","","0.8","0.2","0.6","0.2","","","","","","","","75","K","2","","true","0","full_practice"
"","bandit","60","586090","0.0-34.0-6.0","00588330","wem/bandit_either_2","A20NITCOBY4775","either","5","620","","","","","","","0","0","1","0.6","","0.5","0.5","0.5","0.5","","","","","0.8","0.2","0.6","0.2","","","","","","","","75","K","2","","true","0","full_practice"
"","bandit","61","589264","0.0-34.0-7.0","00588330","wem/bandit_either_2","A20NITCOBY4775","either","5","1663","","","","","","","0","0","1","","0.2","0.5","0.5","0.5","0.5","0.8","0.2","0.6","0.2","","","","","","","","","","","","76","L","3","","true","0","full_practice"
"","bandit","62","591533","0.0-34.0-8.0","00588330","wem/bandit_either_2","A20NITCOBY4775","either","5","756","","","","","","","0","1","0","","0.2","0.5","0.5","0.5","0.5","0.8","0.2","0.6","0.2","","","","","","","","","","","","76","L","3","","true","0","full_practice"
"","bandit","63","594086","0.0-34.0-9.0","00588330","wem/bandit_either_2","A20NITCOBY4775","either","5","1040","","","","","","","0","0","1","","0.2","0.5","0.5","0.5","0.5","0.8","0.2","0.6","0.2","","","","","","","","","","","","76","L","3","","true","0","full_practice"
"","bandit","64","597431","0.0-34.0-10.0","00588330","wem/bandit_either_2","A20NITCOBY4775","either","5","1103","","","","","","","0","1","0","","0.6","0.5","0.5","0.5","0.5","0.8","0.2","0.6","0.2","","","","","","","","","","","","75","K","2","","true","0","full_practice"
"","bandit","65","599509","0.0-34.0-11.0","00588330","wem/bandit_either_2","A20NITCOBY4775","either","5","565","","","","","","","1","0","0","0.6","","0.5","0.5","0.5","0.5","","","","","0.8","0.2","0.6","0.2","","","","","","","","75","K","2","","true","0","full_practice"
"","bandit","66","602217","0.0-34.0-12.0","00588330","wem/bandit_either_2","A20NITCOBY4775","either","5","591","","","","","","","0","1","0","","0.6","0.5","0.5","0.5","0.5","0.8","0.2","0.6","0.2","","","","","","","","","","","","75","K","2","","true","0","full_practice"
"","bandit","67","604969","0.0-34.0-13.0","00588330","wem/bandit_either_2","A20NITCOBY4775","either","5","1239","","","","","","","0","1","0","","0.6","0.5","0.5","0.5","0.5","0.8","0.2","0.6","0.2","","","","","","","","","","","","75","K","2","","true","0","full_practice"
"","bandit","68","607265","0.0-34.0-14.0","00588330","wem/bandit_either_2","A20NITCOBY4775","either","5","562","","","","","","","0","0","1","0.6","","0.5","0.5","0.5","0.5","","","","","0.8","0.2","0.6","0.2","","","","","","","","75","K","2","","true","0","full_practice"
"","bandit","69","609941","0.0-34.0-15.0","00588330","wem/bandit_either_2","A20NITCOBY4775","either","5","1164","","","","","","","0","0","1","0.2","","0.5","0.5","0.5","0.5","","","","","0.8","0.2","0.6","0.2","","","","","","","","74","J","1","","true","0","full_practice"
"","bandit","70","613049","0.0-34.0-16.0","00588330","wem/bandit_either_2","A20NITCOBY4775","either","5","806","","","","","","","0","0","1","","0.8","0.5","0.5","0.5","0.5","0.8","0.2","0.6","0.2","","","","","","","","","","","","72","H","0","img/none_selected.jpg","true","0","full_practice"
"","bandit","71","615184","0.0-34.0-17.0","00588330","wem/bandit_either_2","A20NITCOBY4775","either","5","624","","","","","","","1","0","0","0.8","","0.5","0.5","0.5","0.5","","","","","0.8","0.2","0.6","0.2","","","","","","","","72","H","0","img/none_selected.jpg","true","0","full_practice"
"","bandit","72","618227","0.0-34.0-18.0","00588330","wem/bandit_either_2","A20NITCOBY4775","either","5","1526","","","","","","","1","0","0","0.8","","0.5","0.5","0.5","0.5","","","","","0.8","0.2","0.6","0.2","","","","","","","","72","H","0","img/none_selected.jpg","true","0","full_practice"
"","bandit","73","620347","0.0-34.0-19.0","00588330","wem/bandit_either_2","A20NITCOBY4775","either","5","600","","","","","","","0","0","1","","0.8","0.5","0.5","0.5","0.5","0.8","0.2","0.6","0.2","","","","","","","","","","","","72","H","0","img/none_selected.jpg","true","0","full_practice"
"","text","74","624088","0.0-35.0","00588330","wem/bandit_either_2","A20NITCOBY4775","either","5","3723","","32","","","","","","","","","","","","","","","","","","","","","","","","","","","","","","","","","","",""
"","text","75","645631","0.0-36.0","00588330","wem/bandit_either_2","A20NITCOBY4775","either","5","20535","","32","","","","","","","","","","","","","","","","","","","","","","","","","","","","","","","","","","",""
"","text","76","662053","0.0-37.0","00588330","wem/bandit_either_2","A20NITCOBY4775","either","5","16414","","32","","","","","","","","","","","","","","","","","","","","","","","","","","","","","","","","","","",""
"","text","77","667493","0.0-38.0","00588330","wem/bandit_either_2","A20NITCOBY4775","either","5","5433","","32","","","","","","","","","","","","","","","","","","","","","","","","","","","","","","","","","","",""
"","text","78","673233","0.0-39.0","00588330","wem/bandit_either_2","A20NITCOBY4775","either","5","5732","","32","","","","","","","","","","","","","","","","","","","","","","","","","","","","","","","","","","",""
"","text","79","680400","0.0-40.0","00588330","wem/bandit_either_2","A20NITCOBY4775","either","5","7161","","32","","","","","","","","","","","","","","","","","","","","","","","","","","","","","","","","","","",""
"","bandit","80","686766","0.0-41.0-0.0","00588330","wem/bandit_either_2","A20NITCOBY4775","either","5","4843","","","","","","","0","1","0","","0.3340388524","0.4","0.8","0.6","0.2","0.3897275569","0.1165465043","0.3340388524","0.4265570961","","","","","","","","","","","","75","K","2","","","1","main_expt"
"","bandit","81","688953","0.0-42.0-0.0","00588330","wem/bandit_either_2","A20NITCOBY4775","either","5","670","","","","","","","0","1","0","","0.3223834482","0.4","0.8","0.6","0.2","0.3911966266","0.08371899021","0.3223834482","0.4177099958","","","","","","","","","","","","75","K","2","","","2","main_expt"
"","bandit","82","691342","0.0-43.0-0.0","00588330","wem/bandit_either_2","A20NITCOBY4775","either","5","865","","","","","","","0","0","1","","0.3585509001","0.4","0.8","0.6","0.2","0.4074861021","0.04339790364","0.3585509001","0.4192185534","","","","","","","","","","","","75","K","2","","","3","main_expt"
"","bandit","83","694588","0.0-44.0-0.0","00588330","wem/bandit_either_2","A20NITCOBY4775","either","5","852","","","","","","","0","0","1","0.3416436242","","0.4","0.8","0.6","0.2","","","","","0.3965638453","0.04073472785","0.3416436242","0.4241610434","","","","","","","","75","K","2","","","4","main_expt"
"","bandit","84","697488","0.0-45.0-0.0","00588330","wem/bandit_either_2","A20NITCOBY4775","either","5","1382","","","","","","","0","0","1","","0.4284837315","0.4","0.8","0.6","0.2","0.3688269119","0.04731773769","0.3444758892","0.4284837315","","","","","","","","","","","","76","L","3","","","5","main_expt"
"","bandit","85","700711","0.0-46.0-0.0","00588330","wem/bandit_either_2","A20NITCOBY4775","either","5","901","","","","","","","1","0","0","0.4328708062","","0.4","0.8","0.6","0.2","","","","","0.3865867917","0.05617088868","0.3574177426","0.4328708062","","","","","","","","76","L","3","","","6","main_expt"
"","bandit","86","703427","0.0-47.0-0.0","00588330","wem/bandit_either_2","A20NITCOBY4775","either","5","1201","","","","","","","0","0","1","","0.4176545671","0.4","0.8","0.6","0.2","0.4294719924","0.05606577856","0.3634052143","0.4176545671","","","","","","","","","","","","76","L","3","","","7","main_expt"
"","bandit","87","706651","0.0-48.0-0.0","00588330","wem/bandit_either_2","A20NITCOBY4775","either","5","1694","","","","","","","0","0","1","","0.4022395488","0.4","0.8","0.6","0.2","0.4210378118","0.09244853328","0.3675420607","0.4022395488","","","","","","","","","","","","76","L","3","","","8","main_expt"
"","bandit","88","710317","0.0-49.0-0.0","00588330","wem/bandit_either_2","A20NITCOBY4775","either","5","1364","","","","","","","0","0","1","0.1271341085","","0.4","0.8","0.6","0.2","","","","","0.4502112583","0.1271341085","0.3921196104","0.3929004949","","","","","","","","74","J","1","","","9","main_expt"
"","bandit","89","713120","0.0-50.0-0.0","00588330","wem/bandit_either_2","A20NITCOBY4775","either","5","1288","","","","","","","0","1","0","","0.4452653155","0.4","0.8","0.6","0.2","0.4452653155","0.1370717255","0.4026182126","0.3863711448","","","","","","","","","","","","72","H","0","img/none_selected.jpg","","10","main_expt"
"","bandit","90","716161","0.0-51.0-0.0","00588330","wem/bandit_either_2","A20NITCOBY4775","either","5","1529","","","","","","","0","0","1","0.4352349267","","0.4","0.8","0.6","0.2","","","","","0.4352349267","0.1275050207","0.3543069494","0.4205849279","","","","","","","","72","H","0","img/none_selected.jpg","","11","main_expt"
"","bandit","91","718314","0.0-52.0-0.0","00588330","wem/bandit_either_2","A20NITCOBY4775","either","5","639","","","","","","","0","1","0","","0.4029030639","0.4","0.8","0.6","0.2","0.4029030639","0.122317004","0.3504097904","0.4525069231","","","","","","","","","","","","72","H","0","img/none_selected.jpg","","12","main_expt"
"","bandit","92","721447","0.0-53.0-0.0","00588330","wem/bandit_either_2","A20NITCOBY4775","either","5","1080","","","","","","","0","0","1","0.4198147105","","0.4","0.8","0.6","0.2","","","","","0.4198147105","0.1251711411","0.2787441393","0.4485799753","","","","","","","","72","H","0","img/none_selected.jpg","","13","main_expt"
"","bandit","93","723587","0.0-54.0-0.0","00588330","wem/bandit_either_2","A20NITCOBY4775","either","5","516","","","","","","","1","0","0","0.3761312174","","0.4","0.8","0.6","0.2","","","","","0.3761312174","0.1380641988","0.2723245106","0.4504049656","","","","","","","","72","H","0","img/none_selected.jpg","","14","main_expt"
"","bandit","94","726646","0.0-55.0-0.0","00588330","wem/bandit_either_2","A20NITCOBY4775","either","5","1545","","","","","","","0","0","1","0.4017507227","","0.4","0.8","0.6","0.2","","","","","0.4017507227","0.2010812313","0.3687644442","0.4281165459","","","","","","","","72","H","0","img/none_selected.jpg","","15","main_expt"
"","bandit","95","730015","0.0-56.0-0.0","00588330","wem/bandit_either_2","A20NITCOBY4775","either","5","1300","","","","","","","1","0","0","0.3859888637","","0.4","0.8","0.6","0.2","","","","","0.3859888637","0.1747275657","0.3992289848","0.4035101098","","","","","","","","72","H","0","img/none_selected.jpg","","16","main_expt"
"","bandit","96","732828","0.0-57.0-0.0","00588330","wem/bandit_either_2","A20NITCOBY4775","either","5","1297","","","","","","","1","0","0","0.1816524112","","0.4","0.8","0.6","0.2","","","","","0.3706978481","0.1816524112","0.4067061876","0.4063691663","","","","","","","","74","J","1","","","17","main_expt"
"","bandit","97","736415","0.0-58.0-0.0","00588330","wem/bandit_either_2","A20NITCOBY4775","either","5","2071","","","","","","","0","0","1","0.1700798448","","0.4","0.8","0.6","0.2","","","","","0.3323991027","0.1700798448","0.3969002131","0.4201618032","","","","","","","","74","J","1","","","18","main_expt"
"","bandit","98","739915","0.0-59.0-0.0","00588330","wem/bandit_either_2","A20NITCOBY4775","either","5","1224","","","","","","","0","0","1","","0.3301718366","0.4","0.8","0.6","0.2","0.3301718366","0.1998500639","0.3930099592","0.3868389751","","","","","","","","","","","","72","H","0","img/none_selected.jpg","","19","main_expt"
"","bandit","99","742244","0.0-60.0-0.0","00588330","wem/bandit_either_2","A20NITCOBY4775","either","5","815","","","","","","","0","0","1","","0.3714618997","0.4","0.8","0.6","0.2","0.3714618997","0.2418808817","0.3791602553","0.3868875991","","","","","","","","","","","","72","H","0","img/none_selected.jpg","","20","main_expt"
"","bandit","100","747917","0.0-61.0-0.0","00588330","wem/bandit_either_2","A20NITCOBY4775","either","5","4155","","","","","","","1","0","0","0.4127515201","","0.4","0.8","0.6","0.2","","","","","0.3621694591","0.2293341009","0.4127515201","0.4253770554","","","","","","","","75","K","2","","","21","main_expt"
"","bandit","101","750906","0.0-62.0-0.0","00588330","wem/bandit_either_2","A20NITCOBY4775","either","5","1461","","","","","","","1","0","0","0.4164833055","","0.4","0.8","0.6","0.2","","","","","0.3648829928","0.2074184163","0.4164833055","0.4285762007","","","","","","","","75","K","2","","","22","main_expt"
"","bandit","102","754347","0.0-63.0-0.0","00588330","wem/bandit_either_2","A20NITCOBY4775","either","5","1200","","","","","","","0","0","1","","0.4143027846","0.4","0.8","0.6","0.2","0.2856994719","0.1832507358","0.4143027846","0.4082522222","","","","","","","","","","","","75","K","2","","","23","main_expt"
"","bandit","103","756637","0.0-64.0-0.0","00588330","wem/bandit_either_2","A20NITCOBY4775","either","5","772","","","","","","","0","0","1","","0.4027270218","0.4","0.8","0.6","0.2","0.3152516524","0.1469425149","0.3649270698","0.4027270218","","","","","","","","","","","","76","L","3","","","24","main_expt"
"","bandit","104","759113","0.0-65.0-0.0","00588330","wem/bandit_either_2","A20NITCOBY4775","either","5","943","","","","","","","0","0","1","","0.4100212433","0.4","0.8","0.6","0.2","0.2778145345","0.102794739","0.392676409","0.4100212433","","","","","","","","","","","","76","L","3","","","25","main_expt"
"","bandit","105","761652","0.0-66.0-0.0","00588330","wem/bandit_either_2","A20NITCOBY4775","either","5","1022","","","","","","","0","0","1","0.4031565401","","0.4","0.8","0.6","0.2","","","","","0.3170506137","0.1173732637","0.4031565401","0.4190791169","","","","","","","","75","K","2","","","26","main_expt"
"","bandit","106","765161","0.0-67.0-0.0","00588330","wem/bandit_either_2","A20NITCOBY4775","either","5","1996","","","","","","","1","0","0","0.08835016803","","0.4","0.8","0.6","0.2","","","","","0.3223143746","0.08835016803","0.4245959001","0.4527212376","","","","","","","","74","J","1","","","27","main_expt"
"","bandit","107","768055","0.0-68.0-0.0","00588330","wem/bandit_either_2","A20NITCOBY4775","either","5","1372","","","","","","","0","0","1","0.1134440288","","0.4","0.8","0.6","0.2","","","","","0.3234472479","0.1134440288","0.4232885055","0.4480998813","","","","","","","","74","J","1","","","28","main_expt"
"","bandit","108","771671","0.0-69.0-0.0","00588330","wem/bandit_either_2","A20NITCOBY4775","either","5","1154","","","","","","","0","0","1","","0.1982905849","0.4","0.8","0.6","0.2","0.2881425904","0.1982905849","0.4495512981","0.4628669208","","","","","","","","","","","","74","J","1","","","29","main_expt"
"","bandit","109","774460","0.0-70.0-0.0","00588330","wem/bandit_either_2","A20NITCOBY4775","either","5","1271","","","","","","","0","0","1","0.2326555855","","0.4","0.8","0.6","0.2","","","","","0.2326555855","0.2366655967","0.4485299892","0.4565655028","","","","","","","","72","H","0","img/none_selected.jpg","","30","main_expt"
"","bandit","110","777558","0.0-71.0-0.0","00588330","wem/bandit_either_2","A20NITCOBY4775","either","5","1581","","","","","","","0","0","1","","0.4686031056","0.4","0.8","0.6","0.2","0.2364604256","0.1622470467","0.4599237238","0.4686031056","","","","","","","","","","","","76","L","3","","","31","main_expt"
"","bandit","111","781297","0.0-72.0-0.0","00588330","wem/bandit_either_2","A20NITCOBY4775","either","5","1739","","","","","","","0","0","1","","0.4508116693","0.4","0.8","0.6","0.2","0.2451982598","0.1771911602","0.4508116693","0.4659582456","","","","","","","","","","","","75","K","2","","","32","main_expt"
"","bandit","112","785243","0.0-73.0-0.0","00588330","wem/bandit_either_2","A20NITCOBY4775","either","5","1560","","","","","","","0","0","1","0.1622836308","","0.4","0.8","0.6","0.2","","","","","0.2360369815","0.1622836308","0.45101727","0.4810757035","","","","","","","","74","J","1","","","33","main_expt"
"","bandit","113","787707","0.0-74.0-0.0","00588330","wem/bandit_either_2","A20NITCOBY4775","either","5","912","","","","","","","0","0","1","","0.1655985557","0.4","0.8","0.6","0.2","0.2317763892","0.1655985557","0.4340174653","0.4842727378","","","","","","","","","","","","74","J","1","","","34","main_expt"
"","bandit","114","791529","0.0-75.0-0.0","00588330","wem/bandit_either_2","A20NITCOBY4775","either","5","2306","","","","","","","0","0","1","","0.2527891731","0.4","0.8","0.6","0.2","0.2527891731","0.1492797185","0.4040147441","0.4745470136","","","","","","","","","","","","72","H","0","img/none_selected.jpg","","35","main_expt"
"","bandit","115","794847","0.0-76.0-0.0","00588330","wem/bandit_either_2","A20NITCOBY4775","either","5","977","","","","","","","0","0","1","","0.2641283143","0.4","0.8","0.6","0.2","0.2641283143","0.1504543003","0.4268829696","0.4440965139","","","","","","","","","","","","72","H","0","img/none_selected.jpg","","36","main_expt"
"","bandit","116","797216","0.0-77.0-0.0","00588330","wem/bandit_either_2","A20NITCOBY4775","either","5","854","","","","","","","0","0","1","0.2309310423","","0.4","0.8","0.6","0.2","","","","","0.2309310423","0.1064249526","0.4562327564","0.4544425755","","","","","","","","72","H","0","img/none_selected.jpg","","37","main_expt"
"","bandit","117","801064","0.0-78.0-0.0","00588330","wem/bandit_either_2","A20NITCOBY4775","either","5","2325","","","","","","","0","1","0","","0.4700138218","0.4","0.8","0.6","0.2","0.2093170459","0.1346530267","0.4481627861","0.4700138218","","","","","","","","","","","","76","L","3","","","38","main_expt"
"","bandit","118","804498","0.0-79.0-0.0","00588330","wem/bandit_either_2","A20NITCOBY4775","either","5","1080","","","","","","","0","0","1","","0.466948448","0.4","0.8","0.6","0.2","0.1398625959","0.1303494481","0.4475890948","0.466948448","","","","","","","","","","","","76","L","3","","","39","main_expt"
"","bandit","119","806834","0.0-80.0-0.0","00588330","wem/bandit_either_2","A20NITCOBY4775","either","5","811","","","","","","","0","0","1","","0.4679256248","0.4","0.8","0.6","0.2","0.09690087606","0.1492074344","0.4501575696","0.4679256248","","","","","","","","","","","","76","L","3","","","40","main_expt"
"","bandit","120","810166","0.0-81.0-0.0","00588330","wem/bandit_either_2","A20NITCOBY4775","either","5","958","","","","","","","0","0","1","","0.445537573","0.4","0.8","0.6","0.2","0.1129569356","0.1370672299","0.4121884666","0.445537573","","","","","","","","","","","","76","L","3","","","41","main_expt"
"","bandit","121","812523","0.0-82.0-0.0","00588330","wem/bandit_either_2","A20NITCOBY4775","either","5","840","","","","","","","0","1","0","","0.4521531226","0.4","0.8","0.6","0.2","0.1227033228","0.08144147181","0.4379939247","0.4521531226","","","","","","","","","","","","76","L","3","","","42","main_expt"
"","bandit","122","815438","0.0-83.0-0.0","00588330","wem/bandit_either_2","A20NITCOBY4775","either","5","1397","","","","","","","1","0","0","0.4695072217","","0.4","0.8","0.6","0.2","","","","","0.08393287497","0.06793865388","0.4271747655","0.4695072217","","","","","","","","76","L","3","","","43","main_expt"
"","bandit","123","818801","0.0-84.0-0.0","00588330","wem/bandit_either_2","A20NITCOBY4775","either","5","1151","","","","","","","0","0","1","","0.4807409838","0.4","0.8","0.6","0.2","0.06260074275","0.05295344446","0.4480494518","0.4807409838","","","","","","","","","","","","76","L","3","","","44","main_expt"
"","bandit","124","821234","0.0-85.0-0.0","00588330","wem/bandit_either_2","A20NITCOBY4775","either","5","921","","","","","","","0","1","0","","0.4507048108","0.4","0.8","0.6","0.2","0.08062123592","0.02744239742","0.4269729589","0.4507048108","","","","","","","","","","","","76","L","3","","","45","main_expt"
"","bandit","125","824438","0.0-86.0-0.0","00588330","wem/bandit_either_2","A20NITCOBY4775","either","5","1099","","","","","","","0","0","1","","0.4382321206","0.4","0.8","0.6","0.2","0.1110847749","0.02347437243","0.4475746277","0.4382321206","","","","","","","","","","","","76","L","3","","","46","main_expt"
"","bandit","126","826928","0.0-87.0-0.0","00588330","wem/bandit_either_2","A20NITCOBY4775","either","5","974","","","","","","","0","0","1","0.4393937913","","0.4","0.8","0.6","0.2","","","","","0.05346849493","0.02418160198","0.4295618238","0.4393937913","","","","","","","","76","L","3","","","47","main_expt"
"","bandit","127","829347","0.0-88.0-0.0","00588330","wem/bandit_either_2","A20NITCOBY4775","either","5","359","","","","","","","1","0","0","0.440318131","","0.4","0.8","0.6","0.2","","","","","0.04499733497","0.01182676654","0.4431907244","0.440318131","","","","","","","","76","L","3","","","48","main_expt"
"","bandit","128","831327","0.0-89.0-0.0","00588330","wem/bandit_either_2","A20NITCOBY4775","either","5","458","","","","","","","1","0","0","0.4362102412","","0.4","0.8","0.6","0.2","","","","","0.07378534534","0.0186287842","0.4187732916","0.4362102412","","","","","","","","76","L","3","","","49","main_expt"
"","bandit","129","833930","0.0-90.0-0.0","00588330","wem/bandit_either_2","A20NITCOBY4775","either","5","533","","","","","","","0","1","0","","0.44488671","0.4","0.8","0.6","0.2","0.06168845619","0.02550629551","0.356579213","0.44488671","","","","","","","","","","","","76","L","3","","","50","main_expt"
"","bandit","130","835940","0.0-91.0-0.0","00588330","wem/bandit_either_2","A20NITCOBY4775","either","5","492","","","","","","","0","1","0","","0.4633405548","0.4","0.8","0.6","0.2","0.1062028567","0.04366809707","0.2629404955","0.4633405548","","","","","","","","","","","","76","L","3","","","51","main_expt"
"","bandit","131","838875","0.0-92.0-0.0","00588330","wem/bandit_either_2","A20NITCOBY4775","either","5","400","","","","","","","0","0","1","","0.4528043762","0.4","0.8","0.6","0.2","0.1379608546","0.04357168116","0.2919747068","0.4528043762","","","","","","","","","","","","76","L","3","","","52","main_expt"
"","bandit","132","841200","0.0-93.0-0.0","00588330","wem/bandit_either_2","A20NITCOBY4775","either","5","812","","","","","","","0","1","0","","0.4390431751","0.4","0.8","0.6","0.2","0.1356826849","0.03899227154","0.3809901122","0.4390431751","","","","","","","","","","","","76","L","3","","","53","main_expt"
"","bandit","133","844409","0.0-94.0-0.0","00588330","wem/bandit_either_2","A20NITCOBY4775","either","5","1683","","","","","","","1","0","0","0.4549270822","","0.4","0.8","0.6","0.2","","","","","0.1038772241","0.04009146386","0.3452518694","0.4549270822","","","","","","","","76","L","3","","","54","main_expt"
"","bandit","134","847863","0.0-95.0-0.0","00588330","wem/bandit_either_2","A20NITCOBY4775","either","5","1051","","","","","","","0","1","0","","0.4710341864","0.4","0.8","0.6","0.2","0.1689791829","0.0155768565","0.3263112327","0.4710341864","","","","","","","","","","","","76","L","3","","","55","main_expt"
"","bandit","135","850330","0.0-96.0-0.0","00588330","wem/bandit_either_2","A20NITCOBY4775","either","5","949","","","","","","","0","1","0","","0.4745834276","0.4","0.8","0.6","0.2","0.1108888145","0.02112461672","0.3308963945","0.4745834276","","","","","","","","","","","","76","L","3","","","56","main_expt"
"","bandit","136","853519","0.0-97.0-0.0","00588330","wem/bandit_either_2","A20NITCOBY4775","either","5","855","","","","","","","0","1","0","","0.489318572","0.4","0.8","0.6","0.2","0.1206542402","0.0126553198","0.3150326571","0.489318572","","","","","","","","","","","","76","L","3","","","57","main_expt"
"","bandit","137","856154","0.0-98.0-0.0","00588330","wem/bandit_either_2","A20NITCOBY4775","either","5","1120","","","","","","","0","1","0","","0.480037986","0.4","0.8","0.6","0.2","0.09707343937","0.01131359515","0.3049116772","0.480037986","","","","","","","","","","","","76","L","3","","","58","main_expt"
"","bandit","138","859566","0.0-99.0-0.0","00588330","wem/bandit_either_2","A20NITCOBY4775","either","5","1896","","","","","","","0","0","1","","0.4593461039","0.4","0.8","0.6","0.2","0.1044384952","0.01030075821","0.3050987947","0.4593461039","","","","","","","","","","","","76","L","3","","","59","main_expt"
"","bandit","139","862793","0.0-100.0-0.0","00588330","wem/bandit_either_2","A20NITCOBY4775","either","5","959","","","","","","","0","1","0","","0.446051488","0.4","0.8","0.6","0.2","0.08890369623","0.005868957973","0.3274009355","0.446051488","","","","","","","","","","","","76","L","3","","","60","main_expt"
"","bandit","140","865298","0.0-101.0-0.0","00588330","wem/bandit_either_2","A20NITCOBY4775","either","5","990","","","","","","","0","0","1","","0.4391285327","0.4","0.8","0.6","0.2","0.08921221942","0.004361943215","0.3428943983","0.4391285327","","","","","","","","","","","","76","L","3","","","61","main_expt"
"","bandit","141","868610","0.0-102.0-0.0","00588330","wem/bandit_either_2","A20NITCOBY4775","either","5","965","","","","","","","0","0","1","","0.4063883723","0.4","0.8","0.6","0.2","0.09812025034","0.005208412743","0.3549763931","0.4063883723","","","","","","","","","","","","76","L","3","","","62","main_expt"
"","bandit","142","873538","0.0-103.0-0.0","00588330","wem/bandit_either_2","A20NITCOBY4775","either","5","2730","","","","","","","0","0","1","0.3496678451","","0.4","0.8","0.6","0.2","","","","","0.09006279409","0.006461011255","0.3496678451","0.4330387396","","","","","","","","75","K","2","","","63","main_expt"
"","bandit","143","877257","0.0-104.0-0.0","00588330","wem/bandit_either_2","A20NITCOBY4775","either","5","1357","","","","","","","0","0","1","0.1118976224","","0.4","0.8","0.6","0.2","","","","","0.1118976224","0.01267926231","0.3188537263","0.4207902426","","","","","","","","72","H","0","img/none_selected.jpg","","64","main_expt"
"","bandit","144","879467","0.0-105.0-0.0","00588330","wem/bandit_either_2","A20NITCOBY4775","either","5","563","","","","","","","0","0","1","0.1053817613","","0.4","0.8","0.6","0.2","","","","","0.1053817613","0.009732787917","0.3191795336","0.3719582347","","","","","","","","72","H","0","img/none_selected.jpg","","65","main_expt"
"","bandit","145","881664","0.0-106.0-0.0","00588330","wem/bandit_either_2","A20NITCOBY4775","either","5","678","","","","","","","0","0","1","","0.3748569955","0.4","0.8","0.6","0.2","0.1307356695","0.01092542651","0.268616347","0.3748569955","","","","","","","","","","","","76","L","3","","","66","main_expt"
"","bandit","146","884367","0.0-107.0-0.0","00588330","wem/bandit_either_2","A20NITCOBY4775","either","5","1184","","","","","","","0","0","1","0.02125534741","","0.4","0.8","0.6","0.2","","","","","0.1418436428","0.02125534741","0.259194563","0.335252031","","","","","","","","74","J","1","","","67","main_expt"
"","bandit","147","886616","0.0-108.0-0.0","00588330","wem/bandit_either_2","A20NITCOBY4775","either","5","735","","","","","","","0","0","1","0.02360283027","","0.4","0.8","0.6","0.2","","","","","0.1459089566","0.02360283027","0.2281204868","0.3199157278","","","","","","","","74","J","1","","","68","main_expt"
"","bandit","148","889561","0.0-109.0-0.0","00588330","wem/bandit_either_2","A20NITCOBY4775","either","5","1382","","","","","","","0","0","1","0.02539305756","","0.4","0.8","0.6","0.2","","","","","0.1809721424","0.02539305756","0.2195844169","0.3068525281","","","","","","","","74","J","1","","","69","main_expt"
"","bandit","149","891726","0.0-110.0-0.0","00588330","wem/bandit_either_2","A20NITCOBY4775","either","5","652","","","","","","","0","0","1","0.1883338509","","0.4","0.8","0.6","0.2","","","","","0.1784068974","0.05014388586","0.1883338509","0.3181076016","","","","","","","","75","K","2","","","70","main_expt"
"","bandit","150","894249","0.0-111.0-0.0","00588330","wem/bandit_either_2","A20NITCOBY4775","either","5","1007","","","","","","","0","0","1","","0.1973023396","0.4","0.8","0.6","0.2","0.1973023396","0.04209054697","0.1639708178","0.2926426422","","","","","","","","","","","","72","H","0","img/none_selected.jpg","","71","main_expt"
"","bandit","151","895847","0.0-112.0-0.0","00588330","wem/bandit_either_2","A20NITCOBY4775","either","5","84","","","","","","","0","0","1","","0.2436342847","0.4","0.8","0.6","0.2","0.2436342847","0.05611199342","0.1312842785","0.2380263643","","","","","","","","","","","","72","H","0","img/none_selected.jpg","","72","main_expt"
"","bandit","152","898952","0.0-113.0-0.0","00588330","wem/bandit_either_2","A20NITCOBY4775","either","5","1592","","","","","","","0","0","1","0.05293238473","","0.4","0.8","0.6","0.2","","","","","0.1992173182","0.05293238473","0.1805041857","0.2407197948","","","","","","","","74","J","1","","","73","main_expt"
"","bandit","153","902155","0.0-114.0-0.0","00588330","wem/bandit_either_2","A20NITCOBY4775","either","5","898","","","","","","","0","1","0","","0.1739557812","0.4","0.8","0.6","0.2","0.2347098304","0.0318456884","0.1739557812","0.2317468449","","","","","","","","","","","","75","K","2","","","74","main_expt"
"","bandit","154","904607","0.0-115.0-0.0","00588330","wem/bandit_either_2","A20NITCOBY4775","either","5","938","","","","","","","0","0","1","0.2434916027","","0.4","0.8","0.6","0.2","","","","","0.2641442137","0.03873230677","0.2434916027","0.2545997551","","","","","","","","75","K","2","","","75","main_expt"
"","bandit","155","907834","0.0-116.0-0.0","00588330","wem/bandit_either_2","A20NITCOBY4775","either","5","993","","","","","","","0","0","1","","0.2438468568","0.4","0.8","0.6","0.2","0.3192644053","0.03304947682","0.2438468568","0.2890845388","","","","","","","","","","","","75","K","2","","","76","main_expt"
"","bandit","156","909931","0.0-117.0-0.0","00588330","wem/bandit_either_2","A20NITCOBY4775","either","5","584","","","","","","","0","0","1","","0.2425324642","0.4","0.8","0.6","0.2","0.3351132613","0.02607887458","0.2425324642","0.2386362654","","","","","","","","","","","","75","K","2","","","77","main_expt"
"","bandit","157","912509","0.0-118.0-0.0","00588330","wem/bandit_either_2","A20NITCOBY4775","either","5","623","","","","","","","1","0","0","0.205588479","","0.4","0.8","0.6","0.2","","","","","0.3086784207","0.02492981692","0.205588479","0.2673679704","","","","","","","","75","K","2","","","78","main_expt"
"","bandit","158","915055","0.0-119.0-0.0","00588330","wem/bandit_either_2","A20NITCOBY4775","either","5","1031","","","","","","","0","1","0","","0.213062191","0.4","0.8","0.6","0.2","0.3076482073","0.01824110002","0.213062191","0.2813811921","","","","","","","","","","","","75","K","2","","","79","main_expt"
"","bandit","159","918348","0.0-120.0-0.0","00588330","wem/bandit_either_2","A20NITCOBY4775","either","5","911","","","","","","","0","0","1","","0.1852926048","0.4","0.8","0.6","0.2","0.3605025214","0.0202176162","0.1852926048","0.2419447949","","","","","","","","","","","","75","K","2","","","80","main_expt"
"","bandit","160","920551","0.0-121.0-0.0","00588330","wem/bandit_either_2","A20NITCOBY4775","either","5","687","","","","","","","0","0","1","","0.2332942271","0.4","0.8","0.6","0.2","0.3286166321","0.0252752587","0.2332942271","0.323481111","","","","","","","","","","","","75","K","2","","","81","main_expt"
"","bandit","161","923386","0.0-122.0-0.0","00588330","wem/bandit_either_2","A20NITCOBY4775","either","5","476","","","","","","","0","0","1","0.2087797338","","0.4","0.8","0.6","0.2","","","","","0.3459677762","0.05668457717","0.2087797338","0.3097244961","","","","","","","","75","K","2","","","82","main_expt"
"","bandit","162","927528","0.0-123.0-0.0","00588330","wem/bandit_either_2","A20NITCOBY4775","either","5","2385","","","","","","","0","0","1","","0.2049979043","0.4","0.8","0.6","0.2","0.3092751195","0.07760530004","0.2049979043","0.2787498647","","","","","","","","","","","","75","K","2","","","83","main_expt"
"","bandit","163","933811","0.0-124.0-0.0","00588330","wem/bandit_either_2","A20NITCOBY4775","either","5","4760","","","","","","","0","0","1","0.03696005566","","0.4","0.8","0.6","0.2","","","","","0.3044630387","0.03696005566","0.2151780091","0.2589524449","","","","","","","","74","J","1","","","84","main_expt"
"","bandit","164","935853","0.0-125.0-0.0","00588330","wem/bandit_either_2","A20NITCOBY4775","either","5","520","","","","","","","0","0","1","0.04177257934","","0.4","0.8","0.6","0.2","","","","","0.2812480587","0.04177257934","0.1497615914","0.2769318636","","","","","","","","74","J","1","","","85","main_expt"
"","bandit","165","938532","0.0-126.0-0.0","00588330","wem/bandit_either_2","A20NITCOBY4775","either","5","1159","","","","","","","0","0","1","","0.2506532223","0.4","0.8","0.6","0.2","0.2506532223","0.0385770192","0.1223687677","0.2849222391","","","","","","","","","","","","72","H","0","img/none_selected.jpg","","86","main_expt"
"","bandit","166","941115","0.0-127.0-0.0","00588330","wem/bandit_either_2","A20NITCOBY4775","either","5","961","","","","","","","0","0","1","0.2269900387","","0.4","0.8","0.6","0.2","","","","","0.2269900387","0.03720252147","0.1472857413","0.3131087309","","","","","","","","72","H","0","img/none_selected.jpg","","87","main_expt"
"","bandit","167","943818","0.0-128.0-0.0","00588330","wem/bandit_either_2","A20NITCOBY4775","either","5","1177","","","","","","","1","0","0","0.3038587512","","0.4","0.8","0.6","0.2","","","","","0.1504729919","0.06746059371","0.1252586248","0.3038587512","","","","","","","","76","L","3","","","88","main_expt"
"","bandit","168","946184","0.0-129.0-0.0","00588330","wem/bandit_either_2","A20NITCOBY4775","either","5","843","","","","","","","0","1","0","","0.3308022157","0.4","0.8","0.6","0.2","0.1382070302","0.04069757945","0.1194927994","0.3308022157","","","","","","","","","","","","76","L","3","","","89","main_expt"
"","bandit","169","948858","0.0-130.0-0.0","00588330","wem/bandit_either_2","A20NITCOBY4775","either","5","1156","","","","","","","0","0","1","","0.3574922351","0.4","0.8","0.6","0.2","0.1364765349","0.07325379503","0.1589750007","0.3574922351","","","","","","","","","","","","76","L","3","","","90","main_expt"
"","bandit","170","952182","0.0-131.0-0.0","00588330","wem/bandit_either_2","A20NITCOBY4775","either","5","1146","","","","","","","0","0","1","","0.3729517688","0.4","0.8","0.6","0.2","0.09318196272","0.06877471811","0.1859960426","0.3729517688","","","","","","","","","","","","76","L","3","","","91","main_expt"
"","bandit","171","955156","0.0-132.0-0.0","00588330","wem/bandit_either_2","A20NITCOBY4775","either","5","1454","","","","","","","0","0","1","0.192419488","","0.4","0.8","0.6","0.2","","","","","0.06946097624","0.04115987362","0.192419488","0.398352994","","","","","","","","75","K","2","","","92","main_expt"
"","bandit","172","958318","0.0-133.0-0.0","00588330","wem/bandit_either_2","A20NITCOBY4775","either","5","1627","","","","","","","0","0","1","0.07078892783","","0.4","0.8","0.6","0.2","","","","","0.08102832817","0.07078892783","0.1716033463","0.4135860398","","","","","","","","74","J","1","","","93","main_expt"
"","bandit","173","960547","0.0-134.0-0.0","00588330","wem/bandit_either_2","A20NITCOBY4775","either","5","706","","","","","","","0","1","0","","0.1271360848","0.4","0.8","0.6","0.2","0.1271360848","0.05572868433","0.1935897604","0.3786880174","","","","","","","","","","","","72","H","0","img/none_selected.jpg","","94","main_expt"
"","bandit","174","963032","0.0-135.0-0.0","00588330","wem/bandit_either_2","A20NITCOBY4775","either","5","965","","","","","","","0","0","1","","0.1097592989","0.4","0.8","0.6","0.2","0.1097592989","0.05056929995","0.2193228015","0.3823424718","","","","","","","","","","","","72","H","0","img/none_selected.jpg","","95","main_expt"
"","bandit","175","965231","0.0-136.0-0.0","00588330","wem/bandit_either_2","A20NITCOBY4775","either","5","681","","","","","","","0","0","1","","0.1085490834","0.4","0.8","0.6","0.2","0.1085490834","0.04159874267","0.3262643469","0.3642725552","","","","","","","","","","","","72","H","0","img/none_selected.jpg","","96","main_expt"
"","bandit","176","967745","0.0-137.0-0.0","00588330","wem/bandit_either_2","A20NITCOBY4775","either","5","997","","","","","","","0","0","1","","0.1049812554","0.4","0.8","0.6","0.2","0.1049812554","0.03654451862","0.3207405496","0.3197717944","","","","","","","","","","","","72","H","0","img/none_selected.jpg","","97","main_expt"
"","bandit","177","969690","0.0-138.0-0.0","00588330","wem/bandit_either_2","A20NITCOBY4775","either","5","429","","","","","","","0","0","1","","0.08177978443","0.4","0.8","0.6","0.2","0.08177978443","0.04190300095","0.3712856991","0.2514424369","","","","","","","","","","","","72","H","0","img/none_selected.jpg","","98","main_expt"
"","bandit","178","972469","0.0-139.0-0.0","00588330","wem/bandit_either_2","A20NITCOBY4775","either","5","1260","","","","","","","0","0","1","","0.08742990617","0.4","0.8","0.6","0.2","0.07574087804","0.08742990617","0.3740145378","0.2926772137","","","","","","","","","","","","74","J","1","","","99","main_expt"
"","bandit","179","974332","0.0-140.0-0.0","00588330","wem/bandit_either_2","A20NITCOBY4775","either","5","349","","","","","","","1","0","0","0.3776295542","","0.4","0.8","0.6","0.2","","","","","0.07829319678","0.08966523481","0.3776295542","0.234485335","","","","","","","","75","K","2","","","100","main_expt"
"","bandit","180","977223","0.0-141.0-0.0","00588330","wem/bandit_either_2","A20NITCOBY4775","either","5","1375","","","","","","","0","0","1","","0.3592666398","0.4","0.8","0.6","0.2","0.07919243683","0.07849065771","0.3592666398","0.250352175","","","","","","","","","","","","75","K","2","","","101","main_expt"
"","bandit","181","979373","0.0-142.0-0.0","00588330","wem/bandit_either_2","A20NITCOBY4775","either","5","635","","","","","","","0","1","0","","0.3412191773","0.4","0.8","0.6","0.2","0.1052753188","0.1054267613","0.3412191773","0.2139972863","","","","","","","","","","","","75","K","2","","","102","main_expt"
"","bandit","182","981934","0.0-143.0-0.0","00588330","wem/bandit_either_2","A20NITCOBY4775","either","5","1044","","","","","","","0","0","1","0.3133100433","","0.4","0.8","0.6","0.2","","","","","0.1248526142","0.1120981937","0.3133100433","0.20092706","","","","","","","","75","K","2","","","103","main_expt"
"","bandit","183","983897","0.0-144.0-0.0","00588330","wem/bandit_either_2","A20NITCOBY4775","either","5","446","","","","","","","1","0","0","0.3219148419","","0.4","0.8","0.6","0.2","","","","","0.142969925","0.1034740879","0.3219148419","0.2305366804","","","","","","","","75","K","2","","","104","main_expt"
"","bandit","184","986095","0.0-145.0-0.0","00588330","wem/bandit_either_2","A20NITCOBY4775","either","5","580","","","","","","","0","1","0","","0.3300892518","0.4","0.8","0.6","0.2","0.13947254","0.07597240327","0.3300892518","0.2102135581","","","","","","","","","","","","75","K","2","","","105","main_expt"
"","bandit","185","988120","0.0-146.0-0.0","00588330","wem/bandit_either_2","A20NITCOBY4775","either","5","508","","","","","","","0","0","1","0.3401839058","","0.4","0.8","0.6","0.2","","","","","0.1329526997","0.1124257427","0.3401839058","0.2219457329","","","","","","","","75","K","2","","","106","main_expt"
"","bandit","186","991060","0.0-147.0-0.0","00588330","wem/bandit_either_2","A20NITCOBY4775","either","5","521","","","","","","","0","0","1","","0.3784706915","0.4","0.8","0.6","0.2","0.1727290233","0.1133168519","0.3784706915","0.3048423019","","","","","","","","","","","","75","K","2","","","107","main_expt"
"","bandit","187","993103","0.0-148.0-0.0","00588330","wem/bandit_either_2","A20NITCOBY4775","either","5","527","","","","","","","0","1","0","","0.3945753887","0.4","0.8","0.6","0.2","0.1864487031","0.1752395656","0.3945753887","0.258150515","","","","","","","","","","","","75","K","2","","","108","main_expt"
"","bandit","188","995846","0.0-149.0-0.0","00588330","wem/bandit_either_2","A20NITCOBY4775","either","5","604","","","","","","","1","0","0","0.356827327","","0.4","0.8","0.6","0.2","","","","","0.2463216238","0.1862973424","0.356827327","0.1859129148","","","","","","","","75","K","2","","","109","main_expt"
"","bandit","189","997891","0.0-150.0-0.0","00588330","wem/bandit_either_2","A20NITCOBY4775","either","5","513","","","","","","","0","0","1","","0.2344179837","0.4","0.8","0.6","0.2","0.2431522628","0.2015845776","0.2344179837","0.1371624404","","","","","","","","","","","","75","K","2","","","110","main_expt"
"","bandit","190","1000614","0.0-151.0-0.0","00588330","wem/bandit_either_2","A20NITCOBY4775","either","5","599","","","","","","","0","0","1","","0.2644823096","0.4","0.8","0.6","0.2","0.1757476643","0.2003651753","0.2644823096","0.1258232978","","","","","","","","","","","","75","K","2","","","111","main_expt"
"","bandit","191","1002735","0.0-152.0-0.0","00588330","wem/bandit_either_2","A20NITCOBY4775","either","5","551","","","","","","","0","0","1","0.28311182","","0.4","0.8","0.6","0.2","","","","","0.2451518953","0.21392293","0.28311182","0.1529967373","","","","","","","","75","K","2","","","112","main_expt"
"","bandit","192","1005376","0.0-153.0-0.0","00588330","wem/bandit_either_2","A20NITCOBY4775","either","5","1063","","","","","","","0","0","1","0.1606798039","","0.4","0.8","0.6","0.2","","","","","0.2407836715","0.1606798039","0.2413269532","0.148248117","","","","","","","","74","J","1","","","113","main_expt"
"","bandit","193","1007850","0.0-154.0-0.0","00588330","wem/bandit_either_2","A20NITCOBY4775","either","5","955","","","","","","","0","1","0","","0.2095980235","0.4","0.8","0.6","0.2","0.3099317417","0.2095980235","0.3100969134","0.1562208239","","","","","","","","","","","","74","J","1","","","114","main_expt"
"","bandit","194","1010501","0.0-155.0-0.0","00588330","wem/bandit_either_2","A20NITCOBY4775","either","5","1110","","","","","","","0","0","1","","0.2550279667","0.4","0.8","0.6","0.2","0.3180754701","0.2550279667","0.329842252","0.2138032898","","","","","","","","","","","","74","J","1","","","115","main_expt"
"","bandit","195","1013626","0.0-156.0-0.0","00588330","wem/bandit_either_2","A20NITCOBY4775","either","5","1604","","","","","","","0","0","1","0.2471764387","","0.4","0.8","0.6","0.2","","","","","0.2919742107","0.2471764387","0.3223706096","0.2331260325","","","","","","","","74","J","1","","","116","main_expt"
"","bandit","196","1016428","0.0-157.0-0.0","00588330","wem/bandit_either_2","A20NITCOBY4775","either","5","569","","","","","","","1","0","0","0.2730878341","","0.4","0.8","0.6","0.2","","","","","0.2799774295","0.2730878341","0.3098408215","0.1826309729","","","","","","","","74","J","1","","","117","main_expt"
"","bandit","197","1018448","0.0-158.0-0.0","00588330","wem/bandit_either_2","A20NITCOBY4775","either","5","504","","","","","","","0","0","1","0.2071462199","","0.4","0.8","0.6","0.2","","","","","0.2646714695","0.2071462199","0.2974554567","0.1511269107","","","","","","","","74","J","1","","","118","main_expt"
"","bandit","198","1021084","0.0-159.0-0.0","00588330","wem/bandit_either_2","A20NITCOBY4775","either","5","682","","","","","","","1","0","0","0.2275232499","","0.4","0.8","0.6","0.2","","","","","0.3179839519","0.2275232499","0.3598468986","0.1559979654","","","","","","","","74","J","1","","","119","main_expt"
"","bandit","199","1023005","0.0-160.0-0.0","00588330","wem/bandit_either_2","A20NITCOBY4775","either","5","403","","","","","","","0","0","1","0.2767559596","","0.4","0.8","0.6","0.2","","","","","0.3302262658","0.2767559596","0.2984373086","0.1463004055","","","","","","","","74","J","1","","","120","main_expt"
"","bandit","200","1025586","0.0-161.0-0.0","00588330","wem/bandit_either_2","A20NITCOBY4775","either","5","1065","","","","","","","0","0","1","0.3448590315","","0.4","0.8","0.6","0.2","","","","","0.3500549905","0.3448590315","0.2973090059","0.1418195479","","","","","","","","74","J","1","","","121","main_expt"
"","bandit","201","1028524","0.0-162.0-0.0","00588330","wem/bandit_either_2","A20NITCOBY4775","either","5","1420","","","","","","","0","0","1","","0.2686616284","0.4","0.8","0.6","0.2","0.2686616284","0.3593301016","0.3382791822","0.1270782113","","","","","","","","","","","","72","H","0","img/none_selected.jpg","","122","main_expt"
"","bandit","202","1031189","0.0-163.0-0.0","00588330","wem/bandit_either_2","A20NITCOBY4775","either","5","618","","","","","","","0","1","0","","0.2277230314","0.4","0.8","0.6","0.2","0.2277230314","0.3680529171","0.3154347028","0.1207154071","","","","","","","","","","","","72","H","0","img/none_selected.jpg","","123","main_expt"
"","bandit","203","1033280","0.0-164.0-0.0","00588330","wem/bandit_either_2","A20NITCOBY4775","either","5","575","","","","","","","0","0","1","0.3287090939","","0.4","0.8","0.6","0.2","","","","","0.3287090939","0.3476523483","0.2966737815","0.1229329119","","","","","","","","72","H","0","img/none_selected.jpg","","124","main_expt"
"","bandit","204","1035978","0.0-165.0-0.0","00588330","wem/bandit_either_2","A20NITCOBY4775","either","5","824","","","","","","","0","0","1","","0.3687339586","0.4","0.8","0.6","0.2","0.3687339586","0.3564603465","0.3094831126","0.09241122996","","","","","","","","","","","","72","H","0","img/none_selected.jpg","","125","main_expt"
"","bandit","205","1038079","0.0-166.0-0.0","00588330","wem/bandit_either_2","A20NITCOBY4775","either","5","581","","","","","","","0","0","1","0.3550684458","","0.4","0.8","0.6","0.2","","","","","0.3836195774","0.3550684458","0.2488993205","0.08418962236","","","","","","","","74","J","1","","","126","main_expt"
"","bandit","206","1040914","0.0-167.0-0.0","00588330","wem/bandit_either_2","A20NITCOBY4775","either","5","667","","","","","","","1","0","0","0.3617365958","","0.4","0.8","0.6","0.2","","","","","0.3617365958","0.3235559827","0.1953487027","0.154715772","","","","","","","","72","H","0","img/none_selected.jpg","","127","main_expt"
"","bandit","207","1043273","0.0-168.0-0.0","00588330","wem/bandit_either_2","A20NITCOBY4775","either","5","844","","","","","","","0","0","1","","0.3235283493","0.4","0.8","0.6","0.2","0.3235283493","0.312087491","0.2171889907","0.1556709078","","","","","","","","","","","","72","H","0","img/none_selected.jpg","","128","main_expt"
"","bandit","208","1046592","0.0-169.0-0.0","00588330","wem/bandit_either_2","A20NITCOBY4775","either","5","1035","","","","","","","0","0","1","0.3453830546","","0.4","0.8","0.6","0.2","","","","","0.3453830546","0.2843272188","0.2467699801","0.1214200615","","","","","","","","72","H","0","img/none_selected.jpg","","129","main_expt"
"","bandit","209","1048979","0.0-170.0-0.0","00588330","wem/bandit_either_2","A20NITCOBY4775","either","5","864","","","","","","","0","0","1","0.3242747857","","0.4","0.8","0.6","0.2","","","","","0.3242747857","0.2128416856","0.2814443482","0.1377283829","","","","","","","","72","H","0","img/none_selected.jpg","","130","main_expt"
"","bandit","210","1051718","0.0-171.0-0.0","00588330","wem/bandit_either_2","A20NITCOBY4775","either","5","544","","","","","","","0","0","1","","0.3417201858","0.4","0.8","0.6","0.2","0.3417201858","0.2403879813","0.2834176508","0.1397421628","","","","","","","","","","","","72","H","0","img/none_selected.jpg","","131","main_expt"
"","bandit","211","1053721","0.0-172.0-0.0","00588330","wem/bandit_either_2","A20NITCOBY4775","either","5","381","","","","","","","0","0","1","","0.3498614837","0.4","0.8","0.6","0.2","0.3498614837","0.2811421594","0.2429908031","0.1061875113","","","","","","","","","","","","72","H","0","img/none_selected.jpg","","132","main_expt"
"","bandit","212","1056318","0.0-173.0-0.0","00588330","wem/bandit_either_2","A20NITCOBY4775","either","5","346","","","","","","","0","0","1","0.3002858371","","0.4","0.8","0.6","0.2","","","","","0.3134828643","0.3002858371","0.3053559495","0.07774811701","","","","","","","","74","J","1","","","133","main_expt"
"","bandit","213","1058334","0.0-174.0-0.0","00588330","wem/bandit_either_2","A20NITCOBY4775","either","5","494","","","","","","","0","0","1","0.2693478067","","0.4","0.8","0.6","0.2","","","","","0.3554593188","0.277406375","0.2693478067","0.08211281178","","","","","","","","75","K","2","","","134","main_expt"
"","bandit","214","1061565","0.0-175.0-0.0","00588330","wem/bandit_either_2","A20NITCOBY4775","either","5","1713","","","","","","","0","0","1","0.1123817552","","0.4","0.8","0.6","0.2","","","","","0.3150900126","0.2897147582","0.3369166079","0.1123817552","","","","","","","","76","L","3","","","135","main_expt"
"","bandit","215","1063698","0.0-176.0-0.0","00588330","wem/bandit_either_2","A20NITCOBY4775","either","5","615","","","","","","","0","0","1","","0.1478339482","0.4","0.8","0.6","0.2","0.3199395785","0.3590576628","0.268603144","0.1478339482","","","","","","","","","","","","76","L","3","","","136","main_expt"
"","bandit","216","1066596","0.0-177.0-0.0","00588330","wem/bandit_either_2","A20NITCOBY4775","either","5","857","","","","","","","0","0","1","","0.1374936615","0.4","0.8","0.6","0.2","0.33362357","0.3822427384","0.2373427956","0.1374936615","","","","","","","","","","","","76","L","3","","","137","main_expt"
"","bandit","217","1068607","0.0-178.0-0.0","00588330","wem/bandit_either_2","A20NITCOBY4775","either","5","494","","","","","","","0","0","1","","0.159761955","0.4","0.8","0.6","0.2","0.3611324022","0.3410071165","0.2206869265","0.159761955","","","","","","","","","","","","76","L","3","","","138","main_expt"
"","bandit","218","1071567","0.0-179.0-0.0","00588330","wem/bandit_either_2","A20NITCOBY4775","either","5","587","","","","","","","1","0","0","0.2177966349","","0.4","0.8","0.6","0.2","","","","","0.3504145086","0.3738014659","0.2177966349","0.1363721132","","","","","","","","75","K","2","","","139","main_expt"
"","bandit","219","1073586","0.0-180.0-0.0","00588330","wem/bandit_either_2","A20NITCOBY4775","either","5","504","","","","","","","0","0","1","0.2387685432","","0.4","0.8","0.6","0.2","","","","","0.309774603","0.422575493","0.2387685432","0.1031445192","","","","","","","","75","K","2","","","140","main_expt"
"","bandit","220","1076789","0.0-181.0-0.0","00588330","wem/bandit_either_2","A20NITCOBY4775","either","5","1686","","","","","","","0","0","1","0.2575087366","","0.4","0.8","0.6","0.2","","","","","0.3506531288","0.4439129864","0.2575087366","0.09805286369","","","","","","","","75","K","2","","","141","main_expt"
"","bandit","221","1079047","0.0-182.0-0.0","00588330","wem/bandit_either_2","A20NITCOBY4775","either","5","651","","","","","","","0","0","1","","0.4323802182","0.4","0.8","0.6","0.2","0.2965027242","0.4323802182","0.2392038972","0.1149002948","","","","","","","","","","","","74","J","1","","","142","main_expt"
"","bandit","222","1081839","0.0-183.0-0.0","00588330","wem/bandit_either_2","A20NITCOBY4775","either","5","1248","","","","","","","0","0","1","","0.1209542099","0.4","0.8","0.6","0.2","0.2087517366","0.4358412593","0.2216470548","0.1209542099","","","","","","","","","","","","76","L","3","","","143","main_expt"
"","bandit","223","1084147","0.0-184.0-0.0","00588330","wem/bandit_either_2","A20NITCOBY4775","either","5","786","","","","","","","0","0","1","","0.1202521083","0.4","0.8","0.6","0.2","0.2313605626","0.4407373256","0.2224896139","0.1202521083","","","","","","","","","","","","76","L","3","","","144","main_expt"
"","bandit","224","1086582","0.0-185.0-0.0","00588330","wem/bandit_either_2","A20NITCOBY4775","either","5","915","","","","","","","0","0","1","0.1925605464","","0.4","0.8","0.6","0.2","","","","","0.1785565547","0.4661091035","0.1925605464","0.1619743669","","","","","","","","75","K","2","","","145","main_expt"
"","bandit","225","1088503","0.0-186.0-0.0","00588330","wem/bandit_either_2","A20NITCOBY4775","either","5","403","","","","","","","0","0","1","0.2069800611","","0.4","0.8","0.6","0.2","","","","","0.1770660648","0.4637097668","0.2069800611","0.1664631043","","","","","","","","75","K","2","","","146","main_expt"
"","bandit","226","1091320","0.0-187.0-0.0","00588330","wem/bandit_either_2","A20NITCOBY4775","either","5","443","","","","","","","0","0","1","0.4700491642","","0.4","0.8","0.6","0.2","","","","","0.1063371611","0.4700491642","0.2489662189","0.1669241763","","","","","","","","74","J","1","","","147","main_expt"
"","bandit","227","1093414","0.0-188.0-0.0","00588330","wem/bandit_either_2","A20NITCOBY4775","either","5","573","","","","","","","0","0","1","0.1216370817","","0.4","0.8","0.6","0.2","","","","","0.1216370817","0.4648109734","0.1946464158","0.1581456949","","","","","","","","72","H","0","img/none_selected.jpg","","148","main_expt"
"","bandit","228","1096034","0.0-189.0-0.0","00588330","wem/bandit_either_2","A20NITCOBY4775","either","5","602","","","","","","","1","0","0","0.4635511513","","0.4","0.8","0.6","0.2","","","","","0.1024256959","0.4635511513","0.1826562491","0.1698392466","","","","","","","","74","J","1","","","149","main_expt"
"","bandit","229","1098461","0.0-190.0-0.0","00588330","wem/bandit_either_2","A20NITCOBY4775","either","5","909","","","","","","","1","0","0","0.4445017148","","0.4","0.8","0.6","0.2","","","","","0.1371094633","0.4445017148","0.1750473563","0.2140114634","","","","","","","","74","J","1","","","150","main_expt"
"","bandit","230","1100924","0.0-191.0-0.0","00588330","wem/bandit_either_2","A20NITCOBY4775","either","5","945","","","","","","","0","0","1","","0.4434799742","0.4","0.8","0.6","0.2","0.1702433702","0.4434799742","0.1109536645","0.2392960001","","","","","","","","","","","","74","J","1","","","151","main_expt"
"","bandit","231","1103327","0.0-192.0-0.0","00588330","wem/bandit_either_2","A20NITCOBY4775","either","5","807","","","","","","","1","0","0","0.4451665291","","0.4","0.8","0.6","0.2","","","","","0.1860489046","0.4451665291","0.1143086707","0.2095863317","","","","","","","","74","J","1","","","152","main_expt"
"","bandit","232","1105883","0.0-193.0-0.0","00588330","wem/bandit_either_2","A20NITCOBY4775","either","5","1038","","","","","","","0","0","1","0.4401532833","","0.4","0.8","0.6","0.2","","","","","0.2117094388","0.4401532833","0.1236290712","0.2543258611","","","","","","","","74","J","1","","","153","main_expt"
"","bandit","233","1109020","0.0-194.0-0.0","00588330","wem/bandit_either_2","A20NITCOBY4775","either","5","967","","","","","","","1","0","0","0.4516855879","","0.4","0.8","0.6","0.2","","","","","0.2072389033","0.4516855879","0.1600695342","0.2602259906","","","","","","","","74","J","1","","","154","main_expt"
"","bandit","234","1111672","0.0-195.0-0.0","00588330","wem/bandit_either_2","A20NITCOBY4775","either","5","1058","","","","","","","0","0","1","0.4480264808","","0.4","0.8","0.6","0.2","","","","","0.1986333914","0.4480264808","0.1770288166","0.2750581274","","","","","","","","74","J","1","","","155","main_expt"
"","bandit","235","1114396","0.0-196.0-0.0","00588330","wem/bandit_either_2","A20NITCOBY4775","either","5","982","","","","","","","1","0","0","0.4260414265","","0.4","0.8","0.6","0.2","","","","","0.2054640346","0.4260414265","0.1761817894","0.2438045727","","","","","","","","74","J","1","","","156","main_expt"
"","bandit","236","1116822","0.0-197.0-0.0","00588330","wem/bandit_either_2","A20NITCOBY4775","either","5","909","","","","","","","1","0","0","0.4365201507","","0.4","0.8","0.6","0.2","","","","","0.1810715383","0.4365201507","0.1998830888","0.2857025143","","","","","","","","74","J","1","","","157","main_expt"
"","bandit","237","1120125","0.0-198.0-0.0","00588330","wem/bandit_either_2","A20NITCOBY4775","either","5","1014","","","","","","","0","0","1","","0.4076244479","0.4","0.8","0.6","0.2","0.2118906364","0.4076244479","0.2150354531","0.2887719476","","","","","","","","","","","","74","J","1","","","158","main_expt"
"","bandit","238","1122386","0.0-199.0-0.0","00588330","wem/bandit_either_2","A20NITCOBY4775","either","5","740","","","","","","","0","0","1","0.403953851","","0.4","0.8","0.6","0.2","","","","","0.2293976715","0.403953851","0.2221069796","0.2859462397","","","","","","","","74","J","1","","","159","main_expt"
"","bandit","239","1124976","0.0-200.0-0.0","00588330","wem/bandit_either_2","A20NITCOBY4775","either","5","526","","","","","","","1","0","0","0.4282135537","","0.4","0.8","0.6","0.2","","","","","0.2186051381","0.4282135537","0.2627335039","0.207432816","","","","","","","","74","J","1","","","160","main_expt"
"","bandit","240","1127583","0.0-201.0-0.0","00588330","wem/bandit_either_2","A20NITCOBY4775","either","5","1089","","","","","","","0","0","1","","0.4479073124","0.4","0.8","0.6","0.2","0.2175927206","0.4479073124","0.2922457848","0.1611694724","","","","","","","","","","","","74","J","1","","","161","main_expt"
"","bandit","241","1130193","0.0-202.0-0.0","00588330","wem/bandit_either_2","A20NITCOBY4775","either","5","1066","","","","","","","0","0","1","0.4456201243","","0.4","0.8","0.6","0.2","","","","","0.2370404117","0.4456201243","0.3040212123","0.14378348","","","","","","","","74","J","1","","","162","main_expt"
"","bandit","242","1132370","0.0-203.0-0.0","00588330","wem/bandit_either_2","A20NITCOBY4775","either","5","646","","","","","","","1","0","0","0.4384930657","","0.4","0.8","0.6","0.2","","","","","0.2778780432","0.4384930657","0.2933359027","0.1707099899","","","","","","","","74","J","1","","","163","main_expt"
"","bandit","243","1134778","0.0-204.0-0.0","00588330","wem/bandit_either_2","A20NITCOBY4775","either","5","636","","","","","","","0","0","1","0.4231568034","","0.4","0.8","0.6","0.2","","","","","0.2643388611","0.4231568034","0.2388203062","0.1933693166","","","","","","","","74","J","1","","","164","main_expt"
"","bandit","244","1136916","0.0-205.0-0.0","00588330","wem/bandit_either_2","A20NITCOBY4775","either","5","609","","","","","","","0","0","1","0.1967204453","","0.4","0.8","0.6","0.2","","","","","0.1967204453","0.4412535734","0.2646204916","0.2406324952","","","","","","","","72","H","0","img/none_selected.jpg","","165","main_expt"
"","bandit","245","1139661","0.0-206.0-0.0","00588330","wem/bandit_either_2","A20NITCOBY4775","either","5","824","","","","","","","0","0","1","0.438364003","","0.4","0.8","0.6","0.2","","","","","0.1567937345","0.438364003","0.2591758032","0.2650462377","","","","","","","","74","J","1","","","166","main_expt"
"","bandit","246","1142556","0.0-207.0-0.0","00588330","wem/bandit_either_2","A20NITCOBY4775","either","5","1296","","","","","","","0","0","1","0.1955934818","","0.4","0.8","0.6","0.2","","","","","0.1201482918","0.4290991351","0.1955934818","0.245875583","","","","","","","","75","K","2","","","167","main_expt"
"","bandit","247","1145987","0.0-208.0-0.0","00588330","wem/bandit_either_2","A20NITCOBY4775","either","5","1902","","","","","","","0","1","0","","0.257303599","0.4","0.8","0.6","0.2","0.0936051119","0.4510860662","0.2090603634","0.257303599","","","","","","","","","","","","76","L","3","","","168","main_expt"
"","bandit","248","1148266","0.0-209.0-0.0","00588330","wem/bandit_either_2","A20NITCOBY4775","either","5","753","","","","","","","1","0","0","0.2993732043","","0.4","0.8","0.6","0.2","","","","","0.08775096918","0.4491424364","0.2678479696","0.2993732043","","","","","","","","76","L","3","","","169","main_expt"
"","bandit","249","1150624","0.0-210.0-0.0","00588330","wem/bandit_either_2","A20NITCOBY4775","either","5","836","","","","","","","0","0","1","","0.3388977639","0.4","0.8","0.6","0.2","0.06743429675","0.4332244901","0.2532125956","0.3388977639","","","","","","","","","","","","76","L","3","","","170","main_expt"
"","bandit","250","1153936","0.0-211.0-0.0","00588330","wem/bandit_either_2","A20NITCOBY4775","either","5","1791","","","","","","","0","0","1","0.2947926635","","0.4","0.8","0.6","0.2","","","","","0.05979118822","0.4405036994","0.2568627054","0.2947926635","","","","","","","","76","L","3","","","171","main_expt"
"","bandit","251","1157080","0.0-212.0-0.0","00588330","wem/bandit_either_2","A20NITCOBY4775","either","5","1165","","","","","","","0","0","1","0.2451563353","","0.4","0.8","0.6","0.2","","","","","0.03200499914","0.4358521759","0.2451563353","0.2892529657","","","","","","","","75","K","2","","","172","main_expt"
"","bandit","252","1159014","0.0-213.0-0.0","00588330","wem/bandit_either_2","A20NITCOBY4775","either","5","414","","","","","","","0","0","1","0.3003395367","","0.4","0.8","0.6","0.2","","","","","0.04613358223","0.4471617722","0.3003395367","0.2571917514","","","","","","","","75","K","2","","","173","main_expt"
"","bandit","253","1161887","0.0-214.0-0.0","00588330","wem/bandit_either_2","A20NITCOBY4775","either","5","714","","","","","","","0","0","1","","0.244173221","0.4","0.8","0.6","0.2","0.05969677181","0.4560251174","0.2545998681","0.244173221","","","","","","","","","","","","76","L","3","","","174","main_expt"
"","bandit","254","1163915","0.0-215.0-0.0","00588330","wem/bandit_either_2","A20NITCOBY4775","either","5","510","","","","","","","0","0","1","0.2038098688","","0.4","0.8","0.6","0.2","","","","","0.05930066603","0.4379349024","0.3383135611","0.2038098688","","","","","","","","76","L","3","","","175","main_expt"
"","bandit","255","1167000","0.0-216.0-0.0","00588330","wem/bandit_either_2","A20NITCOBY4775","either","5","1345","","","","","","","0","1","0","","0.4328841116","0.4","0.8","0.6","0.2","0.08110879181","0.4328841116","0.3880627729","0.2053823003","","","","","","","","","","","","74","J","1","","","176","main_expt"
"","bandit","256","1169211","0.0-217.0-0.0","00588330","wem/bandit_either_2","A20NITCOBY4775","either","5","683","","","","","","","1","0","0","0.3965365967","","0.4","0.8","0.6","0.2","","","","","0.07611568943","0.3965365967","0.3920994557","0.2193083282","","","","","","","","74","J","1","","","177","main_expt"
"","bandit","257","1171916","0.0-218.0-0.0","00588330","wem/bandit_either_2","A20NITCOBY4775","either","5","864","","","","","","","1","0","0","0.3899234309","","0.4","0.8","0.6","0.2","","","","","0.1220467165","0.3899234309","0.3882277994","0.1904263594","","","","","","","","74","J","1","","","178","main_expt"
"","bandit","258","1174039","0.0-219.0-0.0","00588330","wem/bandit_either_2","A20NITCOBY4775","either","5","596","","","","","","","0","1","0","","0.4238443777","0.4","0.8","0.6","0.2","0.1698853315","0.4238443777","0.3939691408","0.2212788648","","","","","","","","","","","","74","J","1","","","179","main_expt"
"","bandit","259","1176807","0.0-220.0-0.0","00588330","wem/bandit_either_2","A20NITCOBY4775","either","5","443","","","","","","","1","0","0","0.4487400994","","0.4","0.8","0.6","0.2","","","","","0.1374762061","0.4487400994","0.4074656662","0.2640717145","","","","","","","","74","J","1","","","180","main_expt"
"","bandit","260","1178907","0.0-221.0-0.0","00588330","wem/bandit_either_2","A20NITCOBY4775","either","5","539","","","","","","","0","0","1","0.4314573438","","0.4","0.8","0.6","0.2","","","","","0.09961924189","0.4314573438","0.3724421945","0.2426483564","","","","","","","","74","J","1","","","181","main_expt"
"","bandit","261","1180897","0.0-222.0-0.0","00588330","wem/bandit_either_2","A20NITCOBY4775","either","5","462","","","","","","","0","0","1","0.4458059303","","0.4","0.8","0.6","0.2","","","","","0.1391043194","0.4458059303","0.2998177931","0.2001563476","","","","","","","","74","J","1","","","182","main_expt"
"","bandit","262","1183648","0.0-223.0-0.0","00588330","wem/bandit_either_2","A20NITCOBY4775","either","5","425","","","","","","","0","0","1","","0.1336424596","0.4","0.8","0.6","0.2","0.1336424596","0.4485460149","0.3629728763","0.2167094124","","","","","","","","","","","","72","H","0","img/none_selected.jpg","","183","main_expt"
"","bandit","263","1185687","0.0-224.0-0.0","00588330","wem/bandit_either_2","A20NITCOBY4775","either","5","515","","","","","","","0","0","1","0.4078350507","","0.4","0.8","0.6","0.2","","","","","0.115911235","0.4078350507","0.3763603645","0.2402813617","","","","","","","","74","J","1","","","184","main_expt"
"","bandit","264","1188068","0.0-225.0-0.0","00588330","wem/bandit_either_2","A20NITCOBY4775","either","5","497","","","","","","","0","0","1","0.1394203739","","0.4","0.8","0.6","0.2","","","","","0.1394203739","0.3805788675","0.3472982705","0.2745112141","","","","","","","","72","H","0","img/none_selected.jpg","","185","main_expt"
"","bandit","265","1189906","0.0-226.0-0.0","00588330","wem/bandit_either_2","A20NITCOBY4775","either","5","317","","","","","","","0","0","1","","0.2774566956","0.4","0.8","0.6","0.2","0.1557479742","0.4236809331","0.3095995051","0.2774566956","","","","","","","","","","","","76","L","3","","","186","main_expt"
"","bandit","266","1191696","0.0-227.0-0.0","00588330","wem/bandit_either_2","A20NITCOBY4775","either","5","269","","","","","","","0","0","1","","0.2567332284","0.4","0.8","0.6","0.2","0.1823611596","0.4058627081","0.2567332284","0.2876011691","","","","","","","","","","","","75","K","2","","","187","main_expt"
"","bandit","267","1194103","0.0-228.0-0.0","00588330","wem/bandit_either_2","A20NITCOBY4775","either","5","885","","","","","","","1","0","0","0.2555256861","","0.4","0.8","0.6","0.2","","","","","0.1854179297","0.3913346521","0.2555256861","0.2947112378","","","","","","","","75","K","2","","","188","main_expt"
"","bandit","268","1196287","0.0-229.0-0.0","00588330","wem/bandit_either_2","A20NITCOBY4775","either","5","662","","","","","","","1","0","0","0.2009875262","","0.4","0.8","0.6","0.2","","","","","0.1875645599","0.3760164219","0.2009875262","0.2581494","","","","","","","","75","K","2","","","189","main_expt"
"","bandit","269","1198980","0.0-230.0-0.0","00588330","wem/bandit_either_2","A20NITCOBY4775","either","5","1173","","","","","","","0","0","1","0.2055488595","","0.4","0.8","0.6","0.2","","","","","0.2018323604","0.3327352817","0.2055488595","0.1756323468","","","","","","","","75","K","2","","","190","main_expt"
"","bandit","270","1200993","0.0-231.0-0.0","00588330","wem/bandit_either_2","A20NITCOBY4775","either","5","493","","","","","","","0","0","1","","0.1506387864","0.4","0.8","0.6","0.2","0.221094727","0.3015177445","0.1506387864","0.2521570866","","","","","","","","","","","","75","K","2","","","191","main_expt"
"","bandit","271","1203929","0.0-232.0-0.0","00588330","wem/bandit_either_2","A20NITCOBY4775","either","5","1318","","","","","","","0","0","1","","0.2027442266","0.4","0.8","0.6","0.2","0.2320570195","0.2773298268","0.2027442266","0.2964739449","","","","","","","","","","","","75","K","2","","","192","main_expt"
"","bandit","272","1209370","0.0-233.0-0.0","00588330","wem/bandit_either_2","A20NITCOBY4775","either","5","3920","","","","","","","0","0","1","","0.2612966838","0.4","0.8","0.6","0.2","0.2948950962","0.2836613797","0.1969137872","0.2612966838","","","","","","","","","","","","76","L","3","","","193","main_expt"
"","bandit","273","1212089","0.0-234.0-0.0","00588330","wem/bandit_either_2","A20NITCOBY4775","either","5","1041","","","","","","","0","0","1","","0.2602906927","0.4","0.8","0.6","0.2","0.2602906927","0.2799350415","0.2114994946","0.3292914436","","","","","","","","","","","","72","H","0","img/none_selected.jpg","","194","main_expt"
"","bandit","274","1214111","0.0-235.0-0.0","00588330","wem/bandit_either_2","A20NITCOBY4775","either","5","503","","","","","","","0","1","0","","0.4070308407","0.4","0.8","0.6","0.2","0.1771499101","0.2068597772","0.2467939011","0.4070308407","","","","","","","","","","","","76","L","3","","","195","main_expt"
"","bandit","275","1216760","0.0-236.0-0.0","00588330","wem/bandit_either_2","A20NITCOBY4775","either","5","779","","","","","","","0","1","0","","0.3494820729","0.4","0.8","0.6","0.2","0.1746274925","0.2679469531","0.2731811988","0.3494820729","","","","","","","","","","","","76","L","3","","","196","main_expt"
"","bandit","276","1218812","0.0-237.0-0.0","00588330","wem/bandit_either_2","A20NITCOBY4775","either","5","534","","","","","","","0","1","0","","0.3571939809","0.4","0.8","0.6","0.2","0.193224684","0.2448078588","0.2512114903","0.3571939809","","","","","","","","","","","","76","L","3","","","197","main_expt"
"","bandit","277","1220935","0.0-238.0-0.0","00588330","wem/bandit_either_2","A20NITCOBY4775","either","5","599","","","","","","","0","0","1","","0.382430028","0.4","0.8","0.6","0.2","0.1771509929","0.2433987968","0.190651112","0.382430028","","","","","","","","","","","","76","L","3","","","198","main_expt"
"","bandit","278","1223508","0.0-239.0-0.0","00588330","wem/bandit_either_2","A20NITCOBY4775","either","5","1047","","","","","","","0","0","1","","0.3353474301","0.4","0.8","0.6","0.2","0.2466668772","0.2653624242","0.1701189695","0.3353474301","","","","","","","","","","","","76","L","3","","","199","main_expt"
"","bandit","279","1225332","0.0-240.0-0.0","00588330","wem/bandit_either_2","A20NITCOBY4775","either","5","307","","","","","","","0","0","1","0.1656975488","","0.4","0.8","0.6","0.2","","","","","0.2477816141","0.2551376492","0.1656975488","0.3321976498","","","","","","","","75","K","2","","","200","main_expt"
"","bandit","280","1227509","0.0-241.0-0.0","00588330","wem/bandit_either_2","A20NITCOBY4775","either","5","409","","","","","","","0","1","0","","0.3218117355","0.4","0.8","0.6","0.2","0.2744817861","0.2660639347","0.1647298582","0.3218117355","","","","","","","","","","","","76","L","3","","","201","main_expt"
"","bandit","281","1230210","0.0-242.0-0.0","00588330","wem/bandit_either_2","A20NITCOBY4775","either","5","1177","","","","","","","0","0","1","","0.2949214693","0.4","0.8","0.6","0.2","0.3043062986","0.2220900594","0.1242041815","0.2949214693","","","","","","","","","","","","76","L","3","","","202","main_expt"
"","bandit","282","1232435","0.0-243.0-0.0","00588330","wem/bandit_either_2","A20NITCOBY4775","either","5","609","","","","","","","0","0","1","","0.300077299","0.4","0.8","0.6","0.2","0.272185569","0.1543353204","0.1684487429","0.300077299","","","","","","","","","","","","76","L","3","","","203","main_expt"
"","bandit","283","1234551","0.0-244.0-0.0","00588330","wem/bandit_either_2","A20NITCOBY4775","either","5","495","","","","","","","0","0","1","","0.2866085977","0.4","0.8","0.6","0.2","0.2610767704","0.1605482003","0.1666409686","0.2866085977","","","","","","","","","","","","76","L","3","","","204","main_expt"
"","bandit","284","1237295","0.0-245.0-0.0","00588330","wem/bandit_either_2","A20NITCOBY4775","either","5","443","","","","","","","0","0","1","0.2695546272","","0.4","0.8","0.6","0.2","","","","","0.2832615928","0.1406914754","0.2197286508","0.2695546272","","","","","","","","76","L","3","","","205","main_expt"
"","bandit","285","1239066","0.0-246.0-0.0","00588330","wem/bandit_either_2","A20NITCOBY4775","either","5","228","","","","","","","0","0","1","0.1138947463","","0.4","0.8","0.6","0.2","","","","","0.300913322","0.1138947463","0.2754509052","0.2622178416","","","","","","","","74","J","1","","","206","main_expt"
"","bandit","286","1240981","0.0-247.0-0.0","00588330","wem/bandit_either_2","A20NITCOBY4775","either","5","397","","","","","","","0","0","1","0.1096702189","","0.4","0.8","0.6","0.2","","","","","0.3260258847","0.1096702189","0.2664869377","0.2498186578","","","","","","","","74","J","1","","","207","main_expt"
"","bandit","287","1243615","0.0-248.0-0.0","00588330","wem/bandit_either_2","A20NITCOBY4775","either","5","1114","","","","","","","0","0","1","0.09922356593","","0.4","0.8","0.6","0.2","","","","","0.3173829003","0.09922356593","0.2686565688","0.2335358635","","","","","","","","74","J","1","","","208","main_expt"
"","bandit","288","1247949","0.0-249.0-0.0","00588330","wem/bandit_either_2","A20NITCOBY4775","either","5","2102","","","","","","","0","0","1","0.2380255957","","0.4","0.8","0.6","0.2","","","","","0.3153846937","0.101567507","0.2380255957","0.2638942681","","","","","","","","75","K","2","","","209","main_expt"
"","bandit","289","1249699","0.0-250.0-0.0","00588330","wem/bandit_either_2","A20NITCOBY4775","either","5","205","","","","","","","0","0","1","0.2507768727","","0.4","0.8","0.6","0.2","","","","","0.3010876552","0.08675379402","0.2507768727","0.2526926237","","","","","","","","75","K","2","","","210","main_expt"
"","bandit","290","1251812","0.0-251.0-0.0","00588330","wem/bandit_either_2","A20NITCOBY4775","either","5","178","","","","","","","0","0","1","0.2685142319","","0.4","0.8","0.6","0.2","","","","","0.2864900033","0.07512021269","0.2685142319","0.2740367769","","","","","","","","75","K","2","","","211","main_expt"
"","bandit","291","1256610","0.0-252.0-0.0","00588330","wem/bandit_either_2","A20NITCOBY4775","either","5","3130","","","","","","","0","0","1","","0.2440836191","0.4","0.8","0.6","0.2","0.3163372434","0.08144254236","0.260511483","0.2440836191","","","","","","","","","","","","76","L","3","","","212","main_expt"
"","bandit","292","1261367","0.0-253.0-0.0","00588330","wem/bandit_either_2","A20NITCOBY4775","either","5","2937","","","","","","","0","0","1","","0.2701305136","0.4","0.8","0.6","0.2","0.2701305136","0.06585574052","0.2579605047","0.2341903104","","","","","","","","","","","","72","H","0","img/none_selected.jpg","","213","main_expt"
"","bandit","293","1263712","0.0-254.0-0.0","00588330","wem/bandit_either_2","A20NITCOBY4775","either","5","485","","","","","","","0","0","1","","0.302599165","0.4","0.8","0.6","0.2","0.302599165","0.08686614453","0.2470456849","0.2097526345","","","","","","","","","","","","72","H","0","img/none_selected.jpg","","214","main_expt"
"","bandit","294","1265274","0.0-255.0-0.0","00588330","wem/bandit_either_2","A20NITCOBY4775","either","5","39","","","","","","","0","1","0","","0.2968005471","0.4","0.8","0.6","0.2","0.2968005471","0.1068548489","0.3285383036","0.1796882487","","","","","","","","","","","","72","H","0","img/none_selected.jpg","","215","main_expt"
"","bandit","295","1268536","0.0-256.0-0.0","00588330","wem/bandit_either_2","A20NITCOBY4775","either","5","1741","","","","","","","0","0","1","0.2835536598","","0.4","0.8","0.6","0.2","","","","","0.2835536598","0.1211736082","0.3780044773","0.2237900511","","","","","","","","72","H","0","img/none_selected.jpg","","216","main_expt"
"","bandit","296","1271231","0.0-257.0-0.0","00588330","wem/bandit_either_2","A20NITCOBY4775","either","5","556","","","","","","","1","0","0","0.2520762718","","0.4","0.8","0.6","0.2","","","","","0.2520762718","0.09343701815","0.3939228946","0.2265358539","","","","","","","","72","H","0","img/none_selected.jpg","","217","main_expt"
"","bandit","297","1273246","0.0-258.0-0.0","00588330","wem/bandit_either_2","A20NITCOBY4775","either","5","485","","","","","","","0","1","0","","0.2562699476","0.4","0.8","0.6","0.2","0.2562699476","0.1001055386","0.3198270803","0.2364013437","","","","","","","","","","","","72","H","0","img/none_selected.jpg","","218","main_expt"
"","bandit","298","1276078","0.0-259.0-0.0","00588330","wem/bandit_either_2","A20NITCOBY4775","either","5","571","","","","","","","0","0","1","","0.3002431464","0.4","0.8","0.6","0.2","0.3002431464","0.09524874014","0.3502502288","0.2810560361","","","","","","","","","","","","72","H","0","img/none_selected.jpg","","219","main_expt"
"","bandit","299","1278036","0.0-260.0-0.0","00588330","wem/bandit_either_2","A20NITCOBY4775","either","5","434","","","","","","","0","0","1","","0.3365413303","0.4","0.8","0.6","0.2","0.3365413303","0.1304899995","0.3402456168","0.3027429446","","","","","","","","","","","","72","H","0","img/none_selected.jpg","","220","main_expt"
"","bandit","300","1280818","0.0-261.0-0.0","00588330","wem/bandit_either_2","A20NITCOBY4775","either","5","573","","","","","","","0","1","0","","0.2946103072","0.4","0.8","0.6","0.2","0.2946103072","0.1272814923","0.3770059732","0.3132134988","","","","","","","","","","","","72","H","0","img/none_selected.jpg","","221","main_expt"
"","bandit","301","1283217","0.0-262.0-0.0","00588330","wem/bandit_either_2","A20NITCOBY4775","either","5","875","","","","","","","0","1","0","","0.3267284332","0.4","0.8","0.6","0.2","0.3267284332","0.1654407056","0.3864421123","0.2424821827","","","","","","","","","","","","72","H","0","img/none_selected.jpg","","222","main_expt"
"","bandit","302","1285633","0.0-263.0-0.0","00588330","wem/bandit_either_2","A20NITCOBY4775","either","5","852","","","","","","","0","0","1","0.3175152631","","0.4","0.8","0.6","0.2","","","","","0.3175152631","0.1788325852","0.4205211408","0.2595367495","","","","","","","","72","H","0","img/none_selected.jpg","","223","main_expt"
"","bandit","303","1287796","0.0-264.0-0.0","00588330","wem/bandit_either_2","A20NITCOBY4775","either","5","638","","","","","","","0","0","1","0.3192400935","","0.4","0.8","0.6","0.2","","","","","0.3192400935","0.1736623033","0.4131889957","0.328819141","","","","","","","","72","H","0","img/none_selected.jpg","","224","main_expt"
"","bandit","304","1290996","0.0-265.0-0.0","00588330","wem/bandit_either_2","A20NITCOBY4775","either","5","675","","","","","","","0","1","0","","0.3096750449","0.4","0.8","0.6","0.2","0.3096750449","0.1721911447","0.4001513574","0.356121412","","","","","","","","","","","","72","H","0","img/none_selected.jpg","","225","main_expt"
"","bandit","305","1293378","0.0-266.0-0.0","00588330","wem/bandit_either_2","A20NITCOBY4775","either","5","859","","","","","","","0","1","0","","0.3142833063","0.4","0.8","0.6","0.2","0.3142833063","0.2133818582","0.3963688582","0.3394019192","","","","","","","","","","","","72","H","0","img/none_selected.jpg","","226","main_expt"
"","bandit","306","1295824","0.0-267.0-0.0","00588330","wem/bandit_either_2","A20NITCOBY4775","either","5","823","","","","","","","0","0","1","","0.3096885674","0.4","0.8","0.6","0.2","0.3096885674","0.2620007467","0.3979714495","0.2860553004","","","","","","","","","","","","72","H","0","img/none_selected.jpg","","227","main_expt"
"","bandit","307","1298324","0.0-268.0-0.0","00588330","wem/bandit_either_2","A20NITCOBY4775","either","5","977","","","","","","","0","1","0","","0.3048295172","0.4","0.8","0.6","0.2","0.3048295172","0.2961930455","0.3811043637","0.2967856672","","","","","","","","","","","","72","H","0","img/none_selected.jpg","","228","main_expt"
"","bandit","308","1301489","0.0-269.0-0.0","00588330","wem/bandit_either_2","A20NITCOBY4775","either","5","814","","","","","","","1","0","0","0.2553920021","","0.4","0.8","0.6","0.2","","","","","0.2553920021","0.3081123415","0.3488149186","0.2857745529","","","","","","","","72","H","0","img/none_selected.jpg","","229","main_expt"
"","bandit","309","1303641","0.0-270.0-0.0","00588330","wem/bandit_either_2","A20NITCOBY4775","either","5","626","","","","","","","0","0","1","0.2783794412","","0.4","0.8","0.6","0.2","","","","","0.2783794412","0.3027177586","0.2883621188","0.2589404948","","","","","","","","72","H","0","img/none_selected.jpg","","230","main_expt"
"","bandit","310","1306730","0.0-271.0-0.0","00588330","wem/bandit_either_2","A20NITCOBY4775","either","5","1566","","","","","","","1","0","0","0.2735536708","","0.4","0.8","0.6","0.2","","","","","0.2735536708","0.2495346478","0.2444465504","0.2628441024","","","","","","","","72","H","0","img/none_selected.jpg","","231","main_expt"
"","bandit","311","1308696","0.0-272.0-0.0","00588330","wem/bandit_either_2","A20NITCOBY4775","either","5","442","","","","","","","0","1","0","","0.2262440502","0.4","0.8","0.6","0.2","0.2262440502","0.2185872191","0.2996930955","0.276537748","","","","","","","","","","","","72","H","0","img/none_selected.jpg","","232","main_expt"
"","bandit","312","1311400","0.0-273.0-0.0","00588330","wem/bandit_either_2","A20NITCOBY4775","either","5","1181","","","","","","","0","0","1","","0.2171974885","0.4","0.8","0.6","0.2","0.2171974885","0.1874863907","0.3103031796","0.2485723575","","","","","","","","","","","","72","H","0","img/none_selected.jpg","","233","main_expt"
"","bandit","313","1313290","0.0-274.0-0.0","00588330","wem/bandit_either_2","A20NITCOBY4775","either","5","370","","","","","","","0","0","1","0.2951485073","","0.4","0.8","0.6","0.2","","","","","0.2951485073","0.2165838284","0.2971988612","0.2172766866","","","","","","","","72","H","0","img/none_selected.jpg","","234","main_expt"
"","bandit","314","1316068","0.0-275.0-0.0","00588330","wem/bandit_either_2","A20NITCOBY4775","either","5","1255","","","","","","","0","0","1","0.3135740045","","0.4","0.8","0.6","0.2","","","","","0.3135740045","0.1791302586","0.3266576642","0.221542824","","","","","","","","72","H","0","img/none_selected.jpg","","235","main_expt"
"","bandit","315","1318127","0.0-276.0-0.0","00588330","wem/bandit_either_2","A20NITCOBY4775","either","5","540","","","","","","","0","0","1","","0.2945285262","0.4","0.8","0.6","0.2","0.2945285262","0.2463713802","0.3596878827","0.2200573756","","","","","","","","","","","","72","H","0","img/none_selected.jpg","","236","main_expt"
"","bandit","316","1321105","0.0-277.0-0.0","00588330","wem/bandit_either_2","A20NITCOBY4775","either","5","1452","","","","","","","0","1","0","","0.2204623923","0.4","0.8","0.6","0.2","0.2797454337","0.2204623923","0.3951370387","0.2146478317","","","","","","","","","","","","74","J","1","","","237","main_expt"
"","bandit","317","1323088","0.0-278.0-0.0","00588330","wem/bandit_either_2","A20NITCOBY4775","either","5","463","","","","","","","1","0","0","0.2316256556","","0.4","0.8","0.6","0.2","","","","","0.266453507","0.2316256556","0.3863552979","0.2237656472","","","","","","","","74","J","1","","","238","main_expt"
"","bandit","318","1325910","0.0-279.0-0.0","00588330","wem/bandit_either_2","A20NITCOBY4775","either","5","1295","","","","","","","0","0","1","0.2406304147","","0.4","0.8","0.6","0.2","","","","","0.310831157","0.2406304147","0.3962704677","0.2302611888","","","","","","","","74","J","1","","","239","main_expt"
"","bandit","319","1327837","0.0-280.0-0.0","00588330","wem/bandit_either_2","A20NITCOBY4775","either","5","402","","","","","","","0","0","1","0.2624476398","","0.4","0.8","0.6","0.2","","","","","0.331950591","0.2624476398","0.3926977495","0.2253069634","","","","","","","","74","J","1","","","240","main_expt"
"","bandit","320","1330794","0.0-281.0-0.0","00588330","wem/bandit_either_2","A20NITCOBY4775","either","5","1409","","","","","","","0","1","0","","0.3381110468","0.4","0.8","0.6","0.2","0.3223776605","0.2627099727","0.3381110468","0.2523404353","","","","","","","","","","","","75","K","2","","","241","main_expt"
"","bandit","321","1332718","0.0-282.0-0.0","00588330","wem/bandit_either_2","A20NITCOBY4775","either","5","402","","","","","","","1","0","0","0.3213381148","","0.4","0.8","0.6","0.2","","","","","0.3389272588","0.2262339403","0.3213381148","0.238450381","","","","","","","","75","K","2","","","242","main_expt"
"","bandit","322","1335187","0.0-283.0-0.0","00588330","wem/bandit_either_2","A20NITCOBY4775","either","5","361","","","","","","","0","1","0","","0.3395415742","0.4","0.8","0.6","0.2","0.4023830898","0.2511573395","0.3395415742","0.2476478509","","","","","","","","","","","","75","K","2","","","243","main_expt"
"","bandit","323","1337154","0.0-284.0-0.0","00588330","wem/bandit_either_2","A20NITCOBY4775","either","5","430","","","","","","","0","0","1","0.3077285799","","0.4","0.8","0.6","0.2","","","","","0.4072225753","0.3112309098","0.3077285799","0.2603762171","","","","","","","","75","K","2","","","244","main_expt"
"","bandit","324","1340509","0.0-285.0-0.0","00588330","wem/bandit_either_2","A20NITCOBY4775","either","5","1827","","","","","","","0","0","1","","0.2778117757","0.4","0.8","0.6","0.2","0.4047901721","0.3169667097","0.269997398","0.2778117757","","","","","","","","","","","","76","L","3","","","245","main_expt"
"","bandit","325","1342269","0.0-286.0-0.0","00588330","wem/bandit_either_2","A20NITCOBY4775","either","5","236","","","","","","","0","0","1","0.2896792764","","0.4","0.8","0.6","0.2","","","","","0.4245844383","0.3774934029","0.2896792764","0.2571702875","","","","","","","","75","K","2","","","246","main_expt"
