"consent","trial_type","trial_index","time_elapsed","internal_node_id","subjID","study","MID","cond","drift","rt","responses","key_press","expt_phase","like","value","connected","gems","bombs","no_reward","GemPrChosen","BombPrChosen","GainOverPainPr_0","GainOverPainPr_1","GainOverPainPr_2","GainOverPainPr_3","LosePr_0","LosePr_1","LosePr_2","LosePr_3","WinPr_0","WinPr_1","WinPr_2","WinPr_3","Q0","Q1","Q2","gender","age","ethnicity","target","respCharCode","respKey","respChoiceNum","respChoice","practice","trial_counter","trial_label"
"INL_behavioral_consent_30min_online.html","consent","0","19922","0.0-0.0","01270406","wem/bandit_either_2","A37S96RT1P1IT2","either","3","","","","","","","","","","","","","","","","","","","","","","","","","","","","","","","","","","","","","",""
"","survey-text","1","27115","0.0-1.0","01270406","wem/bandit_either_2","A37S96RT1P1IT2","either","3","6183","{""Q0"":""A37S96RT1P1IT2""}","","","","","","","","","","","","","","","","","","","","","","","","","","","","","","","","","","","",""
"","text","2","36472","0.0-2.0","01270406","wem/bandit_either_2","A37S96RT1P1IT2","either","3","8351","","32","","","","","","","","","","","","","","","","","","","","","","","","","","","","","","","","","","",""
"","text","3","49713","0.0-3.0","01270406","wem/bandit_either_2","A37S96RT1P1IT2","either","3","13237","","32","","","","","","","","","","","","","","","","","","","","","","","","","","","","","","","","","","",""
"","text","4","63601","0.0-4.0","01270406","wem/bandit_either_2","A37S96RT1P1IT2","either","3","13886","","32","","","","","","","","","","","","","","","","","","","","","","","","","","","","","","","","","","",""
"","text","5","71840","0.0-5.0","01270406","wem/bandit_either_2","A37S96RT1P1IT2","either","3","8223","","32","","","","","","","","","","","","","","","","","","","","","","","","","","","","","","","","","","",""
"","text","6","87632","0.0-6.0","01270406","wem/bandit_either_2","A37S96RT1P1IT2","either","3","15782","","32","","","","","","","","","","","","","","","","","","","","","","","","","","","","","","","","","","",""
"","text","7","96264","0.0-7.0","01270406","wem/bandit_either_2","A37S96RT1P1IT2","either","3","8614","","32","","","","","","","","","","","","","","","","","","","","","","","","","","","","","","","","","","",""
"","text","8","101549","0.0-8.0","01270406","wem/bandit_either_2","A37S96RT1P1IT2","either","3","5283","","32","","","","","","","","","","","","","","","","","","","","","","","","","","","","","","","","","","",""
"","identification","9","133233","0.0-9.0-0.0","01270406","wem/bandit_either_2","A37S96RT1P1IT2","either","3","31664","","","","2","3","2","","","","","","","","","","","","","","","","","","","","","","","","the village of Zur","","","","","","",""
"","identification","10","142321","0.0-9.0-1.0","01270406","wem/bandit_either_2","A37S96RT1P1IT2","either","3","8066","","","","2","2","1","","","","","","","","","","","","","","","","","","","","","","","","the village of Nyx","","","","","","",""
"","text","11","151664","0.0-10.0","01270406","wem/bandit_either_2","A37S96RT1P1IT2","either","3","8301","","32","","","","","","","","","","","","","","","","","","","","","","","","","","","","","","","","","","",""
"","text","12","154646","0.0-11.0","01270406","wem/bandit_either_2","A37S96RT1P1IT2","either","3","2980","","32","","","","","","","","","","","","","","","","","","","","","","","","","","","","","","","","","","",""
"","text","13","157405","0.0-12.0","01270406","wem/bandit_either_2","A37S96RT1P1IT2","either","3","2755","","32","","","","","","","","","","","","","","","","","","","","","","","","","","","","","","","","","","",""
"","text","14","161618","0.0-13.0","01270406","wem/bandit_either_2","A37S96RT1P1IT2","either","3","4211","","32","","","","","","","","","","","","","","","","","","","","","","","","","","","","","","","","","","",""
"","bandit","15","165333","0.0-14.0-0.0","01270406","wem/bandit_either_2","A37S96RT1P1IT2","either","3","2189","","","","","","","0","0","1","0","0","","","","","0","","","","0","","","","","","","","","","","74","J","0","img/none_selected_demo.jpg","true","0",""
"","bandit","16","168563","0.0-15.0-0.0","01270406","wem/bandit_either_2","A37S96RT1P1IT2","either","3","1684","","","","","","","0","0","1","0","0","","","","","0","","","","0","","","","","","","","","","","75","K","0","img/none_selected_demo.jpg","true","0",""
"","text","17","173622","0.0-16.0","01270406","wem/bandit_either_2","A37S96RT1P1IT2","either","3","5050","","32","","","","","","","","","","","","","","","","","","","","","","","","","","","","","","","","","","",""
"","text","18","180222","0.0-17.0","01270406","wem/bandit_either_2","A37S96RT1P1IT2","either","3","6595","","32","","","","","","","","","","","","","","","","","","","","","","","","","","","","","","","","","","",""
"","text","19","183980","0.0-18.0","01270406","wem/bandit_either_2","A37S96RT1P1IT2","either","3","3743","","32","","","","","","","","","","","","","","","","","","","","","","","","","","","","","","","","","","",""
"","text","20","187080","0.0-19.0","01270406","wem/bandit_either_2","A37S96RT1P1IT2","either","3","3083","","32","","","","","","","","","","","","","","","","","","","","","","","","","","","","","","","","","","",""
"","bandit","21","189598","0.0-20.0-0.0","01270406","wem/bandit_either_2","A37S96RT1P1IT2","either","3","996","","","","","","","0","0","1","0.8","","0.5","0.5","","","","","","","0.8","0.2","","","","","","","","","","74","J","0","img/none_selected_demo.jpg","true","0","80_20_practice"
"","bandit","22","191460","0.0-20.0-1.0","01270406","wem/bandit_either_2","A37S96RT1P1IT2","either","3","341","","","","","","","0","0","1","0.2","","0.5","0.5","","","","","","","0.8","0.2","","","","","","","","","","75","K","1","","true","0","80_20_practice"
"","bandit","23","193268","0.0-20.0-2.0","01270406","wem/bandit_either_2","A37S96RT1P1IT2","either","3","291","","","","","","","0","0","1","0.2","","0.5","0.5","","","","","","","0.8","0.2","","","","","","","","","","75","K","1","","true","0","80_20_practice"
"","bandit","24","195057","0.0-20.0-3.0","01270406","wem/bandit_either_2","A37S96RT1P1IT2","either","3","265","","","","","","","1","0","0","0.2","","0.5","0.5","","","","","","","0.8","0.2","","","","","","","","","","75","K","1","","true","0","80_20_practice"
"","bandit","25","196946","0.0-20.0-4.0","01270406","wem/bandit_either_2","A37S96RT1P1IT2","either","3","354","","","","","","","0","0","1","0.2","","0.5","0.5","","","","","","","0.8","0.2","","","","","","","","","","75","K","1","","true","0","80_20_practice"
"","bandit","26","198673","0.0-20.0-5.0","01270406","wem/bandit_either_2","A37S96RT1P1IT2","either","3","213","","","","","","","0","0","1","","0.2","0.5","0.5","","","0.8","0.2","","","","","","","","","","","","","","75","K","1","","true","0","80_20_practice"
"","bandit","27","200400","0.0-20.0-6.0","01270406","wem/bandit_either_2","A37S96RT1P1IT2","either","3","209","","","","","","","0","1","0","","0.8","0.5","0.5","","","0.8","0.2","","","","","","","","","","","","","","74","J","0","img/none_selected_demo.jpg","true","0","80_20_practice"
"","bandit","28","202218","0.0-20.0-7.0","01270406","wem/bandit_either_2","A37S96RT1P1IT2","either","3","283","","","","","","","0","1","0","","0.8","0.5","0.5","","","0.8","0.2","","","","","","","","","","","","","","74","J","0","img/none_selected_demo.jpg","true","0","80_20_practice"
"","bandit","29","203955","0.0-20.0-8.0","01270406","wem/bandit_either_2","A37S96RT1P1IT2","either","3","217","","","","","","","1","0","0","0.8","","0.5","0.5","","","","","","","0.8","0.2","","","","","","","","","","74","J","0","img/none_selected_demo.jpg","true","0","80_20_practice"
"","bandit","30","205866","0.0-20.0-9.0","01270406","wem/bandit_either_2","A37S96RT1P1IT2","either","3","365","","","","","","","0","1","0","","0.8","0.5","0.5","","","0.8","0.2","","","","","","","","","","","","","","74","J","0","img/none_selected_demo.jpg","true","0","80_20_practice"
"","bandit","31","207623","0.0-20.0-10.0","01270406","wem/bandit_either_2","A37S96RT1P1IT2","either","3","244","","","","","","","1","0","0","0.8","","0.5","0.5","","","","","","","0.8","0.2","","","","","","","","","","74","J","0","img/none_selected_demo.jpg","true","0","80_20_practice"
"","bandit","32","209387","0.0-20.0-11.0","01270406","wem/bandit_either_2","A37S96RT1P1IT2","either","3","252","","","","","","","0","0","1","","0.8","0.5","0.5","","","0.8","0.2","","","","","","","","","","","","","","74","J","0","img/none_selected_demo.jpg","true","0","80_20_practice"
"","bandit","33","211168","0.0-20.0-12.0","01270406","wem/bandit_either_2","A37S96RT1P1IT2","either","3","258","","","","","","","1","0","0","0.8","","0.5","0.5","","","","","","","0.8","0.2","","","","","","","","","","74","J","0","img/none_selected_demo.jpg","true","0","80_20_practice"
"","bandit","34","212976","0.0-20.0-13.0","01270406","wem/bandit_either_2","A37S96RT1P1IT2","either","3","273","","","","","","","1","0","0","0.8","","0.5","0.5","","","","","","","0.8","0.2","","","","","","","","","","74","J","0","img/none_selected_demo.jpg","true","0","80_20_practice"
"","bandit","35","214764","0.0-20.0-14.0","01270406","wem/bandit_either_2","A37S96RT1P1IT2","either","3","242","","","","","","","1","0","0","0.8","","0.5","0.5","","","","","","","0.8","0.2","","","","","","","","","","74","J","0","img/none_selected_demo.jpg","true","0","80_20_practice"
"","bandit","36","216620","0.0-20.0-15.0","01270406","wem/bandit_either_2","A37S96RT1P1IT2","either","3","344","","","","","","","0","1","0","","0.8","0.5","0.5","","","0.8","0.2","","","","","","","","","","","","","","74","J","0","img/none_selected_demo.jpg","true","0","80_20_practice"
"","bandit","37","218361","0.0-20.0-16.0","01270406","wem/bandit_either_2","A37S96RT1P1IT2","either","3","196","","","","","","","1","0","0","0.8","","0.5","0.5","","","","","","","0.8","0.2","","","","","","","","","","74","J","0","img/none_selected_demo.jpg","true","0","80_20_practice"
"","bandit","38","220201","0.0-20.0-17.0","01270406","wem/bandit_either_2","A37S96RT1P1IT2","either","3","325","","","","","","","0","1","0","","0.8","0.5","0.5","","","0.8","0.2","","","","","","","","","","","","","","74","J","0","img/none_selected_demo.jpg","true","0","80_20_practice"
"","bandit","39","222749","0.0-20.0-18.0","01270406","wem/bandit_either_2","A37S96RT1P1IT2","either","3","1033","","","","","","","0","0","1","0.8","","0.5","0.5","","","","","","","0.8","0.2","","","","","","","","","","74","J","0","img/none_selected_demo.jpg","true","0","80_20_practice"
"","bandit","40","224457","0.0-20.0-19.0","01270406","wem/bandit_either_2","A37S96RT1P1IT2","either","3","192","","","","","","","1","0","0","0.8","","0.5","0.5","","","","","","","0.8","0.2","","","","","","","","","","74","J","0","img/none_selected_demo.jpg","true","0","80_20_practice"
"","text","41","228554","0.0-21.0","01270406","wem/bandit_either_2","A37S96RT1P1IT2","either","3","4083","","32","","","","","","","","","","","","","","","","","","","","","","","","","","","","","","","","","","",""
"","bandit","42","231333","0.0-22.0-0.0","01270406","wem/bandit_either_2","A37S96RT1P1IT2","either","3","1266","","","","","","","1","0","0","1","0","","","","","0","1","","","1","0","","","","","","","","","","74","J","0","img/none_selected_demo.jpg","true","0",""
"","text","43","237168","0.0-23.0","01270406","wem/bandit_either_2","A37S96RT1P1IT2","either","3","5819","","32","","","","","","","","","","","","","","","","","","","","","","","","","","","","","","","","","","",""
"","text","44","239943","0.0-24.0","01270406","wem/bandit_either_2","A37S96RT1P1IT2","either","3","2771","","32","","","","","","","","","","","","","","","","","","","","","","","","","","","","","","","","","","",""
"","text","45","242708","0.0-25.0","01270406","wem/bandit_either_2","A37S96RT1P1IT2","either","3","2762","","32","","","","","","","","","","","","","","","","","","","","","","","","","","","","","","","","","","",""
"","text","46","246009","0.0-26.0","01270406","wem/bandit_either_2","A37S96RT1P1IT2","either","3","3285","","32","","","","","","","","","","","","","","","","","","","","","","","","","","","","","","","","","","",""
"","text","47","254421","0.0-27.0","01270406","wem/bandit_either_2","A37S96RT1P1IT2","either","3","8408","","32","","","","","","","","","","","","","","","","","","","","","","","","","","","","","","","","","","",""
"","text","48","257015","0.0-28.0","01270406","wem/bandit_either_2","A37S96RT1P1IT2","either","3","2591","","32","","","","","","","","","","","","","","","","","","","","","","","","","","","","","","","","","","",""
"","text","49","261092","0.0-29.0","01270406","wem/bandit_either_2","A37S96RT1P1IT2","either","3","4070","","32","","","","","","","","","","","","","","","","","","","","","","","","","","","","","","","","","","",""
"","text","50","264081","0.0-30.0","01270406","wem/bandit_either_2","A37S96RT1P1IT2","either","3","2983","","32","","","","","","","","","","","","","","","","","","","","","","","","","","","","","","","","","","",""
"","text","51","268767","0.0-31.0","01270406","wem/bandit_either_2","A37S96RT1P1IT2","either","3","4682","","32","","","","","","","","","","","","","","","","","","","","","","","","","","","","","","","","","","",""
"","text","52","271220","0.0-32.0","01270406","wem/bandit_either_2","A37S96RT1P1IT2","either","3","2450","","32","","","","","","","","","","","","","","","","","","","","","","","","","","","","","","","","","","",""
"","text","53","278369","0.0-33.0","01270406","wem/bandit_either_2","A37S96RT1P1IT2","either","3","7145","","32","","","","","","","","","","","","","","","","","","","","","","","","","","","","","","","","","","",""
"","bandit","54","281375","0.0-34.0-0.0","01270406","wem/bandit_either_2","A37S96RT1P1IT2","either","3","1471","","","","","","","0","1","0","","0.8","0.5","0.5","0.5","0.5","0.8","0.2","0.6","0.2","","","","","","","","","","","","72","H","0","img/none_selected.jpg","true","0","full_practice"
"","bandit","55","283122","0.0-34.0-1.0","01270406","wem/bandit_either_2","A37S96RT1P1IT2","either","3","237","","","","","","","0","0","1","0.8","","0.5","0.5","0.5","0.5","","","","","0.8","0.2","0.6","0.2","","","","","","","","72","H","0","img/none_selected.jpg","true","0","full_practice"
"","bandit","56","284778","0.0-34.0-2.0","01270406","wem/bandit_either_2","A37S96RT1P1IT2","either","3","146","","","","","","","0","0","1","","0.8","0.5","0.5","0.5","0.5","0.8","0.2","0.6","0.2","","","","","","","","","","","","72","H","0","img/none_selected.jpg","true","0","full_practice"
"","bandit","57","286668","0.0-34.0-3.0","01270406","wem/bandit_either_2","A37S96RT1P1IT2","either","3","343","","","","","","","0","0","1","","0.2","0.5","0.5","0.5","0.5","0.8","0.2","0.6","0.2","","","","","","","","","","","","74","J","1","","true","0","full_practice"
"","bandit","58","288433","0.0-34.0-4.0","01270406","wem/bandit_either_2","A37S96RT1P1IT2","either","3","256","","","","","","","0","0","1","0.2","","0.5","0.5","0.5","0.5","","","","","0.8","0.2","0.6","0.2","","","","","","","","74","J","1","","true","0","full_practice"
"","bandit","59","290152","0.0-34.0-5.0","01270406","wem/bandit_either_2","A37S96RT1P1IT2","either","3","192","","","","","","","0","0","1","","0.2","0.5","0.5","0.5","0.5","0.8","0.2","0.6","0.2","","","","","","","","","","","","74","J","1","","true","0","full_practice"
"","bandit","60","291889","0.0-34.0-6.0","01270406","wem/bandit_either_2","A37S96RT1P1IT2","either","3","215","","","","","","","1","0","0","0.6","","0.5","0.5","0.5","0.5","","","","","0.8","0.2","0.6","0.2","","","","","","","","75","K","2","","true","0","full_practice"
"","bandit","61","293697","0.0-34.0-7.0","01270406","wem/bandit_either_2","A37S96RT1P1IT2","either","3","282","","","","","","","1","0","0","0.6","","0.5","0.5","0.5","0.5","","","","","0.8","0.2","0.6","0.2","","","","","","","","75","K","2","","true","0","full_practice"
"","bandit","62","295547","0.0-34.0-8.0","01270406","wem/bandit_either_2","A37S96RT1P1IT2","either","3","323","","","","","","","0","0","1","","0.6","0.5","0.5","0.5","0.5","0.8","0.2","0.6","0.2","","","","","","","","","","","","75","K","2","","true","0","full_practice"
"","bandit","63","297325","0.0-34.0-9.0","01270406","wem/bandit_either_2","A37S96RT1P1IT2","either","3","252","","","","","","","1","0","0","0.6","","0.5","0.5","0.5","0.5","","","","","0.8","0.2","0.6","0.2","","","","","","","","75","K","2","","true","0","full_practice"
"","bandit","64","299093","0.0-34.0-10.0","01270406","wem/bandit_either_2","A37S96RT1P1IT2","either","3","217","","","","","","","0","0","1","0.6","","0.5","0.5","0.5","0.5","","","","","0.8","0.2","0.6","0.2","","","","","","","","75","K","2","","true","0","full_practice"
"","bandit","65","300840","0.0-34.0-11.0","01270406","wem/bandit_either_2","A37S96RT1P1IT2","either","3","200","","","","","","","0","1","0","","0.6","0.5","0.5","0.5","0.5","0.8","0.2","0.6","0.2","","","","","","","","","","","","75","K","2","","true","0","full_practice"
"","bandit","66","302648","0.0-34.0-12.0","01270406","wem/bandit_either_2","A37S96RT1P1IT2","either","3","282","","","","","","","0","1","0","","0.6","0.5","0.5","0.5","0.5","0.8","0.2","0.6","0.2","","","","","","","","","","","","75","K","2","","true","0","full_practice"
"","bandit","67","304423","0.0-34.0-13.0","01270406","wem/bandit_either_2","A37S96RT1P1IT2","either","3","260","","","","","","","0","1","0","","0.6","0.5","0.5","0.5","0.5","0.8","0.2","0.6","0.2","","","","","","","","","","","","75","K","2","","true","0","full_practice"
"","bandit","68","306204","0.0-34.0-14.0","01270406","wem/bandit_either_2","A37S96RT1P1IT2","either","3","254","","","","","","","0","1","0","","0.6","0.5","0.5","0.5","0.5","0.8","0.2","0.6","0.2","","","","","","","","","","","","75","K","2","","true","0","full_practice"
"","bandit","69","307738","0.0-34.0-15.0","01270406","wem/bandit_either_2","A37S96RT1P1IT2","either","3","22","","","","","","","0","0","1","","0.6","0.5","0.5","0.5","0.5","0.8","0.2","0.6","0.2","","","","","","","","","","","","75","K","2","","true","0","full_practice"
"","bandit","70","309403","0.0-34.0-16.0","01270406","wem/bandit_either_2","A37S96RT1P1IT2","either","3","120","","","","","","","0","0","1","0.6","","0.5","0.5","0.5","0.5","","","","","0.8","0.2","0.6","0.2","","","","","","","","75","K","2","","true","0","full_practice"
"","bandit","71","311141","0.0-34.0-17.0","01270406","wem/bandit_either_2","A37S96RT1P1IT2","either","3","196","","","","","","","1","0","0","0.2","","0.5","0.5","0.5","0.5","","","","","0.8","0.2","0.6","0.2","","","","","","","","76","L","3","","true","0","full_practice"
"","bandit","72","312892","0.0-34.0-18.0","01270406","wem/bandit_either_2","A37S96RT1P1IT2","either","3","239","","","","","","","0","0","1","0.2","","0.5","0.5","0.5","0.5","","","","","0.8","0.2","0.6","0.2","","","","","","","","76","L","3","","true","0","full_practice"
"","bandit","73","314616","0.0-34.0-19.0","01270406","wem/bandit_either_2","A37S96RT1P1IT2","either","3","195","","","","","","","0","0","1","0.2","","0.5","0.5","0.5","0.5","","","","","0.8","0.2","0.6","0.2","","","","","","","","76","L","3","","true","0","full_practice"
"","text","74","316981","0.0-35.0","01270406","wem/bandit_either_2","A37S96RT1P1IT2","either","3","2350","","32","","","","","","","","","","","","","","","","","","","","","","","","","","","","","","","","","","",""
"","text","75","329370","0.0-36.0","01270406","wem/bandit_either_2","A37S96RT1P1IT2","either","3","11381","","32","","","","","","","","","","","","","","","","","","","","","","","","","","","","","","","","","","",""
"","text","76","337693","0.0-37.0","01270406","wem/bandit_either_2","A37S96RT1P1IT2","either","3","8319","","32","","","","","","","","","","","","","","","","","","","","","","","","","","","","","","","","","","",""
"","text","77","342009","0.0-38.0","01270406","wem/bandit_either_2","A37S96RT1P1IT2","either","3","4311","","32","","","","","","","","","","","","","","","","","","","","","","","","","","","","","","","","","","",""
"","text","78","345778","0.0-39.0","01270406","wem/bandit_either_2","A37S96RT1P1IT2","either","3","3765","","32","","","","","","","","","","","","","","","","","","","","","","","","","","","","","","","","","","",""
"","text","79","351640","0.0-40.0","01270406","wem/bandit_either_2","A37S96RT1P1IT2","either","3","5845","","32","","","","","","","","","","","","","","","","","","","","","","","","","","","","","","","","","","",""
"","bandit","80","354813","0.0-41.0-0.0","01270406","wem/bandit_either_2","A37S96RT1P1IT2","either","3","1641","","","","","","","0","0","1","","0.07685641067","0.2","0.6","0.8","0.4","0.07685641067","0.4870892339","0.1426046982","0.1646489015","","","","","","","","","","","","72","H","0","img/none_selected.jpg","","1","main_expt"
"","bandit","81","356794","0.0-42.0-0.0","01270406","wem/bandit_either_2","A37S96RT1P1IT2","either","3","464","","","","","","","0","0","1","","0.08388143876","0.2","0.6","0.8","0.4","0.08388143876","0.4875162112","0.1597004976","0.2180431119","","","","","","","","","","","","72","H","0","img/none_selected.jpg","","2","main_expt"
"","bandit","82","359138","0.0-43.0-0.0","01270406","wem/bandit_either_2","A37S96RT1P1IT2","either","3","817","","","","","","","0","0","1","0.4909945117","","0.2","0.6","0.8","0.4","","","","","0.06528774038","0.4909945117","0.1381850853","0.2294217256","","","","","","","","74","J","1","","","3","main_expt"
"","bandit","83","361061","0.0-44.0-0.0","01270406","wem/bandit_either_2","A37S96RT1P1IT2","either","3","397","","","","","","","0","0","1","0.482579304","","0.2","0.6","0.8","0.4","","","","","0.07987899881","0.482579304","0.1787932262","0.2162119515","","","","","","","","74","J","1","","","4","main_expt"
"","bandit","84","362970","0.0-45.0-0.0","01270406","wem/bandit_either_2","A37S96RT1P1IT2","either","3","388","","","","","","","0","0","1","","0.1795032464","0.2","0.6","0.8","0.4","0.0432391811","0.4887913002","0.1795032464","0.2246316054","","","","","","","","","","","","75","K","2","","","5","main_expt"
"","bandit","85","364941","0.0-46.0-0.0","01270406","wem/bandit_either_2","A37S96RT1P1IT2","either","3","436","","","","","","","0","0","1","0.164375756","","0.2","0.6","0.8","0.4","","","","","0.03467601655","0.4887860333","0.164375756","0.2061018479","","","","","","","","75","K","2","","","6","main_expt"
"","bandit","86","366646","0.0-47.0-0.0","01270406","wem/bandit_either_2","A37S96RT1P1IT2","either","3","179","","","","","","","0","0","1","0.1795347326","","0.2","0.6","0.8","0.4","","","","","0.05033951668","0.4901971563","0.204957223","0.1795347326","","","","","","","","76","L","3","","","7","main_expt"
"","bandit","87","368537","0.0-48.0-0.0","01270406","wem/bandit_either_2","A37S96RT1P1IT2","either","3","342","","","","","","","0","0","1","0.1290452752","","0.2","0.6","0.8","0.4","","","","","0.07676355645","0.4862230721","0.2162036531","0.1290452752","","","","","","","","76","L","3","","","8","main_expt"
"","bandit","88","370671","0.0-49.0-0.0","01270406","wem/bandit_either_2","A37S96RT1P1IT2","either","3","586","","","","","","","0","0","1","0.1559184374","","0.2","0.6","0.8","0.4","","","","","0.08620859221","0.4759730645","0.2167418122","0.1559184374","","","","","","","","76","L","3","","","9","main_expt"
"","bandit","89","372458","0.0-50.0-0.0","01270406","wem/bandit_either_2","A37S96RT1P1IT2","either","3","275","","","","","","","0","0","1","0.1607923637","","0.2","0.6","0.8","0.4","","","","","0.1103839657","0.4560980466","0.1607923637","0.1381514788","","","","","","","","75","K","2","","","10","main_expt"
"","bandit","90","374197","0.0-51.0-0.0","01270406","wem/bandit_either_2","A37S96RT1P1IT2","either","3","225","","","","","","","0","0","1","0.1386410957","","0.2","0.6","0.8","0.4","","","","","0.1334948588","0.4775116046","0.1386410957","0.1271140015","","","","","","","","75","K","2","","","11","main_expt"
"","bandit","91","375913","0.0-52.0-0.0","01270406","wem/bandit_either_2","A37S96RT1P1IT2","either","3","188","","","","","","","0","0","1","","0.4705073552","0.2","0.6","0.8","0.4","0.1535602519","0.4705073552","0.1718380738","0.1854664659","","","","","","","","","","","","74","J","1","","","12","main_expt"
"","bandit","92","377573","0.0-53.0-0.0","01270406","wem/bandit_either_2","A37S96RT1P1IT2","either","3","140","","","","","","","0","0","1","0.4851887342","","0.2","0.6","0.8","0.4","","","","","0.127854239","0.4851887342","0.1686303413","0.1869952656","","","","","","","","74","J","1","","","13","main_expt"
"","bandit","93","379211","0.0-54.0-0.0","01270406","wem/bandit_either_2","A37S96RT1P1IT2","either","3","114","","","","","","","0","0","1","","0.1507911491","0.2","0.6","0.8","0.4","0.1507911491","0.4731273917","0.1460019496","0.2035171393","","","","","","","","","","","","72","H","0","img/none_selected.jpg","","14","main_expt"
"","bandit","94","381026","0.0-55.0-0.0","01270406","wem/bandit_either_2","A37S96RT1P1IT2","either","3","295","","","","","","","0","0","1","","0.1741212098","0.2","0.6","0.8","0.4","0.1741212098","0.4585867004","0.1667614464","0.2800299461","","","","","","","","","","","","72","H","0","img/none_selected.jpg","","15","main_expt"
"","bandit","95","382699","0.0-56.0-0.0","01270406","wem/bandit_either_2","A37S96RT1P1IT2","either","3","143","","","","","","","0","0","1","0.1918308831","","0.2","0.6","0.8","0.4","","","","","0.1918308831","0.4366533258","0.1973644546","0.2725454461","","","","","","","","72","H","0","img/none_selected.jpg","","16","main_expt"
"","bandit","96","384527","0.0-57.0-0.0","01270406","wem/bandit_either_2","A37S96RT1P1IT2","either","3","300","","","","","","","0","0","1","0.4405228744","","0.2","0.6","0.8","0.4","","","","","0.1950212473","0.4405228744","0.1873415792","0.1570621471","","","","","","","","74","J","1","","","17","main_expt"
"","bandit","97","386275","0.0-58.0-0.0","01270406","wem/bandit_either_2","A37S96RT1P1IT2","either","3","217","","","","","","","0","0","1","0.4678551263","","0.2","0.6","0.8","0.4","","","","","0.2094813194","0.4678551263","0.1875860444","0.1968188506","","","","","","","","74","J","1","","","18","main_expt"
"","bandit","98","388007","0.0-59.0-0.0","01270406","wem/bandit_either_2","A37S96RT1P1IT2","either","3","210","","","","","","","0","1","0","","0.466140525","0.2","0.6","0.8","0.4","0.2628959394","0.466140525","0.1988439388","0.2439518204","","","","","","","","","","","","74","J","1","","","19","main_expt"
"","bandit","99","389820","0.0-60.0-0.0","01270406","wem/bandit_either_2","A37S96RT1P1IT2","either","3","285","","","","","","","0","0","1","0.4094087999","","0.2","0.6","0.8","0.4","","","","","0.2116504525","0.4094087999","0.1813993393","0.2806117898","","","","","","","","74","J","1","","","20","main_expt"
"","bandit","100","391577","0.0-61.0-0.0","01270406","wem/bandit_either_2","A37S96RT1P1IT2","either","3","232","","","","","","","1","0","0","0.4386974508","","0.2","0.6","0.8","0.4","","","","","0.1904426465","0.4386974508","0.2012004452","0.2658005831","","","","","","","","74","J","1","","","21","main_expt"
"","bandit","101","393514","0.0-62.0-0.0","01270406","wem/bandit_either_2","A37S96RT1P1IT2","either","3","424","","","","","","","0","0","1","0.4505723784","","0.2","0.6","0.8","0.4","","","","","0.1581796968","0.4505723784","0.1958646163","0.2774390086","","","","","","","","74","J","1","","","22","main_expt"
"","bandit","102","395438","0.0-63.0-0.0","01270406","wem/bandit_either_2","A37S96RT1P1IT2","either","3","407","","","","","","","0","0","1","","0.4568000239","0.2","0.6","0.8","0.4","0.2039009352","0.4568000239","0.2626819079","0.2795917474","","","","","","","","","","","","74","J","1","","","23","main_expt"
"","bandit","103","397090","0.0-64.0-0.0","01270406","wem/bandit_either_2","A37S96RT1P1IT2","either","3","139","","","","","","","0","0","1","0.4518339256","","0.2","0.6","0.8","0.4","","","","","0.228339491","0.4518339256","0.2906682881","0.2981059477","","","","","","","","74","J","1","","","24","main_expt"
"","bandit","104","398921","0.0-65.0-0.0","01270406","wem/bandit_either_2","A37S96RT1P1IT2","either","3","306","","","","","","","0","0","1","0.3270173502","","0.2","0.6","0.8","0.4","","","","","0.2602465224","0.4120159309","0.3270173502","0.3272059922","","","","","","","","75","K","2","","","25","main_expt"
"","bandit","105","400791","0.0-66.0-0.0","01270406","wem/bandit_either_2","A37S96RT1P1IT2","either","3","348","","","","","","","0","0","1","","0.2951289915","0.2","0.6","0.8","0.4","0.1939420306","0.4134154185","0.2951289915","0.3369826645","","","","","","","","","","","","75","K","2","","","26","main_expt"
"","bandit","106","402606","0.0-67.0-0.0","01270406","wem/bandit_either_2","A37S96RT1P1IT2","either","3","281","","","","","","","0","0","1","0.3520126272","","0.2","0.6","0.8","0.4","","","","","0.2387331149","0.4031068294","0.3520126272","0.2531212506","","","","","","","","75","K","2","","","27","main_expt"
"","bandit","107","404632","0.0-68.0-0.0","01270406","wem/bandit_either_2","A37S96RT1P1IT2","either","3","498","","","","","","","0","0","1","0.3369287003","","0.2","0.6","0.8","0.4","","","","","0.2183458617","0.4305883772","0.3369287003","0.2170461037","","","","","","","","75","K","2","","","28","main_expt"
"","bandit","108","406222","0.0-69.0-0.0","01270406","wem/bandit_either_2","A37S96RT1P1IT2","either","3","76","","","","","","","0","0","1","","0.2346211465","0.2","0.6","0.8","0.4","0.2151501268","0.4383329838","0.3591799128","0.2346211465","","","","","","","","","","","","76","L","3","","","29","main_expt"
"","bandit","109","408106","0.0-70.0-0.0","01270406","wem/bandit_either_2","A37S96RT1P1IT2","either","3","365","","","","","","","0","0","1","","0.2450860663","0.2","0.6","0.8","0.4","0.2267233056","0.4233276099","0.3324285477","0.2450860663","","","","","","","","","","","","76","L","3","","","30","main_expt"
"","bandit","110","410401","0.0-71.0-0.0","01270406","wem/bandit_either_2","A37S96RT1P1IT2","either","3","768","","","","","","","0","0","1","","0.2141169407","0.2","0.6","0.8","0.4","0.2663701676","0.4016185005","0.327032362","0.2141169407","","","","","","","","","","","","76","L","3","","","31","main_expt"
"","bandit","111","412149","0.0-72.0-0.0","01270406","wem/bandit_either_2","A37S96RT1P1IT2","either","3","213","","","","","","","0","0","1","0.4134940178","","0.2","0.6","0.8","0.4","","","","","0.275969473","0.4134940178","0.3230905041","0.2347854155","","","","","","","","74","J","1","","","32","main_expt"
"","bandit","112","414059","0.0-73.0-0.0","01270406","wem/bandit_either_2","A37S96RT1P1IT2","either","3","377","","","","","","","0","0","1","0.4331174495","","0.2","0.6","0.8","0.4","","","","","0.3365270118","0.4331174495","0.2969008969","0.246596708","","","","","","","","74","J","1","","","33","main_expt"
"","bandit","113","415879","0.0-74.0-0.0","01270406","wem/bandit_either_2","A37S96RT1P1IT2","either","3","310","","","","","","","0","0","1","","0.4454497031","0.2","0.6","0.8","0.4","0.2916301021","0.4454497031","0.2536392951","0.1914370393","","","","","","","","","","","","74","J","1","","","34","main_expt"
"","bandit","114","417672","0.0-75.0-0.0","01270406","wem/bandit_either_2","A37S96RT1P1IT2","either","3","268","","","","","","","1","0","0","0.4419706984","","0.2","0.6","0.8","0.4","","","","","0.3236538836","0.4419706984","0.2336030597","0.1408207185","","","","","","","","74","J","1","","","35","main_expt"
"","bandit","115","419737","0.0-76.0-0.0","01270406","wem/bandit_either_2","A37S96RT1P1IT2","either","3","551","","","","","","","0","1","0","","0.4205940312","0.2","0.6","0.8","0.4","0.3317439785","0.4205940312","0.3110392291","0.09539735145","","","","","","","","","","","","74","J","1","","","36","main_expt"
"","bandit","116","421633","0.0-77.0-0.0","01270406","wem/bandit_either_2","A37S96RT1P1IT2","either","3","321","","","","","","","0","0","1","0.4227305347","","0.2","0.6","0.8","0.4","","","","","0.3620900841","0.4227305347","0.3354302382","0.08867332122","","","","","","","","74","J","1","","","37","main_expt"
"","bandit","117","423940","0.0-78.0-0.0","01270406","wem/bandit_either_2","A37S96RT1P1IT2","either","3","782","","","","","","","0","1","0","","0.3904174821","0.2","0.6","0.8","0.4","0.3649119955","0.3904174821","0.3359947902","0.0804097964","","","","","","","","","","","","74","J","1","","","38","main_expt"
"","bandit","118","425943","0.0-79.0-0.0","01270406","wem/bandit_either_2","A37S96RT1P1IT2","either","3","475","","","","","","","0","0","1","0.3704092514","","0.2","0.6","0.8","0.4","","","","","0.3993258453","0.3704092514","0.3719467902","0.1092906338","","","","","","","","74","J","1","","","39","main_expt"
"","bandit","119","427834","0.0-80.0-0.0","01270406","wem/bandit_either_2","A37S96RT1P1IT2","either","3","340","","","","","","","0","0","1","0.3250394812","","0.2","0.6","0.8","0.4","","","","","0.43145226","0.3250394812","0.37180955","0.08771014895","","","","","","","","74","J","1","","","40","main_expt"
"","bandit","120","429703","0.0-81.0-0.0","01270406","wem/bandit_either_2","A37S96RT1P1IT2","either","3","341","","","","","","","0","0","1","","0.3633775572","0.2","0.6","0.8","0.4","0.3925837484","0.3633775572","0.3972707938","0.1065106481","","","","","","","","","","","","74","J","1","","","41","main_expt"
"","bandit","121","431446","0.0-82.0-0.0","01270406","wem/bandit_either_2","A37S96RT1P1IT2","either","3","230","","","","","","","0","0","1","","0.3708570881","0.2","0.6","0.8","0.4","0.4020613291","0.3708570881","0.3981555674","0.0926848955","","","","","","","","","","","","74","J","1","","","42","main_expt"
"","bandit","122","433279","0.0-83.0-0.0","01270406","wem/bandit_either_2","A37S96RT1P1IT2","either","3","323","","","","","","","0","0","1","0.3852030547","","0.2","0.6","0.8","0.4","","","","","0.4199094288","0.3852030547","0.3698022864","0.09213729174","","","","","","","","74","J","1","","","43","main_expt"
"","bandit","123","435114","0.0-84.0-0.0","01270406","wem/bandit_either_2","A37S96RT1P1IT2","either","3","298","","","","","","","1","0","0","0.3653477133","","0.2","0.6","0.8","0.4","","","","","0.4362917367","0.3653477133","0.3278340923","0.0950319608","","","","","","","","74","J","1","","","44","main_expt"
"","bandit","124","436987","0.0-85.0-0.0","01270406","wem/bandit_either_2","A37S96RT1P1IT2","either","3","345","","","","","","","0","0","1","0.3423722135","","0.2","0.6","0.8","0.4","","","","","0.4310393502","0.3423722135","0.4004869948","0.07917944011","","","","","","","","74","J","1","","","45","main_expt"
"","bandit","125","438856","0.0-86.0-0.0","01270406","wem/bandit_either_2","A37S96RT1P1IT2","either","3","346","","","","","","","1","0","0","0.2713785315","","0.2","0.6","0.8","0.4","","","","","0.4301719659","0.2713785315","0.4389658195","0.08528552535","","","","","","","","74","J","1","","","46","main_expt"
"","bandit","126","440664","0.0-87.0-0.0","01270406","wem/bandit_either_2","A37S96RT1P1IT2","either","3","260","","","","","","","0","0","1","0.2675382036","","0.2","0.6","0.8","0.4","","","","","0.4274268526","0.2675382036","0.4294918489","0.08303267599","","","","","","","","74","J","1","","","47","main_expt"
"","bandit","127","442818","0.0-88.0-0.0","01270406","wem/bandit_either_2","A37S96RT1P1IT2","either","3","635","","","","","","","0","0","1","0.3006553151","","0.2","0.6","0.8","0.4","","","","","0.4559220927","0.3006553151","0.3948346084","0.1183490009","","","","","","","","74","J","1","","","48","main_expt"
"","bandit","128","444718","0.0-89.0-0.0","01270406","wem/bandit_either_2","A37S96RT1P1IT2","either","3","362","","","","","","","0","1","0","","0.2865645246","0.2","0.6","0.8","0.4","0.4362936898","0.2865645246","0.4226663974","0.09831357925","","","","","","","","","","","","74","J","1","","","49","main_expt"
"","bandit","129","446379","0.0-90.0-0.0","01270406","wem/bandit_either_2","A37S96RT1P1IT2","either","3","147","","","","","","","0","0","1","","0.2842330123","0.2","0.6","0.8","0.4","0.4001593617","0.2842330123","0.3943232949","0.0896163698","","","","","","","","","","","","74","J","1","","","50","main_expt"
"","bandit","130","448162","0.0-91.0-0.0","01270406","wem/bandit_either_2","A37S96RT1P1IT2","either","3","243","","","","","","","1","0","0","0.2933637591","","0.2","0.6","0.8","0.4","","","","","0.3737598101","0.2933637591","0.3911898034","0.08239790895","","","","","","","","74","J","1","","","51","main_expt"
"","bandit","131","450214","0.0-92.0-0.0","01270406","wem/bandit_either_2","A37S96RT1P1IT2","either","3","523","","","","","","","0","0","1","0.2802127762","","0.2","0.6","0.8","0.4","","","","","0.3490564905","0.2802127762","0.3897106723","0.06509061927","","","","","","","","74","J","1","","","52","main_expt"
"","bandit","132","452174","0.0-93.0-0.0","01270406","wem/bandit_either_2","A37S96RT1P1IT2","either","3","430","","","","","","","0","0","1","","0.2567133084","0.2","0.6","0.8","0.4","0.3606416198","0.2567133084","0.3977919118","0.05503049918","","","","","","","","","","","","74","J","1","","","53","main_expt"
"","bandit","133","453891","0.0-94.0-0.0","01270406","wem/bandit_either_2","A37S96RT1P1IT2","either","3","173","","","","","","","1","0","0","0.304436262","","0.2","0.6","0.8","0.4","","","","","0.3920172378","0.304436262","0.3803623479","0.06606451817","","","","","","","","74","J","1","","","54","main_expt"
"","bandit","134","455780","0.0-95.0-0.0","01270406","wem/bandit_either_2","A37S96RT1P1IT2","either","3","361","","","","","","","0","0","1","0.3050376594","","0.2","0.6","0.8","0.4","","","","","0.3841867886","0.3050376594","0.3898030924","0.0812436444","","","","","","","","74","J","1","","","55","main_expt"
"","bandit","135","457371","0.0-96.0-0.0","01270406","wem/bandit_either_2","A37S96RT1P1IT2","either","3","76","","","","","","","0","0","1","0.2874076515","","0.2","0.6","0.8","0.4","","","","","0.3752679739","0.2874076515","0.4332266089","0.05752214818","","","","","","","","74","J","1","","","56","main_expt"
"","bandit","136","459051","0.0-97.0-0.0","01270406","wem/bandit_either_2","A37S96RT1P1IT2","either","3","132","","","","","","","1","0","0","0.2633226407","","0.2","0.6","0.8","0.4","","","","","0.3595388075","0.2633226407","0.4598680415","0.05957573693","","","","","","","","74","J","1","","","57","main_expt"
"","bandit","137","460942","0.0-98.0-0.0","01270406","wem/bandit_either_2","A37S96RT1P1IT2","either","3","340","","","","","","","0","0","1","","0.282557186","0.2","0.6","0.8","0.4","0.2926617498","0.282557186","0.4510058242","0.08347810371","","","","","","","","","","","","74","J","1","","","58","main_expt"
"","bandit","138","462638","0.0-99.0-0.0","01270406","wem/bandit_either_2","A37S96RT1P1IT2","either","3","177","","","","","","","0","0","1","0.2675679041","","0.2","0.6","0.8","0.4","","","","","0.2854140482","0.2675679041","0.4587464736","0.1166757522","","","","","","","","74","J","1","","","59","main_expt"
"","bandit","139","464365","0.0-100.0-0.0","01270406","wem/bandit_either_2","A37S96RT1P1IT2","either","3","214","","","","","","","0","0","1","0.2654645802","","0.2","0.6","0.8","0.4","","","","","0.2767785787","0.2654645802","0.4534111386","0.1223048521","","","","","","","","74","J","1","","","60","main_expt"
"","bandit","140","465972","0.0-101.0-0.0","01270406","wem/bandit_either_2","A37S96RT1P1IT2","either","3","94","","","","","","","0","0","1","0.2326588137","","0.2","0.6","0.8","0.4","","","","","0.3110110239","0.2326588137","0.4581751116","0.1341525672","","","","","","","","74","J","1","","","61","main_expt"
"","bandit","141","467778","0.0-102.0-0.0","01270406","wem/bandit_either_2","A37S96RT1P1IT2","either","3","276","","","","","","","0","1","0","","0.2430345153","0.2","0.6","0.8","0.4","0.2739379344","0.2430345153","0.4447189615","0.1748443247","","","","","","","","","","","","74","J","1","","","62","main_expt"
"","bandit","142","469670","0.0-103.0-0.0","01270406","wem/bandit_either_2","A37S96RT1P1IT2","either","3","360","","","","","","","0","0","1","0.2682261916","","0.2","0.6","0.8","0.4","","","","","0.2518438402","0.2682261916","0.4351057758","0.1872250423","","","","","","","","74","J","1","","","63","main_expt"
"","bandit","143","471482","0.0-104.0-0.0","01270406","wem/bandit_either_2","A37S96RT1P1IT2","either","3","276","","","","","","","0","0","1","","0.3136585585","0.2","0.6","0.8","0.4","0.216118181","0.3136585585","0.4559228662","0.1592276408","","","","","","","","","","","","74","J","1","","","64","main_expt"
"","bandit","144","473284","0.0-105.0-0.0","01270406","wem/bandit_either_2","A37S96RT1P1IT2","either","3","276","","","","","","","1","0","0","0.3208042698","","0.2","0.6","0.8","0.4","","","","","0.1961712117","0.3208042698","0.4526438492","0.1881419285","","","","","","","","74","J","1","","","65","main_expt"
"","bandit","145","475159","0.0-106.0-0.0","01270406","wem/bandit_either_2","A37S96RT1P1IT2","either","3","341","","","","","","","0","0","1","","0.3550213758","0.2","0.6","0.8","0.4","0.1821057022","0.3550213758","0.4604690516","0.2075830042","","","","","","","","","","","","74","J","1","","","66","main_expt"
"","bandit","146","476928","0.0-107.0-0.0","01270406","wem/bandit_either_2","A37S96RT1P1IT2","either","3","230","","","","","","","1","0","0","0.2883445083","","0.2","0.6","0.8","0.4","","","","","0.2221692745","0.2883445083","0.4479534522","0.210321401","","","","","","","","74","J","1","","","67","main_expt"
"","bandit","147","478831","0.0-108.0-0.0","01270406","wem/bandit_either_2","A37S96RT1P1IT2","either","3","385","","","","","","","0","0","1","","0.2492112051","0.2","0.6","0.8","0.4","0.2385328342","0.2492112051","0.4420076102","0.1740681144","","","","","","","","","","","","74","J","1","","","68","main_expt"
"","bandit","148","480546","0.0-109.0-0.0","01270406","wem/bandit_either_2","A37S96RT1P1IT2","either","3","200","","","","","","","0","0","1","0.1725364023","","0.2","0.6","0.8","0.4","","","","","0.2693988132","0.1725364023","0.3840886122","0.1495678232","","","","","","","","74","J","1","","","69","main_expt"
"","bandit","149","482081","0.0-110.0-0.0","01270406","wem/bandit_either_2","A37S96RT1P1IT2","either","3","22","","","","","","","0","0","1","0.2081322216","","0.2","0.6","0.8","0.4","","","","","0.2633889128","0.2081322216","0.3764426572","0.1594524764","","","","","","","","74","J","1","","","70","main_expt"
"","bandit","150","483808","0.0-111.0-0.0","01270406","wem/bandit_either_2","A37S96RT1P1IT2","either","3","176","","","","","","","0","0","1","0.2222096595","","0.2","0.6","0.8","0.4","","","","","0.2881785301","0.2222096595","0.3925575972","0.1308665948","","","","","","","","74","J","1","","","71","main_expt"
"","bandit","151","485881","0.0-112.0-0.0","01270406","wem/bandit_either_2","A37S96RT1P1IT2","either","3","543","","","","","","","0","0","1","0.2276413934","","0.2","0.6","0.8","0.4","","","","","0.3496752211","0.2276413934","0.4055717031","0.1413665491","","","","","","","","74","J","1","","","72","main_expt"
"","bandit","152","487739","0.0-113.0-0.0","01270406","wem/bandit_either_2","A37S96RT1P1IT2","either","3","340","","","","","","","0","0","1","0.202726327","","0.2","0.6","0.8","0.4","","","","","0.3662649551","0.202726327","0.4313753627","0.1562096843","","","","","","","","74","J","1","","","73","main_expt"
"","bandit","153","489767","0.0-114.0-0.0","01270406","wem/bandit_either_2","A37S96RT1P1IT2","either","3","491","","","","","","","0","0","1","0.2465356434","","0.2","0.6","0.8","0.4","","","","","0.3318597218","0.2465356434","0.4294283137","0.1601549975","","","","","","","","74","J","1","","","74","main_expt"
"","bandit","154","491635","0.0-115.0-0.0","01270406","wem/bandit_either_2","A37S96RT1P1IT2","either","3","353","","","","","","","1","0","0","0.2780880013","","0.2","0.6","0.8","0.4","","","","","0.3129946244","0.2780880013","0.4114775526","0.1962365409","","","","","","","","74","J","1","","","75","main_expt"
"","bandit","155","493564","0.0-116.0-0.0","01270406","wem/bandit_either_2","A37S96RT1P1IT2","either","3","413","","","","","","","0","0","1","0.230570622","","0.2","0.6","0.8","0.4","","","","","0.3299880354","0.230570622","0.4038916894","0.2315068675","","","","","","","","74","J","1","","","76","main_expt"
"","bandit","156","495430","0.0-117.0-0.0","01270406","wem/bandit_either_2","A37S96RT1P1IT2","either","3","325","","","","","","","0","0","1","","0.1747897532","0.2","0.6","0.8","0.4","0.2704336052","0.1747897532","0.4028298088","0.1749603823","","","","","","","","","","","","74","J","1","","","77","main_expt"
"","bandit","157","497268","0.0-118.0-0.0","01270406","wem/bandit_either_2","A37S96RT1P1IT2","either","3","319","","","","","","","1","0","0","0.2009150394","","0.2","0.6","0.8","0.4","","","","","0.2489008917","0.2009150394","0.4004321452","0.2091975686","","","","","","","","74","J","1","","","78","main_expt"
"","bandit","158","499128","0.0-119.0-0.0","01270406","wem/bandit_either_2","A37S96RT1P1IT2","either","3","319","","","","","","","1","0","0","0.2090883318","","0.2","0.6","0.8","0.4","","","","","0.2182462247","0.2090883318","0.3909827091","0.2699334682","","","","","","","","74","J","1","","","79","main_expt"
"","bandit","159","500997","0.0-120.0-0.0","01270406","wem/bandit_either_2","A37S96RT1P1IT2","either","3","329","","","","","","","0","0","1","","0.215522018","0.2","0.6","0.8","0.4","0.1591694045","0.215522018","0.4289339141","0.2712134299","","","","","","","","","","","","74","J","1","","","80","main_expt"
"","bandit","160","502937","0.0-121.0-0.0","01270406","wem/bandit_either_2","A37S96RT1P1IT2","either","3","378","","","","","","","1","0","0","0.2655955182","","0.2","0.6","0.8","0.4","","","","","0.1661146317","0.2655955182","0.4256341571","0.2563236188","","","","","","","","74","J","1","","","81","main_expt"
"","bandit","161","504756","0.0-122.0-0.0","01270406","wem/bandit_either_2","A37S96RT1P1IT2","either","3","276","","","","","","","0","0","1","0.2642342948","","0.2","0.6","0.8","0.4","","","","","0.2249160828","0.2642342948","0.4153375647","0.2474856626","","","","","","","","74","J","1","","","82","main_expt"
"","bandit","162","506594","0.0-123.0-0.0","01270406","wem/bandit_either_2","A37S96RT1P1IT2","either","3","308","","","","","","","0","0","1","0.2615040017","","0.2","0.6","0.8","0.4","","","","","0.2194800234","0.2615040017","0.4239102097","0.2338037125","","","","","","","","74","J","1","","","83","main_expt"
"","bandit","163","508179","0.0-124.0-0.0","01270406","wem/bandit_either_2","A37S96RT1P1IT2","either","3","45","","","","","","","0","0","1","","0.3136368113","0.2","0.6","0.8","0.4","0.2020024956","0.3136368113","0.4021041833","0.2929655049","","","","","","","","","","","","74","J","1","","","84","main_expt"
"","bandit","164","509984","0.0-125.0-0.0","01270406","wem/bandit_either_2","A37S96RT1P1IT2","either","3","268","","","","","","","0","0","1","","0.2433538552","0.2","0.6","0.8","0.4","0.1639230135","0.2433538552","0.4322374594","0.2755572306","","","","","","","","","","","","74","J","1","","","85","main_expt"
"","bandit","165","511694","0.0-126.0-0.0","01270406","wem/bandit_either_2","A37S96RT1P1IT2","either","3","187","","","","","","","0","0","1","","0.2583740773","0.2","0.6","0.8","0.4","0.1423092638","0.2583740773","0.4247618508","0.2706615249","","","","","","","","","","","","74","J","1","","","86","main_expt"
"","bandit","166","513329","0.0-127.0-0.0","01270406","wem/bandit_either_2","A37S96RT1P1IT2","either","3","102","","","","","","","0","0","1","0.2656778135","","0.2","0.6","0.8","0.4","","","","","0.1623313408","0.2656778135","0.4130492334","0.3259805539","","","","","","","","74","J","1","","","87","main_expt"
"","bandit","167","514868","0.0-128.0-0.0","01270406","wem/bandit_either_2","A37S96RT1P1IT2","either","3","22","","","","","","","0","0","1","0.3883747858","","0.2","0.6","0.8","0.4","","","","","0.1459946163","0.2565525481","0.3883747858","0.3471137027","","","","","","","","75","K","2","","","88","main_expt"
"","bandit","168","516693","0.0-129.0-0.0","01270406","wem/bandit_either_2","A37S96RT1P1IT2","either","3","295","","","","","","","0","1","0","","0.3950807547","0.2","0.6","0.8","0.4","0.1684807643","0.2471999074","0.3950807547","0.3715311126","","","","","","","","","","","","75","K","2","","","89","main_expt"
"","bandit","169","518622","0.0-130.0-0.0","01270406","wem/bandit_either_2","A37S96RT1P1IT2","either","3","379","","","","","","","0","0","1","0.420982679","","0.2","0.6","0.8","0.4","","","","","0.1937692241","0.2204199549","0.420982679","0.3571728809","","","","","","","","75","K","2","","","90","main_expt"
"","bandit","170","520410","0.0-131.0-0.0","01270406","wem/bandit_either_2","A37S96RT1P1IT2","either","3","257","","","","","","","0","0","1","0.4012606491","","0.2","0.6","0.8","0.4","","","","","0.1670397906","0.2013548925","0.4012606491","0.3348642023","","","","","","","","75","K","2","","","91","main_expt"
"","bandit","171","522138","0.0-132.0-0.0","01270406","wem/bandit_either_2","A37S96RT1P1IT2","either","3","175","","","","","","","1","0","0","0.3950870333","","0.2","0.6","0.8","0.4","","","","","0.1936095216","0.174921714","0.3950870333","0.3551195155","","","","","","","","75","K","2","","","92","main_expt"
"","bandit","172","524128","0.0-133.0-0.0","01270406","wem/bandit_either_2","A37S96RT1P1IT2","either","3","440","","","","","","","0","0","1","0.3797372222","","0.2","0.6","0.8","0.4","","","","","0.2399824117","0.1972058505","0.3797372222","0.3494458231","","","","","","","","75","K","2","","","93","main_expt"
"","bandit","173","526147","0.0-134.0-0.0","01270406","wem/bandit_either_2","A37S96RT1P1IT2","either","3","479","","","","","","","0","0","1","0.3346339076","","0.2","0.6","0.8","0.4","","","","","0.242536602","0.2144007407","0.3346339076","0.3759818745","","","","","","","","75","K","2","","","94","main_expt"
"","bandit","174","528049","0.0-135.0-0.0","01270406","wem/bandit_either_2","A37S96RT1P1IT2","either","3","380","","","","","","","0","0","1","0.3433005441","","0.2","0.6","0.8","0.4","","","","","0.3081296623","0.2025691914","0.3433005441","0.3467088588","","","","","","","","75","K","2","","","95","main_expt"
"","bandit","175","529990","0.0-136.0-0.0","01270406","wem/bandit_either_2","A37S96RT1P1IT2","either","3","400","","","","","","","0","1","0","","0.2900415689","0.2","0.6","0.8","0.4","0.371766452","0.1750118246","0.2900415689","0.3520186383","","","","","","","","","","","","75","K","2","","","96","main_expt"
"","bandit","176","531940","0.0-137.0-0.0","01270406","wem/bandit_either_2","A37S96RT1P1IT2","either","3","423","","","","","","","1","0","0","0.3136050561","","0.2","0.6","0.8","0.4","","","","","0.3737721809","0.2433812568","0.3136050561","0.342216001","","","","","","","","75","K","2","","","97","main_expt"
"","bandit","177","533769","0.0-138.0-0.0","01270406","wem/bandit_either_2","A37S96RT1P1IT2","either","3","296","","","","","","","1","0","0","0.3236610102","","0.2","0.6","0.8","0.4","","","","","0.3662625892","0.1834100281","0.3236610102","0.3775958225","","","","","","","","75","K","2","","","98","main_expt"
"","bandit","178","535557","0.0-139.0-0.0","01270406","wem/bandit_either_2","A37S96RT1P1IT2","either","3","255","","","","","","","1","0","0","0.3116662608","","0.2","0.6","0.8","0.4","","","","","0.3912879072","0.146161558","0.3116662608","0.3490624926","","","","","","","","75","K","2","","","99","main_expt"
"","bandit","179","537345","0.0-140.0-0.0","01270406","wem/bandit_either_2","A37S96RT1P1IT2","either","3","264","","","","","","","0","0","1","0.3806420769","","0.2","0.6","0.8","0.4","","","","","0.3916888764","0.1186266926","0.3806420769","0.3418910903","","","","","","","","75","K","2","","","100","main_expt"
"","bandit","180","539132","0.0-141.0-0.0","01270406","wem/bandit_either_2","A37S96RT1P1IT2","either","3","237","","","","","","","0","0","1","","0.3825052475","0.2","0.6","0.8","0.4","0.3803758031","0.1467879228","0.3825052475","0.3544055354","","","","","","","","","","","","75","K","2","","","101","main_expt"
"","bandit","181","540951","0.0-142.0-0.0","01270406","wem/bandit_either_2","A37S96RT1P1IT2","either","3","276","","","","","","","1","0","0","0.3799327693","","0.2","0.6","0.8","0.4","","","","","0.3685266224","0.1336514036","0.3799327693","0.3580864163","","","","","","","","75","K","2","","","102","main_expt"
"","bandit","182","542902","0.0-143.0-0.0","01270406","wem/bandit_either_2","A37S96RT1P1IT2","either","3","419","","","","","","","0","0","1","0.3502018886","","0.2","0.6","0.8","0.4","","","","","0.3754978655","0.1325092095","0.3502018886","0.336528594","","","","","","","","75","K","2","","","103","main_expt"
"","bandit","183","545111","0.0-144.0-0.0","01270406","wem/bandit_either_2","A37S96RT1P1IT2","either","3","684","","","","","","","0","0","1","","0.3443431466","0.2","0.6","0.8","0.4","0.4033056484","0.1162839287","0.3443431466","0.3190078166","","","","","","","","","","","","75","K","2","","","104","main_expt"
"","bandit","184","547006","0.0-145.0-0.0","01270406","wem/bandit_either_2","A37S96RT1P1IT2","either","3","353","","","","","","","0","1","0","","0.3551378046","0.2","0.6","0.8","0.4","0.3617388181","0.115620258","0.3551378046","0.3100940773","","","","","","","","","","","","75","K","2","","","105","main_expt"
"","bandit","185","549301","0.0-146.0-0.0","01270406","wem/bandit_either_2","A37S96RT1P1IT2","either","3","760","","","","","","","1","0","0","0.3177956882","","0.2","0.6","0.8","0.4","","","","","0.3656875331","0.1102569517","0.3177956882","0.2964842485","","","","","","","","75","K","2","","","106","main_expt"
"","bandit","186","551567","0.0-147.0-0.0","01270406","wem/bandit_either_2","A37S96RT1P1IT2","either","3","720","","","","","","","0","0","1","0.3463124521","","0.2","0.6","0.8","0.4","","","","","0.3478183852","0.110599846","0.3463124521","0.3224579283","","","","","","","","75","K","2","","","107","main_expt"
"","bandit","187","553538","0.0-148.0-0.0","01270406","wem/bandit_either_2","A37S96RT1P1IT2","either","3","448","","","","","","","0","0","1","0.330790185","","0.2","0.6","0.8","0.4","","","","","0.3715517583","0.1647947233","0.330790185","0.3365568187","","","","","","","","75","K","2","","","108","main_expt"
"","bandit","188","555173","0.0-149.0-0.0","01270406","wem/bandit_either_2","A37S96RT1P1IT2","either","3","104","","","","","","","0","0","1","","0.3259779601","0.2","0.6","0.8","0.4","0.3713851569","0.146095753","0.3259779601","0.3200824859","","","","","","","","","","","","75","K","2","","","109","main_expt"
"","bandit","189","557036","0.0-150.0-0.0","01270406","wem/bandit_either_2","A37S96RT1P1IT2","either","3","339","","","","","","","0","1","0","","0.3169053314","0.2","0.6","0.8","0.4","0.3401672382","0.1691954855","0.3169053314","0.3179471713","","","","","","","","","","","","75","K","2","","","110","main_expt"
"","bandit","190","560537","0.0-151.0-0.0","01270406","wem/bandit_either_2","A37S96RT1P1IT2","either","3","1958","","","","","","","0","0","1","","0.342138516","0.2","0.6","0.8","0.4","0.3242328008","0.1690298198","0.342138516","0.3168158386","","","","","","","","","","","","75","K","2","","","111","main_expt"
"","bandit","191","563672","0.0-152.0-0.0","01270406","wem/bandit_either_2","A37S96RT1P1IT2","either","3","1606","","","","","","","1","0","0","0.3597886873","","0.2","0.6","0.8","0.4","","","","","0.2991119965","0.2196992501","0.3597886873","0.3551606626","","","","","","","","75","K","2","","","112","main_expt"
"","bandit","192","565799","0.0-153.0-0.0","01270406","wem/bandit_either_2","A37S96RT1P1IT2","either","3","601","","","","","","","0","0","1","0.3580549124","","0.2","0.6","0.8","0.4","","","","","0.3364281798","0.2723467559","0.3580549124","0.3615444015","","","","","","","","75","K","2","","","113","main_expt"
"","bandit","193","567801","0.0-154.0-0.0","01270406","wem/bandit_either_2","A37S96RT1P1IT2","either","3","460","","","","","","","0","0","1","0.3556181037","","0.2","0.6","0.8","0.4","","","","","0.3495122724","0.2470985199","0.3556181037","0.4043222556","","","","","","","","75","K","2","","","114","main_expt"
"","bandit","194","569869","0.0-155.0-0.0","01270406","wem/bandit_either_2","A37S96RT1P1IT2","either","3","552","","","","","","","1","0","0","0.3489042174","","0.2","0.6","0.8","0.4","","","","","0.324938203","0.2482590513","0.3489042174","0.4179696435","","","","","","","","75","K","2","","","115","main_expt"
"","bandit","195","571986","0.0-156.0-0.0","01270406","wem/bandit_either_2","A37S96RT1P1IT2","either","3","594","","","","","","","1","0","0","0.3466245191","","0.2","0.6","0.8","0.4","","","","","0.3227512736","0.1992012358","0.3466245191","0.4324393975","","","","","","","","75","K","2","","","116","main_expt"
"","bandit","196","574461","0.0-157.0-0.0","01270406","wem/bandit_either_2","A37S96RT1P1IT2","either","3","947","","","","","","","1","0","0","0.3581754781","","0.2","0.6","0.8","0.4","","","","","0.2585209305","0.216355905","0.3581754781","0.4290779421","","","","","","","","75","K","2","","","117","main_expt"
"","bandit","197","576740","0.0-158.0-0.0","01270406","wem/bandit_either_2","A37S96RT1P1IT2","either","3","753","","","","","","","1","0","0","0.283939031","","0.2","0.6","0.8","0.4","","","","","0.2817260076","0.1715453935","0.283939031","0.4459264202","","","","","","","","75","K","2","","","118","main_expt"
"","bandit","198","578457","0.0-159.0-0.0","01270406","wem/bandit_either_2","A37S96RT1P1IT2","either","3","185","","","","","","","0","0","1","0.2992634423","","0.2","0.6","0.8","0.4","","","","","0.328214026","0.1843456939","0.2992634423","0.436995295","","","","","","","","75","K","2","","","119","main_expt"
"","bandit","199","580804","0.0-160.0-0.0","01270406","wem/bandit_either_2","A37S96RT1P1IT2","either","3","822","","","","","","","0","0","1","0.1878150733","","0.2","0.6","0.8","0.4","","","","","0.3355603121","0.1848061615","0.1878150733","0.4151314625","","","","","","","","75","K","2","","","120","main_expt"
"","bandit","200","582430","0.0-161.0-0.0","01270406","wem/bandit_either_2","A37S96RT1P1IT2","either","3","111","","","","","","","1","0","0","0.1447458933","","0.2","0.6","0.8","0.4","","","","","0.3829587724","0.1679578636","0.1447458933","0.4384064527","","","","","","","","75","K","2","","","121","main_expt"
"","bandit","201","584395","0.0-162.0-0.0","01270406","wem/bandit_either_2","A37S96RT1P1IT2","either","3","447","","","","","","","0","0","1","0.1176060398","","0.2","0.6","0.8","0.4","","","","","0.3995678287","0.197295971","0.1176060398","0.4417589501","","","","","","","","75","K","2","","","122","main_expt"
"","bandit","202","586634","0.0-163.0-0.0","01270406","wem/bandit_either_2","A37S96RT1P1IT2","either","3","707","","","","","","","0","0","1","0.1097677055","","0.2","0.6","0.8","0.4","","","","","0.3656739583","0.2184653352","0.1097677055","0.4017154396","","","","","","","","75","K","2","","","123","main_expt"
"","bandit","203","588464","0.0-164.0-0.0","01270406","wem/bandit_either_2","A37S96RT1P1IT2","either","3","294","","","","","","","1","0","0","0.08048168986","","0.2","0.6","0.8","0.4","","","","","0.3862549257","0.2147868977","0.08048168986","0.3619070526","","","","","","","","75","K","2","","","124","main_expt"
"","bandit","204","591836","0.0-165.0-0.0","01270406","wem/bandit_either_2","A37S96RT1P1IT2","either","3","1844","","","","","","","0","0","1","0.07842900555","","0.2","0.6","0.8","0.4","","","","","0.3593796239","0.1667936559","0.07842900555","0.3567490645","","","","","","","","75","K","2","","","125","main_expt"
"","bandit","205","593400","0.0-166.0-0.0","01270406","wem/bandit_either_2","A37S96RT1P1IT2","either","3","34","","","","","","","0","0","1","0.08318363027","","0.2","0.6","0.8","0.4","","","","","0.3413194209","0.1453295256","0.08318363027","0.3558473019","","","","","","","","75","K","2","","","126","main_expt"
"","bandit","206","595401","0.0-167.0-0.0","01270406","wem/bandit_either_2","A37S96RT1P1IT2","either","3","481","","","","","","","0","0","1","0.06812438963","","0.2","0.6","0.8","0.4","","","","","0.3369929262","0.1635755653","0.06812438963","0.3543069734","","","","","","","","75","K","2","","","127","main_expt"
"","bandit","207","597932","0.0-168.0-0.0","01270406","wem/bandit_either_2","A37S96RT1P1IT2","either","3","988","","","","","","","0","1","0","","0.3328374851","0.2","0.6","0.8","0.4","0.2922989636","0.1872639566","0.08303766286","0.3328374851","","","","","","","","","","","","76","L","3","","","128","main_expt"
"","bandit","208","599740","0.0-169.0-0.0","01270406","wem/bandit_either_2","A37S96RT1P1IT2","either","3","275","","","","","","","0","0","1","0.3238683282","","0.2","0.6","0.8","0.4","","","","","0.3095146075","0.2032718864","0.09047360051","0.3238683282","","","","","","","","76","L","3","","","129","main_expt"
"","bandit","209","601731","0.0-170.0-0.0","01270406","wem/bandit_either_2","A37S96RT1P1IT2","either","3","454","","","","","","","1","0","0","0.2750329062","","0.2","0.6","0.8","0.4","","","","","0.3068425872","0.2025864764","0.131542256","0.2750329062","","","","","","","","76","L","3","","","130","main_expt"
"","bandit","210","603707","0.0-171.0-0.0","01270406","wem/bandit_either_2","A37S96RT1P1IT2","either","3","437","","","","","","","0","0","1","","0.2751886228","0.2","0.6","0.8","0.4","0.3112504131","0.2158584071","0.1492019489","0.2751886228","","","","","","","","","","","","76","L","3","","","131","main_expt"
"","bandit","211","605516","0.0-172.0-0.0","01270406","wem/bandit_either_2","A37S96RT1P1IT2","either","3","269","","","","","","","0","0","1","","0.2729729886","0.2","0.6","0.8","0.4","0.3595653039","0.2105840197","0.1571188116","0.2729729886","","","","","","","","","","","","76","L","3","","","132","main_expt"
"","bandit","212","607277","0.0-173.0-0.0","01270406","wem/bandit_either_2","A37S96RT1P1IT2","either","3","213","","","","","","","1","0","0","0.3248088544","","0.2","0.6","0.8","0.4","","","","","0.3873527377","0.2328486735","0.2021073832","0.3248088544","","","","","","","","76","L","3","","","133","main_expt"
"","bandit","213","609167","0.0-174.0-0.0","01270406","wem/bandit_either_2","A37S96RT1P1IT2","either","3","354","","","","","","","0","1","0","","0.3596446835","0.2","0.6","0.8","0.4","0.3973884711","0.2589092944","0.2693148074","0.3596446835","","","","","","","","","","","","76","L","3","","","134","main_expt"
"","bandit","214","610975","0.0-175.0-0.0","01270406","wem/bandit_either_2","A37S96RT1P1IT2","either","3","254","","","","","","","0","0","1","","0.318377279","0.2","0.6","0.8","0.4","0.4080523157","0.2637326353","0.2625780805","0.318377279","","","","","","","","","","","","76","L","3","","","135","main_expt"
"","bandit","215","612763","0.0-176.0-0.0","01270406","wem/bandit_either_2","A37S96RT1P1IT2","either","3","234","","","","","","","0","0","1","0.3160887017","","0.2","0.6","0.8","0.4","","","","","0.4176503084","0.2718680576","0.2981707722","0.3160887017","","","","","","","","76","L","3","","","136","main_expt"
"","bandit","216","614498","0.0-177.0-0.0","01270406","wem/bandit_either_2","A37S96RT1P1IT2","either","3","215","","","","","","","0","0","1","","0.2883225013","0.2","0.6","0.8","0.4","0.3859803947","0.2919957672","0.3148158286","0.2883225013","","","","","","","","","","","","76","L","3","","","137","main_expt"
"","bandit","217","616379","0.0-178.0-0.0","01270406","wem/bandit_either_2","A37S96RT1P1IT2","either","3","349","","","","","","","0","0","1","0.3009152141","","0.2","0.6","0.8","0.4","","","","","0.358492916","0.3193993407","0.3111523267","0.3009152141","","","","","","","","76","L","3","","","138","main_expt"
"","bandit","218","618580","0.0-179.0-0.0","01270406","wem/bandit_either_2","A37S96RT1P1IT2","either","3","676","","","","","","","0","0","1","","0.293720077","0.2","0.6","0.8","0.4","0.3608756281","0.3404434035","0.3034593298","0.293720077","","","","","","","","","","","","76","L","3","","","139","main_expt"
"","bandit","219","620422","0.0-180.0-0.0","01270406","wem/bandit_either_2","A37S96RT1P1IT2","either","3","289","","","","","","","0","0","1","0.286059761","","0.2","0.6","0.8","0.4","","","","","0.3421836092","0.3278052243","0.2507495005","0.286059761","","","","","","","","76","L","3","","","140","main_expt"
"","bandit","220","622024","0.0-181.0-0.0","01270406","wem/bandit_either_2","A37S96RT1P1IT2","either","3","72","","","","","","","0","0","1","","0.2931724706","0.2","0.6","0.8","0.4","0.3737340371","0.3038906839","0.2220694513","0.2931724706","","","","","","","","","","","","76","L","3","","","141","main_expt"
"","bandit","221","623573","0.0-182.0-0.0","01270406","wem/bandit_either_2","A37S96RT1P1IT2","either","3","30","","","","","","","0","0","1","","0.3461121542","0.2","0.6","0.8","0.4","0.3461121542","0.2924195757","0.2119249064","0.2182180164","","","","","","","","","","","","72","H","0","img/none_selected.jpg","","142","main_expt"
"","bandit","222","625442","0.0-183.0-0.0","01270406","wem/bandit_either_2","A37S96RT1P1IT2","either","3","345","","","","","","","0","1","0","","0.3305931074","0.2","0.6","0.8","0.4","0.3305931074","0.2816149275","0.2665135591","0.2015475508","","","","","","","","","","","","72","H","0","img/none_selected.jpg","","143","main_expt"
"","bandit","223","627351","0.0-184.0-0.0","01270406","wem/bandit_either_2","A37S96RT1P1IT2","either","3","380","","","","","","","0","1","0","","0.3561039987","0.2","0.6","0.8","0.4","0.3561039987","0.2355525614","0.2854155153","0.2074070562","","","","","","","","","","","","72","H","0","img/none_selected.jpg","","144","main_expt"
"","bandit","224","629363","0.0-185.0-0.0","01270406","wem/bandit_either_2","A37S96RT1P1IT2","either","3","473","","","","","","","0","0","1","0.3648023512","","0.2","0.6","0.8","0.4","","","","","0.3648023512","0.2185662272","0.2521048148","0.1415368311","","","","","","","","72","H","0","img/none_selected.jpg","","145","main_expt"
"","bandit","225","631231","0.0-186.0-0.0","01270406","wem/bandit_either_2","A37S96RT1P1IT2","either","3","326","","","","","","","0","0","1","","0.3450315","0.2","0.6","0.8","0.4","0.3450315","0.2209315791","0.2321266643","0.1549520657","","","","","","","","","","","","72","H","0","img/none_selected.jpg","","146","main_expt"
"","bandit","226","633089","0.0-187.0-0.0","01270406","wem/bandit_either_2","A37S96RT1P1IT2","either","3","333","","","","","","","0","0","1","","0.2720321141","0.2","0.6","0.8","0.4","0.2720321141","0.2889766311","0.3159383216","0.1469310363","","","","","","","","","","","","72","H","0","img/none_selected.jpg","","147","main_expt"
"","bandit","227","635254","0.0-188.0-0.0","01270406","wem/bandit_either_2","A37S96RT1P1IT2","either","3","630","","","","","","","0","0","1","","0.2598972664","0.2","0.6","0.8","0.4","0.2598972664","0.2859466156","0.2673485129","0.1332828417","","","","","","","","","","","","72","H","0","img/none_selected.jpg","","148","main_expt"
"","bandit","228","636791","0.0-189.0-0.0","01270406","wem/bandit_either_2","A37S96RT1P1IT2","either","3","21","","","","","","","0","0","1","","0.2588478233","0.2","0.6","0.8","0.4","0.2343157719","0.2588478233","0.3348600541","0.1102010463","","","","","","","","","","","","74","J","1","","","149","main_expt"
"","bandit","229","638627","0.0-190.0-0.0","01270406","wem/bandit_either_2","A37S96RT1P1IT2","either","3","299","","","","","","","0","0","1","0.2224653457","","0.2","0.6","0.8","0.4","","","","","0.2451363599","0.2224653457","0.3659656834","0.1356103494","","","","","","","","74","J","1","","","150","main_expt"
"","bandit","230","640413","0.0-191.0-0.0","01270406","wem/bandit_either_2","A37S96RT1P1IT2","either","3","263","","","","","","","0","1","0","","0.2387237716","0.2","0.6","0.8","0.4","0.2053737132","0.2387237716","0.36397653","0.1621229287","","","","","","","","","","","","74","J","1","","","151","main_expt"
"","bandit","231","642280","0.0-192.0-0.0","01270406","wem/bandit_either_2","A37S96RT1P1IT2","either","3","335","","","","","","","0","0","1","","0.2519133504","0.2","0.6","0.8","0.4","0.2396242378","0.2519133504","0.3710672623","0.1412745606","","","","","","","","","","","","74","J","1","","","152","main_expt"
"","bandit","232","644204","0.0-193.0-0.0","01270406","wem/bandit_either_2","A37S96RT1P1IT2","either","3","397","","","","","","","0","0","1","","0.3078499427","0.2","0.6","0.8","0.4","0.2923277395","0.3078499427","0.3828607765","0.1707580034","","","","","","","","","","","","74","J","1","","","153","main_expt"
"","bandit","233","646053","0.0-194.0-0.0","01270406","wem/bandit_either_2","A37S96RT1P1IT2","either","3","293","","","","","","","0","0","1","0.3283820497","","0.2","0.6","0.8","0.4","","","","","0.3166515581","0.3283820497","0.3526468527","0.1717455462","","","","","","","","74","J","1","","","154","main_expt"
"","bandit","234","647942","0.0-195.0-0.0","01270406","wem/bandit_either_2","A37S96RT1P1IT2","either","3","363","","","","","","","1","0","0","0.3303057687","","0.2","0.6","0.8","0.4","","","","","0.3194616596","0.3303057687","0.3865981945","0.1785539081","","","","","","","","74","J","1","","","155","main_expt"
"","bandit","235","649891","0.0-196.0-0.0","01270406","wem/bandit_either_2","A37S96RT1P1IT2","either","3","415","","","","","","","0","0","1","0.3178912443","","0.2","0.6","0.8","0.4","","","","","0.3767011333","0.3178912443","0.4328422877","0.2175815231","","","","","","","","74","J","1","","","156","main_expt"
"","bandit","236","651427","0.0-197.0-0.0","01270406","wem/bandit_either_2","A37S96RT1P1IT2","either","3","3","","","","","","","0","0","1","","0.3236874272","0.2","0.6","0.8","0.4","0.3853144204","0.3236874272","0.4224906378","0.216674397","","","","","","","","","","","","74","J","1","","","157","main_expt"
"","bandit","237","653255","0.0-198.0-0.0","01270406","wem/bandit_either_2","A37S96RT1P1IT2","either","3","301","","","","","","","1","0","0","0.3731337511","","0.2","0.6","0.8","0.4","","","","","0.3519128793","0.3731337511","0.4428847078","0.2184316938","","","","","","","","74","J","1","","","158","main_expt"
"","bandit","238","655092","0.0-199.0-0.0","01270406","wem/bandit_either_2","A37S96RT1P1IT2","either","3","315","","","","","","","1","0","0","0.3758107074","","0.2","0.6","0.8","0.4","","","","","0.3255157266","0.3758107074","0.4498083842","0.2603966468","","","","","","","","74","J","1","","","159","main_expt"
"","bandit","239","657121","0.0-200.0-0.0","01270406","wem/bandit_either_2","A37S96RT1P1IT2","either","3","499","","","","","","","1","0","0","0.3494215766","","0.2","0.6","0.8","0.4","","","","","0.379238532","0.3494215766","0.4319550234","0.2242017374","","","","","","","","74","J","1","","","160","main_expt"
"","bandit","240","659016","0.0-201.0-0.0","01270406","wem/bandit_either_2","A37S96RT1P1IT2","either","3","370","","","","","","","0","1","0","","0.3327111917","0.2","0.6","0.8","0.4","0.3776335756","0.3327111917","0.4417514389","0.2014027125","","","","","","","","","","","","74","J","1","","","161","main_expt"
"","bandit","241","660976","0.0-202.0-0.0","01270406","wem/bandit_either_2","A37S96RT1P1IT2","either","3","438","","","","","","","0","0","1","0.3171011618","","0.2","0.6","0.8","0.4","","","","","0.2955751891","0.3171011618","0.4081293495","0.2038621466","","","","","","","","74","J","1","","","162","main_expt"
"","bandit","242","662987","0.0-203.0-0.0","01270406","wem/bandit_either_2","A37S96RT1P1IT2","either","3","456","","","","","","","0","0","1","","0.364183239","0.2","0.6","0.8","0.4","0.30851492","0.364183239","0.4265776113","0.1238136799","","","","","","","","","","","","74","J","1","","","163","main_expt"
"","bandit","243","664816","0.0-204.0-0.0","01270406","wem/bandit_either_2","A37S96RT1P1IT2","either","3","295","","","","","","","0","0","1","0.3917374524","","0.2","0.6","0.8","0.4","","","","","0.3074756362","0.3917374524","0.427472809","0.1104941302","","","","","","","","74","J","1","","","164","main_expt"
"","bandit","244","666680","0.0-205.0-0.0","01270406","wem/bandit_either_2","A37S96RT1P1IT2","either","3","336","","","","","","","1","0","0","0.3629360172","","0.2","0.6","0.8","0.4","","","","","0.2743039079","0.3629360172","0.4016343469","0.1099358877","","","","","","","","74","J","1","","","165","main_expt"
"","bandit","245","668565","0.0-206.0-0.0","01270406","wem/bandit_either_2","A37S96RT1P1IT2","either","3","328","","","","","","","0","0","1","0.3697042915","","0.2","0.6","0.8","0.4","","","","","0.2900226329","0.3697042915","0.3578169927","0.08082918558","","","","","","","","74","J","1","","","166","main_expt"
"","bandit","246","670616","0.0-207.0-0.0","01270406","wem/bandit_either_2","A37S96RT1P1IT2","either","3","516","","","","","","","0","0","1","","0.3626443337","0.2","0.6","0.8","0.4","0.3444017494","0.3626443337","0.3346076013","0.08539074978","","","","","","","","","","","","74","J","1","","","167","main_expt"
"","bandit","247","672832","0.0-208.0-0.0","01270406","wem/bandit_either_2","A37S96RT1P1IT2","either","3","680","","","","","","","1","0","0","0.3488380128","","0.2","0.6","0.8","0.4","","","","","0.3934904689","0.3488380128","0.36326211","0.1307687804","","","","","","","","74","J","1","","","168","main_expt"
"","bandit","248","674781","0.0-209.0-0.0","01270406","wem/bandit_either_2","A37S96RT1P1IT2","either","3","413","","","","","","","0","0","1","0.3338465455","","0.2","0.6","0.8","0.4","","","","","0.3712778229","0.3338465455","0.3389060657","0.09435724838","","","","","","","","74","J","1","","","169","main_expt"
"","bandit","249","676630","0.0-210.0-0.0","01270406","wem/bandit_either_2","A37S96RT1P1IT2","either","3","331","","","","","","","0","1","0","","0.3675902536","0.2","0.6","0.8","0.4","0.3348119161","0.3675902536","0.3820287301","0.09371103674","","","","","","","","","","","","74","J","1","","","170","main_expt"
"","bandit","250","678805","0.0-211.0-0.0","01270406","wem/bandit_either_2","A37S96RT1P1IT2","either","3","640","","","","","","","0","0","1","0.3663425941","","0.2","0.6","0.8","0.4","","","","","0.3697689907","0.3663425941","0.3738350687","0.0912992704","","","","","","","","74","J","1","","","171","main_expt"
"","bandit","251","680684","0.0-212.0-0.0","01270406","wem/bandit_either_2","A37S96RT1P1IT2","either","3","334","","","","","","","0","0","1","0.3571019768","","0.2","0.6","0.8","0.4","","","","","0.3438364448","0.3571019768","0.3449486646","0.1053216192","","","","","","","","74","J","1","","","172","main_expt"
"","bandit","252","682665","0.0-213.0-0.0","01270406","wem/bandit_either_2","A37S96RT1P1IT2","either","3","461","","","","","","","0","0","1","0.383943734","","0.2","0.6","0.8","0.4","","","","","0.4064517123","0.383943734","0.3754463001","0.1119971747","","","","","","","","74","J","1","","","173","main_expt"
"","bandit","253","684605","0.0-214.0-0.0","01270406","wem/bandit_either_2","A37S96RT1P1IT2","either","3","397","","","","","","","0","0","1","0.378453819","","0.2","0.6","0.8","0.4","","","","","0.4266345201","0.378453819","0.3983783957","0.1049574405","","","","","","","","74","J","1","","","174","main_expt"
"","bandit","254","686474","0.0-215.0-0.0","01270406","wem/bandit_either_2","A37S96RT1P1IT2","either","3","340","","","","","","","0","0","1","0.4176958341","","0.2","0.6","0.8","0.4","","","","","0.4413212306","0.3577460836","0.4176958341","0.07351671593","","","","","","","","75","K","2","","","175","main_expt"
"","bandit","255","688217","0.0-216.0-0.0","01270406","wem/bandit_either_2","A37S96RT1P1IT2","either","3","203","","","","","","","0","0","1","0.4336280271","","0.2","0.6","0.8","0.4","","","","","0.438548454","0.3346789668","0.4336280271","0.06097876817","","","","","","","","75","K","2","","","176","main_expt"
"","bandit","256","690050","0.0-217.0-0.0","01270406","wem/bandit_either_2","A37S96RT1P1IT2","either","3","308","","","","","","","1","0","0","0.3863917124","","0.2","0.6","0.8","0.4","","","","","0.4350726265","0.3720341948","0.3863917124","0.05873143133","","","","","","","","75","K","2","","","177","main_expt"
"","bandit","257","691983","0.0-218.0-0.0","01270406","wem/bandit_either_2","A37S96RT1P1IT2","either","3","409","","","","","","","0","0","1","0.3826512014","","0.2","0.6","0.8","0.4","","","","","0.4029859975","0.4243236705","0.3826512014","0.07829718294","","","","","","","","75","K","2","","","178","main_expt"
"","bandit","258","693870","0.0-219.0-0.0","01270406","wem/bandit_either_2","A37S96RT1P1IT2","either","3","341","","","","","","","0","0","1","0.3681046487","","0.2","0.6","0.8","0.4","","","","","0.3738585124","0.4396564102","0.3681046487","0.05868413977","","","","","","","","75","K","2","","","179","main_expt"
"","bandit","259","695742","0.0-220.0-0.0","01270406","wem/bandit_either_2","A37S96RT1P1IT2","either","3","352","","","","","","","0","0","1","0.374340785","","0.2","0.6","0.8","0.4","","","","","0.3884150149","0.4501825932","0.374340785","0.04540529238","","","","","","","","75","K","2","","","180","main_expt"
"","bandit","260","697547","0.0-221.0-0.0","01270406","wem/bandit_either_2","A37S96RT1P1IT2","either","3","258","","","","","","","0","0","1","0.3844034803","","0.2","0.6","0.8","0.4","","","","","0.3977335033","0.4527537228","0.3844034803","0.04810206047","","","","","","","","75","K","2","","","181","main_expt"
"","bandit","261","699586","0.0-222.0-0.0","01270406","wem/bandit_either_2","A37S96RT1P1IT2","either","3","505","","","","","","","0","0","1","0.3569363444","","0.2","0.6","0.8","0.4","","","","","0.4194204302","0.4733821952","0.3569363444","0.0564969073","","","","","","","","75","K","2","","","182","main_expt"
"","bandit","262","701211","0.0-223.0-0.0","01270406","wem/bandit_either_2","A37S96RT1P1IT2","either","3","104","","","","","","","0","1","0","","0.4050300101","0.2","0.6","0.8","0.4","0.4050300101","0.4741352064","0.3930074682","0.06674959941","","","","","","","","","","","","72","H","0","img/none_selected.jpg","","183","main_expt"
"","bandit","263","702943","0.0-224.0-0.0","01270406","wem/bandit_either_2","A37S96RT1P1IT2","either","3","214","","","","","","","0","0","1","","0.4272992256","0.2","0.6","0.8","0.4","0.4272992256","0.4835015011","0.4105724965","0.05730522946","","","","","","","","","","","","72","H","0","img/none_selected.jpg","","184","main_expt"
"","bandit","264","705101","0.0-225.0-0.0","01270406","wem/bandit_either_2","A37S96RT1P1IT2","either","3","635","","","","","","","0","0","1","","0.4213026748","0.2","0.6","0.8","0.4","0.4213026748","0.4907566516","0.4230276401","0.0759668512","","","","","","","","","","","","72","H","0","img/none_selected.jpg","","185","main_expt"
"","bandit","265","706919","0.0-226.0-0.0","01270406","wem/bandit_either_2","A37S96RT1P1IT2","either","3","297","","","","","","","0","0","1","0.3729626057","","0.2","0.6","0.8","0.4","","","","","0.3729626057","0.4777100538","0.4243078066","0.0736669194","","","","","","","","72","H","0","img/none_selected.jpg","","186","main_expt"
"","bandit","266","708477","0.0-227.0-0.0","01270406","wem/bandit_either_2","A37S96RT1P1IT2","either","3","40","","","","","","","0","1","0","","0.4751658893","0.2","0.6","0.8","0.4","0.4022080601","0.4751658893","0.419104652","0.1020870739","","","","","","","","","","","","74","J","1","","","187","main_expt"
"","bandit","267","710231","0.0-228.0-0.0","01270406","wem/bandit_either_2","A37S96RT1P1IT2","either","3","235","","","","","","","0","0","1","0.4711403756","","0.2","0.6","0.8","0.4","","","","","0.4218987807","0.4711403756","0.3917910895","0.110066606","","","","","","","","74","J","1","","","188","main_expt"
"","bandit","268","712075","0.0-229.0-0.0","01270406","wem/bandit_either_2","A37S96RT1P1IT2","either","3","288","","","","","","","0","1","0","","0.4848283219","0.2","0.6","0.8","0.4","0.4284519853","0.4848283219","0.3696037293","0.1616324423","","","","","","","","","","","","74","J","1","","","189","main_expt"
"","bandit","269","713934","0.0-230.0-0.0","01270406","wem/bandit_either_2","A37S96RT1P1IT2","either","3","305","","","","","","","1","0","0","0.4906713727","","0.2","0.6","0.8","0.4","","","","","0.4104863902","0.4906713727","0.3722688899","0.1401199573","","","","","","","","74","J","1","","","190","main_expt"
"","bandit","270","715823","0.0-231.0-0.0","01270406","wem/bandit_either_2","A37S96RT1P1IT2","either","3","363","","","","","","","1","0","0","0.4944082075","","0.2","0.6","0.8","0.4","","","","","0.4071825693","0.4944082075","0.3956575009","0.1782786715","","","","","","","","74","J","1","","","191","main_expt"
"","bandit","271","717652","0.0-232.0-0.0","01270406","wem/bandit_either_2","A37S96RT1P1IT2","either","3","304","","","","","","","0","0","1","0.4922337742","","0.2","0.6","0.8","0.4","","","","","0.4172763132","0.4922337742","0.3843500594","0.203517815","","","","","","","","74","J","1","","","192","main_expt"
"","bandit","272","719520","0.0-233.0-0.0","01270406","wem/bandit_either_2","A37S96RT1P1IT2","either","3","349","","","","","","","1","0","0","0.4887356563","","0.2","0.6","0.8","0.4","","","","","0.3965334946","0.4887356563","0.3801723293","0.172030281","","","","","","","","74","J","1","","","193","main_expt"
"","bandit","273","721360","0.0-234.0-0.0","01270406","wem/bandit_either_2","A37S96RT1P1IT2","either","3","315","","","","","","","0","1","0","","0.4850955297","0.2","0.6","0.8","0.4","0.383316574","0.4850955297","0.3871645121","0.1813301739","","","","","","","","","","","","74","J","1","","","194","main_expt"
"","bandit","274","723828","0.0-235.0-0.0","01270406","wem/bandit_either_2","A37S96RT1P1IT2","either","3","933","","","","","","","0","0","1","0.4848341758","","0.2","0.6","0.8","0.4","","","","","0.3965345796","0.4848341758","0.3633903175","0.2284295163","","","","","","","","74","J","1","","","195","main_expt"
"","bandit","275","725880","0.0-236.0-0.0","01270406","wem/bandit_either_2","A37S96RT1P1IT2","either","3","495","","","","","","","0","1","0","","0.490049139","0.2","0.6","0.8","0.4","0.3978469093","0.490049139","0.3811675741","0.2501246714","","","","","","","","","","","","74","J","1","","","196","main_expt"
"","bandit","276","727851","0.0-237.0-0.0","01270406","wem/bandit_either_2","A37S96RT1P1IT2","either","3","449","","","","","","","1","0","0","0.4912643012","","0.2","0.6","0.8","0.4","","","","","0.3172926233","0.4912643012","0.3487868089","0.3150809007","","","","","","","","74","J","1","","","197","main_expt"
"","bandit","277","729832","0.0-238.0-0.0","01270406","wem/bandit_either_2","A37S96RT1P1IT2","either","3","437","","","","","","","0","0","1","","0.4793615714","0.2","0.6","0.8","0.4","0.3113170709","0.4793615714","0.2986771554","0.3442077965","","","","","","","","","","","","74","J","1","","","198","main_expt"
"","bandit","278","731793","0.0-239.0-0.0","01270406","wem/bandit_either_2","A37S96RT1P1IT2","either","3","406","","","","","","","0","0","1","0.4661622676","","0.2","0.6","0.8","0.4","","","","","0.3066116159","0.4661622676","0.3481418533","0.3675051223","","","","","","","","74","J","1","","","199","main_expt"
"","bandit","279","733657","0.0-240.0-0.0","01270406","wem/bandit_either_2","A37S96RT1P1IT2","either","3","338","","","","","","","0","1","0","","0.4479238565","0.2","0.6","0.8","0.4","0.2521122026","0.4479238565","0.353319573","0.3044821291","","","","","","","","","","","","74","J","1","","","200","main_expt"
"","bandit","280","736018","0.0-241.0-0.0","01270406","wem/bandit_either_2","A37S96RT1P1IT2","either","3","830","","","","","","","0","0","1","","0.4429166455","0.2","0.6","0.8","0.4","0.2679963248","0.4429166455","0.3676338631","0.3013824411","","","","","","","","","","","","74","J","1","","","201","main_expt"
"","bandit","281","738178","0.0-242.0-0.0","01270406","wem/bandit_either_2","A37S96RT1P1IT2","either","3","618","","","","","","","1","0","0","0.442820363","","0.2","0.6","0.8","0.4","","","","","0.2076546236","0.442820363","0.311657493","0.3001954661","","","","","","","","74","J","1","","","202","main_expt"
"","bandit","282","740387","0.0-243.0-0.0","01270406","wem/bandit_either_2","A37S96RT1P1IT2","either","3","674","","","","","","","0","0","1","0.4539008368","","0.2","0.6","0.8","0.4","","","","","0.1881707852","0.4539008368","0.3364041998","0.3189156814","","","","","","","","74","J","1","","","203","main_expt"
"","bandit","283","742418","0.0-244.0-0.0","01270406","wem/bandit_either_2","A37S96RT1P1IT2","either","3","496","","","","","","","0","0","1","0.4163307037","","0.2","0.6","0.8","0.4","","","","","0.2057853427","0.4163307037","0.3148670147","0.3162062407","","","","","","","","74","J","1","","","204","main_expt"
"","bandit","284","744287","0.0-245.0-0.0","01270406","wem/bandit_either_2","A37S96RT1P1IT2","either","3","333","","","","","","","1","0","0","0.4045388199","","0.2","0.6","0.8","0.4","","","","","0.2564451259","0.4045388199","0.3293187519","0.347278619","","","","","","","","74","J","1","","","205","main_expt"
"","bandit","285","746309","0.0-246.0-0.0","01270406","wem/bandit_either_2","A37S96RT1P1IT2","either","3","487","","","","","","","0","0","1","","0.4083422121","0.2","0.6","0.8","0.4","0.3082896296","0.4083422121","0.2705077244","0.2970129147","","","","","","","","","","","","74","J","1","","","206","main_expt"
"","bandit","286","748083","0.0-247.0-0.0","01270406","wem/bandit_either_2","A37S96RT1P1IT2","either","3","241","","","","","","","1","0","0","0.4033585138","","0.2","0.6","0.8","0.4","","","","","0.3235103938","0.4033585138","0.3083591011","0.3331481178","","","","","","","","74","J","1","","","207","main_expt"
"","bandit","287","750109","0.0-248.0-0.0","01270406","wem/bandit_either_2","A37S96RT1P1IT2","either","3","507","","","","","","","1","0","0","0.3753320851","","0.2","0.6","0.8","0.4","","","","","0.3563539536","0.3753320851","0.2489273718","0.3195917859","","","","","","","","74","J","1","","","208","main_expt"
"","bandit","288","752414","0.0-249.0-0.0","01270406","wem/bandit_either_2","A37S96RT1P1IT2","either","3","758","","","","","","","0","0","1","0.3864970555","","0.2","0.6","0.8","0.4","","","","","0.3821305916","0.3864970555","0.2224321457","0.3642345195","","","","","","","","74","J","1","","","209","main_expt"
"","bandit","289","754222","0.0-250.0-0.0","01270406","wem/bandit_either_2","A37S96RT1P1IT2","either","3","265","","","","","","","0","0","1","0.3894881908","","0.2","0.6","0.8","0.4","","","","","0.4067483812","0.3894881908","0.2184729634","0.3518797164","","","","","","","","74","J","1","","","210","main_expt"
"","bandit","290","755909","0.0-251.0-0.0","01270406","wem/bandit_either_2","A37S96RT1P1IT2","either","3","132","","","","","","","1","0","0","0.4052823736","","0.2","0.6","0.8","0.4","","","","","0.376825818","0.4052823736","0.2178464352","0.3781537602","","","","","","","","74","J","1","","","211","main_expt"
"","bandit","291","757724","0.0-252.0-0.0","01270406","wem/bandit_either_2","A37S96RT1P1IT2","either","3","292","","","","","","","0","1","0","","0.3783189977","0.2","0.6","0.8","0.4","0.3481764155","0.3783189977","0.1644702768","0.3773353051","","","","","","","","","","","","74","J","1","","","212","main_expt"
"","bandit","292","760287","0.0-253.0-0.0","01270406","wem/bandit_either_2","A37S96RT1P1IT2","either","3","1040","","","","","","","0","0","1","","0.3804187243","0.2","0.6","0.8","0.4","0.3239198888","0.3804187243","0.1271660564","0.3448860985","","","","","","","","","","","","74","J","1","","","213","main_expt"
"","bandit","293","762105","0.0-254.0-0.0","01270406","wem/bandit_either_2","A37S96RT1P1IT2","either","3","283","","","","","","","0","0","1","","0.3964056757","0.2","0.6","0.8","0.4","0.3592643085","0.3964056757","0.1368129038","0.3622000499","","","","","","","","","","","","74","J","1","","","214","main_expt"
"","bandit","294","763873","0.0-255.0-0.0","01270406","wem/bandit_either_2","A37S96RT1P1IT2","either","3","248","","","","","","","0","0","1","","0.3939862607","0.2","0.6","0.8","0.4","0.3482739819","0.3939862607","0.07615368859","0.3408682726","","","","","","","","","","","","74","J","1","","","215","main_expt"
"","bandit","295","765611","0.0-256.0-0.0","01270406","wem/bandit_either_2","A37S96RT1P1IT2","either","3","203","","","","","","","0","0","1","","0.4062496234","0.2","0.6","0.8","0.4","0.2972527025","0.4062496234","0.07711559412","0.328819006","","","","","","","","","","","","74","J","1","","","216","main_expt"
"","bandit","296","767327","0.0-257.0-0.0","01270406","wem/bandit_either_2","A37S96RT1P1IT2","either","3","160","","","","","","","0","0","1","","0.3440498305","0.2","0.6","0.8","0.4","0.2850944341","0.3440498305","0.07728173513","0.3229374792","","","","","","","","","","","","74","J","1","","","217","main_expt"
"","bandit","297","769171","0.0-258.0-0.0","01270406","wem/bandit_either_2","A37S96RT1P1IT2","either","3","323","","","","","","","0","0","1","","0.3616220652","0.2","0.6","0.8","0.4","0.2483413171","0.3198020565","0.07919919155","0.3616220652","","","","","","","","","","","","76","L","3","","","218","main_expt"
"","bandit","298","770883","0.0-259.0-0.0","01270406","wem/bandit_either_2","A37S96RT1P1IT2","either","3","181","","","","","","","0","0","1","","0.3591176528","0.2","0.6","0.8","0.4","0.2680513607","0.3078290176","0.1270410367","0.3591176528","","","","","","","","","","","","76","L","3","","","219","main_expt"
"","bandit","299","772705","0.0-260.0-0.0","01270406","wem/bandit_either_2","A37S96RT1P1IT2","either","3","300","","","","","","","0","0","1","","0.2758994579","0.2","0.6","0.8","0.4","0.304668496","0.2961895162","0.1117499599","0.2758994579","","","","","","","","","","","","76","L","3","","","220","main_expt"
"","bandit","300","774261","0.0-261.0-0.0","01270406","wem/bandit_either_2","A37S96RT1P1IT2","either","3","37","","","","","","","0","0","1","0.1186324211","","0.2","0.6","0.8","0.4","","","","","0.2773284289","0.2658603678","0.1186324211","0.3119987931","","","","","","","","75","K","2","","","221","main_expt"
"","bandit","301","776084","0.0-262.0-0.0","01270406","wem/bandit_either_2","A37S96RT1P1IT2","either","3","276","","","","","","","0","0","1","","0.1141050397","0.2","0.6","0.8","0.4","0.2152506718","0.274695037","0.1141050397","0.3106374463","","","","","","","","","","","","75","K","2","","","222","main_expt"
"","bandit","302","777729","0.0-263.0-0.0","01270406","wem/bandit_either_2","A37S96RT1P1IT2","either","3","116","","","","","","","0","0","1","0.1007228699","","0.2","0.6","0.8","0.4","","","","","0.2445797097","0.2210940289","0.1007228699","0.3131570504","","","","","","","","75","K","2","","","223","main_expt"
"","bandit","303","779304","0.0-264.0-0.0","01270406","wem/bandit_either_2","A37S96RT1P1IT2","either","3","48","","","","","","","0","0","1","","0.2559263424","0.2","0.6","0.8","0.4","0.2559263424","0.1843933297","0.1380584308","0.3025994915","","","","","","","","","","","","72","H","0","img/none_selected.jpg","","224","main_expt"
"","bandit","304","781109","0.0-265.0-0.0","01270406","wem/bandit_either_2","A37S96RT1P1IT2","either","3","262","","","","","","","0","0","1","","0.2702522324","0.2","0.6","0.8","0.4","0.2702522324","0.212211923","0.1393521225","0.2994132709","","","","","","","","","","","","72","H","0","img/none_selected.jpg","","225","main_expt"
"","bandit","305","783002","0.0-266.0-0.0","01270406","wem/bandit_either_2","A37S96RT1P1IT2","either","3","362","","","","","","","0","0","1","","0.2646860425","0.2","0.6","0.8","0.4","0.2646860425","0.2315036379","0.2094269877","0.2866794375","","","","","","","","","","","","72","H","0","img/none_selected.jpg","","226","main_expt"
"","bandit","306","784953","0.0-267.0-0.0","01270406","wem/bandit_either_2","A37S96RT1P1IT2","either","3","415","","","","","","","0","0","1","","0.269556559","0.2","0.6","0.8","0.4","0.269556559","0.2646353212","0.2959232149","0.2299222882","","","","","","","","","","","","72","H","0","img/none_selected.jpg","","227","main_expt"
"","bandit","307","787400","0.0-268.0-0.0","01270406","wem/bandit_either_2","A37S96RT1P1IT2","either","3","913","","","","","","","0","0","1","0.374355758","","0.2","0.6","0.8","0.4","","","","","0.2498152532","0.2443517867","0.374355758","0.2991813551","","","","","","","","75","K","2","","","228","main_expt"
"","bandit","308","789168","0.0-269.0-0.0","01270406","wem/bandit_either_2","A37S96RT1P1IT2","either","3","220","","","","","","","1","0","0","0.3876740502","","0.2","0.6","0.8","0.4","","","","","0.2495566458","0.2569692975","0.3876740502","0.3295538921","","","","","","","","75","K","2","","","229","main_expt"
"","bandit","309","790885","0.0-270.0-0.0","01270406","wem/bandit_either_2","A37S96RT1P1IT2","either","3","195","","","","","","","0","0","1","0.3341674595","","0.2","0.6","0.8","0.4","","","","","0.2134382902","0.2490290172","0.3341674595","0.2713593359","","","","","","","","75","K","2","","","230","main_expt"
"","bandit","310","792612","0.0-271.0-0.0","01270406","wem/bandit_either_2","A37S96RT1P1IT2","either","3","178","","","","","","","0","0","1","0.3558281537","","0.2","0.6","0.8","0.4","","","","","0.2099205747","0.2368643707","0.3558281537","0.2746975787","","","","","","","","75","K","2","","","231","main_expt"
"","bandit","311","794278","0.0-272.0-0.0","01270406","wem/bandit_either_2","A37S96RT1P1IT2","either","3","135","","","","","","","0","0","1","0.3293076861","","0.2","0.6","0.8","0.4","","","","","0.1598609145","0.2857324616","0.3293076861","0.2817934899","","","","","","","","75","K","2","","","232","main_expt"
"","bandit","312","795872","0.0-273.0-0.0","01270406","wem/bandit_either_2","A37S96RT1P1IT2","either","3","59","","","","","","","0","0","1","0.3271309306","","0.2","0.6","0.8","0.4","","","","","0.1472569172","0.226619475","0.3271309306","0.3139736629","","","","","","","","75","K","2","","","233","main_expt"
"","bandit","313","797412","0.0-274.0-0.0","01270406","wem/bandit_either_2","A37S96RT1P1IT2","either","3","16","","","","","","","0","0","1","","0.3332560948","0.2","0.6","0.8","0.4","0.1123375355","0.2448251662","0.3510228885","0.3332560948","","","","","","","","","","","","76","L","3","","","234","main_expt"
"","bandit","314","799175","0.0-275.0-0.0","01270406","wem/bandit_either_2","A37S96RT1P1IT2","either","3","224","","","","","","","0","0","1","0.3475281657","","0.2","0.6","0.8","0.4","","","","","0.1562424728","0.2996798263","0.3346663699","0.3475281657","","","","","","","","76","L","3","","","235","main_expt"
"","bandit","315","800780","0.0-276.0-0.0","01270406","wem/bandit_either_2","A37S96RT1P1IT2","either","3","69","","","","","","","1","0","0","0.3170984437","","0.2","0.6","0.8","0.4","","","","","0.1623269298","0.3220329496","0.332043614","0.3170984437","","","","","","","","76","L","3","","","236","main_expt"
"","bandit","316","802547","0.0-277.0-0.0","01270406","wem/bandit_either_2","A37S96RT1P1IT2","either","3","243","","","","","","","0","1","0","","0.3611259067","0.2","0.6","0.8","0.4","0.1362759337","0.3672390457","0.2780661838","0.3611259067","","","","","","","","","","","","76","L","3","","","237","main_expt"
"","bandit","317","804315","0.0-278.0-0.0","01270406","wem/bandit_either_2","A37S96RT1P1IT2","either","3","210","","","","","","","0","0","1","0.3449339383","","0.2","0.6","0.8","0.4","","","","","0.1282223372","0.3702030288","0.3071002506","0.3449339383","","","","","","","","76","L","3","","","238","main_expt"
"","bandit","318","805980","0.0-279.0-0.0","01270406","wem/bandit_either_2","A37S96RT1P1IT2","either","3","138","","","","","","","0","1","0","","0.3006984684","0.2","0.6","0.8","0.4","0.08262393641","0.3486367063","0.3101279526","0.3006984684","","","","","","","","","","","","76","L","3","","","239","main_expt"
"","bandit","319","807728","0.0-280.0-0.0","01270406","wem/bandit_either_2","A37S96RT1P1IT2","either","3","215","","","","","","","0","0","1","0.3355390738","","0.2","0.6","0.8","0.4","","","","","0.09366491666","0.3422639114","0.3071576631","0.3355390738","","","","","","","","76","L","3","","","240","main_expt"
"","bandit","320","809457","0.0-281.0-0.0","01270406","wem/bandit_either_2","A37S96RT1P1IT2","either","3","207","","","","","","","1","0","0","0.3513118525","","0.2","0.6","0.8","0.4","","","","","0.09778426954","0.3703795114","0.3213727252","0.3513118525","","","","","","","","76","L","3","","","241","main_expt"
"","bandit","321","811199","0.0-282.0-0.0","01270406","wem/bandit_either_2","A37S96RT1P1IT2","either","3","209","","","","","","","0","1","0","","0.2871404103","0.2","0.6","0.8","0.4","0.0684580113","0.3362310887","0.3303042821","0.2871404103","","","","","","","","","","","","76","L","3","","","242","main_expt"
"","bandit","322","813082","0.0-283.0-0.0","01270406","wem/bandit_either_2","A37S96RT1P1IT2","either","3","337","","","","","","","0","0","1","","0.2582353252","0.2","0.6","0.8","0.4","0.05756719403","0.3855302341","0.386578507","0.2582353252","","","","","","","","","","","","76","L","3","","","243","main_expt"
"","bandit","323","814957","0.0-284.0-0.0","01270406","wem/bandit_either_2","A37S96RT1P1IT2","either","3","352","","","","","","","0","0","1","0.2108553612","","0.2","0.6","0.8","0.4","","","","","0.07954378931","0.3504604058","0.3582196724","0.2108553612","","","","","","","","76","L","3","","","244","main_expt"
"","bandit","324","816823","0.0-285.0-0.0","01270406","wem/bandit_either_2","A37S96RT1P1IT2","either","3","343","","","","","","","0","0","1","","0.190308294","0.2","0.6","0.8","0.4","0.07668718344","0.3586275713","0.3626170977","0.190308294","","","","","","","","","","","","76","L","3","","","245","main_expt"
"","bandit","325","818911","0.0-286.0-0.0","01270406","wem/bandit_either_2","A37S96RT1P1IT2","either","3","564","","","","","","","0","0","1","","0.2079876503","0.2","0.6","0.8","0.4","0.08627194322","0.3202710015","0.2778980274","0.2079876503","","","","","","","","","","","","76","L","3","","","246","main_expt"
"","bandit","326","820743","0.0-287.0-0.0","01270406","wem/bandit_either_2","A37S96RT1P1IT2","either","3","318","","","","","","","0","0","1","","0.2053262284","0.2","0.6","0.8","0.4","0.1009858539","0.2874587678","0.2864864277","0.2053262284","","","","","","","","","","","","76","L","3","","","247","main_expt"
"","bandit","327","822593","0.0-288.0-0.0","01270406","wem/bandit_either_2","A37S96RT1P1IT2","either","3","328","","","","","","","0","0","1","","0.2699327364","0.2","0.6","0.8","0.4","0.1044033157","0.2703076155","0.2883304048","0.2699327364","","","","","","","","","","","","76","L","3","","","248","main_expt"
"","bandit","328","824260","0.0-289.0-0.0","01270406","wem/bandit_either_2","A37S96RT1P1IT2","either","3","144","","","","","","","1","0","0","0.2212833967","","0.2","0.6","0.8","0.4","","","","","0.07254640656","0.2212833967","0.3034325887","0.2917851334","","","","","","","","74","J","1","","","249","main_expt"
"","bandit","329","825994","0.0-290.0-0.0","01270406","wem/bandit_either_2","A37S96RT1P1IT2","either","3","199","","","","","","","0","0","1","0.2174917034","","0.2","0.6","0.8","0.4","","","","","0.09512939239","0.2174917034","0.2582013927","0.2530543584","","","","","","","","74","J","1","","","250","main_expt"
