"consent","trial_type","trial_index","time_elapsed","internal_node_id","subjID","study","MID","cond","drift","rt","responses","key_press","expt_phase","like","value","connected","gems","bombs","no_reward","GemPrChosen","BombPrChosen","GainOverPainPr_0","GainOverPainPr_1","GainOverPainPr_2","GainOverPainPr_3","LosePr_0","LosePr_1","LosePr_2","LosePr_3","WinPr_0","WinPr_1","WinPr_2","WinPr_3","Q0","Q1","Q2","gender","age","ethnicity","target","respCharCode","respKey","respChoiceNum","respChoice","practice","trial_counter","trial_label"
"INL_behavioral_consent_30min_online.html","consent","0","43610","0.0-0.0","03623359","wem/bandit_either_2","A3MZLFTQM5XWK","either","5","","","","","","","","","","","","","","","","","","","","","","","","","","","","","","","","","","","","","",""
"","survey-text","1","109926","0.0-1.0","03623359","wem/bandit_either_2","A3MZLFTQM5XWK","either","5","65298","{""Q0"":""A3MZLFTQM5XWK""}","","","","","","","","","","","","","","","","","","","","","","","","","","","","","","","","","","","",""
"","text","2","141328","0.0-2.0","03623359","wem/bandit_either_2","A3MZLFTQM5XWK","either","5","30397","","32","","","","","","","","","","","","","","","","","","","","","","","","","","","","","","","","","","",""
"","text","3","155242","0.0-3.0","03623359","wem/bandit_either_2","A3MZLFTQM5XWK","either","5","13912","","32","","","","","","","","","","","","","","","","","","","","","","","","","","","","","","","","","","",""
"","text","4","189850","0.0-4.0","03623359","wem/bandit_either_2","A3MZLFTQM5XWK","either","5","34602","","32","","","","","","","","","","","","","","","","","","","","","","","","","","","","","","","","","","",""
"","text","5","207005","0.0-5.0","03623359","wem/bandit_either_2","A3MZLFTQM5XWK","either","5","17153","","32","","","","","","","","","","","","","","","","","","","","","","","","","","","","","","","","","","",""
"","text","6","248740","0.0-6.0","03623359","wem/bandit_either_2","A3MZLFTQM5XWK","either","5","41729","","32","","","","","","","","","","","","","","","","","","","","","","","","","","","","","","","","","","",""
"","text","7","262277","0.0-7.0","03623359","wem/bandit_either_2","A3MZLFTQM5XWK","either","5","13532","","32","","","","","","","","","","","","","","","","","","","","","","","","","","","","","","","","","","",""
"","text","8","267805","0.0-8.0","03623359","wem/bandit_either_2","A3MZLFTQM5XWK","either","5","5524","","32","","","","","","","","","","","","","","","","","","","","","","","","","","","","","","","","","","",""
"","identification","9","283668","0.0-9.0-0.0","03623359","wem/bandit_either_2","A3MZLFTQM5XWK","either","5","15835","","","","3","4","3","","","","","","","","","","","","","","","","","","","","","","","","the village of Zur","","","","","","",""
"","identification","10","297000","0.0-9.0-1.0","03623359","wem/bandit_either_2","A3MZLFTQM5XWK","either","5","12302","","","","2","3","0","","","","","","","","","","","","","","","","","","","","","","","","the village of Nyx","","","","","","",""
"","text","11","305814","0.0-10.0","03623359","wem/bandit_either_2","A3MZLFTQM5XWK","either","5","7805","","32","","","","","","","","","","","","","","","","","","","","","","","","","","","","","","","","","","",""
"","text","12","310911","0.0-11.0","03623359","wem/bandit_either_2","A3MZLFTQM5XWK","either","5","5091","","32","","","","","","","","","","","","","","","","","","","","","","","","","","","","","","","","","","",""
"","text","13","313675","0.0-12.0","03623359","wem/bandit_either_2","A3MZLFTQM5XWK","either","5","2761","","32","","","","","","","","","","","","","","","","","","","","","","","","","","","","","","","","","","",""
"","text","14","320543","0.0-13.0","03623359","wem/bandit_either_2","A3MZLFTQM5XWK","either","5","6864","","32","","","","","","","","","","","","","","","","","","","","","","","","","","","","","","","","","","",""
"","bandit","15","325356","0.0-14.0-0.0","03623359","wem/bandit_either_2","A3MZLFTQM5XWK","either","5","3289","","","","","","","0","0","1","0","0","","","","","0","","","","0","","","","","","","","","","","74","J","0","img/none_selected_demo.jpg","true","0",""
"","bandit","16","328468","0.0-15.0-0.0","03623359","wem/bandit_either_2","A3MZLFTQM5XWK","either","5","1596","","","","","","","0","0","1","0","0","","","","","0","","","","0","","","","","","","","","","","75","K","0","img/none_selected_demo.jpg","true","0",""
"","text","17","341626","0.0-16.0","03623359","wem/bandit_either_2","A3MZLFTQM5XWK","either","5","13152","","32","","","","","","","","","","","","","","","","","","","","","","","","","","","","","","","","","","",""
"","text","18","363188","0.0-17.0","03623359","wem/bandit_either_2","A3MZLFTQM5XWK","either","5","21558","","32","","","","","","","","","","","","","","","","","","","","","","","","","","","","","","","","","","",""
"","text","19","372243","0.0-18.0","03623359","wem/bandit_either_2","A3MZLFTQM5XWK","either","5","9048","","32","","","","","","","","","","","","","","","","","","","","","","","","","","","","","","","","","","",""
"","text","20","379248","0.0-19.0","03623359","wem/bandit_either_2","A3MZLFTQM5XWK","either","5","6994","","32","","","","","","","","","","","","","","","","","","","","","","","","","","","","","","","","","","",""
"","bandit","21","381943","0.0-20.0-0.0","03623359","wem/bandit_either_2","A3MZLFTQM5XWK","either","5","1179","","","","","","","0","1","0","","0.8","0.5","0.5","","","0.8","0.2","","","","","","","","","","","","","","74","J","0","img/none_selected_demo.jpg","true","0","80_20_practice"
"","bandit","22","384745","0.0-20.0-1.0","03623359","wem/bandit_either_2","A3MZLFTQM5XWK","either","5","1287","","","","","","","0","1","0","","0.2","0.5","0.5","","","0.8","0.2","","","","","","","","","","","","","","75","K","1","","true","0","80_20_practice"
"","bandit","23","386927","0.0-20.0-2.0","03623359","wem/bandit_either_2","A3MZLFTQM5XWK","either","5","668","","","","","","","0","1","0","","0.8","0.5","0.5","","","0.8","0.2","","","","","","","","","","","","","","74","J","0","img/none_selected_demo.jpg","true","0","80_20_practice"
"","bandit","24","389267","0.0-20.0-3.0","03623359","wem/bandit_either_2","A3MZLFTQM5XWK","either","5","825","","","","","","","0","0","1","0.8","","0.5","0.5","","","","","","","0.8","0.2","","","","","","","","","","74","J","0","img/none_selected_demo.jpg","true","0","80_20_practice"
"","bandit","25","391708","0.0-20.0-4.0","03623359","wem/bandit_either_2","A3MZLFTQM5XWK","either","5","928","","","","","","","0","0","1","","0.2","0.5","0.5","","","0.8","0.2","","","","","","","","","","","","","","75","K","1","","true","0","80_20_practice"
"","bandit","26","393457","0.0-20.0-5.0","03623359","wem/bandit_either_2","A3MZLFTQM5XWK","either","5","233","","","","","","","0","0","1","","0.2","0.5","0.5","","","0.8","0.2","","","","","","","","","","","","","","75","K","1","","true","0","80_20_practice"
"","bandit","27","395323","0.0-20.0-6.0","03623359","wem/bandit_either_2","A3MZLFTQM5XWK","either","5","355","","","","","","","1","0","0","0.2","","0.5","0.5","","","","","","","0.8","0.2","","","","","","","","","","75","K","1","","true","0","80_20_practice"
"","bandit","28","397507","0.0-20.0-7.0","03623359","wem/bandit_either_2","A3MZLFTQM5XWK","either","5","673","","","","","","","0","0","1","","0.2","0.5","0.5","","","0.8","0.2","","","","","","","","","","","","","","75","K","1","","true","0","80_20_practice"
"","bandit","29","399356","0.0-20.0-8.0","03623359","wem/bandit_either_2","A3MZLFTQM5XWK","either","5","336","","","","","","","0","1","0","","0.8","0.5","0.5","","","0.8","0.2","","","","","","","","","","","","","","74","J","0","img/none_selected_demo.jpg","true","0","80_20_practice"
"","bandit","30","401322","0.0-20.0-9.0","03623359","wem/bandit_either_2","A3MZLFTQM5XWK","either","5","446","","","","","","","0","1","0","","0.8","0.5","0.5","","","0.8","0.2","","","","","","","","","","","","","","74","J","0","img/none_selected_demo.jpg","true","0","80_20_practice"
"","bandit","31","403384","0.0-20.0-10.0","03623359","wem/bandit_either_2","A3MZLFTQM5XWK","either","5","545","","","","","","","1","0","0","0.8","","0.5","0.5","","","","","","","0.8","0.2","","","","","","","","","","74","J","0","img/none_selected_demo.jpg","true","0","80_20_practice"
"","bandit","32","405231","0.0-20.0-11.0","03623359","wem/bandit_either_2","A3MZLFTQM5XWK","either","5","336","","","","","","","0","1","0","","0.8","0.5","0.5","","","0.8","0.2","","","","","","","","","","","","","","74","J","0","img/none_selected_demo.jpg","true","0","80_20_practice"
"","bandit","33","407035","0.0-20.0-12.0","03623359","wem/bandit_either_2","A3MZLFTQM5XWK","either","5","283","","","","","","","0","1","0","","0.8","0.5","0.5","","","0.8","0.2","","","","","","","","","","","","","","74","J","0","img/none_selected_demo.jpg","true","0","80_20_practice"
"","bandit","34","408835","0.0-20.0-13.0","03623359","wem/bandit_either_2","A3MZLFTQM5XWK","either","5","289","","","","","","","0","1","0","","0.8","0.5","0.5","","","0.8","0.2","","","","","","","","","","","","","","74","J","0","img/none_selected_demo.jpg","true","0","80_20_practice"
"","bandit","35","410644","0.0-20.0-14.0","03623359","wem/bandit_either_2","A3MZLFTQM5XWK","either","5","296","","","","","","","0","0","1","0.8","","0.5","0.5","","","","","","","0.8","0.2","","","","","","","","","","74","J","0","img/none_selected_demo.jpg","true","0","80_20_practice"
"","bandit","36","412592","0.0-20.0-15.0","03623359","wem/bandit_either_2","A3MZLFTQM5XWK","either","5","436","","","","","","","0","0","1","","0.8","0.5","0.5","","","0.8","0.2","","","","","","","","","","","","","","74","J","0","img/none_selected_demo.jpg","true","0","80_20_practice"
"","bandit","37","414260","0.0-20.0-16.0","03623359","wem/bandit_either_2","A3MZLFTQM5XWK","either","5","150","","","","","","","0","0","1","","0.2","0.5","0.5","","","0.8","0.2","","","","","","","","","","","","","","75","K","1","","true","0","80_20_practice"
"","bandit","38","415894","0.0-20.0-17.0","03623359","wem/bandit_either_2","A3MZLFTQM5XWK","either","5","114","","","","","","","0","1","0","","0.8","0.5","0.5","","","0.8","0.2","","","","","","","","","","","","","","74","J","0","img/none_selected_demo.jpg","true","0","80_20_practice"
"","bandit","39","417614","0.0-20.0-18.0","03623359","wem/bandit_either_2","A3MZLFTQM5XWK","either","5","209","","","","","","","0","1","0","","0.8","0.5","0.5","","","0.8","0.2","","","","","","","","","","","","","","74","J","0","img/none_selected_demo.jpg","true","0","80_20_practice"
"","bandit","40","419640","0.0-20.0-19.0","03623359","wem/bandit_either_2","A3MZLFTQM5XWK","either","5","515","","","","","","","1","0","0","0.8","","0.5","0.5","","","","","","","0.8","0.2","","","","","","","","","","74","J","0","img/none_selected_demo.jpg","true","0","80_20_practice"
"","text","41","428238","0.0-21.0","03623359","wem/bandit_either_2","A3MZLFTQM5XWK","either","5","8592","","32","","","","","","","","","","","","","","","","","","","","","","","","","","","","","","","","","","",""
"","bandit","42","430496","0.0-22.0-0.0","03623359","wem/bandit_either_2","A3MZLFTQM5XWK","either","5","743","","","","","","","1","0","0","1","0","","","","","0","1","","","1","0","","","","","","","","","","74","J","0","img/none_selected_demo.jpg","true","0",""
"","text","43","443322","0.0-23.0","03623359","wem/bandit_either_2","A3MZLFTQM5XWK","either","5","12818","","32","","","","","","","","","","","","","","","","","","","","","","","","","","","","","","","","","","",""
"","text","44","454083","0.0-24.0","03623359","wem/bandit_either_2","A3MZLFTQM5XWK","either","5","10754","","32","","","","","","","","","","","","","","","","","","","","","","","","","","","","","","","","","","",""
"","text","45","458083","0.0-25.0","03623359","wem/bandit_either_2","A3MZLFTQM5XWK","either","5","3995","","32","","","","","","","","","","","","","","","","","","","","","","","","","","","","","","","","","","",""
"","text","46","462333","0.0-26.0","03623359","wem/bandit_either_2","A3MZLFTQM5XWK","either","5","4246","","32","","","","","","","","","","","","","","","","","","","","","","","","","","","","","","","","","","",""
"","text","47","478121","0.0-27.0","03623359","wem/bandit_either_2","A3MZLFTQM5XWK","either","5","15783","","32","","","","","","","","","","","","","","","","","","","","","","","","","","","","","","","","","","",""
"","text","48","482731","0.0-28.0","03623359","wem/bandit_either_2","A3MZLFTQM5XWK","either","5","4603","","32","","","","","","","","","","","","","","","","","","","","","","","","","","","","","","","","","","",""
"","text","49","489852","0.0-29.0","03623359","wem/bandit_either_2","A3MZLFTQM5XWK","either","5","7115","","32","","","","","","","","","","","","","","","","","","","","","","","","","","","","","","","","","","",""
"","text","50","494846","0.0-30.0","03623359","wem/bandit_either_2","A3MZLFTQM5XWK","either","5","4988","","32","","","","","","","","","","","","","","","","","","","","","","","","","","","","","","","","","","",""
"","text","51","501382","0.0-31.0","03623359","wem/bandit_either_2","A3MZLFTQM5XWK","either","5","6528","","32","","","","","","","","","","","","","","","","","","","","","","","","","","","","","","","","","","",""
"","text","52","504678","0.0-32.0","03623359","wem/bandit_either_2","A3MZLFTQM5XWK","either","5","3291","","32","","","","","","","","","","","","","","","","","","","","","","","","","","","","","","","","","","",""
"","text","53","509539","0.0-33.0","03623359","wem/bandit_either_2","A3MZLFTQM5XWK","either","5","4855","","32","","","","","","","","","","","","","","","","","","","","","","","","","","","","","","","","","","",""
"","bandit","54","511856","0.0-34.0-0.0","03623359","wem/bandit_either_2","A3MZLFTQM5XWK","either","5","801","","","","","","","0","1","0","","0.8","0.5","0.5","0.5","0.5","0.8","0.2","0.6","0.2","","","","","","","","","","","","72","H","0","img/none_selected.jpg","true","0","full_practice"
"","bandit","55","513768","0.0-34.0-1.0","03623359","wem/bandit_either_2","A3MZLFTQM5XWK","either","5","395","","","","","","","1","0","0","0.2","","0.5","0.5","0.5","0.5","","","","","0.8","0.2","0.6","0.2","","","","","","","","74","J","1","","true","0","full_practice"
"","bandit","56","515678","0.0-34.0-2.0","03623359","wem/bandit_either_2","A3MZLFTQM5XWK","either","5","393","","","","","","","0","1","0","","0.6","0.5","0.5","0.5","0.5","0.8","0.2","0.6","0.2","","","","","","","","","","","","75","K","2","","true","0","full_practice"
"","bandit","57","517632","0.0-34.0-3.0","03623359","wem/bandit_either_2","A3MZLFTQM5XWK","either","5","439","","","","","","","0","0","1","","0.2","0.5","0.5","0.5","0.5","0.8","0.2","0.6","0.2","","","","","","","","","","","","76","L","3","","true","0","full_practice"
"","bandit","58","519269","0.0-34.0-4.0","03623359","wem/bandit_either_2","A3MZLFTQM5XWK","either","5","124","","","","","","","0","0","1","0.2","","0.5","0.5","0.5","0.5","","","","","0.8","0.2","0.6","0.2","","","","","","","","74","J","1","","true","0","full_practice"
"","bandit","59","521017","0.0-34.0-5.0","03623359","wem/bandit_either_2","A3MZLFTQM5XWK","either","5","223","","","","","","","0","0","1","","0.2","0.5","0.5","0.5","0.5","0.8","0.2","0.6","0.2","","","","","","","","","","","","74","J","1","","true","0","full_practice"
"","bandit","60","522710","0.0-34.0-6.0","03623359","wem/bandit_either_2","A3MZLFTQM5XWK","either","5","177","","","","","","","1","0","0","0.8","","0.5","0.5","0.5","0.5","","","","","0.8","0.2","0.6","0.2","","","","","","","","72","H","0","img/none_selected.jpg","true","0","full_practice"
"","bandit","61","524486","0.0-34.0-7.0","03623359","wem/bandit_either_2","A3MZLFTQM5XWK","either","5","262","","","","","","","0","0","1","0.8","","0.5","0.5","0.5","0.5","","","","","0.8","0.2","0.6","0.2","","","","","","","","72","H","0","img/none_selected.jpg","true","0","full_practice"
"","bandit","62","526184","0.0-34.0-8.0","03623359","wem/bandit_either_2","A3MZLFTQM5XWK","either","5","178","","","","","","","0","1","0","","0.8","0.5","0.5","0.5","0.5","0.8","0.2","0.6","0.2","","","","","","","","","","","","72","H","0","img/none_selected.jpg","true","0","full_practice"
"","bandit","63","527986","0.0-34.0-9.0","03623359","wem/bandit_either_2","A3MZLFTQM5XWK","either","5","289","","","","","","","1","0","0","0.6","","0.5","0.5","0.5","0.5","","","","","0.8","0.2","0.6","0.2","","","","","","","","75","K","2","","true","0","full_practice"
"","bandit","64","529842","0.0-34.0-10.0","03623359","wem/bandit_either_2","A3MZLFTQM5XWK","either","5","314","","","","","","","0","0","1","0.6","","0.5","0.5","0.5","0.5","","","","","0.8","0.2","0.6","0.2","","","","","","","","75","K","2","","true","0","full_practice"
"","bandit","65","531416","0.0-34.0-11.0","03623359","wem/bandit_either_2","A3MZLFTQM5XWK","either","5","61","","","","","","","0","1","0","","0.8","0.5","0.5","0.5","0.5","0.8","0.2","0.6","0.2","","","","","","","","","","","","72","H","0","img/none_selected.jpg","true","0","full_practice"
"","bandit","66","533215","0.0-34.0-12.0","03623359","wem/bandit_either_2","A3MZLFTQM5XWK","either","5","284","","","","","","","0","0","1","","0.8","0.5","0.5","0.5","0.5","0.8","0.2","0.6","0.2","","","","","","","","","","","","72","H","0","img/none_selected.jpg","true","0","full_practice"
"","bandit","67","534855","0.0-34.0-13.0","03623359","wem/bandit_either_2","A3MZLFTQM5XWK","either","5","128","","","","","","","0","1","0","","0.8","0.5","0.5","0.5","0.5","0.8","0.2","0.6","0.2","","","","","","","","","","","","72","H","0","img/none_selected.jpg","true","0","full_practice"
"","bandit","68","536701","0.0-34.0-14.0","03623359","wem/bandit_either_2","A3MZLFTQM5XWK","either","5","333","","","","","","","0","1","0","","0.8","0.5","0.5","0.5","0.5","0.8","0.2","0.6","0.2","","","","","","","","","","","","72","H","0","img/none_selected.jpg","true","0","full_practice"
"","bandit","69","538565","0.0-34.0-15.0","03623359","wem/bandit_either_2","A3MZLFTQM5XWK","either","5","346","","","","","","","1","0","0","0.8","","0.5","0.5","0.5","0.5","","","","","0.8","0.2","0.6","0.2","","","","","","","","72","H","0","img/none_selected.jpg","true","0","full_practice"
"","bandit","70","540436","0.0-34.0-16.0","03623359","wem/bandit_either_2","A3MZLFTQM5XWK","either","5","357","","","","","","","0","1","0","","0.8","0.5","0.5","0.5","0.5","0.8","0.2","0.6","0.2","","","","","","","","","","","","72","H","0","img/none_selected.jpg","true","0","full_practice"
"","bandit","71","542569","0.0-34.0-17.0","03623359","wem/bandit_either_2","A3MZLFTQM5XWK","either","5","620","","","","","","","0","1","0","","0.8","0.5","0.5","0.5","0.5","0.8","0.2","0.6","0.2","","","","","","","","","","","","72","H","0","img/none_selected.jpg","true","0","full_practice"
"","bandit","72","544519","0.0-34.0-18.0","03623359","wem/bandit_either_2","A3MZLFTQM5XWK","either","5","438","","","","","","","0","1","0","","0.8","0.5","0.5","0.5","0.5","0.8","0.2","0.6","0.2","","","","","","","","","","","","72","H","0","img/none_selected.jpg","true","0","full_practice"
"","bandit","73","546313","0.0-34.0-19.0","03623359","wem/bandit_either_2","A3MZLFTQM5XWK","either","5","275","","","","","","","0","0","1","","0.8","0.5","0.5","0.5","0.5","0.8","0.2","0.6","0.2","","","","","","","","","","","","72","H","0","img/none_selected.jpg","true","0","full_practice"
"","text","74","552205","0.0-35.0","03623359","wem/bandit_either_2","A3MZLFTQM5XWK","either","5","5879","","32","","","","","","","","","","","","","","","","","","","","","","","","","","","","","","","","","","",""
"","text","75","571584","0.0-36.0","03623359","wem/bandit_either_2","A3MZLFTQM5XWK","either","5","18370","","32","","","","","","","","","","","","","","","","","","","","","","","","","","","","","","","","","","",""
"","text","76","585746","0.0-37.0","03623359","wem/bandit_either_2","A3MZLFTQM5XWK","either","5","14156","","32","","","","","","","","","","","","","","","","","","","","","","","","","","","","","","","","","","",""
"","text","77","593374","0.0-38.0","03623359","wem/bandit_either_2","A3MZLFTQM5XWK","either","5","7617","","32","","","","","","","","","","","","","","","","","","","","","","","","","","","","","","","","","","",""
"","text","78","605937","0.0-39.0","03623359","wem/bandit_either_2","A3MZLFTQM5XWK","either","5","12556","","32","","","","","","","","","","","","","","","","","","","","","","","","","","","","","","","","","","",""
"","text","79","613623","0.0-40.0","03623359","wem/bandit_either_2","A3MZLFTQM5XWK","either","5","7680","","32","","","","","","","","","","","","","","","","","","","","","","","","","","","","","","","","","","",""
"","bandit","80","615968","0.0-41.0-0.0","03623359","wem/bandit_either_2","A3MZLFTQM5XWK","either","5","829","","","","","","","0","1","0","","0.4265570961","0.2","0.6","0.4","0.8","0.4265570961","0.3340388524","0.3897275569","0.1165465043","","","","","","","","","","","","72","H","0","img/none_selected.jpg","","1","main_expt"
"","bandit","81","617863","0.0-42.0-0.0","03623359","wem/bandit_either_2","A3MZLFTQM5XWK","either","5","381","","","","","","","0","0","1","0.3223834482","","0.2","0.6","0.4","0.8","","","","","0.4177099958","0.3223834482","0.3911966266","0.08371899021","","","","","","","","74","J","1","","","2","main_expt"
"","bandit","82","619699","0.0-43.0-0.0","03623359","wem/bandit_either_2","A3MZLFTQM5XWK","either","5","318","","","","","","","0","1","0","","0.4074861021","0.2","0.6","0.4","0.8","0.4192185534","0.3585509001","0.4074861021","0.04339790364","","","","","","","","","","","","75","K","2","","","3","main_expt"
"","bandit","83","621687","0.0-44.0-0.0","03623359","wem/bandit_either_2","A3MZLFTQM5XWK","either","5","466","","","","","","","0","0","1","0.04073472785","","0.2","0.6","0.4","0.8","","","","","0.4241610434","0.3416436242","0.3965638453","0.04073472785","","","","","","","","76","L","3","","","4","main_expt"
"","bandit","84","623355","0.0-45.0-0.0","03623359","wem/bandit_either_2","A3MZLFTQM5XWK","either","5","153","","","","","","","0","1","0","","0.3688269119","0.2","0.6","0.4","0.8","0.4284837315","0.3444758892","0.3688269119","0.04731773769","","","","","","","","","","","","75","K","2","","","5","main_expt"
"","bandit","85","625394","0.0-46.0-0.0","03623359","wem/bandit_either_2","A3MZLFTQM5XWK","either","5","527","","","","","","","0","0","1","","0.3865867917","0.2","0.6","0.4","0.8","0.4328708062","0.3574177426","0.3865867917","0.05617088868","","","","","","","","","","","","75","K","2","","","6","main_expt"
"","bandit","86","627299","0.0-47.0-0.0","03623359","wem/bandit_either_2","A3MZLFTQM5XWK","either","5","391","","","","","","","0","0","1","0.4294719924","","0.2","0.6","0.4","0.8","","","","","0.4176545671","0.3634052143","0.4294719924","0.05606577856","","","","","","","","75","K","2","","","7","main_expt"
"","bandit","87","629194","0.0-48.0-0.0","03623359","wem/bandit_either_2","A3MZLFTQM5XWK","either","5","383","","","","","","","0","0","1","","0.4022395488","0.2","0.6","0.4","0.8","0.4022395488","0.3675420607","0.4210378118","0.09244853328","","","","","","","","","","","","72","H","0","img/none_selected.jpg","","8","main_expt"
"","bandit","88","630953","0.0-49.0-0.0","03623359","wem/bandit_either_2","A3MZLFTQM5XWK","either","5","234","","","","","","","0","0","1","","0.3921196104","0.2","0.6","0.4","0.8","0.3929004949","0.3921196104","0.4502112583","0.1271341085","","","","","","","","","","","","74","J","1","","","9","main_expt"
"","bandit","89","632932","0.0-50.0-0.0","03623359","wem/bandit_either_2","A3MZLFTQM5XWK","either","5","465","","","","","","","0","0","1","0.3863711448","","0.2","0.6","0.4","0.8","","","","","0.3863711448","0.4026182126","0.4452653155","0.1370717255","","","","","","","","72","H","0","img/none_selected.jpg","","10","main_expt"
"","bandit","90","634998","0.0-51.0-0.0","03623359","wem/bandit_either_2","A3MZLFTQM5XWK","either","5","544","","","","","","","0","0","1","","0.4205849279","0.2","0.6","0.4","0.8","0.4205849279","0.3543069494","0.4352349267","0.1275050207","","","","","","","","","","","","72","H","0","img/none_selected.jpg","","11","main_expt"
"","bandit","91","636796","0.0-52.0-0.0","03623359","wem/bandit_either_2","A3MZLFTQM5XWK","either","5","285","","","","","","","0","1","0","","0.3504097904","0.2","0.6","0.4","0.8","0.4525069231","0.3504097904","0.4029030639","0.122317004","","","","","","","","","","","","74","J","1","","","12","main_expt"
"","bandit","92","638591","0.0-53.0-0.0","03623359","wem/bandit_either_2","A3MZLFTQM5XWK","either","5","281","","","","","","","0","0","1","","0.2787441393","0.2","0.6","0.4","0.8","0.4485799753","0.2787441393","0.4198147105","0.1251711411","","","","","","","","","","","","74","J","1","","","13","main_expt"
"","bandit","93","640628","0.0-54.0-0.0","03623359","wem/bandit_either_2","A3MZLFTQM5XWK","either","5","524","","","","","","","0","0","1","0.2723245106","","0.2","0.6","0.4","0.8","","","","","0.4504049656","0.2723245106","0.3761312174","0.1380641988","","","","","","","","74","J","1","","","14","main_expt"
"","bandit","94","642209","0.0-55.0-0.0","03623359","wem/bandit_either_2","A3MZLFTQM5XWK","either","5","58","","","","","","","0","0","1","","0.4017507227","0.2","0.6","0.4","0.8","0.4281165459","0.3687644442","0.4017507227","0.2010812313","","","","","","","","","","","","75","K","2","","","15","main_expt"
"","bandit","95","643742","0.0-56.0-0.0","03623359","wem/bandit_either_2","A3MZLFTQM5XWK","either","5","20","","","","","","","0","0","1","","0.3859888637","0.2","0.6","0.4","0.8","0.4035101098","0.3992289848","0.3859888637","0.1747275657","","","","","","","","","","","","75","K","2","","","16","main_expt"
"","bandit","96","646386","0.0-57.0-0.0","03623359","wem/bandit_either_2","A3MZLFTQM5XWK","either","5","1121","","","","","","","0","0","1","0.1816524112","","0.2","0.6","0.4","0.8","","","","","0.4063691663","0.4067061876","0.3706978481","0.1816524112","","","","","","","","76","L","3","","","17","main_expt"
"","bandit","97","648812","0.0-58.0-0.0","03623359","wem/bandit_either_2","A3MZLFTQM5XWK","either","5","904","","","","","","","1","0","0","0.1700798448","","0.2","0.6","0.4","0.8","","","","","0.4201618032","0.3969002131","0.3323991027","0.1700798448","","","","","","","","76","L","3","","","18","main_expt"
"","bandit","98","650626","0.0-59.0-0.0","03623359","wem/bandit_either_2","A3MZLFTQM5XWK","either","5","299","","","","","","","0","0","1","","0.1998500639","0.2","0.6","0.4","0.8","0.3868389751","0.3930099592","0.3301718366","0.1998500639","","","","","","","","","","","","76","L","3","","","19","main_expt"
"","bandit","99","652244","0.0-60.0-0.0","03623359","wem/bandit_either_2","A3MZLFTQM5XWK","either","5","95","","","","","","","0","0","1","0.3714618997","","0.2","0.6","0.4","0.8","","","","","0.3868875991","0.3791602553","0.3714618997","0.2418808817","","","","","","","","75","K","2","","","20","main_expt"
"","bandit","100","655221","0.0-61.0-0.0","03623359","wem/bandit_either_2","A3MZLFTQM5XWK","either","5","1454","","","","","","","0","0","1","0.3621694591","","0.2","0.6","0.4","0.8","","","","","0.4253770554","0.4127515201","0.3621694591","0.2293341009","","","","","","","","75","K","2","","","21","main_expt"
"","bandit","101","656941","0.0-62.0-0.0","03623359","wem/bandit_either_2","A3MZLFTQM5XWK","either","5","205","","","","","","","0","1","0","","0.4164833055","0.2","0.6","0.4","0.8","0.4285762007","0.4164833055","0.3648829928","0.2074184163","","","","","","","","","","","","74","J","1","","","22","main_expt"
"","bandit","102","659488","0.0-63.0-0.0","03623359","wem/bandit_either_2","A3MZLFTQM5XWK","either","5","1034","","","","","","","0","0","1","0.4143027846","","0.2","0.6","0.4","0.8","","","","","0.4082522222","0.4143027846","0.2856994719","0.1832507358","","","","","","","","74","J","1","","","23","main_expt"
"","bandit","103","661393","0.0-64.0-0.0","03623359","wem/bandit_either_2","A3MZLFTQM5XWK","either","5","390","","","","","","","0","0","1","0.3649270698","","0.2","0.6","0.4","0.8","","","","","0.4027270218","0.3649270698","0.3152516524","0.1469425149","","","","","","","","74","J","1","","","24","main_expt"
"","bandit","104","663430","0.0-65.0-0.0","03623359","wem/bandit_either_2","A3MZLFTQM5XWK","either","5","515","","","","","","","0","0","1","","0.4100212433","0.2","0.6","0.4","0.8","0.4100212433","0.392676409","0.2778145345","0.102794739","","","","","","","","","","","","72","H","0","img/none_selected.jpg","","25","main_expt"
"","bandit","105","665615","0.0-66.0-0.0","03623359","wem/bandit_either_2","A3MZLFTQM5XWK","either","5","670","","","","","","","0","0","1","","0.4190791169","0.2","0.6","0.4","0.8","0.4190791169","0.4031565401","0.3170506137","0.1173732637","","","","","","","","","","","","72","H","0","img/none_selected.jpg","","26","main_expt"
"","bandit","106","668977","0.0-67.0-0.0","03623359","wem/bandit_either_2","A3MZLFTQM5XWK","either","5","1849","","","","","","","0","1","0","","0.4527212376","0.2","0.6","0.4","0.8","0.4527212376","0.4245959001","0.3223143746","0.08835016803","","","","","","","","","","","","72","H","0","img/none_selected.jpg","","27","main_expt"
"","bandit","107","671089","0.0-68.0-0.0","03623359","wem/bandit_either_2","A3MZLFTQM5XWK","either","5","593","","","","","","","0","1","0","","0.4480998813","0.2","0.6","0.4","0.8","0.4480998813","0.4232885055","0.3234472479","0.1134440288","","","","","","","","","","","","72","H","0","img/none_selected.jpg","","28","main_expt"
"","bandit","108","673008","0.0-69.0-0.0","03623359","wem/bandit_either_2","A3MZLFTQM5XWK","either","5","382","","","","","","","0","1","0","","0.4628669208","0.2","0.6","0.4","0.8","0.4628669208","0.4495512981","0.2881425904","0.1982905849","","","","","","","","","","","","72","H","0","img/none_selected.jpg","","29","main_expt"
"","bandit","109","674938","0.0-70.0-0.0","03623359","wem/bandit_either_2","A3MZLFTQM5XWK","either","5","415","","","","","","","0","1","0","","0.4565655028","0.2","0.6","0.4","0.8","0.4565655028","0.4485299892","0.2326555855","0.2366655967","","","","","","","","","","","","72","H","0","img/none_selected.jpg","","30","main_expt"
"","bandit","110","678203","0.0-71.0-0.0","03623359","wem/bandit_either_2","A3MZLFTQM5XWK","either","5","1749","","","","","","","1","0","0","0.4686031056","","0.2","0.6","0.4","0.8","","","","","0.4686031056","0.4599237238","0.2364604256","0.1622470467","","","","","","","","72","H","0","img/none_selected.jpg","","31","main_expt"
"","bandit","111","681584","0.0-72.0-0.0","03623359","wem/bandit_either_2","A3MZLFTQM5XWK","either","5","1863","","","","","","","0","0","1","","0.4659582456","0.2","0.6","0.4","0.8","0.4659582456","0.4508116693","0.2451982598","0.1771911602","","","","","","","","","","","","72","H","0","img/none_selected.jpg","","32","main_expt"
"","bandit","112","684105","0.0-73.0-0.0","03623359","wem/bandit_either_2","A3MZLFTQM5XWK","either","5","1007","","","","","","","1","0","0","0.4810757035","","0.2","0.6","0.4","0.8","","","","","0.4810757035","0.45101727","0.2360369815","0.1622836308","","","","","","","","72","H","0","img/none_selected.jpg","","33","main_expt"
"","bandit","113","687146","0.0-74.0-0.0","03623359","wem/bandit_either_2","A3MZLFTQM5XWK","either","5","1526","","","","","","","0","0","1","","0.4842727378","0.2","0.6","0.4","0.8","0.4842727378","0.4340174653","0.2317763892","0.1655985557","","","","","","","","","","","","72","H","0","img/none_selected.jpg","","34","main_expt"
"","bandit","114","689646","0.0-75.0-0.0","03623359","wem/bandit_either_2","A3MZLFTQM5XWK","either","5","982","","","","","","","0","0","1","","0.4745470136","0.2","0.6","0.4","0.8","0.4745470136","0.4040147441","0.2527891731","0.1492797185","","","","","","","","","","","","72","H","0","img/none_selected.jpg","","35","main_expt"
"","bandit","115","691195","0.0-76.0-0.0","03623359","wem/bandit_either_2","A3MZLFTQM5XWK","either","5","22","","","","","","","0","0","1","","0.4268829696","0.2","0.6","0.4","0.8","0.4440965139","0.4268829696","0.2641283143","0.1504543003","","","","","","","","","","","","74","J","1","","","36","main_expt"
"","bandit","116","692755","0.0-77.0-0.0","03623359","wem/bandit_either_2","A3MZLFTQM5XWK","either","5","39","","","","","","","1","0","0","0.4562327564","","0.2","0.6","0.4","0.8","","","","","0.4544425755","0.4562327564","0.2309310423","0.1064249526","","","","","","","","74","J","1","","","37","main_expt"
"","bandit","117","694581","0.0-78.0-0.0","03623359","wem/bandit_either_2","A3MZLFTQM5XWK","either","5","313","","","","","","","0","0","1","0.4481627861","","0.2","0.6","0.4","0.8","","","","","0.4700138218","0.4481627861","0.2093170459","0.1346530267","","","","","","","","74","J","1","","","38","main_expt"
"","bandit","118","697033","0.0-79.0-0.0","03623359","wem/bandit_either_2","A3MZLFTQM5XWK","either","5","929","","","","","","","0","0","1","0.4475890948","","0.2","0.6","0.4","0.8","","","","","0.466948448","0.4475890948","0.1398625959","0.1303494481","","","","","","","","74","J","1","","","39","main_expt"
"","bandit","119","698883","0.0-80.0-0.0","03623359","wem/bandit_either_2","A3MZLFTQM5XWK","either","5","335","","","","","","","0","0","1","","0.09690087606","0.2","0.6","0.4","0.8","0.4679256248","0.4501575696","0.09690087606","0.1492074344","","","","","","","","","","","","75","K","2","","","40","main_expt"
"","bandit","120","700693","0.0-81.0-0.0","03623359","wem/bandit_either_2","A3MZLFTQM5XWK","either","5","296","","","","","","","0","0","1","","0.1129569356","0.2","0.6","0.4","0.8","0.445537573","0.4121884666","0.1129569356","0.1370672299","","","","","","","","","","","","75","K","2","","","41","main_expt"
"","bandit","121","702764","0.0-82.0-0.0","03623359","wem/bandit_either_2","A3MZLFTQM5XWK","either","5","555","","","","","","","0","0","1","0.08144147181","","0.2","0.6","0.4","0.8","","","","","0.4521531226","0.4379939247","0.1227033228","0.08144147181","","","","","","","","76","L","3","","","42","main_expt"
"","bandit","122","704653","0.0-83.0-0.0","03623359","wem/bandit_either_2","A3MZLFTQM5XWK","either","5","373","","","","","","","0","0","1","0.06793865388","","0.2","0.6","0.4","0.8","","","","","0.4695072217","0.4271747655","0.08393287497","0.06793865388","","","","","","","","76","L","3","","","43","main_expt"
"","bandit","123","706737","0.0-84.0-0.0","03623359","wem/bandit_either_2","A3MZLFTQM5XWK","either","5","568","","","","","","","0","0","1","","0.4807409838","0.2","0.6","0.4","0.8","0.4807409838","0.4480494518","0.06260074275","0.05295344446","","","","","","","","","","","","72","H","0","img/none_selected.jpg","","44","main_expt"
"","bandit","124","708573","0.0-85.0-0.0","03623359","wem/bandit_either_2","A3MZLFTQM5XWK","either","5","322","","","","","","","0","1","0","","0.4507048108","0.2","0.6","0.4","0.8","0.4507048108","0.4269729589","0.08062123592","0.02744239742","","","","","","","","","","","","72","H","0","img/none_selected.jpg","","45","main_expt"
"","bandit","125","710438","0.0-86.0-0.0","03623359","wem/bandit_either_2","A3MZLFTQM5XWK","either","5","351","","","","","","","0","0","1","0.4382321206","","0.2","0.6","0.4","0.8","","","","","0.4382321206","0.4475746277","0.1110847749","0.02347437243","","","","","","","","72","H","0","img/none_selected.jpg","","46","main_expt"
"","bandit","126","713059","0.0-87.0-0.0","03623359","wem/bandit_either_2","A3MZLFTQM5XWK","either","5","1107","","","","","","","0","0","1","","0.4393937913","0.2","0.6","0.4","0.8","0.4393937913","0.4295618238","0.05346849493","0.02418160198","","","","","","","","","","","","72","H","0","img/none_selected.jpg","","47","main_expt"
"","bandit","127","714662","0.0-88.0-0.0","03623359","wem/bandit_either_2","A3MZLFTQM5XWK","either","5","85","","","","","","","0","0","1","0.4431907244","","0.2","0.6","0.4","0.8","","","","","0.440318131","0.4431907244","0.04499733497","0.01182676654","","","","","","","","74","J","1","","","48","main_expt"
"","bandit","128","716883","0.0-89.0-0.0","03623359","wem/bandit_either_2","A3MZLFTQM5XWK","either","5","705","","","","","","","0","0","1","0.4187732916","","0.2","0.6","0.4","0.8","","","","","0.4362102412","0.4187732916","0.07378534534","0.0186287842","","","","","","","","74","J","1","","","49","main_expt"
"","bandit","129","720441","0.0-90.0-0.0","03623359","wem/bandit_either_2","A3MZLFTQM5XWK","either","5","2043","","","","","","","0","0","1","0.356579213","","0.2","0.6","0.4","0.8","","","","","0.44488671","0.356579213","0.06168845619","0.02550629551","","","","","","","","74","J","1","","","50","main_expt"
"","bandit","130","722201","0.0-91.0-0.0","03623359","wem/bandit_either_2","A3MZLFTQM5XWK","either","5","233","","","","","","","0","0","1","0.1062028567","","0.2","0.6","0.4","0.8","","","","","0.4633405548","0.2629404955","0.1062028567","0.04366809707","","","","","","","","75","K","2","","","51","main_expt"
"","bandit","131","725413","0.0-92.0-0.0","03623359","wem/bandit_either_2","A3MZLFTQM5XWK","either","5","1695","","","","","","","0","0","1","0.1379608546","","0.2","0.6","0.4","0.8","","","","","0.4528043762","0.2919747068","0.1379608546","0.04357168116","","","","","","","","75","K","2","","","52","main_expt"
"","bandit","132","727223","0.0-93.0-0.0","03623359","wem/bandit_either_2","A3MZLFTQM5XWK","either","5","283","","","","","","","0","0","1","","0.03899227154","0.2","0.6","0.4","0.8","0.4390431751","0.3809901122","0.1356826849","0.03899227154","","","","","","","","","","","","76","L","3","","","53","main_expt"
"","bandit","133","729103","0.0-94.0-0.0","03623359","wem/bandit_either_2","A3MZLFTQM5XWK","either","5","364","","","","","","","0","0","1","","0.04009146386","0.2","0.6","0.4","0.8","0.4549270822","0.3452518694","0.1038772241","0.04009146386","","","","","","","","","","","","76","L","3","","","54","main_expt"
"","bandit","134","730941","0.0-95.0-0.0","03623359","wem/bandit_either_2","A3MZLFTQM5XWK","either","5","308","","","","","","","0","0","1","0.0155768565","","0.2","0.6","0.4","0.8","","","","","0.4710341864","0.3263112327","0.1689791829","0.0155768565","","","","","","","","76","L","3","","","55","main_expt"
"","bandit","135","732745","0.0-96.0-0.0","03623359","wem/bandit_either_2","A3MZLFTQM5XWK","either","5","289","","","","","","","0","0","1","","0.4745834276","0.2","0.6","0.4","0.8","0.4745834276","0.3308963945","0.1108888145","0.02112461672","","","","","","","","","","","","72","H","0","img/none_selected.jpg","","56","main_expt"
"","bandit","136","734604","0.0-97.0-0.0","03623359","wem/bandit_either_2","A3MZLFTQM5XWK","either","5","342","","","","","","","0","0","1","0.489318572","","0.2","0.6","0.4","0.8","","","","","0.489318572","0.3150326571","0.1206542402","0.0126553198","","","","","","","","72","H","0","img/none_selected.jpg","","57","main_expt"
"","bandit","137","736479","0.0-98.0-0.0","03623359","wem/bandit_either_2","A3MZLFTQM5XWK","either","5","351","","","","","","","0","1","0","","0.480037986","0.2","0.6","0.4","0.8","0.480037986","0.3049116772","0.09707343937","0.01131359515","","","","","","","","","","","","72","H","0","img/none_selected.jpg","","58","main_expt"
"","bandit","138","738625","0.0-99.0-0.0","03623359","wem/bandit_either_2","A3MZLFTQM5XWK","either","5","618","","","","","","","0","1","0","","0.4593461039","0.2","0.6","0.4","0.8","0.4593461039","0.3050987947","0.1044384952","0.01030075821","","","","","","","","","","","","72","H","0","img/none_selected.jpg","","59","main_expt"
"","bandit","139","740663","0.0-100.0-0.0","03623359","wem/bandit_either_2","A3MZLFTQM5XWK","either","5","513","","","","","","","0","0","1","","0.446051488","0.2","0.6","0.4","0.8","0.446051488","0.3274009355","0.08890369623","0.005868957973","","","","","","","","","","","","72","H","0","img/none_selected.jpg","","60","main_expt"
"","bandit","140","742584","0.0-101.0-0.0","03623359","wem/bandit_either_2","A3MZLFTQM5XWK","either","5","400","","","","","","","1","0","0","0.4391285327","","0.2","0.6","0.4","0.8","","","","","0.4391285327","0.3428943983","0.08921221942","0.004361943215","","","","","","","","72","H","0","img/none_selected.jpg","","61","main_expt"
"","bandit","141","744121","0.0-102.0-0.0","03623359","wem/bandit_either_2","A3MZLFTQM5XWK","either","5","9","","","","","","","0","0","1","","0.3549763931","0.2","0.6","0.4","0.8","0.4063883723","0.3549763931","0.09812025034","0.005208412743","","","","","","","","","","","","74","J","1","","","62","main_expt"
"","bandit","142","747515","0.0-103.0-0.0","03623359","wem/bandit_either_2","A3MZLFTQM5XWK","either","5","1874","","","","","","","0","0","1","0.3496678451","","0.2","0.6","0.4","0.8","","","","","0.4330387396","0.3496678451","0.09006279409","0.006461011255","","","","","","","","74","J","1","","","63","main_expt"
"","bandit","143","749562","0.0-104.0-0.0","03623359","wem/bandit_either_2","A3MZLFTQM5XWK","either","5","530","","","","","","","0","0","1","","0.4207902426","0.2","0.6","0.4","0.8","0.4207902426","0.3188537263","0.1118976224","0.01267926231","","","","","","","","","","","","72","H","0","img/none_selected.jpg","","64","main_expt"
"","bandit","144","752333","0.0-105.0-0.0","03623359","wem/bandit_either_2","A3MZLFTQM5XWK","either","5","1257","","","","","","","0","0","1","0.3719582347","","0.2","0.6","0.4","0.8","","","","","0.3719582347","0.3191795336","0.1053817613","0.009732787917","","","","","","","","72","H","0","img/none_selected.jpg","","65","main_expt"
"","bandit","145","755108","0.0-106.0-0.0","03623359","wem/bandit_either_2","A3MZLFTQM5XWK","either","5","1259","","","","","","","0","0","1","0.1307356695","","0.2","0.6","0.4","0.8","","","","","0.3748569955","0.268616347","0.1307356695","0.01092542651","","","","","","","","75","K","2","","","66","main_expt"
"","bandit","146","757814","0.0-107.0-0.0","03623359","wem/bandit_either_2","A3MZLFTQM5XWK","either","5","1179","","","","","","","0","0","1","","0.1418436428","0.2","0.6","0.4","0.8","0.335252031","0.259194563","0.1418436428","0.02125534741","","","","","","","","","","","","75","K","2","","","67","main_expt"
"","bandit","147","759797","0.0-108.0-0.0","03623359","wem/bandit_either_2","A3MZLFTQM5XWK","either","5","457","","","","","","","0","1","0","","0.3199157278","0.2","0.6","0.4","0.8","0.3199157278","0.2281204868","0.1459089566","0.02360283027","","","","","","","","","","","","72","H","0","img/none_selected.jpg","","68","main_expt"
"","bandit","148","762153","0.0-109.0-0.0","03623359","wem/bandit_either_2","A3MZLFTQM5XWK","either","5","840","","","","","","","0","0","1","0.3068525281","","0.2","0.6","0.4","0.8","","","","","0.3068525281","0.2195844169","0.1809721424","0.02539305756","","","","","","","","72","H","0","img/none_selected.jpg","","69","main_expt"
"","bandit","149","764254","0.0-110.0-0.0","03623359","wem/bandit_either_2","A3MZLFTQM5XWK","either","5","580","","","","","","","0","0","1","","0.3181076016","0.2","0.6","0.4","0.8","0.3181076016","0.1883338509","0.1784068974","0.05014388586","","","","","","","","","","","","72","H","0","img/none_selected.jpg","","70","main_expt"
"","bandit","150","766192","0.0-111.0-0.0","03623359","wem/bandit_either_2","A3MZLFTQM5XWK","either","5","411","","","","","","","0","1","0","","0.2926426422","0.2","0.6","0.4","0.8","0.2926426422","0.1639708178","0.1973023396","0.04209054697","","","","","","","","","","","","72","H","0","img/none_selected.jpg","","71","main_expt"
"","bandit","151","768687","0.0-112.0-0.0","03623359","wem/bandit_either_2","A3MZLFTQM5XWK","either","5","979","","","","","","","0","0","1","","0.05611199342","0.2","0.6","0.4","0.8","0.2380263643","0.1312842785","0.2436342847","0.05611199342","","","","","","","","","","","","76","L","3","","","72","main_expt"
"","bandit","152","770476","0.0-113.0-0.0","03623359","wem/bandit_either_2","A3MZLFTQM5XWK","either","5","273","","","","","","","0","0","1","0.05293238473","","0.2","0.6","0.4","0.8","","","","","0.2407197948","0.1805041857","0.1992173182","0.05293238473","","","","","","","","76","L","3","","","73","main_expt"
"","bandit","153","772405","0.0-114.0-0.0","03623359","wem/bandit_either_2","A3MZLFTQM5XWK","either","5","413","","","","","","","0","0","1","0.2347098304","","0.2","0.6","0.4","0.8","","","","","0.2317468449","0.1739557812","0.2347098304","0.0318456884","","","","","","","","75","K","2","","","74","main_expt"
"","bandit","154","774928","0.0-115.0-0.0","03623359","wem/bandit_either_2","A3MZLFTQM5XWK","either","5","1002","","","","","","","1","0","0","0.2641442137","","0.2","0.6","0.4","0.8","","","","","0.2545997551","0.2434916027","0.2641442137","0.03873230677","","","","","","","","75","K","2","","","75","main_expt"
"","bandit","155","776864","0.0-116.0-0.0","03623359","wem/bandit_either_2","A3MZLFTQM5XWK","either","5","419","","","","","","","0","0","1","0.3192644053","","0.2","0.6","0.4","0.8","","","","","0.2890845388","0.2438468568","0.3192644053","0.03304947682","","","","","","","","75","K","2","","","76","main_expt"
"","bandit","156","778721","0.0-117.0-0.0","03623359","wem/bandit_either_2","A3MZLFTQM5XWK","either","5","342","","","","","","","0","0","1","0.3351132613","","0.2","0.6","0.4","0.8","","","","","0.2386362654","0.2425324642","0.3351132613","0.02607887458","","","","","","","","75","K","2","","","77","main_expt"
"","bandit","157","780451","0.0-118.0-0.0","03623359","wem/bandit_either_2","A3MZLFTQM5XWK","either","5","210","","","","","","","0","0","1","0.205588479","","0.2","0.6","0.4","0.8","","","","","0.2673679704","0.205588479","0.3086784207","0.02492981692","","","","","","","","74","J","1","","","78","main_expt"
"","bandit","158","782318","0.0-119.0-0.0","03623359","wem/bandit_either_2","A3MZLFTQM5XWK","either","5","349","","","","","","","0","1","0","","0.213062191","0.2","0.6","0.4","0.8","0.2813811921","0.213062191","0.3076482073","0.01824110002","","","","","","","","","","","","74","J","1","","","79","main_expt"
"","bandit","159","784212","0.0-120.0-0.0","03623359","wem/bandit_either_2","A3MZLFTQM5XWK","either","5","375","","","","","","","0","0","1","0.1852926048","","0.2","0.6","0.4","0.8","","","","","0.2419447949","0.1852926048","0.3605025214","0.0202176162","","","","","","","","74","J","1","","","80","main_expt"
"","bandit","160","786092","0.0-121.0-0.0","03623359","wem/bandit_either_2","A3MZLFTQM5XWK","either","5","364","","","","","","","0","0","1","0.2332942271","","0.2","0.6","0.4","0.8","","","","","0.323481111","0.2332942271","0.3286166321","0.0252752587","","","","","","","","74","J","1","","","81","main_expt"
"","bandit","161","788038","0.0-122.0-0.0","03623359","wem/bandit_either_2","A3MZLFTQM5XWK","either","5","419","","","","","","","0","1","0","","0.3097244961","0.2","0.6","0.4","0.8","0.3097244961","0.2087797338","0.3459677762","0.05668457717","","","","","","","","","","","","72","H","0","img/none_selected.jpg","","82","main_expt"
"","bandit","162","789876","0.0-123.0-0.0","03623359","wem/bandit_either_2","A3MZLFTQM5XWK","either","5","323","","","","","","","0","1","0","","0.2787498647","0.2","0.6","0.4","0.8","0.2787498647","0.2049979043","0.3092751195","0.07760530004","","","","","","","","","","","","72","H","0","img/none_selected.jpg","","83","main_expt"
"","bandit","163","791934","0.0-124.0-0.0","03623359","wem/bandit_either_2","A3MZLFTQM5XWK","either","5","541","","","","","","","0","0","1","","0.2589524449","0.2","0.6","0.4","0.8","0.2589524449","0.2151780091","0.3044630387","0.03696005566","","","","","","","","","","","","72","H","0","img/none_selected.jpg","","84","main_expt"
"","bandit","164","794159","0.0-125.0-0.0","03623359","wem/bandit_either_2","A3MZLFTQM5XWK","either","5","708","","","","","","","0","0","1","","0.2769318636","0.2","0.6","0.4","0.8","0.2769318636","0.1497615914","0.2812480587","0.04177257934","","","","","","","","","","","","72","H","0","img/none_selected.jpg","","85","main_expt"
"","bandit","165","796170","0.0-126.0-0.0","03623359","wem/bandit_either_2","A3MZLFTQM5XWK","either","5","480","","","","","","","0","0","1","","0.2849222391","0.2","0.6","0.4","0.8","0.2849222391","0.1223687677","0.2506532223","0.0385770192","","","","","","","","","","","","72","H","0","img/none_selected.jpg","","86","main_expt"
"","bandit","166","797944","0.0-127.0-0.0","03623359","wem/bandit_either_2","A3MZLFTQM5XWK","either","5","256","","","","","","","0","0","1","0.1472857413","","0.2","0.6","0.4","0.8","","","","","0.3131087309","0.1472857413","0.2269900387","0.03720252147","","","","","","","","74","J","1","","","87","main_expt"
"","bandit","167","799945","0.0-128.0-0.0","03623359","wem/bandit_either_2","A3MZLFTQM5XWK","either","5","481","","","","","","","0","0","1","0.1252586248","","0.2","0.6","0.4","0.8","","","","","0.3038587512","0.1252586248","0.1504729919","0.06746059371","","","","","","","","74","J","1","","","88","main_expt"
"","bandit","168","801897","0.0-129.0-0.0","03623359","wem/bandit_either_2","A3MZLFTQM5XWK","either","5","422","","","","","","","0","0","1","","0.1382070302","0.2","0.6","0.4","0.8","0.3308022157","0.1194927994","0.1382070302","0.04069757945","","","","","","","","","","","","75","K","2","","","89","main_expt"
"","bandit","169","803698","0.0-130.0-0.0","03623359","wem/bandit_either_2","A3MZLFTQM5XWK","either","5","284","","","","","","","0","0","1","","0.1364765349","0.2","0.6","0.4","0.8","0.3574922351","0.1589750007","0.1364765349","0.07325379503","","","","","","","","","","","","75","K","2","","","90","main_expt"
"","bandit","170","805455","0.0-131.0-0.0","03623359","wem/bandit_either_2","A3MZLFTQM5XWK","either","5","229","","","","","","","0","0","1","","0.09318196272","0.2","0.6","0.4","0.8","0.3729517688","0.1859960426","0.09318196272","0.06877471811","","","","","","","","","","","","75","K","2","","","91","main_expt"
"","bandit","171","807380","0.0-132.0-0.0","03623359","wem/bandit_either_2","A3MZLFTQM5XWK","either","5","408","","","","","","","0","0","1","0.04115987362","","0.2","0.6","0.4","0.8","","","","","0.398352994","0.192419488","0.06946097624","0.04115987362","","","","","","","","76","L","3","","","92","main_expt"
"","bandit","172","808998","0.0-133.0-0.0","03623359","wem/bandit_either_2","A3MZLFTQM5XWK","either","5","102","","","","","","","0","0","1","0.07078892783","","0.2","0.6","0.4","0.8","","","","","0.4135860398","0.1716033463","0.08102832817","0.07078892783","","","","","","","","76","L","3","","","93","main_expt"
"","bandit","173","810565","0.0-134.0-0.0","03623359","wem/bandit_either_2","A3MZLFTQM5XWK","either","5","52","","","","","","","0","0","1","0.05572868433","","0.2","0.6","0.4","0.8","","","","","0.3786880174","0.1935897604","0.1271360848","0.05572868433","","","","","","","","76","L","3","","","94","main_expt"
"","bandit","174","812109","0.0-135.0-0.0","03623359","wem/bandit_either_2","A3MZLFTQM5XWK","either","5","27","","","","","","","0","1","0","","0.3823424718","0.2","0.6","0.4","0.8","0.3823424718","0.2193228015","0.1097592989","0.05056929995","","","","","","","","","","","","72","H","0","img/none_selected.jpg","","95","main_expt"
"","bandit","175","814372","0.0-136.0-0.0","03623359","wem/bandit_either_2","A3MZLFTQM5XWK","either","5","746","","","","","","","0","0","1","","0.3642725552","0.2","0.6","0.4","0.8","0.3642725552","0.3262643469","0.1085490834","0.04159874267","","","","","","","","","","","","72","H","0","img/none_selected.jpg","","96","main_expt"
"","bandit","176","816286","0.0-137.0-0.0","03623359","wem/bandit_either_2","A3MZLFTQM5XWK","either","5","400","","","","","","","0","0","1","","0.3197717944","0.2","0.6","0.4","0.8","0.3197717944","0.3207405496","0.1049812554","0.03654451862","","","","","","","","","","","","72","H","0","img/none_selected.jpg","","97","main_expt"
"","bandit","177","818159","0.0-138.0-0.0","03623359","wem/bandit_either_2","A3MZLFTQM5XWK","either","5","340","","","","","","","0","0","1","0.2514424369","","0.2","0.6","0.4","0.8","","","","","0.2514424369","0.3712856991","0.08177978443","0.04190300095","","","","","","","","72","H","0","img/none_selected.jpg","","98","main_expt"
"","bandit","178","819915","0.0-139.0-0.0","03623359","wem/bandit_either_2","A3MZLFTQM5XWK","either","5","226","","","","","","","0","1","0","","0.2926772137","0.2","0.6","0.4","0.8","0.2926772137","0.3740145378","0.07574087804","0.08742990617","","","","","","","","","","","","72","H","0","img/none_selected.jpg","","99","main_expt"
"","bandit","179","822291","0.0-140.0-0.0","03623359","wem/bandit_either_2","A3MZLFTQM5XWK","either","5","861","","","","","","","0","0","1","","0.234485335","0.2","0.6","0.4","0.8","0.234485335","0.3776295542","0.07829319678","0.08966523481","","","","","","","","","","","","72","H","0","img/none_selected.jpg","","100","main_expt"
"","bandit","180","824565","0.0-141.0-0.0","03623359","wem/bandit_either_2","A3MZLFTQM5XWK","either","5","743","","","","","","","0","0","1","","0.250352175","0.2","0.6","0.4","0.8","0.250352175","0.3592666398","0.07919243683","0.07849065771","","","","","","","","","","","","72","H","0","img/none_selected.jpg","","101","main_expt"
"","bandit","181","826624","0.0-142.0-0.0","03623359","wem/bandit_either_2","A3MZLFTQM5XWK","either","5","530","","","","","","","0","0","1","","0.2139972863","0.2","0.6","0.4","0.8","0.2139972863","0.3412191773","0.1052753188","0.1054267613","","","","","","","","","","","","72","H","0","img/none_selected.jpg","","102","main_expt"
"","bandit","182","828966","0.0-143.0-0.0","03623359","wem/bandit_either_2","A3MZLFTQM5XWK","either","5","823","","","","","","","0","0","1","","0.3133100433","0.2","0.6","0.4","0.8","0.20092706","0.3133100433","0.1248526142","0.1120981937","","","","","","","","","","","","74","J","1","","","103","main_expt"
"","bandit","183","831925","0.0-144.0-0.0","03623359","wem/bandit_either_2","A3MZLFTQM5XWK","either","5","1429","","","","","","","0","0","1","0.3219148419","","0.2","0.6","0.4","0.8","","","","","0.2305366804","0.3219148419","0.142969925","0.1034740879","","","","","","","","74","J","1","","","104","main_expt"
"","bandit","184","833833","0.0-145.0-0.0","03623359","wem/bandit_either_2","A3MZLFTQM5XWK","either","5","390","","","","","","","0","1","0","","0.3300892518","0.2","0.6","0.4","0.8","0.2102135581","0.3300892518","0.13947254","0.07597240327","","","","","","","","","","","","74","J","1","","","105","main_expt"
"","bandit","185","835787","0.0-146.0-0.0","03623359","wem/bandit_either_2","A3MZLFTQM5XWK","either","5","437","","","","","","","1","0","0","0.3401839058","","0.2","0.6","0.4","0.8","","","","","0.2219457329","0.3401839058","0.1329526997","0.1124257427","","","","","","","","74","J","1","","","106","main_expt"
"","bandit","186","837664","0.0-147.0-0.0","03623359","wem/bandit_either_2","A3MZLFTQM5XWK","either","5","361","","","","","","","0","0","1","0.3784706915","","0.2","0.6","0.4","0.8","","","","","0.3048423019","0.3784706915","0.1727290233","0.1133168519","","","","","","","","74","J","1","","","107","main_expt"
"","bandit","187","839731","0.0-148.0-0.0","03623359","wem/bandit_either_2","A3MZLFTQM5XWK","either","5","550","","","","","","","0","1","0","","0.3945753887","0.2","0.6","0.4","0.8","0.258150515","0.3945753887","0.1864487031","0.1752395656","","","","","","","","","","","","74","J","1","","","108","main_expt"
"","bandit","188","842053","0.0-149.0-0.0","03623359","wem/bandit_either_2","A3MZLFTQM5XWK","either","5","804","","","","","","","1","0","0","0.356827327","","0.2","0.6","0.4","0.8","","","","","0.1859129148","0.356827327","0.2463216238","0.1862973424","","","","","","","","74","J","1","","","109","main_expt"
"","bandit","189","844464","0.0-150.0-0.0","03623359","wem/bandit_either_2","A3MZLFTQM5XWK","either","5","883","","","","","","","0","0","1","0.2344179837","","0.2","0.6","0.4","0.8","","","","","0.1371624404","0.2344179837","0.2431522628","0.2015845776","","","","","","","","74","J","1","","","110","main_expt"
"","bandit","190","846838","0.0-151.0-0.0","03623359","wem/bandit_either_2","A3MZLFTQM5XWK","either","5","844","","","","","","","1","0","0","0.2644823096","","0.2","0.6","0.4","0.8","","","","","0.1258232978","0.2644823096","0.1757476643","0.2003651753","","","","","","","","74","J","1","","","111","main_expt"
"","bandit","191","848699","0.0-152.0-0.0","03623359","wem/bandit_either_2","A3MZLFTQM5XWK","either","5","344","","","","","","","0","0","1","0.28311182","","0.2","0.6","0.4","0.8","","","","","0.1529967373","0.28311182","0.2451518953","0.21392293","","","","","","","","74","J","1","","","112","main_expt"
"","bandit","192","850321","0.0-153.0-0.0","03623359","wem/bandit_either_2","A3MZLFTQM5XWK","either","5","104","","","","","","","0","0","1","0.2413269532","","0.2","0.6","0.4","0.8","","","","","0.148248117","0.2413269532","0.2407836715","0.1606798039","","","","","","","","74","J","1","","","113","main_expt"
"","bandit","193","852575","0.0-154.0-0.0","03623359","wem/bandit_either_2","A3MZLFTQM5XWK","either","5","737","","","","","","","1","0","0","0.3100969134","","0.2","0.6","0.4","0.8","","","","","0.1562208239","0.3100969134","0.3099317417","0.2095980235","","","","","","","","74","J","1","","","114","main_expt"
"","bandit","194","854697","0.0-155.0-0.0","03623359","wem/bandit_either_2","A3MZLFTQM5XWK","either","5","587","","","","","","","1","0","0","0.329842252","","0.2","0.6","0.4","0.8","","","","","0.2138032898","0.329842252","0.3180754701","0.2550279667","","","","","","","","74","J","1","","","115","main_expt"
"","bandit","195","856537","0.0-156.0-0.0","03623359","wem/bandit_either_2","A3MZLFTQM5XWK","either","5","325","","","","","","","0","0","1","","0.3223706096","0.2","0.6","0.4","0.8","0.2331260325","0.3223706096","0.2919742107","0.2471764387","","","","","","","","","","","","74","J","1","","","116","main_expt"
"","bandit","196","859173","0.0-157.0-0.0","03623359","wem/bandit_either_2","A3MZLFTQM5XWK","either","5","1105","","","","","","","0","1","0","","0.3098408215","0.2","0.6","0.4","0.8","0.1826309729","0.3098408215","0.2799774295","0.2730878341","","","","","","","","","","","","74","J","1","","","117","main_expt"
"","bandit","197","861045","0.0-158.0-0.0","03623359","wem/bandit_either_2","A3MZLFTQM5XWK","either","5","355","","","","","","","1","0","0","0.2974554567","","0.2","0.6","0.4","0.8","","","","","0.1511269107","0.2974554567","0.2646714695","0.2071462199","","","","","","","","74","J","1","","","118","main_expt"
"","bandit","198","862564","0.0-159.0-0.0","03623359","wem/bandit_either_2","A3MZLFTQM5XWK","either","5","4","","","","","","","1","0","0","0.3598468986","","0.2","0.6","0.4","0.8","","","","","0.1559979654","0.3598468986","0.3179839519","0.2275232499","","","","","","","","74","J","1","","","119","main_expt"
"","bandit","199","864334","0.0-160.0-0.0","03623359","wem/bandit_either_2","A3MZLFTQM5XWK","either","5","252","","","","","","","0","0","1","0.2984373086","","0.2","0.6","0.4","0.8","","","","","0.1463004055","0.2984373086","0.3302262658","0.2767559596","","","","","","","","74","J","1","","","120","main_expt"
"","bandit","200","867332","0.0-161.0-0.0","03623359","wem/bandit_either_2","A3MZLFTQM5XWK","either","5","1467","","","","","","","0","0","1","0.2973090059","","0.2","0.6","0.4","0.8","","","","","0.1418195479","0.2973090059","0.3500549905","0.3448590315","","","","","","","","74","J","1","","","121","main_expt"
"","bandit","201","869379","0.0-162.0-0.0","03623359","wem/bandit_either_2","A3MZLFTQM5XWK","either","5","531","","","","","","","1","0","0","0.3382791822","","0.2","0.6","0.4","0.8","","","","","0.1270782113","0.3382791822","0.2686616284","0.3593301016","","","","","","","","74","J","1","","","122","main_expt"
"","bandit","202","872054","0.0-163.0-0.0","03623359","wem/bandit_either_2","A3MZLFTQM5XWK","either","5","1158","","","","","","","1","0","0","0.3154347028","","0.2","0.6","0.4","0.8","","","","","0.1207154071","0.3154347028","0.2277230314","0.3680529171","","","","","","","","74","J","1","","","123","main_expt"
"","bandit","203","873970","0.0-164.0-0.0","03623359","wem/bandit_either_2","A3MZLFTQM5XWK","either","5","397","","","","","","","1","0","0","0.2966737815","","0.2","0.6","0.4","0.8","","","","","0.1229329119","0.2966737815","0.3287090939","0.3476523483","","","","","","","","74","J","1","","","124","main_expt"
"","bandit","204","875905","0.0-165.0-0.0","03623359","wem/bandit_either_2","A3MZLFTQM5XWK","either","5","420","","","","","","","0","0","1","0.3094831126","","0.2","0.6","0.4","0.8","","","","","0.09241122996","0.3094831126","0.3687339586","0.3564603465","","","","","","","","74","J","1","","","125","main_expt"
"","bandit","205","877524","0.0-166.0-0.0","03623359","wem/bandit_either_2","A3MZLFTQM5XWK","either","5","101","","","","","","","0","0","1","0.2488993205","","0.2","0.6","0.4","0.8","","","","","0.08418962236","0.2488993205","0.3836195774","0.3550684458","","","","","","","","74","J","1","","","126","main_expt"
"","bandit","206","879885","0.0-167.0-0.0","03623359","wem/bandit_either_2","A3MZLFTQM5XWK","either","5","841","","","","","","","0","0","1","","0.3617365958","0.2","0.6","0.4","0.8","0.154715772","0.1953487027","0.3617365958","0.3235559827","","","","","","","","","","","","75","K","2","","","127","main_expt"
"","bandit","207","882059","0.0-168.0-0.0","03623359","wem/bandit_either_2","A3MZLFTQM5XWK","either","5","643","","","","","","","0","0","1","","0.3235283493","0.2","0.6","0.4","0.8","0.1556709078","0.2171889907","0.3235283493","0.312087491","","","","","","","","","","","","75","K","2","","","128","main_expt"
"","bandit","208","884244","0.0-169.0-0.0","03623359","wem/bandit_either_2","A3MZLFTQM5XWK","either","5","644","","","","","","","0","1","0","","0.2843272188","0.2","0.6","0.4","0.8","0.1214200615","0.2467699801","0.3453830546","0.2843272188","","","","","","","","","","","","76","L","3","","","129","main_expt"
"","bandit","209","886200","0.0-170.0-0.0","03623359","wem/bandit_either_2","A3MZLFTQM5XWK","either","5","434","","","","","","","0","0","1","0.2128416856","","0.2","0.6","0.4","0.8","","","","","0.1377283829","0.2814443482","0.3242747857","0.2128416856","","","","","","","","76","L","3","","","130","main_expt"
"","bandit","210","888075","0.0-171.0-0.0","03623359","wem/bandit_either_2","A3MZLFTQM5XWK","either","5","358","","","","","","","0","0","1","0.2403879813","","0.2","0.6","0.4","0.8","","","","","0.1397421628","0.2834176508","0.3417201858","0.2403879813","","","","","","","","76","L","3","","","131","main_expt"
"","bandit","211","889953","0.0-172.0-0.0","03623359","wem/bandit_either_2","A3MZLFTQM5XWK","either","5","346","","","","","","","0","0","1","","0.1061875113","0.2","0.6","0.4","0.8","0.1061875113","0.2429908031","0.3498614837","0.2811421594","","","","","","","","","","","","72","H","0","img/none_selected.jpg","","132","main_expt"
"","bandit","212","891477","0.0-173.0-0.0","03623359","wem/bandit_either_2","A3MZLFTQM5XWK","either","5","6","","","","","","","0","0","1","0.3053559495","","0.2","0.6","0.4","0.8","","","","","0.07774811701","0.3053559495","0.3134828643","0.3002858371","","","","","","","","74","J","1","","","133","main_expt"
"","bandit","213","894632","0.0-174.0-0.0","03623359","wem/bandit_either_2","A3MZLFTQM5XWK","either","5","1636","","","","","","","0","0","1","0.2693478067","","0.2","0.6","0.4","0.8","","","","","0.08211281178","0.2693478067","0.3554593188","0.277406375","","","","","","","","74","J","1","","","134","main_expt"
"","bandit","214","896773","0.0-175.0-0.0","03623359","wem/bandit_either_2","A3MZLFTQM5XWK","either","5","625","","","","","","","0","0","1","0.3369166079","","0.2","0.6","0.4","0.8","","","","","0.1123817552","0.3369166079","0.3150900126","0.2897147582","","","","","","","","74","J","1","","","135","main_expt"
"","bandit","215","898621","0.0-176.0-0.0","03623359","wem/bandit_either_2","A3MZLFTQM5XWK","either","5","330","","","","","","","1","0","0","0.268603144","","0.2","0.6","0.4","0.8","","","","","0.1478339482","0.268603144","0.3199395785","0.3590576628","","","","","","","","74","J","1","","","136","main_expt"
"","bandit","216","900566","0.0-177.0-0.0","03623359","wem/bandit_either_2","A3MZLFTQM5XWK","either","5","425","","","","","","","1","0","0","0.2373427956","","0.2","0.6","0.4","0.8","","","","","0.1374936615","0.2373427956","0.33362357","0.3822427384","","","","","","","","74","J","1","","","137","main_expt"
"","bandit","217","902439","0.0-178.0-0.0","03623359","wem/bandit_either_2","A3MZLFTQM5XWK","either","5","355","","","","","","","0","0","1","0.2206869265","","0.2","0.6","0.4","0.8","","","","","0.159761955","0.2206869265","0.3611324022","0.3410071165","","","","","","","","74","J","1","","","138","main_expt"
"","bandit","218","904299","0.0-179.0-0.0","03623359","wem/bandit_either_2","A3MZLFTQM5XWK","either","5","343","","","","","","","0","0","1","","0.2177966349","0.2","0.6","0.4","0.8","0.1363721132","0.2177966349","0.3504145086","0.3738014659","","","","","","","","","","","","74","J","1","","","139","main_expt"
"","bandit","219","906217","0.0-180.0-0.0","03623359","wem/bandit_either_2","A3MZLFTQM5XWK","either","5","399","","","","","","","0","0","1","0.2387685432","","0.2","0.6","0.4","0.8","","","","","0.1031445192","0.2387685432","0.309774603","0.422575493","","","","","","","","74","J","1","","","140","main_expt"
"","bandit","220","908083","0.0-181.0-0.0","03623359","wem/bandit_either_2","A3MZLFTQM5XWK","either","5","346","","","","","","","0","1","0","","0.3506531288","0.2","0.6","0.4","0.8","0.09805286369","0.2575087366","0.3506531288","0.4439129864","","","","","","","","","","","","75","K","2","","","141","main_expt"
"","bandit","221","910014","0.0-182.0-0.0","03623359","wem/bandit_either_2","A3MZLFTQM5XWK","either","5","399","","","","","","","0","0","1","0.2965027242","","0.2","0.6","0.4","0.8","","","","","0.1149002948","0.2392038972","0.2965027242","0.4323802182","","","","","","","","75","K","2","","","142","main_expt"
"","bandit","222","911923","0.0-183.0-0.0","03623359","wem/bandit_either_2","A3MZLFTQM5XWK","either","5","391","","","","","","","0","0","1","","0.2087517366","0.2","0.6","0.4","0.8","0.1209542099","0.2216470548","0.2087517366","0.4358412593","","","","","","","","","","","","75","K","2","","","143","main_expt"
"","bandit","223","913888","0.0-184.0-0.0","03623359","wem/bandit_either_2","A3MZLFTQM5XWK","either","5","446","","","","","","","0","0","1","","0.2313605626","0.2","0.6","0.4","0.8","0.1202521083","0.2224896139","0.2313605626","0.4407373256","","","","","","","","","","","","75","K","2","","","144","main_expt"
"","bandit","224","915709","0.0-185.0-0.0","03623359","wem/bandit_either_2","A3MZLFTQM5XWK","either","5","287","","","","","","","1","0","0","0.4661091035","","0.2","0.6","0.4","0.8","","","","","0.1619743669","0.1925605464","0.1785565547","0.4661091035","","","","","","","","76","L","3","","","145","main_expt"
"","bandit","225","917685","0.0-186.0-0.0","03623359","wem/bandit_either_2","A3MZLFTQM5XWK","either","5","445","","","","","","","0","0","1","0.4637097668","","0.2","0.6","0.4","0.8","","","","","0.1664631043","0.2069800611","0.1770660648","0.4637097668","","","","","","","","76","L","3","","","146","main_expt"
"","bandit","226","919646","0.0-187.0-0.0","03623359","wem/bandit_either_2","A3MZLFTQM5XWK","either","5","442","","","","","","","0","0","1","0.4700491642","","0.2","0.6","0.4","0.8","","","","","0.1669241763","0.2489662189","0.1063371611","0.4700491642","","","","","","","","76","L","3","","","147","main_expt"
"","bandit","227","921560","0.0-188.0-0.0","03623359","wem/bandit_either_2","A3MZLFTQM5XWK","either","5","394","","","","","","","0","0","1","","0.1946464158","0.2","0.6","0.4","0.8","0.1581456949","0.1946464158","0.1216370817","0.4648109734","","","","","","","","","","","","74","J","1","","","148","main_expt"
"","bandit","228","923571","0.0-189.0-0.0","03623359","wem/bandit_either_2","A3MZLFTQM5XWK","either","5","481","","","","","","","0","0","1","0.1826562491","","0.2","0.6","0.4","0.8","","","","","0.1698392466","0.1826562491","0.1024256959","0.4635511513","","","","","","","","74","J","1","","","149","main_expt"
"","bandit","229","925656","0.0-190.0-0.0","03623359","wem/bandit_either_2","A3MZLFTQM5XWK","either","5","568","","","","","","","0","1","0","","0.1371094633","0.2","0.6","0.4","0.8","0.2140114634","0.1750473563","0.1371094633","0.4445017148","","","","","","","","","","","","75","K","2","","","150","main_expt"
"","bandit","230","927559","0.0-191.0-0.0","03623359","wem/bandit_either_2","A3MZLFTQM5XWK","either","5","378","","","","","","","0","0","1","","0.1702433702","0.2","0.6","0.4","0.8","0.2392960001","0.1109536645","0.1702433702","0.4434799742","","","","","","","","","","","","75","K","2","","","151","main_expt"
"","bandit","231","929462","0.0-192.0-0.0","03623359","wem/bandit_either_2","A3MZLFTQM5XWK","either","5","383","","","","","","","0","0","1","","0.1860489046","0.2","0.6","0.4","0.8","0.2095863317","0.1143086707","0.1860489046","0.4451665291","","","","","","","","","","","","75","K","2","","","152","main_expt"
"","bandit","232","931380","0.0-193.0-0.0","03623359","wem/bandit_either_2","A3MZLFTQM5XWK","either","5","399","","","","","","","0","0","1","","0.2117094388","0.2","0.6","0.4","0.8","0.2543258611","0.1236290712","0.2117094388","0.4401532833","","","","","","","","","","","","75","K","2","","","153","main_expt"
"","bandit","233","933183","0.0-194.0-0.0","03623359","wem/bandit_either_2","A3MZLFTQM5XWK","either","5","284","","","","","","","0","0","1","0.2072389033","","0.2","0.6","0.4","0.8","","","","","0.2602259906","0.1600695342","0.2072389033","0.4516855879","","","","","","","","75","K","2","","","154","main_expt"
"","bandit","234","935113","0.0-195.0-0.0","03623359","wem/bandit_either_2","A3MZLFTQM5XWK","either","5","397","","","","","","","0","1","0","","0.2750581274","0.2","0.6","0.4","0.8","0.2750581274","0.1770288166","0.1986333914","0.4480264808","","","","","","","","","","","","72","H","0","img/none_selected.jpg","","155","main_expt"
"","bandit","235","937305","0.0-196.0-0.0","03623359","wem/bandit_either_2","A3MZLFTQM5XWK","either","5","674","","","","","","","0","1","0","","0.2438045727","0.2","0.6","0.4","0.8","0.2438045727","0.1761817894","0.2054640346","0.4260414265","","","","","","","","","","","","72","H","0","img/none_selected.jpg","","156","main_expt"
"","bandit","236","939187","0.0-197.0-0.0","03623359","wem/bandit_either_2","A3MZLFTQM5XWK","either","5","363","","","","","","","0","0","1","","0.2857025143","0.2","0.6","0.4","0.8","0.2857025143","0.1998830888","0.1810715383","0.4365201507","","","","","","","","","","","","72","H","0","img/none_selected.jpg","","157","main_expt"
"","bandit","237","941064","0.0-198.0-0.0","03623359","wem/bandit_either_2","A3MZLFTQM5XWK","either","5","357","","","","","","","0","0","1","","0.2887719476","0.2","0.6","0.4","0.8","0.2887719476","0.2150354531","0.2118906364","0.4076244479","","","","","","","","","","","","72","H","0","img/none_selected.jpg","","158","main_expt"
"","bandit","238","942935","0.0-199.0-0.0","03623359","wem/bandit_either_2","A3MZLFTQM5XWK","either","5","337","","","","","","","0","0","1","","0.2859462397","0.2","0.6","0.4","0.8","0.2859462397","0.2221069796","0.2293976715","0.403953851","","","","","","","","","","","","72","H","0","img/none_selected.jpg","","159","main_expt"
"","bandit","239","946020","0.0-200.0-0.0","03623359","wem/bandit_either_2","A3MZLFTQM5XWK","either","5","1564","","","","","","","0","1","0","","0.207432816","0.2","0.6","0.4","0.8","0.207432816","0.2627335039","0.2186051381","0.4282135537","","","","","","","","","","","","72","H","0","img/none_selected.jpg","","160","main_expt"
"","bandit","240","948220","0.0-201.0-0.0","03623359","wem/bandit_either_2","A3MZLFTQM5XWK","either","5","653","","","","","","","0","0","1","0.1611694724","","0.2","0.6","0.4","0.8","","","","","0.1611694724","0.2922457848","0.2175927206","0.4479073124","","","","","","","","72","H","0","img/none_selected.jpg","","161","main_expt"
"","bandit","241","950228","0.0-202.0-0.0","03623359","wem/bandit_either_2","A3MZLFTQM5XWK","either","5","485","","","","","","","0","0","1","","0.14378348","0.2","0.6","0.4","0.8","0.14378348","0.3040212123","0.2370404117","0.4456201243","","","","","","","","","","","","72","H","0","img/none_selected.jpg","","162","main_expt"
"","bandit","242","951900","0.0-203.0-0.0","03623359","wem/bandit_either_2","A3MZLFTQM5XWK","either","5","152","","","","","","","0","0","1","","0.2933359027","0.2","0.6","0.4","0.8","0.1707099899","0.2933359027","0.2778780432","0.4384930657","","","","","","","","","","","","74","J","1","","","163","main_expt"
"","bandit","243","954308","0.0-204.0-0.0","03623359","wem/bandit_either_2","A3MZLFTQM5XWK","either","5","886","","","","","","","0","0","1","","0.1933693166","0.2","0.6","0.4","0.8","0.1933693166","0.2388203062","0.2643388611","0.4231568034","","","","","","","","","","","","72","H","0","img/none_selected.jpg","","164","main_expt"
"","bandit","244","956147","0.0-205.0-0.0","03623359","wem/bandit_either_2","A3MZLFTQM5XWK","either","5","300","","","","","","","0","0","1","","0.1967204453","0.2","0.6","0.4","0.8","0.2406324952","0.2646204916","0.1967204453","0.4412535734","","","","","","","","","","","","75","K","2","","","165","main_expt"
"","bandit","245","957984","0.0-206.0-0.0","03623359","wem/bandit_either_2","A3MZLFTQM5XWK","either","5","316","","","","","","","0","0","1","","0.1567937345","0.2","0.6","0.4","0.8","0.2650462377","0.2591758032","0.1567937345","0.438364003","","","","","","","","","","","","75","K","2","","","166","main_expt"
"","bandit","246","959877","0.0-207.0-0.0","03623359","wem/bandit_either_2","A3MZLFTQM5XWK","either","5","372","","","","","","","0","0","1","","0.1955934818","0.2","0.6","0.4","0.8","0.245875583","0.1955934818","0.1201482918","0.4290991351","","","","","","","","","","","","74","J","1","","","167","main_expt"
"","bandit","247","961836","0.0-208.0-0.0","03623359","wem/bandit_either_2","A3MZLFTQM5XWK","either","5","424","","","","","","","0","0","1","","0.2090603634","0.2","0.6","0.4","0.8","0.257303599","0.2090603634","0.0936051119","0.4510860662","","","","","","","","","","","","74","J","1","","","168","main_expt"
"","bandit","248","963712","0.0-209.0-0.0","03623359","wem/bandit_either_2","A3MZLFTQM5XWK","either","5","355","","","","","","","0","0","1","","0.2678479696","0.2","0.6","0.4","0.8","0.2993732043","0.2678479696","0.08775096918","0.4491424364","","","","","","","","","","","","74","J","1","","","169","main_expt"
"","bandit","249","966052","0.0-210.0-0.0","03623359","wem/bandit_either_2","A3MZLFTQM5XWK","either","5","816","","","","","","","1","0","0","0.4332244901","","0.2","0.6","0.4","0.8","","","","","0.3388977639","0.2532125956","0.06743429675","0.4332244901","","","","","","","","76","L","3","","","170","main_expt"
"","bandit","250","967877","0.0-211.0-0.0","03623359","wem/bandit_either_2","A3MZLFTQM5XWK","either","5","297","","","","","","","1","0","0","0.4405036994","","0.2","0.6","0.4","0.8","","","","","0.2947926635","0.2568627054","0.05979118822","0.4405036994","","","","","","","","76","L","3","","","171","main_expt"
"","bandit","251","969993","0.0-212.0-0.0","03623359","wem/bandit_either_2","A3MZLFTQM5XWK","either","5","596","","","","","","","0","0","1","0.4358521759","","0.2","0.6","0.4","0.8","","","","","0.2892529657","0.2451563353","0.03200499914","0.4358521759","","","","","","","","76","L","3","","","172","main_expt"
"","bandit","252","972315","0.0-213.0-0.0","03623359","wem/bandit_either_2","A3MZLFTQM5XWK","either","5","799","","","","","","","0","0","1","0.4471617722","","0.2","0.6","0.4","0.8","","","","","0.2571917514","0.3003395367","0.04613358223","0.4471617722","","","","","","","","76","L","3","","","173","main_expt"
"","bandit","253","974440","0.0-214.0-0.0","03623359","wem/bandit_either_2","A3MZLFTQM5XWK","either","5","606","","","","","","","0","0","1","0.4560251174","","0.2","0.6","0.4","0.8","","","","","0.244173221","0.2545998681","0.05969677181","0.4560251174","","","","","","","","76","L","3","","","174","main_expt"
"","bandit","254","976111","0.0-215.0-0.0","03623359","wem/bandit_either_2","A3MZLFTQM5XWK","either","5","150","","","","","","","0","0","1","","0.05930066603","0.2","0.6","0.4","0.8","0.2038098688","0.3383135611","0.05930066603","0.4379349024","","","","","","","","","","","","75","K","2","","","175","main_expt"
"","bandit","255","977728","0.0-216.0-0.0","03623359","wem/bandit_either_2","A3MZLFTQM5XWK","either","5","95","","","","","","","0","0","1","0.08110879181","","0.2","0.6","0.4","0.8","","","","","0.2053823003","0.3880627729","0.08110879181","0.4328841116","","","","","","","","75","K","2","","","176","main_expt"
"","bandit","256","979486","0.0-217.0-0.0","03623359","wem/bandit_either_2","A3MZLFTQM5XWK","either","5","234","","","","","","","0","0","1","0.3920994557","","0.2","0.6","0.4","0.8","","","","","0.2193083282","0.3920994557","0.07611568943","0.3965365967","","","","","","","","74","J","1","","","177","main_expt"
"","bandit","257","981027","0.0-218.0-0.0","03623359","wem/bandit_either_2","A3MZLFTQM5XWK","either","5","22","","","","","","","0","0","1","0.3882277994","","0.2","0.6","0.4","0.8","","","","","0.1904263594","0.3882277994","0.1220467165","0.3899234309","","","","","","","","74","J","1","","","178","main_expt"
"","bandit","258","983349","0.0-219.0-0.0","03623359","wem/bandit_either_2","A3MZLFTQM5XWK","either","5","802","","","","","","","0","1","0","","0.3939691408","0.2","0.6","0.4","0.8","0.2212788648","0.3939691408","0.1698853315","0.4238443777","","","","","","","","","","","","74","J","1","","","179","main_expt"
"","bandit","259","986169","0.0-220.0-0.0","03623359","wem/bandit_either_2","A3MZLFTQM5XWK","either","5","1295","","","","","","","1","0","0","0.4074656662","","0.2","0.6","0.4","0.8","","","","","0.2640717145","0.4074656662","0.1374762061","0.4487400994","","","","","","","","74","J","1","","","180","main_expt"
"","bandit","260","988305","0.0-221.0-0.0","03623359","wem/bandit_either_2","A3MZLFTQM5XWK","either","5","616","","","","","","","0","1","0","","0.3724421945","0.2","0.6","0.4","0.8","0.2426483564","0.3724421945","0.09961924189","0.4314573438","","","","","","","","","","","","74","J","1","","","181","main_expt"
"","bandit","261","990619","0.0-222.0-0.0","03623359","wem/bandit_either_2","A3MZLFTQM5XWK","either","5","791","","","","","","","0","0","1","","0.2998177931","0.2","0.6","0.4","0.8","0.2001563476","0.2998177931","0.1391043194","0.4458059303","","","","","","","","","","","","74","J","1","","","182","main_expt"
"","bandit","262","992833","0.0-223.0-0.0","03623359","wem/bandit_either_2","A3MZLFTQM5XWK","either","5","679","","","","","","","1","0","0","0.3629728763","","0.2","0.6","0.4","0.8","","","","","0.2167094124","0.3629728763","0.1336424596","0.4485460149","","","","","","","","74","J","1","","","183","main_expt"
"","bandit","263","995074","0.0-224.0-0.0","03623359","wem/bandit_either_2","A3MZLFTQM5XWK","either","5","720","","","","","","","1","0","0","0.3763603645","","0.2","0.6","0.4","0.8","","","","","0.2402813617","0.3763603645","0.115911235","0.4078350507","","","","","","","","74","J","1","","","184","main_expt"
"","bandit","264","997521","0.0-225.0-0.0","03623359","wem/bandit_either_2","A3MZLFTQM5XWK","either","5","926","","","","","","","0","0","1","0.3472982705","","0.2","0.6","0.4","0.8","","","","","0.2745112141","0.3472982705","0.1394203739","0.3805788675","","","","","","","","74","J","1","","","185","main_expt"
"","bandit","265","999704","0.0-226.0-0.0","03623359","wem/bandit_either_2","A3MZLFTQM5XWK","either","5","660","","","","","","","0","0","1","0.3095995051","","0.2","0.6","0.4","0.8","","","","","0.2774566956","0.3095995051","0.1557479742","0.4236809331","","","","","","","","74","J","1","","","186","main_expt"
"","bandit","266","1001226","0.0-227.0-0.0","03623359","wem/bandit_either_2","A3MZLFTQM5XWK","either","5","2","","","","","","","0","1","0","","0.2876011691","0.2","0.6","0.4","0.8","0.2876011691","0.2567332284","0.1823611596","0.4058627081","","","","","","","","","","","","72","H","0","img/none_selected.jpg","","187","main_expt"
"","bandit","267","1003200","0.0-228.0-0.0","03623359","wem/bandit_either_2","A3MZLFTQM5XWK","either","5","458","","","","","","","1","0","0","0.2947112378","","0.2","0.6","0.4","0.8","","","","","0.2947112378","0.2555256861","0.1854179297","0.3913346521","","","","","","","","72","H","0","img/none_selected.jpg","","188","main_expt"
"","bandit","268","1005676","0.0-229.0-0.0","03623359","wem/bandit_either_2","A3MZLFTQM5XWK","either","5","938","","","","","","","0","0","1","","0.2581494","0.2","0.6","0.4","0.8","0.2581494","0.2009875262","0.1875645599","0.3760164219","","","","","","","","","","","","72","H","0","img/none_selected.jpg","","189","main_expt"
"","bandit","269","1007568","0.0-230.0-0.0","03623359","wem/bandit_either_2","A3MZLFTQM5XWK","either","5","357","","","","","","","0","0","1","","0.1756323468","0.2","0.6","0.4","0.8","0.1756323468","0.2055488595","0.2018323604","0.3327352817","","","","","","","","","","","","72","H","0","img/none_selected.jpg","","190","main_expt"
"","bandit","270","1009179","0.0-231.0-0.0","03623359","wem/bandit_either_2","A3MZLFTQM5XWK","either","5","76","","","","","","","0","0","1","","0.1506387864","0.2","0.6","0.4","0.8","0.2521570866","0.1506387864","0.221094727","0.3015177445","","","","","","","","","","","","74","J","1","","","191","main_expt"
"","bandit","271","1010850","0.0-232.0-0.0","03623359","wem/bandit_either_2","A3MZLFTQM5XWK","either","5","149","","","","","","","0","0","1","","0.2027442266","0.2","0.6","0.4","0.8","0.2964739449","0.2027442266","0.2320570195","0.2773298268","","","","","","","","","","","","74","J","1","","","192","main_expt"
"","bandit","272","1013352","0.0-233.0-0.0","03623359","wem/bandit_either_2","A3MZLFTQM5XWK","either","5","979","","","","","","","0","0","1","","0.1969137872","0.2","0.6","0.4","0.8","0.2612966838","0.1969137872","0.2948950962","0.2836613797","","","","","","","","","","","","74","J","1","","","193","main_expt"
"","bandit","273","1015331","0.0-234.0-0.0","03623359","wem/bandit_either_2","A3MZLFTQM5XWK","either","5","443","","","","","","","0","0","1","0.2114994946","","0.2","0.6","0.4","0.8","","","","","0.3292914436","0.2114994946","0.2602906927","0.2799350415","","","","","","","","74","J","1","","","194","main_expt"
"","bandit","274","1017293","0.0-235.0-0.0","03623359","wem/bandit_either_2","A3MZLFTQM5XWK","either","5","423","","","","","","","0","0","1","0.2467939011","","0.2","0.6","0.4","0.8","","","","","0.4070308407","0.2467939011","0.1771499101","0.2068597772","","","","","","","","74","J","1","","","195","main_expt"
"","bandit","275","1019209","0.0-236.0-0.0","03623359","wem/bandit_either_2","A3MZLFTQM5XWK","either","5","397","","","","","","","0","0","1","","0.3494820729","0.2","0.6","0.4","0.8","0.3494820729","0.2731811988","0.1746274925","0.2679469531","","","","","","","","","","","","72","H","0","img/none_selected.jpg","","196","main_expt"
"","bandit","276","1021033","0.0-237.0-0.0","03623359","wem/bandit_either_2","A3MZLFTQM5XWK","either","5","306","","","","","","","0","0","1","","0.3571939809","0.2","0.6","0.4","0.8","0.3571939809","0.2512114903","0.193224684","0.2448078588","","","","","","","","","","","","72","H","0","img/none_selected.jpg","","197","main_expt"
"","bandit","277","1022763","0.0-238.0-0.0","03623359","wem/bandit_either_2","A3MZLFTQM5XWK","either","5","209","","","","","","","0","0","1","","0.1771509929","0.2","0.6","0.4","0.8","0.382430028","0.190651112","0.1771509929","0.2433987968","","","","","","","","","","","","75","K","2","","","198","main_expt"
"","bandit","278","1024287","0.0-239.0-0.0","03623359","wem/bandit_either_2","A3MZLFTQM5XWK","either","5","6","","","","","","","0","0","1","0.2466668772","","0.2","0.6","0.4","0.8","","","","","0.3353474301","0.1701189695","0.2466668772","0.2653624242","","","","","","","","75","K","2","","","199","main_expt"
"","bandit","279","1026442","0.0-240.0-0.0","03623359","wem/bandit_either_2","A3MZLFTQM5XWK","either","5","633","","","","","","","0","1","0","","0.2477816141","0.2","0.6","0.4","0.8","0.3321976498","0.1656975488","0.2477816141","0.2551376492","","","","","","","","","","","","75","K","2","","","200","main_expt"
"","bandit","280","1028383","0.0-241.0-0.0","03623359","wem/bandit_either_2","A3MZLFTQM5XWK","either","5","410","","","","","","","1","0","0","0.2744817861","","0.2","0.6","0.4","0.8","","","","","0.3218117355","0.1647298582","0.2744817861","0.2660639347","","","","","","","","75","K","2","","","201","main_expt"
"","bandit","281","1030246","0.0-242.0-0.0","03623359","wem/bandit_either_2","A3MZLFTQM5XWK","either","5","340","","","","","","","0","0","1","0.3043062986","","0.2","0.6","0.4","0.8","","","","","0.2949214693","0.1242041815","0.3043062986","0.2220900594","","","","","","","","75","K","2","","","202","main_expt"
"","bandit","282","1031943","0.0-243.0-0.0","03623359","wem/bandit_either_2","A3MZLFTQM5XWK","either","5","175","","","","","","","0","1","0","","0.272185569","0.2","0.6","0.4","0.8","0.300077299","0.1684487429","0.272185569","0.1543353204","","","","","","","","","","","","75","K","2","","","203","main_expt"
"","bandit","283","1034311","0.0-244.0-0.0","03623359","wem/bandit_either_2","A3MZLFTQM5XWK","either","5","846","","","","","","","0","0","1","","0.2610767704","0.2","0.6","0.4","0.8","0.2866085977","0.1666409686","0.2610767704","0.1605482003","","","","","","","","","","","","75","K","2","","","204","main_expt"
"","bandit","284","1035873","0.0-245.0-0.0","03623359","wem/bandit_either_2","A3MZLFTQM5XWK","either","5","41","","","","","","","0","0","1","","0.2832615928","0.2","0.6","0.4","0.8","0.2695546272","0.2197286508","0.2832615928","0.1406914754","","","","","","","","","","","","75","K","2","","","205","main_expt"
"","bandit","285","1037829","0.0-246.0-0.0","03623359","wem/bandit_either_2","A3MZLFTQM5XWK","either","5","435","","","","","","","0","0","1","","0.300913322","0.2","0.6","0.4","0.8","0.2622178416","0.2754509052","0.300913322","0.1138947463","","","","","","","","","","","","75","K","2","","","206","main_expt"
"","bandit","286","1039704","0.0-247.0-0.0","03623359","wem/bandit_either_2","A3MZLFTQM5XWK","either","5","353","","","","","","","0","0","1","","0.1096702189","0.2","0.6","0.4","0.8","0.2498186578","0.2664869377","0.3260258847","0.1096702189","","","","","","","","","","","","76","L","3","","","207","main_expt"
"","bandit","287","1041392","0.0-248.0-0.0","03623359","wem/bandit_either_2","A3MZLFTQM5XWK","either","5","168","","","","","","","0","1","0","","0.09922356593","0.2","0.6","0.4","0.8","0.2335358635","0.2686565688","0.3173829003","0.09922356593","","","","","","","","","","","","76","L","3","","","208","main_expt"
"","bandit","288","1043272","0.0-249.0-0.0","03623359","wem/bandit_either_2","A3MZLFTQM5XWK","either","5","357","","","","","","","0","0","1","0.101567507","","0.2","0.6","0.4","0.8","","","","","0.2638942681","0.2380255957","0.3153846937","0.101567507","","","","","","","","76","L","3","","","209","main_expt"
"","bandit","289","1045279","0.0-250.0-0.0","03623359","wem/bandit_either_2","A3MZLFTQM5XWK","either","5","464","","","","","","","0","0","1","0.08675379402","","0.2","0.6","0.4","0.8","","","","","0.2526926237","0.2507768727","0.3010876552","0.08675379402","","","","","","","","76","L","3","","","210","main_expt"
"","bandit","290","1047272","0.0-251.0-0.0","03623359","wem/bandit_either_2","A3MZLFTQM5XWK","either","5","475","","","","","","","0","0","1","0.07512021269","","0.2","0.6","0.4","0.8","","","","","0.2740367769","0.2685142319","0.2864900033","0.07512021269","","","","","","","","76","L","3","","","211","main_expt"
"","bandit","291","1049197","0.0-252.0-0.0","03623359","wem/bandit_either_2","A3MZLFTQM5XWK","either","5","407","","","","","","","0","0","1","0.3163372434","","0.2","0.6","0.4","0.8","","","","","0.2440836191","0.260511483","0.3163372434","0.08144254236","","","","","","","","75","K","2","","","212","main_expt"
"","bandit","292","1051853","0.0-253.0-0.0","03623359","wem/bandit_either_2","A3MZLFTQM5XWK","either","5","1136","","","","","","","0","0","1","","0.2701305136","0.2","0.6","0.4","0.8","0.2341903104","0.2579605047","0.2701305136","0.06585574052","","","","","","","","","","","","75","K","2","","","213","main_expt"
"","bandit","293","1053945","0.0-254.0-0.0","03623359","wem/bandit_either_2","A3MZLFTQM5XWK","either","5","569","","","","","","","0","0","1","","0.2470456849","0.2","0.6","0.4","0.8","0.2097526345","0.2470456849","0.302599165","0.08686614453","","","","","","","","","","","","74","J","1","","","214","main_expt"
"","bandit","294","1056331","0.0-255.0-0.0","03623359","wem/bandit_either_2","A3MZLFTQM5XWK","either","5","867","","","","","","","1","0","0","0.3285383036","","0.2","0.6","0.4","0.8","","","","","0.1796882487","0.3285383036","0.2968005471","0.1068548489","","","","","","","","74","J","1","","","215","main_expt"
"","bandit","295","1058175","0.0-256.0-0.0","03623359","wem/bandit_either_2","A3MZLFTQM5XWK","either","5","323","","","","","","","0","1","0","","0.3780044773","0.2","0.6","0.4","0.8","0.2237900511","0.3780044773","0.2835536598","0.1211736082","","","","","","","","","","","","74","J","1","","","216","main_expt"
"","bandit","296","1059967","0.0-257.0-0.0","03623359","wem/bandit_either_2","A3MZLFTQM5XWK","either","5","248","","","","","","","0","0","1","","0.3939228946","0.2","0.6","0.4","0.8","0.2265358539","0.3939228946","0.2520762718","0.09343701815","","","","","","","","","","","","74","J","1","","","217","main_expt"
"","bandit","297","1061872","0.0-258.0-0.0","03623359","wem/bandit_either_2","A3MZLFTQM5XWK","either","5","384","","","","","","","0","0","1","0.3198270803","","0.2","0.6","0.4","0.8","","","","","0.2364013437","0.3198270803","0.2562699476","0.1001055386","","","","","","","","74","J","1","","","218","main_expt"
"","bandit","298","1063393","0.0-259.0-0.0","03623359","wem/bandit_either_2","A3MZLFTQM5XWK","either","5","1","","","","","","","0","0","1","","0.3502502288","0.2","0.6","0.4","0.8","0.2810560361","0.3502502288","0.3002431464","0.09524874014","","","","","","","","","","","","74","J","1","","","219","main_expt"
"","bandit","299","1064916","0.0-260.0-0.0","03623359","wem/bandit_either_2","A3MZLFTQM5XWK","either","5","0","","","","","","","0","0","1","","0.3402456168","0.2","0.6","0.4","0.8","0.3027429446","0.3402456168","0.3365413303","0.1304899995","","","","","","","","","","","","74","J","1","","","220","main_expt"
"","bandit","300","1066871","0.0-261.0-0.0","03623359","wem/bandit_either_2","A3MZLFTQM5XWK","either","5","411","","","","","","","0","0","1","","0.3132134988","0.2","0.6","0.4","0.8","0.3132134988","0.3770059732","0.2946103072","0.1272814923","","","","","","","","","","","","72","H","0","img/none_selected.jpg","","221","main_expt"
"","bandit","301","1069290","0.0-262.0-0.0","03623359","wem/bandit_either_2","A3MZLFTQM5XWK","either","5","883","","","","","","","0","1","0","","0.2424821827","0.2","0.6","0.4","0.8","0.2424821827","0.3864421123","0.3267284332","0.1654407056","","","","","","","","","","","","72","H","0","img/none_selected.jpg","","222","main_expt"
"","bandit","302","1071399","0.0-263.0-0.0","03623359","wem/bandit_either_2","A3MZLFTQM5XWK","either","5","587","","","","","","","0","0","1","","0.2595367495","0.2","0.6","0.4","0.8","0.2595367495","0.4205211408","0.3175152631","0.1788325852","","","","","","","","","","","","72","H","0","img/none_selected.jpg","","223","main_expt"
"","bandit","303","1073176","0.0-264.0-0.0","03623359","wem/bandit_either_2","A3MZLFTQM5XWK","either","5","255","","","","","","","0","0","1","","0.328819141","0.2","0.6","0.4","0.8","0.328819141","0.4131889957","0.3192400935","0.1736623033","","","","","","","","","","","","72","H","0","img/none_selected.jpg","","224","main_expt"
"","bandit","304","1075092","0.0-265.0-0.0","03623359","wem/bandit_either_2","A3MZLFTQM5XWK","either","5","380","","","","","","","0","1","0","","0.356121412","0.2","0.6","0.4","0.8","0.356121412","0.4001513574","0.3096750449","0.1721911447","","","","","","","","","","","","72","H","0","img/none_selected.jpg","","225","main_expt"
"","bandit","305","1076988","0.0-266.0-0.0","03623359","wem/bandit_either_2","A3MZLFTQM5XWK","either","5","371","","","","","","","0","0","1","0.3394019192","","0.2","0.6","0.4","0.8","","","","","0.3394019192","0.3963688582","0.3142833063","0.2133818582","","","","","","","","72","H","0","img/none_selected.jpg","","226","main_expt"
"","bandit","306","1078677","0.0-267.0-0.0","03623359","wem/bandit_either_2","A3MZLFTQM5XWK","either","5","168","","","","","","","0","1","0","","0.3979714495","0.2","0.6","0.4","0.8","0.2860553004","0.3979714495","0.3096885674","0.2620007467","","","","","","","","","","","","74","J","1","","","227","main_expt"
"","bandit","307","1080584","0.0-268.0-0.0","03623359","wem/bandit_either_2","A3MZLFTQM5XWK","either","5","386","","","","","","","0","0","1","0.3811043637","","0.2","0.6","0.4","0.8","","","","","0.2967856672","0.3811043637","0.3048295172","0.2961930455","","","","","","","","74","J","1","","","228","main_expt"
"","bandit","308","1082545","0.0-269.0-0.0","03623359","wem/bandit_either_2","A3MZLFTQM5XWK","either","5","423","","","","","","","1","0","0","0.3488149186","","0.2","0.6","0.4","0.8","","","","","0.2857745529","0.3488149186","0.2553920021","0.3081123415","","","","","","","","74","J","1","","","229","main_expt"
"","bandit","309","1084361","0.0-270.0-0.0","03623359","wem/bandit_either_2","A3MZLFTQM5XWK","either","5","277","","","","","","","0","0","1","0.2883621188","","0.2","0.6","0.4","0.8","","","","","0.2589404948","0.2883621188","0.2783794412","0.3027177586","","","","","","","","74","J","1","","","230","main_expt"
"","bandit","310","1086248","0.0-271.0-0.0","03623359","wem/bandit_either_2","A3MZLFTQM5XWK","either","5","367","","","","","","","0","1","0","","0.2444465504","0.2","0.6","0.4","0.8","0.2628441024","0.2444465504","0.2735536708","0.2495346478","","","","","","","","","","","","74","J","1","","","231","main_expt"
"","bandit","311","1088127","0.0-272.0-0.0","03623359","wem/bandit_either_2","A3MZLFTQM5XWK","either","5","355","","","","","","","0","0","1","","0.2996930955","0.2","0.6","0.4","0.8","0.276537748","0.2996930955","0.2262440502","0.2185872191","","","","","","","","","","","","74","J","1","","","232","main_expt"
"","bandit","312","1089830","0.0-273.0-0.0","03623359","wem/bandit_either_2","A3MZLFTQM5XWK","either","5","181","","","","","","","0","0","1","0.2171974885","","0.2","0.6","0.4","0.8","","","","","0.2485723575","0.3103031796","0.2171974885","0.1874863907","","","","","","","","75","K","2","","","233","main_expt"
"","bandit","313","1091700","0.0-274.0-0.0","03623359","wem/bandit_either_2","A3MZLFTQM5XWK","either","5","348","","","","","","","0","0","1","0.2951485073","","0.2","0.6","0.4","0.8","","","","","0.2172766866","0.2971988612","0.2951485073","0.2165838284","","","","","","","","75","K","2","","","234","main_expt"
"","bandit","314","1093482","0.0-275.0-0.0","03623359","wem/bandit_either_2","A3MZLFTQM5XWK","either","5","258","","","","","","","0","0","1","0.3266576642","","0.2","0.6","0.4","0.8","","","","","0.221542824","0.3266576642","0.3135740045","0.1791302586","","","","","","","","74","J","1","","","235","main_expt"
"","bandit","315","1096052","0.0-276.0-0.0","03623359","wem/bandit_either_2","A3MZLFTQM5XWK","either","5","1035","","","","","","","0","0","1","0.3596878827","","0.2","0.6","0.4","0.8","","","","","0.2200573756","0.3596878827","0.2945285262","0.2463713802","","","","","","","","74","J","1","","","236","main_expt"
"","bandit","316","1097933","0.0-277.0-0.0","03623359","wem/bandit_either_2","A3MZLFTQM5XWK","either","5","359","","","","","","","0","0","1","","0.3951370387","0.2","0.6","0.4","0.8","0.2146478317","0.3951370387","0.2797454337","0.2204623923","","","","","","","","","","","","74","J","1","","","237","main_expt"
"","bandit","317","1099493","0.0-278.0-0.0","03623359","wem/bandit_either_2","A3MZLFTQM5XWK","either","5","41","","","","","","","0","0","1","","0.2237656472","0.2","0.6","0.4","0.8","0.2237656472","0.3863552979","0.266453507","0.2316256556","","","","","","","","","","","","72","H","0","img/none_selected.jpg","","238","main_expt"
"","bandit","318","1101714","0.0-279.0-0.0","03623359","wem/bandit_either_2","A3MZLFTQM5XWK","either","5","698","","","","","","","0","0","1","","0.2302611888","0.2","0.6","0.4","0.8","0.2302611888","0.3962704677","0.310831157","0.2406304147","","","","","","","","","","","","72","H","0","img/none_selected.jpg","","239","main_expt"
"","bandit","319","1104189","0.0-280.0-0.0","03623359","wem/bandit_either_2","A3MZLFTQM5XWK","either","5","954","","","","","","","0","0","1","0.2253069634","","0.2","0.6","0.4","0.8","","","","","0.2253069634","0.3926977495","0.331950591","0.2624476398","","","","","","","","72","H","0","img/none_selected.jpg","","240","main_expt"
"","bandit","320","1106075","0.0-281.0-0.0","03623359","wem/bandit_either_2","A3MZLFTQM5XWK","either","5","362","","","","","","","0","0","1","0.2627099727","","0.2","0.6","0.4","0.8","","","","","0.2523404353","0.3381110468","0.3223776605","0.2627099727","","","","","","","","76","L","3","","","241","main_expt"
"","bandit","321","1107615","0.0-282.0-0.0","03623359","wem/bandit_either_2","A3MZLFTQM5XWK","either","5","18","","","","","","","0","0","1","0.2262339403","","0.2","0.6","0.4","0.8","","","","","0.238450381","0.3213381148","0.3389272588","0.2262339403","","","","","","","","76","L","3","","","242","main_expt"
"","bandit","322","1109204","0.0-283.0-0.0","03623359","wem/bandit_either_2","A3MZLFTQM5XWK","either","5","67","","","","","","","0","0","1","0.2511573395","","0.2","0.6","0.4","0.8","","","","","0.2476478509","0.3395415742","0.4023830898","0.2511573395","","","","","","","","76","L","3","","","243","main_expt"
"","bandit","323","1111176","0.0-284.0-0.0","03623359","wem/bandit_either_2","A3MZLFTQM5XWK","either","5","446","","","","","","","0","0","1","","0.4072225753","0.2","0.6","0.4","0.8","0.2603762171","0.3077285799","0.4072225753","0.3112309098","","","","","","","","","","","","75","K","2","","","244","main_expt"
"","bandit","324","1112826","0.0-285.0-0.0","03623359","wem/bandit_either_2","A3MZLFTQM5XWK","either","5","126","","","","","","","1","0","0","0.4047901721","","0.2","0.6","0.4","0.8","","","","","0.2778117757","0.269997398","0.4047901721","0.3169667097","","","","","","","","75","K","2","","","245","main_expt"
"","bandit","325","1114674","0.0-286.0-0.0","03623359","wem/bandit_either_2","A3MZLFTQM5XWK","either","5","326","","","","","","","0","1","0","","0.4245844383","0.2","0.6","0.4","0.8","0.2571702875","0.2896792764","0.4245844383","0.3774934029","","","","","","","","","","","","75","K","2","","","246","main_expt"
"","bandit","326","1116516","0.0-287.0-0.0","03623359","wem/bandit_either_2","A3MZLFTQM5XWK","either","5","321","","","","","","","0","0","1","0.4425022826","","0.2","0.6","0.4","0.8","","","","","0.2790325972","0.3079745892","0.4425022826","0.3592590195","","","","","","","","75","K","2","","","247","main_expt"
