"consent","trial_type","trial_index","time_elapsed","internal_node_id","subjID","study","MID","cond","drift","rt","responses","key_press","expt_phase","like","value","connected","gems","bombs","no_reward","GemPrChosen","BombPrChosen","GainOverPainPr_0","GainOverPainPr_1","GainOverPainPr_2","GainOverPainPr_3","LosePr_0","LosePr_1","LosePr_2","LosePr_3","WinPr_0","WinPr_1","WinPr_2","WinPr_3","Q0","Q1","Q2","gender","age","ethnicity","target","respCharCode","respKey","respChoiceNum","respChoice","practice","trial_counter","trial_label"
"INL_behavioral_consent_30min_online.html","consent","0","8469","0.0-0.0","03702532","wem/bandit_either_2","AMYURTQIMAC8T","either","6","","","","","","","","","","","","","","","","","","","","","","","","","","","","","","","","","","","","","",""
"","survey-text","1","12595","0.0-1.0","03702532","wem/bandit_either_2","AMYURTQIMAC8T","either","6","3080","{""Q0"":""AMYURTQIMAC8T""}","","","","","","","","","","","","","","","","","","","","","","","","","","","","","","","","","","","",""
"","text","2","19242","0.0-2.0","03702532","wem/bandit_either_2","AMYURTQIMAC8T","either","6","5631","","32","","","","","","","","","","","","","","","","","","","","","","","","","","","","","","","","","","",""
"","text","3","21030","0.0-3.0","03702532","wem/bandit_either_2","AMYURTQIMAC8T","either","6","1783","","32","","","","","","","","","","","","","","","","","","","","","","","","","","","","","","","","","","",""
"","text","4","22004","0.0-4.0","03702532","wem/bandit_either_2","AMYURTQIMAC8T","either","6","969","","32","","","","","","","","","","","","","","","","","","","","","","","","","","","","","","","","","","",""
"","text","5","23233","0.0-5.0","03702532","wem/bandit_either_2","AMYURTQIMAC8T","either","6","1226","","32","","","","","","","","","","","","","","","","","","","","","","","","","","","","","","","","","","",""
"","text","6","25190","0.0-6.0","03702532","wem/bandit_either_2","AMYURTQIMAC8T","either","6","1953","","32","","","","","","","","","","","","","","","","","","","","","","","","","","","","","","","","","","",""
"","text","7","26552","0.0-7.0","03702532","wem/bandit_either_2","AMYURTQIMAC8T","either","6","1357","","32","","","","","","","","","","","","","","","","","","","","","","","","","","","","","","","","","","",""
"","text","8","28538","0.0-8.0","03702532","wem/bandit_either_2","AMYURTQIMAC8T","either","6","1982","","32","","","","","","","","","","","","","","","","","","","","","","","","","","","","","","","","","","",""
"","identification","9","32288","0.0-9.0-0.0","03702532","wem/bandit_either_2","AMYURTQIMAC8T","either","6","3531","","","","4","4","4","","","","","","","","","","","","","","","","","","","","","","","","the village of Zur","","","","","","",""
"","identification","10","36627","0.0-9.0-1.0","03702532","wem/bandit_either_2","AMYURTQIMAC8T","either","6","3155","","","","5","4","5","","","","","","","","","","","","","","","","","","","","","","","","the village of Nyx","","","","","","",""
"","text","11","38678","0.0-10.0","03702532","wem/bandit_either_2","AMYURTQIMAC8T","either","6","1037","","32","","","","","","","","","","","","","","","","","","","","","","","","","","","","","","","","","","",""
"","text","12","39509","0.0-11.0","03702532","wem/bandit_either_2","AMYURTQIMAC8T","either","6","826","","32","","","","","","","","","","","","","","","","","","","","","","","","","","","","","","","","","","",""
"","text","13","40285","0.0-12.0","03702532","wem/bandit_either_2","AMYURTQIMAC8T","either","6","771","","32","","","","","","","","","","","","","","","","","","","","","","","","","","","","","","","","","","",""
"","text","14","41916","0.0-13.0","03702532","wem/bandit_either_2","AMYURTQIMAC8T","either","6","1625","","32","","","","","","","","","","","","","","","","","","","","","","","","","","","","","","","","","","",""
"","bandit","15","49758","0.0-14.0-0.0","03702532","wem/bandit_either_2","AMYURTQIMAC8T","either","6","6266","","","","","","","0","0","1","0","0","","","","","0","","","","0","","","","","","","","","","","74","J","0","img/none_selected_demo.jpg","true","0",""
"","bandit","16","52185","0.0-15.0-0.0","03702532","wem/bandit_either_2","AMYURTQIMAC8T","either","6","884","","","","","","","0","0","1","0","0","","","","","0","","","","0","","","","","","","","","","","75","K","0","img/none_selected_demo.jpg","true","0",""
"","text","17","58995","0.0-16.0","03702532","wem/bandit_either_2","AMYURTQIMAC8T","either","6","6805","","32","","","","","","","","","","","","","","","","","","","","","","","","","","","","","","","","","","",""
"","text","18","60785","0.0-17.0","03702532","wem/bandit_either_2","AMYURTQIMAC8T","either","6","1785","","32","","","","","","","","","","","","","","","","","","","","","","","","","","","","","","","","","","",""
"","text","19","62071","0.0-18.0","03702532","wem/bandit_either_2","AMYURTQIMAC8T","either","6","1283","","32","","","","","","","","","","","","","","","","","","","","","","","","","","","","","","","","","","",""
"","text","20","62560","0.0-19.0","03702532","wem/bandit_either_2","AMYURTQIMAC8T","either","6","485","","32","","","","","","","","","","","","","","","","","","","","","","","","","","","","","","","","","","",""
"","bandit","21","65157","0.0-20.0-0.0","03702532","wem/bandit_either_2","AMYURTQIMAC8T","either","6","1069","","","","","","","0","1","0","","0.2","0.5","0.5","","","0.8","0.2","","","","","","","","","","","","","","75","K","1","","true","0","80_20_practice"
"","bandit","22","67046","0.0-20.0-1.0","03702532","wem/bandit_either_2","AMYURTQIMAC8T","either","6","331","","","","","","","0","1","0","","0.8","0.5","0.5","","","0.8","0.2","","","","","","","","","","","","","","74","J","0","img/none_selected_demo.jpg","true","0","80_20_practice"
"","bandit","23","69019","0.0-20.0-2.0","03702532","wem/bandit_either_2","AMYURTQIMAC8T","either","6","434","","","","","","","1","0","0","0.8","","0.5","0.5","","","","","","","0.8","0.2","","","","","","","","","","74","J","0","img/none_selected_demo.jpg","true","0","80_20_practice"
"","bandit","24","70970","0.0-20.0-3.0","03702532","wem/bandit_either_2","AMYURTQIMAC8T","either","6","414","","","","","","","0","1","0","","0.8","0.5","0.5","","","0.8","0.2","","","","","","","","","","","","","","74","J","0","img/none_selected_demo.jpg","true","0","80_20_practice"
"","bandit","25","72659","0.0-20.0-4.0","03702532","wem/bandit_either_2","AMYURTQIMAC8T","either","6","144","","","","","","","1","0","0","0.8","","0.5","0.5","","","","","","","0.8","0.2","","","","","","","","","","74","J","0","img/none_selected_demo.jpg","true","0","80_20_practice"
"","bandit","26","74418","0.0-20.0-5.0","03702532","wem/bandit_either_2","AMYURTQIMAC8T","either","6","228","","","","","","","0","0","1","","0.2","0.5","0.5","","","0.8","0.2","","","","","","","","","","","","","","75","K","1","","true","0","80_20_practice"
"","bandit","27","76245","0.0-20.0-6.0","03702532","wem/bandit_either_2","AMYURTQIMAC8T","either","6","298","","","","","","","1","0","0","0.8","","0.5","0.5","","","","","","","0.8","0.2","","","","","","","","","","74","J","0","img/none_selected_demo.jpg","true","0","80_20_practice"
"","bandit","28","78119","0.0-20.0-7.0","03702532","wem/bandit_either_2","AMYURTQIMAC8T","either","6","320","","","","","","","0","0","1","0.8","","0.5","0.5","","","","","","","0.8","0.2","","","","","","","","","","74","J","0","img/none_selected_demo.jpg","true","0","80_20_practice"
"","bandit","29","80096","0.0-20.0-8.0","03702532","wem/bandit_either_2","AMYURTQIMAC8T","either","6","441","","","","","","","0","1","0","","0.8","0.5","0.5","","","0.8","0.2","","","","","","","","","","","","","","74","J","0","img/none_selected_demo.jpg","true","0","80_20_practice"
"","bandit","30","81815","0.0-20.0-9.0","03702532","wem/bandit_either_2","AMYURTQIMAC8T","either","6","197","","","","","","","0","1","0","","0.8","0.5","0.5","","","0.8","0.2","","","","","","","","","","","","","","74","J","0","img/none_selected_demo.jpg","true","0","80_20_practice"
"","bandit","31","83531","0.0-20.0-10.0","03702532","wem/bandit_either_2","AMYURTQIMAC8T","either","6","176","","","","","","","0","0","1","0.2","","0.5","0.5","","","","","","","0.8","0.2","","","","","","","","","","75","K","1","","true","0","80_20_practice"
"","bandit","32","85506","0.0-20.0-11.0","03702532","wem/bandit_either_2","AMYURTQIMAC8T","either","6","447","","","","","","","1","0","0","0.8","","0.5","0.5","","","","","","","0.8","0.2","","","","","","","","","","74","J","0","img/none_selected_demo.jpg","true","0","80_20_practice"
"","bandit","33","87086","0.0-20.0-12.0","03702532","wem/bandit_either_2","AMYURTQIMAC8T","either","6","52","","","","","","","0","0","1","0.2","","0.5","0.5","","","","","","","0.8","0.2","","","","","","","","","","75","K","1","","true","0","80_20_practice"
"","bandit","34","88777","0.0-20.0-13.0","03702532","wem/bandit_either_2","AMYURTQIMAC8T","either","6","163","","","","","","","0","0","1","0.2","","0.5","0.5","","","","","","","0.8","0.2","","","","","","","","","","75","K","1","","true","0","80_20_practice"
"","bandit","35","90522","0.0-20.0-14.0","03702532","wem/bandit_either_2","AMYURTQIMAC8T","either","6","222","","","","","","","0","0","1","","0.2","0.5","0.5","","","0.8","0.2","","","","","","","","","","","","","","75","K","1","","true","0","80_20_practice"
"","bandit","36","92112","0.0-20.0-15.0","03702532","wem/bandit_either_2","AMYURTQIMAC8T","either","6","58","","","","","","","0","1","0","","0.8","0.5","0.5","","","0.8","0.2","","","","","","","","","","","","","","74","J","0","img/none_selected_demo.jpg","true","0","80_20_practice"
"","bandit","37","93696","0.0-20.0-16.0","03702532","wem/bandit_either_2","AMYURTQIMAC8T","either","6","49","","","","","","","1","0","0","0.8","","0.5","0.5","","","","","","","0.8","0.2","","","","","","","","","","74","J","0","img/none_selected_demo.jpg","true","0","80_20_practice"
"","bandit","38","95324","0.0-20.0-17.0","03702532","wem/bandit_either_2","AMYURTQIMAC8T","either","6","103","","","","","","","0","0","1","","0.8","0.5","0.5","","","0.8","0.2","","","","","","","","","","","","","","74","J","0","img/none_selected_demo.jpg","true","0","80_20_practice"
"","bandit","39","96987","0.0-20.0-18.0","03702532","wem/bandit_either_2","AMYURTQIMAC8T","either","6","118","","","","","","","0","0","1","","0.2","0.5","0.5","","","0.8","0.2","","","","","","","","","","","","","","75","K","1","","true","0","80_20_practice"
"","bandit","40","98684","0.0-20.0-19.0","03702532","wem/bandit_either_2","AMYURTQIMAC8T","either","6","166","","","","","","","1","0","0","0.8","","0.5","0.5","","","","","","","0.8","0.2","","","","","","","","","","74","J","0","img/none_selected_demo.jpg","true","0","80_20_practice"
"","text","41","102835","0.0-21.0","03702532","wem/bandit_either_2","AMYURTQIMAC8T","either","6","4145","","32","","","","","","","","","","","","","","","","","","","","","","","","","","","","","","","","","","",""
"","bandit","42","106176","0.0-22.0-0.0","03702532","wem/bandit_either_2","AMYURTQIMAC8T","either","6","1800","","","","","","","1","0","0","1","0","","","","","0","1","","","1","0","","","","","","","","","","74","J","0","img/none_selected_demo.jpg","true","0",""
"","text","43","111085","0.0-23.0","03702532","wem/bandit_either_2","AMYURTQIMAC8T","either","6","4901","","32","","","","","","","","","","","","","","","","","","","","","","","","","","","","","","","","","","",""
"","text","44","114587","0.0-24.0","03702532","wem/bandit_either_2","AMYURTQIMAC8T","either","6","3494","","32","","","","","","","","","","","","","","","","","","","","","","","","","","","","","","","","","","",""
"","text","45","117883","0.0-25.0","03702532","wem/bandit_either_2","AMYURTQIMAC8T","either","6","3291","","32","","","","","","","","","","","","","","","","","","","","","","","","","","","","","","","","","","",""
"","text","46","118537","0.0-26.0","03702532","wem/bandit_either_2","AMYURTQIMAC8T","either","6","648","","32","","","","","","","","","","","","","","","","","","","","","","","","","","","","","","","","","","",""
"","text","47","119497","0.0-27.0","03702532","wem/bandit_either_2","AMYURTQIMAC8T","either","6","955","","32","","","","","","","","","","","","","","","","","","","","","","","","","","","","","","","","","","",""
"","text","48","119910","0.0-28.0","03702532","wem/bandit_either_2","AMYURTQIMAC8T","either","6","407","","32","","","","","","","","","","","","","","","","","","","","","","","","","","","","","","","","","","",""
"","text","49","120296","0.0-29.0","03702532","wem/bandit_either_2","AMYURTQIMAC8T","either","6","379","","32","","","","","","","","","","","","","","","","","","","","","","","","","","","","","","","","","","",""
"","text","50","120656","0.0-30.0","03702532","wem/bandit_either_2","AMYURTQIMAC8T","either","6","354","","32","","","","","","","","","","","","","","","","","","","","","","","","","","","","","","","","","","",""
"","text","51","120909","0.0-31.0","03702532","wem/bandit_either_2","AMYURTQIMAC8T","either","6","247","","32","","","","","","","","","","","","","","","","","","","","","","","","","","","","","","","","","","",""
"","text","52","121098","0.0-32.0","03702532","wem/bandit_either_2","AMYURTQIMAC8T","either","6","184","","32","","","","","","","","","","","","","","","","","","","","","","","","","","","","","","","","","","",""
"","text","53","121344","0.0-33.0","03702532","wem/bandit_either_2","AMYURTQIMAC8T","either","6","240","","32","","","","","","","","","","","","","","","","","","","","","","","","","","","","","","","","","","",""
"","bandit","54","124464","0.0-34.0-0.0","03702532","wem/bandit_either_2","AMYURTQIMAC8T","either","6","1577","","","","","","","0","0","1","","0.2","0.5","0.5","0.5","0.5","0.8","0.2","0.6","0.2","","","","","","","","","","","","76","L","3","","true","0","full_practice"
"","bandit","55","130183","0.0-34.0-1.0","03702532","wem/bandit_either_2","AMYURTQIMAC8T","either","6","4181","","","","","","","1","0","0","0.8","","0.5","0.5","0.5","0.5","","","","","0.8","0.2","0.6","0.2","","","","","","","","72","H","0","img/none_selected.jpg","true","0","full_practice"
"","bandit","56","132071","0.0-34.0-2.0","03702532","wem/bandit_either_2","AMYURTQIMAC8T","either","6","325","","","","","","","0","0","1","","0.8","0.5","0.5","0.5","0.5","0.8","0.2","0.6","0.2","","","","","","","","","","","","72","H","0","img/none_selected.jpg","true","0","full_practice"
"","bandit","57","134005","0.0-34.0-3.0","03702532","wem/bandit_either_2","AMYURTQIMAC8T","either","6","390","","","","","","","1","0","0","0.8","","0.5","0.5","0.5","0.5","","","","","0.8","0.2","0.6","0.2","","","","","","","","72","H","0","img/none_selected.jpg","true","0","full_practice"
"","bandit","58","135837","0.0-34.0-4.0","03702532","wem/bandit_either_2","AMYURTQIMAC8T","either","6","276","","","","","","","0","1","0","","0.8","0.5","0.5","0.5","0.5","0.8","0.2","0.6","0.2","","","","","","","","","","","","72","H","0","img/none_selected.jpg","true","0","full_practice"
"","bandit","59","137659","0.0-34.0-5.0","03702532","wem/bandit_either_2","AMYURTQIMAC8T","either","6","284","","","","","","","0","1","0","","0.8","0.5","0.5","0.5","0.5","0.8","0.2","0.6","0.2","","","","","","","","","","","","72","H","0","img/none_selected.jpg","true","0","full_practice"
"","bandit","60","139464","0.0-34.0-6.0","03702532","wem/bandit_either_2","AMYURTQIMAC8T","either","6","277","","","","","","","1","0","0","0.8","","0.5","0.5","0.5","0.5","","","","","0.8","0.2","0.6","0.2","","","","","","","","72","H","0","img/none_selected.jpg","true","0","full_practice"
"","bandit","61","141539","0.0-34.0-7.0","03702532","wem/bandit_either_2","AMYURTQIMAC8T","either","6","547","","","","","","","1","0","0","0.6","","0.5","0.5","0.5","0.5","","","","","0.8","0.2","0.6","0.2","","","","","","","","75","K","2","","true","0","full_practice"
"","bandit","62","143352","0.0-34.0-8.0","03702532","wem/bandit_either_2","AMYURTQIMAC8T","either","6","280","","","","","","","0","0","1","","0.6","0.5","0.5","0.5","0.5","0.8","0.2","0.6","0.2","","","","","","","","","","","","75","K","2","","true","0","full_practice"
"","bandit","63","145077","0.0-34.0-9.0","03702532","wem/bandit_either_2","AMYURTQIMAC8T","either","6","154","","","","","","","1","0","0","0.8","","0.5","0.5","0.5","0.5","","","","","0.8","0.2","0.6","0.2","","","","","","","","72","H","0","img/none_selected.jpg","true","0","full_practice"
"","bandit","64","146616","0.0-34.0-10.0","03702532","wem/bandit_either_2","AMYURTQIMAC8T","either","6","2","","","","","","","1","0","0","0.6","","0.5","0.5","0.5","0.5","","","","","0.8","0.2","0.6","0.2","","","","","","","","75","K","2","","true","0","full_practice"
"","bandit","65","148447","0.0-34.0-11.0","03702532","wem/bandit_either_2","AMYURTQIMAC8T","either","6","300","","","","","","","1","0","0","0.8","","0.5","0.5","0.5","0.5","","","","","0.8","0.2","0.6","0.2","","","","","","","","72","H","0","img/none_selected.jpg","true","0","full_practice"
"","bandit","66","150091","0.0-34.0-12.0","03702532","wem/bandit_either_2","AMYURTQIMAC8T","either","6","107","","","","","","","0","1","0","","0.6","0.5","0.5","0.5","0.5","0.8","0.2","0.6","0.2","","","","","","","","","","","","75","K","2","","true","0","full_practice"
"","bandit","67","151740","0.0-34.0-13.0","03702532","wem/bandit_either_2","AMYURTQIMAC8T","either","6","125","","","","","","","0","1","0","","0.8","0.5","0.5","0.5","0.5","0.8","0.2","0.6","0.2","","","","","","","","","","","","72","H","0","img/none_selected.jpg","true","0","full_practice"
"","bandit","68","153467","0.0-34.0-14.0","03702532","wem/bandit_either_2","AMYURTQIMAC8T","either","6","204","","","","","","","0","1","0","","0.8","0.5","0.5","0.5","0.5","0.8","0.2","0.6","0.2","","","","","","","","","","","","72","H","0","img/none_selected.jpg","true","0","full_practice"
"","bandit","69","155088","0.0-34.0-15.0","03702532","wem/bandit_either_2","AMYURTQIMAC8T","either","6","81","","","","","","","0","1","0","","0.8","0.5","0.5","0.5","0.5","0.8","0.2","0.6","0.2","","","","","","","","","","","","72","H","0","img/none_selected.jpg","true","0","full_practice"
"","bandit","70","157226","0.0-34.0-16.0","03702532","wem/bandit_either_2","AMYURTQIMAC8T","either","6","600","","","","","","","0","0","1","0.2","","0.5","0.5","0.5","0.5","","","","","0.8","0.2","0.6","0.2","","","","","","","","74","J","1","","true","0","full_practice"
"","bandit","71","159940","0.0-34.0-17.0","03702532","wem/bandit_either_2","AMYURTQIMAC8T","either","6","1176","","","","","","","0","0","1","","0.2","0.5","0.5","0.5","0.5","0.8","0.2","0.6","0.2","","","","","","","","","","","","76","L","3","","true","0","full_practice"
"","bandit","72","161989","0.0-34.0-18.0","03702532","wem/bandit_either_2","AMYURTQIMAC8T","either","6","513","","","","","","","0","1","0","","0.6","0.5","0.5","0.5","0.5","0.8","0.2","0.6","0.2","","","","","","","","","","","","75","K","2","","true","0","full_practice"
"","bandit","73","163520","0.0-34.0-19.0","03702532","wem/bandit_either_2","AMYURTQIMAC8T","either","6","10","","","","","","","0","0","1","0.2","","0.5","0.5","0.5","0.5","","","","","0.8","0.2","0.6","0.2","","","","","","","","76","L","3","","true","0","full_practice"
"","text","74","165905","0.0-35.0","03702532","wem/bandit_either_2","AMYURTQIMAC8T","either","6","2369","","32","","","","","","","","","","","","","","","","","","","","","","","","","","","","","","","","","","",""
"","text","75","179481","0.0-36.0","03702532","wem/bandit_either_2","AMYURTQIMAC8T","either","6","12557","","32","","","","","","","","","","","","","","","","","","","","","","","","","","","","","","","","","","",""
"","text","76","184188","0.0-37.0","03702532","wem/bandit_either_2","AMYURTQIMAC8T","either","6","4699","","32","","","","","","","","","","","","","","","","","","","","","","","","","","","","","","","","","","",""
"","text","77","184942","0.0-38.0","03702532","wem/bandit_either_2","AMYURTQIMAC8T","either","6","747","","32","","","","","","","","","","","","","","","","","","","","","","","","","","","","","","","","","","",""
"","text","78","185596","0.0-39.0","03702532","wem/bandit_either_2","AMYURTQIMAC8T","either","6","647","","32","","","","","","","","","","","","","","","","","","","","","","","","","","","","","","","","","","",""
"","text","79","189890","0.0-40.0","03702532","wem/bandit_either_2","AMYURTQIMAC8T","either","6","4288","","32","","","","","","","","","","","","","","","","","","","","","","","","","","","","","","","","","","",""
"","bandit","80","192594","0.0-41.0-0.0","03702532","wem/bandit_either_2","AMYURTQIMAC8T","either","6","1172","","","","","","","0","0","1","0.4656478179","","0.4","0.8","0.6","0.2","","","","","0.4656478179","0.1734470434","0.06094066238","0.1720655487","","","","","","","","72","H","0","img/none_selected.jpg","","1","main_expt"
"","bandit","81","194642","0.0-42.0-0.0","03702532","wem/bandit_either_2","AMYURTQIMAC8T","either","6","512","","","","","","","0","0","1","0.4661883906","","0.4","0.8","0.6","0.2","","","","","0.4661883906","0.1582158198","0.04941180107","0.1607886358","","","","","","","","72","H","0","img/none_selected.jpg","","2","main_expt"
"","bandit","82","196690","0.0-43.0-0.0","03702532","wem/bandit_either_2","AMYURTQIMAC8T","either","6","512","","","","","","","0","0","1","0.1264016625","","0.4","0.8","0.6","0.2","","","","","0.4608397999","0.1264016625","0.09066711981","0.1825924006","","","","","","","","74","J","1","","","3","main_expt"
"","bandit","83","199221","0.0-44.0-0.0","03702532","wem/bandit_either_2","AMYURTQIMAC8T","either","6","998","","","","","","","0","0","1","0.07815644495","","0.4","0.8","0.6","0.2","","","","","0.4568511376","0.1212924903","0.07815644495","0.1572982515","","","","","","","","75","K","2","","","4","main_expt"
"","bandit","84","200801","0.0-45.0-0.0","03702532","wem/bandit_either_2","AMYURTQIMAC8T","either","6","45","","","","","","","0","0","1","","0.06547040057","0.4","0.8","0.6","0.2","0.4576747282","0.1603104869","0.06547040057","0.1873501432","","","","","","","","","","","","75","K","2","","","5","main_expt"
"","bandit","85","202599","0.0-46.0-0.0","03702532","wem/bandit_either_2","AMYURTQIMAC8T","either","6","278","","","","","","","0","0","1","","0.1484719509","0.4","0.8","0.6","0.2","0.4673201091","0.1916070739","0.09500806419","0.1484719509","","","","","","","","","","","","76","L","3","","","6","main_expt"
"","bandit","86","204368","0.0-47.0-0.0","03702532","wem/bandit_either_2","AMYURTQIMAC8T","either","6","230","","","","","","","0","1","0","","0.1368680622","0.4","0.8","0.6","0.2","0.4671816856","0.1624213819","0.1156714339","0.1368680622","","","","","","","","","","","","76","L","3","","","7","main_expt"
"","bandit","87","205899","0.0-48.0-0.0","03702532","wem/bandit_either_2","AMYURTQIMAC8T","either","6","13","","","","","","","0","0","1","","0.1412197478","0.4","0.8","0.6","0.2","0.4577650209","0.1529627983","0.08939878806","0.1412197478","","","","","","","","","","","","76","L","3","","","8","main_expt"
"","bandit","88","208182","0.0-49.0-0.0","03702532","wem/bandit_either_2","AMYURTQIMAC8T","either","6","736","","","","","","","0","1","0","","0.1285241668","0.4","0.8","0.6","0.2","0.4538037209","0.1638779","0.1379609943","0.1285241668","","","","","","","","","","","","76","L","3","","","9","main_expt"
"","bandit","89","210011","0.0-50.0-0.0","03702532","wem/bandit_either_2","AMYURTQIMAC8T","either","6","296","","","","","","","0","1","0","","0.4567906288","0.4","0.8","0.6","0.2","0.4567906288","0.1682184418","0.08892925829","0.1137500729","","","","","","","","","","","","72","H","0","img/none_selected.jpg","","10","main_expt"
"","bandit","90","211589","0.0-51.0-0.0","03702532","wem/bandit_either_2","AMYURTQIMAC8T","either","6","39","","","","","","","0","0","1","0.4707556997","","0.4","0.8","0.6","0.2","","","","","0.4707556997","0.1511948373","0.1053961985","0.1134058804","","","","","","","","72","H","0","img/none_selected.jpg","","11","main_expt"
"","bandit","91","213126","0.0-52.0-0.0","03702532","wem/bandit_either_2","AMYURTQIMAC8T","either","6","2","","","","","","","0","0","1","","0.1358134986","0.4","0.8","0.6","0.2","0.4534589675","0.2144966391","0.1267534428","0.1358134986","","","","","","","","","","","","76","L","3","","","12","main_expt"
"","bandit","92","214947","0.0-53.0-0.0","03702532","wem/bandit_either_2","AMYURTQIMAC8T","either","6","284","","","","","","","0","0","1","","0.1105925571","0.4","0.8","0.6","0.2","0.4474824422","0.1443049275","0.1179877152","0.1105925571","","","","","","","","","","","","76","L","3","","","13","main_expt"
"","bandit","93","216694","0.0-54.0-0.0","03702532","wem/bandit_either_2","AMYURTQIMAC8T","either","6","216","","","","","","","0","0","1","0.1300626215","","0.4","0.8","0.6","0.2","","","","","0.4125602811","0.149160688","0.1300626215","0.09057326494","","","","","","","","75","K","2","","","14","main_expt"
"","bandit","94","219253","0.0-55.0-0.0","03702532","wem/bandit_either_2","AMYURTQIMAC8T","either","6","1022","","","","","","","0","0","1","0.1525333278","","0.4","0.8","0.6","0.2","","","","","0.3715785473","0.1525333278","0.1129073675","0.05963436345","","","","","","","","74","J","1","","","15","main_expt"
"","bandit","95","221211","0.0-56.0-0.0","03702532","wem/bandit_either_2","AMYURTQIMAC8T","either","6","410","","","","","","","0","0","1","0.03970917029","","0.4","0.8","0.6","0.2","","","","","0.3670357029","0.1437253933","0.1132840383","0.03970917029","","","","","","","","76","L","3","","","16","main_expt"
"","bandit","96","223056","0.0-57.0-0.0","03702532","wem/bandit_either_2","AMYURTQIMAC8T","either","6","322","","","","","","","0","1","0","","0.333794799","0.4","0.8","0.6","0.2","0.333794799","0.1191274054","0.1530786807","0.03301664506","","","","","","","","","","","","72","H","0","img/none_selected.jpg","","17","main_expt"
"","bandit","97","224943","0.0-58.0-0.0","03702532","wem/bandit_either_2","AMYURTQIMAC8T","either","6","326","","","","","","","1","0","0","0.3720862831","","0.4","0.8","0.6","0.2","","","","","0.3720862831","0.1231388663","0.1367655081","0.0325619","","","","","","","","72","H","0","img/none_selected.jpg","","18","main_expt"
"","bandit","98","226605","0.0-59.0-0.0","03702532","wem/bandit_either_2","AMYURTQIMAC8T","either","6","129","","","","","","","1","0","0","0.3940248177","","0.4","0.8","0.6","0.2","","","","","0.3940248177","0.1014962652","0.1519969922","0.05136562407","","","","","","","","72","H","0","img/none_selected.jpg","","19","main_expt"
"","bandit","99","228467","0.0-60.0-0.0","03702532","wem/bandit_either_2","AMYURTQIMAC8T","either","6","318","","","","","","","0","1","0","","0.3980303587","0.4","0.8","0.6","0.2","0.3980303587","0.1184271466","0.2344823222","0.05620034239","","","","","","","","","","","","72","H","0","img/none_selected.jpg","","20","main_expt"
"","bandit","100","230041","0.0-61.0-0.0","03702532","wem/bandit_either_2","AMYURTQIMAC8T","either","6","27","","","","","","","0","0","1","0.04865895453","","0.4","0.8","0.6","0.2","","","","","0.405953395","0.1434190777","0.2227593861","0.04865895453","","","","","","","","76","L","3","","","21","main_expt"
"","bandit","101","231607","0.0-62.0-0.0","03702532","wem/bandit_either_2","AMYURTQIMAC8T","either","6","18","","","","","","","0","0","1","","0.37898799","0.4","0.8","0.6","0.2","0.37898799","0.1323354157","0.1831098024","0.05276066643","","","","","","","","","","","","72","H","0","img/none_selected.jpg","","22","main_expt"
"","bandit","102","233415","0.0-63.0-0.0","03702532","wem/bandit_either_2","AMYURTQIMAC8T","either","6","268","","","","","","","0","0","1","","0.3661255489","0.4","0.8","0.6","0.2","0.3661255489","0.1384191998","0.1660310818","0.05284133488","","","","","","","","","","","","72","H","0","img/none_selected.jpg","","23","main_expt"
"","bandit","103","235018","0.0-64.0-0.0","03702532","wem/bandit_either_2","AMYURTQIMAC8T","either","6","64","","","","","","","0","0","1","0.3576379461","","0.4","0.8","0.6","0.2","","","","","0.3576379461","0.1395593146","0.1400827643","0.0333904923","","","","","","","","72","H","0","img/none_selected.jpg","","24","main_expt"
"","bandit","104","237071","0.0-65.0-0.0","03702532","wem/bandit_either_2","AMYURTQIMAC8T","either","6","516","","","","","","","1","0","0","0.1696236693","","0.4","0.8","0.6","0.2","","","","","0.3346121782","0.1696236693","0.2022937807","0.04666446392","","","","","","","","74","J","1","","","25","main_expt"
"","bandit","105","238884","0.0-66.0-0.0","03702532","wem/bandit_either_2","AMYURTQIMAC8T","either","6","279","","","","","","","0","0","1","0.1754084838","","0.4","0.8","0.6","0.2","","","","","0.3790434843","0.1754084838","0.1725383963","0.04067930801","","","","","","","","74","J","1","","","26","main_expt"
"","bandit","106","240793","0.0-67.0-0.0","03702532","wem/bandit_either_2","AMYURTQIMAC8T","either","6","369","","","","","","","1","0","0","0.3744762435","","0.4","0.8","0.6","0.2","","","","","0.3744762435","0.118483546","0.1735642386","0.03070036018","","","","","","","","72","H","0","img/none_selected.jpg","","27","main_expt"
"","bandit","107","243832","0.0-68.0-0.0","03702532","wem/bandit_either_2","AMYURTQIMAC8T","either","6","1501","","","","","","","0","0","1","0.1259847853","","0.4","0.8","0.6","0.2","","","","","0.3650769418","0.1259847853","0.149532802","0.02292460278","","","","","","","","74","J","1","","","28","main_expt"
"","bandit","108","245411","0.0-69.0-0.0","03702532","wem/bandit_either_2","AMYURTQIMAC8T","either","6","27","","","","","","","1","0","0","0.3299345172","","0.4","0.8","0.6","0.2","","","","","0.3299345172","0.1072727049","0.1597785082","0.03476379039","","","","","","","","72","H","0","img/none_selected.jpg","","29","main_expt"
"","bandit","109","248395","0.0-70.0-0.0","03702532","wem/bandit_either_2","AMYURTQIMAC8T","either","6","1423","","","","","","","0","0","1","","0.1978771271","0.4","0.8","0.6","0.2","0.3010095271","0.07952930744","0.1978771271","0.04211589453","","","","","","","","","","","","75","K","2","","","30","main_expt"
"","bandit","110","251792","0.0-71.0-0.0","03702532","wem/bandit_either_2","AMYURTQIMAC8T","either","6","1856","","","","","","","0","0","1","0.09691030242","","0.4","0.8","0.6","0.2","","","","","0.331530841","0.09691030242","0.1928768267","0.04495483672","","","","","","","","74","J","1","","","31","main_expt"
"","bandit","111","253400","0.0-72.0-0.0","03702532","wem/bandit_either_2","AMYURTQIMAC8T","either","6","67","","","","","","","0","0","1","","0.3469043085","0.4","0.8","0.6","0.2","0.3469043085","0.1338720944","0.1511047494","0.04126869591","","","","","","","","","","","","72","H","0","img/none_selected.jpg","","32","main_expt"
"","bandit","112","255789","0.0-73.0-0.0","03702532","wem/bandit_either_2","AMYURTQIMAC8T","either","6","853","","","","","","","0","0","1","","0.02396570111","0.4","0.8","0.6","0.2","0.2778139242","0.1428203538","0.09247049486","0.02396570111","","","","","","","","","","","","76","L","3","","","33","main_expt"
"","bandit","113","257804","0.0-74.0-0.0","03702532","wem/bandit_either_2","AMYURTQIMAC8T","either","6","478","","","","","","","0","0","1","","0.236883459","0.4","0.8","0.6","0.2","0.236883459","0.1258169527","0.1127946788","0.03561151332","","","","","","","","","","","","72","H","0","img/none_selected.jpg","","34","main_expt"
"","bandit","114","260601","0.0-75.0-0.0","03702532","wem/bandit_either_2","AMYURTQIMAC8T","either","6","1264","","","","","","","0","0","1","0.1652362889","","0.4","0.8","0.6","0.2","","","","","0.2656196476","0.1652362889","0.1279928094","0.04565222073","","","","","","","","74","J","1","","","35","main_expt"
"","bandit","115","262225","0.0-76.0-0.0","03702532","wem/bandit_either_2","AMYURTQIMAC8T","either","6","106","","","","","","","0","0","1","0.09285608896","","0.4","0.8","0.6","0.2","","","","","0.2309028503","0.1472348388","0.09285608896","0.05036449293","","","","","","","","75","K","2","","","36","main_expt"
"","bandit","116","264263","0.0-77.0-0.0","03702532","wem/bandit_either_2","AMYURTQIMAC8T","either","6","473","","","","","","","0","0","1","","0.1961267878","0.4","0.8","0.6","0.2","0.1961267878","0.20581188","0.1251507517","0.04764774511","","","","","","","","","","","","72","H","0","img/none_selected.jpg","","37","main_expt"
"","bandit","117","265985","0.0-78.0-0.0","03702532","wem/bandit_either_2","AMYURTQIMAC8T","either","6","190","","","","","","","0","0","1","","0.2197692452","0.4","0.8","0.6","0.2","0.2197692452","0.2096070571","0.1248439258","0.04692466818","","","","","","","","","","","","72","H","0","img/none_selected.jpg","","38","main_expt"
"","bandit","118","267886","0.0-79.0-0.0","03702532","wem/bandit_either_2","AMYURTQIMAC8T","either","6","368","","","","","","","1","0","0","0.1783178102","","0.4","0.8","0.6","0.2","","","","","0.1783178102","0.1888903691","0.1192858938","0.06150360576","","","","","","","","72","H","0","img/none_selected.jpg","","39","main_expt"
"","bandit","119","269816","0.0-80.0-0.0","03702532","wem/bandit_either_2","AMYURTQIMAC8T","either","6","399","","","","","","","0","1","0","","0.1354267005","0.4","0.8","0.6","0.2","0.1354267005","0.1769314034","0.1457630933","0.1025324214","","","","","","","","","","","","72","H","0","img/none_selected.jpg","","40","main_expt"
"","bandit","120","271467","0.0-81.0-0.0","03702532","wem/bandit_either_2","AMYURTQIMAC8T","either","6","114","","","","","","","0","0","1","0.1307301687","","0.4","0.8","0.6","0.2","","","","","0.1307301687","0.1764673912","0.1788887836","0.1278282258","","","","","","","","72","H","0","img/none_selected.jpg","","41","main_expt"
"","bandit","121","274090","0.0-82.0-0.0","03702532","wem/bandit_either_2","AMYURTQIMAC8T","either","6","1075","","","","","","","1","0","0","0.1164002711","","0.4","0.8","0.6","0.2","","","","","0.1002459791","0.1164002711","0.1550439797","0.1144783829","","","","","","","","74","J","1","","","42","main_expt"
"","bandit","122","276008","0.0-83.0-0.0","03702532","wem/bandit_either_2","AMYURTQIMAC8T","either","6","351","","","","","","","0","0","1","","0.1248357276","0.4","0.8","0.6","0.2","0.06131682752","0.1248357276","0.1624336935","0.148274456","","","","","","","","","","","","74","J","1","","","43","main_expt"
"","bandit","123","277967","0.0-84.0-0.0","03702532","wem/bandit_either_2","AMYURTQIMAC8T","either","6","430","","","","","","","0","0","1","","0.05757194937","0.4","0.8","0.6","0.2","0.05757194937","0.1801883524","0.2610419313","0.1733993608","","","","","","","","","","","","72","H","0","img/none_selected.jpg","","44","main_expt"
"","bandit","124","280032","0.0-85.0-0.0","03702532","wem/bandit_either_2","AMYURTQIMAC8T","either","6","521","","","","","","","1","0","0","0.1536252234","","0.4","0.8","0.6","0.2","","","","","0.06317169253","0.1536252234","0.2547096211","0.1731137141","","","","","","","","74","J","1","","","45","main_expt"
"","bandit","125","281769","0.0-86.0-0.0","03702532","wem/bandit_either_2","AMYURTQIMAC8T","either","6","181","","","","","","","0","0","1","0.1453657368","","0.4","0.8","0.6","0.2","","","","","0.08604650327","0.1453657368","0.2690630982","0.2577534017","","","","","","","","74","J","1","","","46","main_expt"
"","bandit","126","283453","0.0-87.0-0.0","03702532","wem/bandit_either_2","AMYURTQIMAC8T","either","6","157","","","","","","","0","0","1","","0.2613787364","0.4","0.8","0.6","0.2","0.07503215105","0.1163474927","0.2613787364","0.2436059896","","","","","","","","","","","","75","K","2","","","47","main_expt"
"","bandit","127","285166","0.0-88.0-0.0","03702532","wem/bandit_either_2","AMYURTQIMAC8T","either","6","171","","","","","","","0","1","0","","0.261356988","0.4","0.8","0.6","0.2","0.09661626413","0.1187671899","0.2764851171","0.261356988","","","","","","","","","","","","76","L","3","","","48","main_expt"
"","bandit","128","287309","0.0-89.0-0.0","03702532","wem/bandit_either_2","AMYURTQIMAC8T","either","6","603","","","","","","","0","0","1","","0.2707362224","0.4","0.8","0.6","0.2","0.141419135","0.1321787199","0.2628846066","0.2707362224","","","","","","","","","","","","76","L","3","","","49","main_expt"
"","bandit","129","289150","0.0-90.0-0.0","03702532","wem/bandit_either_2","AMYURTQIMAC8T","either","6","302","","","","","","","0","0","1","0.1310663867","","0.4","0.8","0.6","0.2","","","","","0.1341637883","0.1310663867","0.3634831931","0.2733601765","","","","","","","","74","J","1","","","50","main_expt"
"","bandit","130","290862","0.0-91.0-0.0","03702532","wem/bandit_either_2","AMYURTQIMAC8T","either","6","175","","","","","","","0","0","1","0.1450472339","","0.4","0.8","0.6","0.2","","","","","0.1225974466","0.1450472339","0.3771608335","0.2590969561","","","","","","","","74","J","1","","","51","main_expt"
"","bandit","131","292954","0.0-92.0-0.0","03702532","wem/bandit_either_2","AMYURTQIMAC8T","either","6","551","","","","","","","0","0","1","","0.1145468474","0.4","0.8","0.6","0.2","0.1145468474","0.1731775471","0.3093307572","0.2515646212","","","","","","","","","","","","72","H","0","img/none_selected.jpg","","52","main_expt"
"","bandit","132","294861","0.0-93.0-0.0","03702532","wem/bandit_either_2","AMYURTQIMAC8T","either","6","357","","","","","","","0","0","1","0.2258016315","","0.4","0.8","0.6","0.2","","","","","0.1059564611","0.2258016315","0.2990929044","0.2257746054","","","","","","","","74","J","1","","","53","main_expt"
"","bandit","133","296917","0.0-94.0-0.0","03702532","wem/bandit_either_2","AMYURTQIMAC8T","either","6","509","","","","","","","1","0","0","0.2172527187","","0.4","0.8","0.6","0.2","","","","","0.1090017536","0.2172527187","0.2221679908","0.2750925763","","","","","","","","74","J","1","","","54","main_expt"
"","bandit","134","298837","0.0-95.0-0.0","03702532","wem/bandit_either_2","AMYURTQIMAC8T","either","6","365","","","","","","","0","0","1","0.1652356872","","0.4","0.8","0.6","0.2","","","","","0.1249444004","0.1652356872","0.1886471815","0.3608357377","","","","","","","","74","J","1","","","55","main_expt"
"","bandit","135","300663","0.0-96.0-0.0","03702532","wem/bandit_either_2","AMYURTQIMAC8T","either","6","303","","","","","","","0","0","1","","0.1576418272","0.4","0.8","0.6","0.2","0.09043885587","0.1576418272","0.1973213641","0.4022545085","","","","","","","","","","","","74","J","1","","","56","main_expt"
"","bandit","136","302570","0.0-97.0-0.0","03702532","wem/bandit_either_2","AMYURTQIMAC8T","either","6","365","","","","","","","0","0","1","","0.07448640425","0.4","0.8","0.6","0.2","0.07448640425","0.180776926","0.2207101474","0.3867568464","","","","","","","","","","","","72","H","0","img/none_selected.jpg","","57","main_expt"
"","bandit","137","305111","0.0-98.0-0.0","03702532","wem/bandit_either_2","AMYURTQIMAC8T","either","6","998","","","","","","","0","0","1","","0.1489081552","0.4","0.8","0.6","0.2","0.09808879237","0.1489081552","0.2480089655","0.3840355114","","","","","","","","","","","","74","J","1","","","58","main_expt"
"","bandit","138","306964","0.0-99.0-0.0","03702532","wem/bandit_either_2","AMYURTQIMAC8T","either","6","315","","","","","","","0","0","1","0.125555473","","0.4","0.8","0.6","0.2","","","","","0.0721355853","0.125555473","0.2667579505","0.3617876187","","","","","","","","74","J","1","","","59","main_expt"
"","bandit","139","308552","0.0-100.0-0.0","03702532","wem/bandit_either_2","AMYURTQIMAC8T","either","6","40","","","","","","","0","0","1","","0.1228814318","0.4","0.8","0.6","0.2","0.08871326978","0.1228814318","0.2637313595","0.3018070945","","","","","","","","","","","","74","J","1","","","60","main_expt"
"","bandit","140","310429","0.0-101.0-0.0","03702532","wem/bandit_either_2","AMYURTQIMAC8T","either","6","345","","","","","","","0","0","1","","0.1472383223","0.4","0.8","0.6","0.2","0.1472383223","0.195834737","0.2400462537","0.2687465691","","","","","","","","","","","","72","H","0","img/none_selected.jpg","","61","main_expt"
"","bandit","141","312504","0.0-102.0-0.0","03702532","wem/bandit_either_2","AMYURTQIMAC8T","either","6","539","","","","","","","0","0","1","","0.287622952","0.4","0.8","0.6","0.2","0.1625866577","0.1952904108","0.2396546157","0.287622952","","","","","","","","","","","","76","L","3","","","62","main_expt"
"","bandit","142","314319","0.0-103.0-0.0","03702532","wem/bandit_either_2","AMYURTQIMAC8T","either","6","281","","","","","","","0","0","1","0.1196153378","","0.4","0.8","0.6","0.2","","","","","0.1196153378","0.187392073","0.2558687718","0.2060093557","","","","","","","","72","H","0","img/none_selected.jpg","","63","main_expt"
"","bandit","143","316242","0.0-104.0-0.0","03702532","wem/bandit_either_2","AMYURTQIMAC8T","either","6","363","","","","","","","0","0","1","0.1774517964","","0.4","0.8","0.6","0.2","","","","","0.1025290435","0.1774517964","0.1789331692","0.1865830226","","","","","","","","74","J","1","","","64","main_expt"
"","bandit","144","318063","0.0-105.0-0.0","03702532","wem/bandit_either_2","AMYURTQIMAC8T","either","6","287","","","","","","","0","1","0","","0.2041721298","0.4","0.8","0.6","0.2","0.06637487434","0.1956590225","0.2041721298","0.2242960511","","","","","","","","","","","","75","K","2","","","65","main_expt"
"","bandit","145","319675","0.0-106.0-0.0","03702532","wem/bandit_either_2","AMYURTQIMAC8T","either","6","46","","","","","","","0","0","1","","0.1083731131","0.4","0.8","0.6","0.2","0.09888809835","0.1559932489","0.1083731131","0.213739571","","","","","","","","","","","","75","K","2","","","66","main_expt"
"","bandit","146","321618","0.0-107.0-0.0","03702532","wem/bandit_either_2","AMYURTQIMAC8T","either","6","385","","","","","","","0","0","1","0.1327283285","","0.4","0.8","0.6","0.2","","","","","0.08542348091","0.1327283285","0.08148965902","0.2463093088","","","","","","","","74","J","1","","","67","main_expt"
"","bandit","147","323426","0.0-108.0-0.0","03702532","wem/bandit_either_2","AMYURTQIMAC8T","either","6","275","","","","","","","0","0","1","0.115871946","","0.4","0.8","0.6","0.2","","","","","0.05648132023","0.1646421129","0.115871946","0.1863602012","","","","","","","","75","K","2","","","68","main_expt"
"","bandit","148","325424","0.0-109.0-0.0","03702532","wem/bandit_either_2","AMYURTQIMAC8T","either","6","465","","","","","","","0","0","1","0.1049465522","","0.4","0.8","0.6","0.2","","","","","0.07427448495","0.1879918005","0.1049465522","0.1481768435","","","","","","","","75","K","2","","","69","main_expt"
"","bandit","149","327296","0.0-110.0-0.0","03702532","wem/bandit_either_2","AMYURTQIMAC8T","either","6","338","","","","","","","0","0","1","0.1224614501","","0.4","0.8","0.6","0.2","","","","","0.1052870039","0.1708527721","0.1224614501","0.2062415021","","","","","","","","75","K","2","","","70","main_expt"
"","bandit","150","329119","0.0-111.0-0.0","03702532","wem/bandit_either_2","AMYURTQIMAC8T","either","6","284","","","","","","","0","0","1","","0.1114501371","0.4","0.8","0.6","0.2","0.1114501371","0.1930923514","0.1687358413","0.2175562698","","","","","","","","","","","","72","H","0","img/none_selected.jpg","","71","main_expt"
"","bandit","151","330654","0.0-112.0-0.0","03702532","wem/bandit_either_2","AMYURTQIMAC8T","either","6","1","","","","","","","0","0","1","0.1902964731","","0.4","0.8","0.6","0.2","","","","","0.1282799478","0.2289396243","0.1902964731","0.2182173038","","","","","","","","75","K","2","","","72","main_expt"
"","bandit","152","332593","0.0-113.0-0.0","03702532","wem/bandit_either_2","AMYURTQIMAC8T","either","6","398","","","","","","","0","0","1","","0.1764690901","0.4","0.8","0.6","0.2","0.1113050996","0.2223781067","0.1764690901","0.1629952044","","","","","","","","","","","","75","K","2","","","73","main_expt"
"","bandit","153","334149","0.0-114.0-0.0","03702532","wem/bandit_either_2","AMYURTQIMAC8T","either","6","15","","","","","","","0","0","1","","0.2291178652","0.4","0.8","0.6","0.2","0.1573287606","0.1664819569","0.1720288853","0.2291178652","","","","","","","","","","","","76","L","3","","","74","main_expt"
"","bandit","154","336071","0.0-115.0-0.0","03702532","wem/bandit_either_2","AMYURTQIMAC8T","either","6","367","","","","","","","0","0","1","","0.168318459","0.4","0.8","0.6","0.2","0.168318459","0.1157276324","0.098780463","0.2087405931","","","","","","","","","","","","72","H","0","img/none_selected.jpg","","75","main_expt"
"","bandit","155","337970","0.0-116.0-0.0","03702532","wem/bandit_either_2","AMYURTQIMAC8T","either","6","318","","","","","","","0","0","1","0.131742089","","0.4","0.8","0.6","0.2","","","","","0.131742089","0.06912044911","0.08192786134","0.1981976751","","","","","","","","72","H","0","img/none_selected.jpg","","76","main_expt"
"","bandit","156","339889","0.0-117.0-0.0","03702532","wem/bandit_either_2","AMYURTQIMAC8T","either","6","344","","","","","","","0","0","1","0.06151132513","","0.4","0.8","0.6","0.2","","","","","0.1382621175","0.06151132513","0.03620126105","0.2302368041","","","","","","","","74","J","1","","","77","main_expt"
"","bandit","157","341584","0.0-118.0-0.0","03702532","wem/bandit_either_2","AMYURTQIMAC8T","either","6","167","","","","","","","0","0","1","0.1351161864","","0.4","0.8","0.6","0.2","","","","","0.1351161864","0.08824794056","0.03362754592","0.2538269909","","","","","","","","72","H","0","img/none_selected.jpg","","78","main_expt"
"","bandit","158","343407","0.0-119.0-0.0","03702532","wem/bandit_either_2","AMYURTQIMAC8T","either","6","302","","","","","","","0","0","1","","0.1125986002","0.4","0.8","0.6","0.2","0.1125986002","0.08425003046","0.03917851348","0.221492582","","","","","","","","","","","","72","H","0","img/none_selected.jpg","","79","main_expt"
"","bandit","159","345248","0.0-120.0-0.0","03702532","wem/bandit_either_2","AMYURTQIMAC8T","either","6","308","","","","","","","0","0","1","0.1071358869","","0.4","0.8","0.6","0.2","","","","","0.1071358869","0.1059393704","0.06916691586","0.2126184008","","","","","","","","72","H","0","img/none_selected.jpg","","80","main_expt"
"","bandit","160","347024","0.0-121.0-0.0","03702532","wem/bandit_either_2","AMYURTQIMAC8T","either","6","237","","","","","","","0","0","1","0.1410751298","","0.4","0.8","0.6","0.2","","","","","0.1410751298","0.114990546","0.1110223174","0.1803612399","","","","","","","","72","H","0","img/none_selected.jpg","","81","main_expt"
"","bandit","161","348835","0.0-122.0-0.0","03702532","wem/bandit_either_2","AMYURTQIMAC8T","either","6","262","","","","","","","0","0","1","0.08899533144","","0.4","0.8","0.6","0.2","","","","","0.1518454263","0.1246300745","0.08899533144","0.1883980103","","","","","","","","75","K","2","","","82","main_expt"
"","bandit","162","351086","0.0-123.0-0.0","03702532","wem/bandit_either_2","AMYURTQIMAC8T","either","6","718","","","","","","","1","0","0","0.2099895667","","0.4","0.8","0.6","0.2","","","","","0.1285150734","0.1523433176","0.1383499545","0.2099895667","","","","","","","","76","L","3","","","83","main_expt"
"","bandit","163","352975","0.0-124.0-0.0","03702532","wem/bandit_either_2","AMYURTQIMAC8T","either","6","341","","","","","","","0","0","1","","0.1760666055","0.4","0.8","0.6","0.2","0.1083679187","0.1230513595","0.1815119679","0.1760666055","","","","","","","","","","","","76","L","3","","","84","main_expt"
"","bandit","164","354578","0.0-125.0-0.0","03702532","wem/bandit_either_2","AMYURTQIMAC8T","either","6","66","","","","","","","0","0","1","","0.08985983991","0.4","0.8","0.6","0.2","0.08985983991","0.1460595132","0.2121304898","0.2077415988","","","","","","","","","","","","72","H","0","img/none_selected.jpg","","85","main_expt"
"","bandit","165","356304","0.0-126.0-0.0","03702532","wem/bandit_either_2","AMYURTQIMAC8T","either","6","163","","","","","","","0","0","1","0.1578730034","","0.4","0.8","0.6","0.2","","","","","0.08377758623","0.1578730034","0.1931166697","0.1940704576","","","","","","","","74","J","1","","","86","main_expt"
"","bandit","166","358050","0.0-127.0-0.0","03702532","wem/bandit_either_2","AMYURTQIMAC8T","either","6","211","","","","","","","0","0","1","0.1908876969","","0.4","0.8","0.6","0.2","","","","","0.08340742779","0.1329566931","0.1908876969","0.1920524506","","","","","","","","75","K","2","","","87","main_expt"
"","bandit","167","359641","0.0-128.0-0.0","03702532","wem/bandit_either_2","AMYURTQIMAC8T","either","6","47","","","","","","","0","0","1","","0.2525081946","0.4","0.8","0.6","0.2","0.06937011617","0.1156353122","0.1727332377","0.2525081946","","","","","","","","","","","","76","L","3","","","88","main_expt"
"","bandit","168","361224","0.0-129.0-0.0","03702532","wem/bandit_either_2","AMYURTQIMAC8T","either","6","37","","","","","","","0","0","1","","0.2476280913","0.4","0.8","0.6","0.2","0.08556693901","0.1169245856","0.1747664758","0.2476280913","","","","","","","","","","","","76","L","3","","","89","main_expt"
"","bandit","169","363133","0.0-130.0-0.0","03702532","wem/bandit_either_2","AMYURTQIMAC8T","either","6","360","","","","","","","0","0","1","0.2476417222","","0.4","0.8","0.6","0.2","","","","","0.1013294801","0.1276927611","0.1302891894","0.2476417222","","","","","","","","76","L","3","","","90","main_expt"
"","bandit","170","364845","0.0-131.0-0.0","03702532","wem/bandit_either_2","AMYURTQIMAC8T","either","6","177","","","","","","","0","0","1","","0.1875867431","0.4","0.8","0.6","0.2","0.1567130635","0.1633868825","0.1143331172","0.1875867431","","","","","","","","","","","","76","L","3","","","91","main_expt"
"","bandit","171","366626","0.0-132.0-0.0","03702532","wem/bandit_either_2","AMYURTQIMAC8T","either","6","230","","","","","","","0","1","0","","0.1214255195","0.4","0.8","0.6","0.2","0.1214255195","0.2172033847","0.1674068059","0.1804963823","","","","","","","","","","","","72","H","0","img/none_selected.jpg","","92","main_expt"
"","bandit","172","368263","0.0-133.0-0.0","03702532","wem/bandit_either_2","AMYURTQIMAC8T","either","6","97","","","","","","","0","0","1","0.1317465968","","0.4","0.8","0.6","0.2","","","","","0.1317465968","0.2178255547","0.1405005834","0.1468121695","","","","","","","","72","H","0","img/none_selected.jpg","","93","main_expt"
"","bandit","173","369893","0.0-134.0-0.0","03702532","wem/bandit_either_2","AMYURTQIMAC8T","either","6","91","","","","","","","0","0","1","","0.1810196293","0.4","0.8","0.6","0.2","0.1810196293","0.2058786334","0.1338278818","0.1270151289","","","","","","","","","","","","72","H","0","img/none_selected.jpg","","94","main_expt"
"","bandit","174","371464","0.0-135.0-0.0","03702532","wem/bandit_either_2","AMYURTQIMAC8T","either","6","28","","","","","","","1","0","0","0.1537803575","","0.4","0.8","0.6","0.2","","","","","0.1537803575","0.2009860572","0.16416917","0.1049494322","","","","","","","","72","H","0","img/none_selected.jpg","","95","main_expt"
"","bandit","175","373281","0.0-136.0-0.0","03702532","wem/bandit_either_2","AMYURTQIMAC8T","either","6","274","","","","","","","0","0","1","","0.2255368078","0.4","0.8","0.6","0.2","0.2255368078","0.2792576191","0.1075549125","0.1242023773","","","","","","","","","","","","72","H","0","img/none_selected.jpg","","96","main_expt"
"","bandit","176","374970","0.0-137.0-0.0","03702532","wem/bandit_either_2","AMYURTQIMAC8T","either","6","139","","","","","","","0","0","1","","0.101802889","0.4","0.8","0.6","0.2","0.1881791955","0.291042229","0.07285617598","0.101802889","","","","","","","","","","","","76","L","3","","","97","main_expt"
"","bandit","177","376558","0.0-138.0-0.0","03702532","wem/bandit_either_2","AMYURTQIMAC8T","either","6","46","","","","","","","0","0","1","","0.08559904752","0.4","0.8","0.6","0.2","0.1722186849","0.2919937097","0.1128802937","0.08559904752","","","","","","","","","","","","76","L","3","","","98","main_expt"
"","bandit","178","378363","0.0-139.0-0.0","03702532","wem/bandit_either_2","AMYURTQIMAC8T","either","6","250","","","","","","","0","0","1","","0.04480153982","0.4","0.8","0.6","0.2","0.2581810796","0.338066437","0.07338875894","0.04480153982","","","","","","","","","","","","76","L","3","","","99","main_expt"
"","bandit","179","380050","0.0-140.0-0.0","03702532","wem/bandit_either_2","AMYURTQIMAC8T","either","6","161","","","","","","","0","0","1","0.03694367041","","0.4","0.8","0.6","0.2","","","","","0.3094702251","0.3466775547","0.06256672301","0.03694367041","","","","","","","","76","L","3","","","100","main_expt"
"","bandit","180","381764","0.0-141.0-0.0","03702532","wem/bandit_either_2","AMYURTQIMAC8T","either","6","168","","","","","","","0","0","1","","0.06765033746","0.4","0.8","0.6","0.2","0.3217449289","0.3776837944","0.06765033746","0.02534596886","","","","","","","","","","","","75","K","2","","","101","main_expt"
"","bandit","181","383740","0.0-142.0-0.0","03702532","wem/bandit_either_2","AMYURTQIMAC8T","either","6","430","","","","","","","1","0","0","0.3988278911","","0.4","0.8","0.6","0.2","","","","","0.3656493725","0.3988278911","0.08460413752","0.03456503798","","","","","","","","74","J","1","","","102","main_expt"
"","bandit","182","385445","0.0-143.0-0.0","03702532","wem/bandit_either_2","AMYURTQIMAC8T","either","6","174","","","","","","","0","0","1","","0.3642388176","0.4","0.8","0.6","0.2","0.4097417878","0.3642388176","0.1149622558","0.03116272615","","","","","","","","","","","","74","J","1","","","103","main_expt"
"","bandit","183","387342","0.0-144.0-0.0","03702532","wem/bandit_either_2","AMYURTQIMAC8T","either","6","328","","","","","","","0","0","1","0.04034009898","","0.4","0.8","0.6","0.2","","","","","0.4005896235","0.3059376685","0.1223821921","0.04034009898","","","","","","","","76","L","3","","","104","main_expt"
"","bandit","184","389301","0.0-145.0-0.0","03702532","wem/bandit_either_2","AMYURTQIMAC8T","either","6","411","","","","","","","0","0","1","","0.06132200156","0.4","0.8","0.6","0.2","0.3967946647","0.2658022239","0.1302837569","0.06132200156","","","","","","","","","","","","76","L","3","","","105","main_expt"
"","bandit","185","391273","0.0-146.0-0.0","03702532","wem/bandit_either_2","AMYURTQIMAC8T","either","6","393","","","","","","","0","0","1","0.3920329447","","0.4","0.8","0.6","0.2","","","","","0.3920329447","0.2583534607","0.1405927316","0.03171667797","","","","","","","","72","H","0","img/none_selected.jpg","","106","main_expt"
"","bandit","186","393581","0.0-147.0-0.0","03702532","wem/bandit_either_2","AMYURTQIMAC8T","either","6","726","","","","","","","0","1","0","","0.3973329777","0.4","0.8","0.6","0.2","0.3973329777","0.2402432731","0.1835021143","0.06603394544","","","","","","","","","","","","72","H","0","img/none_selected.jpg","","107","main_expt"
"","bandit","187","395208","0.0-148.0-0.0","03702532","wem/bandit_either_2","AMYURTQIMAC8T","either","6","86","","","","","","","0","0","1","0.3839010997","","0.4","0.8","0.6","0.2","","","","","0.3839010997","0.2364509509","0.2124513917","0.08137973005","","","","","","","","72","H","0","img/none_selected.jpg","","108","main_expt"
"","bandit","188","396948","0.0-149.0-0.0","03702532","wem/bandit_either_2","AMYURTQIMAC8T","either","6","210","","","","","","","0","0","1","","0.3879107289","0.4","0.8","0.6","0.2","0.3879107289","0.2164051194","0.218007314","0.04765661509","","","","","","","","","","","","72","H","0","img/none_selected.jpg","","109","main_expt"
"","bandit","189","398665","0.0-150.0-0.0","03702532","wem/bandit_either_2","AMYURTQIMAC8T","either","6","182","","","","","","","0","1","0","","0.1611838666","0.4","0.8","0.6","0.2","0.3989855113","0.1611838666","0.229469423","0.06789381979","","","","","","","","","","","","74","J","1","","","110","main_expt"
"","bandit","190","400824","0.0-151.0-0.0","03702532","wem/bandit_either_2","AMYURTQIMAC8T","either","6","618","","","","","","","0","0","1","0.2042622235","","0.4","0.8","0.6","0.2","","","","","0.3959495959","0.2042622235","0.2923436213","0.08972795074","","","","","","","","74","J","1","","","111","main_expt"
"","bandit","191","402418","0.0-152.0-0.0","03702532","wem/bandit_either_2","AMYURTQIMAC8T","either","6","55","","","","","","","0","0","1","","0.2778802509","0.4","0.8","0.6","0.2","0.335596647","0.2113733305","0.2778802509","0.1176683061","","","","","","","","","","","","75","K","2","","","112","main_expt"
"","bandit","192","403972","0.0-153.0-0.0","03702532","wem/bandit_either_2","AMYURTQIMAC8T","either","6","1","","","","","","","1","0","0","0.1973953549","","0.4","0.8","0.6","0.2","","","","","0.2876347753","0.220236308","0.2852166322","0.1973953549","","","","","","","","76","L","3","","","113","main_expt"
"","bandit","193","405876","0.0-154.0-0.0","03702532","wem/bandit_either_2","AMYURTQIMAC8T","either","6","357","","","","","","","0","1","0","","0.200840576","0.4","0.8","0.6","0.2","0.2811359795","0.2453392608","0.3222351196","0.200840576","","","","","","","","","","","","76","L","3","","","114","main_expt"
"","bandit","194","407417","0.0-155.0-0.0","03702532","wem/bandit_either_2","AMYURTQIMAC8T","either","6","1","","","","","","","0","0","1","","0.2544006126","0.4","0.8","0.6","0.2","0.2056035349","0.2311931225","0.2865303103","0.2544006126","","","","","","","","","","","","76","L","3","","","115","main_expt"
"","bandit","195","408968","0.0-156.0-0.0","03702532","wem/bandit_either_2","AMYURTQIMAC8T","either","6","18","","","","","","","0","0","1","","0.2264812366","0.4","0.8","0.6","0.2","0.2435386161","0.2290532582","0.1901772154","0.2264812366","","","","","","","","","","","","76","L","3","","","116","main_expt"
"","bandit","196","410703","0.0-157.0-0.0","03702532","wem/bandit_either_2","AMYURTQIMAC8T","either","6","202","","","","","","","0","1","0","","0.2535822563","0.4","0.8","0.6","0.2","0.2523066444","0.2610634121","0.1854727963","0.2535822563","","","","","","","","","","","","76","L","3","","","117","main_expt"
"","bandit","197","412512","0.0-158.0-0.0","03702532","wem/bandit_either_2","AMYURTQIMAC8T","either","6","262","","","","","","","0","0","1","","0.258758296","0.4","0.8","0.6","0.2","0.258758296","0.2915584027","0.223078523","0.288462609","","","","","","","","","","","","72","H","0","img/none_selected.jpg","","118","main_expt"
"","bandit","198","414342","0.0-159.0-0.0","03702532","wem/bandit_either_2","AMYURTQIMAC8T","either","6","280","","","","","","","0","0","1","0.2513882557","","0.4","0.8","0.6","0.2","","","","","0.2513882557","0.3240034744","0.2157898803","0.3077733757","","","","","","","","72","H","0","img/none_selected.jpg","","119","main_expt"
"","bandit","199","416233","0.0-160.0-0.0","03702532","wem/bandit_either_2","AMYURTQIMAC8T","either","6","331","","","","","","","0","0","1","","0.2178230887","0.4","0.8","0.6","0.2","0.2178230887","0.3584552205","0.2055853597","0.3470363664","","","","","","","","","","","","72","H","0","img/none_selected.jpg","","120","main_expt"
"","bandit","200","418131","0.0-161.0-0.0","03702532","wem/bandit_either_2","AMYURTQIMAC8T","either","6","346","","","","","","","0","0","1","0.36369082","","0.4","0.8","0.6","0.2","","","","","0.2249913612","0.3392259721","0.2308362602","0.36369082","","","","","","","","76","L","3","","","121","main_expt"
"","bandit","201","420099","0.0-162.0-0.0","03702532","wem/bandit_either_2","AMYURTQIMAC8T","either","6","401","","","","","","","0","0","1","0.3740977319","","0.4","0.8","0.6","0.2","","","","","0.2135386538","0.3211990091","0.1858821776","0.3740977319","","","","","","","","76","L","3","","","122","main_expt"
"","bandit","202","421811","0.0-163.0-0.0","03702532","wem/bandit_either_2","AMYURTQIMAC8T","either","6","185","","","","","","","1","0","0","0.1948645322","","0.4","0.8","0.6","0.2","","","","","0.2742148462","0.3082515077","0.1948645322","0.3617230251","","","","","","","","75","K","2","","","123","main_expt"
"","bandit","203","423526","0.0-164.0-0.0","03702532","wem/bandit_either_2","AMYURTQIMAC8T","either","6","175","","","","","","","0","0","1","","0.1875433284","0.4","0.8","0.6","0.2","0.3092488957","0.3337980485","0.1875433284","0.3189133642","","","","","","","","","","","","75","K","2","","","124","main_expt"
"","bandit","204","425164","0.0-165.0-0.0","03702532","wem/bandit_either_2","AMYURTQIMAC8T","either","6","70","","","","","","","0","0","1","0.1805360773","","0.4","0.8","0.6","0.2","","","","","0.2832498899","0.2815584253","0.1805360773","0.3134342975","","","","","","","","75","K","2","","","125","main_expt"
"","bandit","205","426920","0.0-166.0-0.0","03702532","wem/bandit_either_2","AMYURTQIMAC8T","either","6","228","","","","","","","1","0","0","0.2544389989","","0.4","0.8","0.6","0.2","","","","","0.321902755","0.2544389989","0.2199741614","0.2889117865","","","","","","","","74","J","1","","","126","main_expt"
"","bandit","206","428512","0.0-167.0-0.0","03702532","wem/bandit_either_2","AMYURTQIMAC8T","either","6","42","","","","","","","0","0","1","0.3163630435","","0.4","0.8","0.6","0.2","","","","","0.3163630435","0.217883989","0.212963778","0.3101500906","","","","","","","","72","H","0","img/none_selected.jpg","","127","main_expt"
"","bandit","207","430252","0.0-168.0-0.0","03702532","wem/bandit_either_2","AMYURTQIMAC8T","either","6","205","","","","","","","0","0","1","0.1941215274","","0.4","0.8","0.6","0.2","","","","","0.3242789072","0.1941215274","0.1853882534","0.3257933697","","","","","","","","74","J","1","","","128","main_expt"
"","bandit","208","431797","0.0-169.0-0.0","03702532","wem/bandit_either_2","AMYURTQIMAC8T","either","6","12","","","","","","","0","0","1","0.2093197904","","0.4","0.8","0.6","0.2","","","","","0.3430844202","0.2093197904","0.1486900389","0.2767822115","","","","","","","","74","J","1","","","129","main_expt"
"","bandit","209","434128","0.0-170.0-0.0","03702532","wem/bandit_either_2","AMYURTQIMAC8T","either","6","780","","","","","","","0","0","1","","0.2325895014","0.4","0.8","0.6","0.2","0.3487272729","0.2325895014","0.1581202816","0.3389859305","","","","","","","","","","","","74","J","1","","","130","main_expt"
"","bandit","210","436035","0.0-171.0-0.0","03702532","wem/bandit_either_2","AMYURTQIMAC8T","either","6","348","","","","","","","0","0","1","0.2680880231","","0.4","0.8","0.6","0.2","","","","","0.3850752379","0.2680880231","0.1189605486","0.2807576759","","","","","","","","74","J","1","","","131","main_expt"
"","bandit","211","438024","0.0-172.0-0.0","03702532","wem/bandit_either_2","AMYURTQIMAC8T","either","6","438","","","","","","","0","0","1","","0.2053564998","0.4","0.8","0.6","0.2","0.3547422913","0.2053564998","0.08638656351","0.2044414959","","","","","","","","","","","","74","J","1","","","132","main_expt"
"","bandit","212","440056","0.0-173.0-0.0","03702532","wem/bandit_either_2","AMYURTQIMAC8T","either","6","491","","","","","","","0","0","1","0.104542274","","0.4","0.8","0.6","0.2","","","","","0.3256782816","0.2102644512","0.104542274","0.2352631215","","","","","","","","75","K","2","","","133","main_expt"
"","bandit","213","441946","0.0-174.0-0.0","03702532","wem/bandit_either_2","AMYURTQIMAC8T","either","6","333","","","","","","","0","0","1","0.2479378245","","0.4","0.8","0.6","0.2","","","","","0.2479378245","0.2028105977","0.1401790922","0.2808822736","","","","","","","","72","H","0","img/none_selected.jpg","","134","main_expt"
"","bandit","214","443811","0.0-175.0-0.0","03702532","wem/bandit_either_2","AMYURTQIMAC8T","either","6","311","","","","","","","0","0","1","","0.1556880781","0.4","0.8","0.6","0.2","0.24301602","0.1556880781","0.1818128853","0.3053704558","","","","","","","","","","","","74","J","1","","","135","main_expt"
"","bandit","215","445509","0.0-176.0-0.0","03702532","wem/bandit_either_2","AMYURTQIMAC8T","either","6","165","","","","","","","0","0","1","","0.2630427063","0.4","0.8","0.6","0.2","0.2630427063","0.1428421262","0.1583738081","0.3140058771","","","","","","","","","","","","72","H","0","img/none_selected.jpg","","136","main_expt"
"","bandit","216","447799","0.0-177.0-0.0","03702532","wem/bandit_either_2","AMYURTQIMAC8T","either","6","755","","","","","","","0","0","1","0.3053425806","","0.4","0.8","0.6","0.2","","","","","0.3053425806","0.1039390038","0.1497920091","0.323699752","","","","","","","","72","H","0","img/none_selected.jpg","","137","main_expt"
"","bandit","217","449331","0.0-178.0-0.0","03702532","wem/bandit_either_2","AMYURTQIMAC8T","either","6","2","","","","","","","1","0","0","0.1128601551","","0.4","0.8","0.6","0.2","","","","","0.3588623722","0.07132433681","0.1128601551","0.3435108126","","","","","","","","75","K","2","","","138","main_expt"
"","bandit","218","451114","0.0-179.0-0.0","03702532","wem/bandit_either_2","AMYURTQIMAC8T","either","6","253","","","","","","","1","0","0","0.1073604677","","0.4","0.8","0.6","0.2","","","","","0.2762704672","0.1047165976","0.1073604677","0.3505637202","","","","","","","","75","K","2","","","139","main_expt"
"","bandit","219","453194","0.0-180.0-0.0","03702532","wem/bandit_either_2","AMYURTQIMAC8T","either","6","521","","","","","","","0","0","1","0.1376710563","","0.4","0.8","0.6","0.2","","","","","0.2475753012","0.09043849554","0.1376710563","0.4185251601","","","","","","","","75","K","2","","","140","main_expt"
"","bandit","220","454977","0.0-181.0-0.0","03702532","wem/bandit_either_2","AMYURTQIMAC8T","either","6","247","","","","","","","0","0","1","","0.1412662962","0.4","0.8","0.6","0.2","0.2436306075","0.05096505815","0.1412662962","0.4225289085","","","","","","","","","","","","75","K","2","","","141","main_expt"
"","bandit","221","456805","0.0-182.0-0.0","03702532","wem/bandit_either_2","AMYURTQIMAC8T","either","6","266","","","","","","","0","0","1","","0.1543424817","0.4","0.8","0.6","0.2","0.1998899021","0.02973759478","0.1543424817","0.455259632","","","","","","","","","","","","75","K","2","","","142","main_expt"
"","bandit","222","458990","0.0-183.0-0.0","03702532","wem/bandit_either_2","AMYURTQIMAC8T","either","6","631","","","","","","","0","0","1","","0.2568100034","0.4","0.8","0.6","0.2","0.2568100034","0.04457260366","0.1552636118","0.4287003803","","","","","","","","","","","","72","H","0","img/none_selected.jpg","","143","main_expt"
"","bandit","223","460569","0.0-184.0-0.0","03702532","wem/bandit_either_2","AMYURTQIMAC8T","either","6","19","","","","","","","0","0","1","0.04060115041","","0.4","0.8","0.6","0.2","","","","","0.2859833531","0.04060115041","0.2241753426","0.4260506414","","","","","","","","74","J","1","","","144","main_expt"
"","bandit","224","462149","0.0-185.0-0.0","03702532","wem/bandit_either_2","AMYURTQIMAC8T","either","6","22","","","","","","","0","0","1","","0.06712401514","0.4","0.8","0.6","0.2","0.2080640158","0.06712401514","0.2484131349","0.4202170594","","","","","","","","","","","","74","J","1","","","145","main_expt"
"","bandit","225","463873","0.0-186.0-0.0","03702532","wem/bandit_either_2","AMYURTQIMAC8T","either","6","167","","","","","","","0","0","1","0.08780921534","","0.4","0.8","0.6","0.2","","","","","0.2469639643","0.08780921534","0.2905032103","0.4333226383","","","","","","","","74","J","1","","","146","main_expt"
"","bandit","226","465636","0.0-187.0-0.0","03702532","wem/bandit_either_2","AMYURTQIMAC8T","either","6","214","","","","","","","0","0","1","0.1333368233","","0.4","0.8","0.6","0.2","","","","","0.2169279296","0.1333368233","0.2846703457","0.4340954059","","","","","","","","74","J","1","","","147","main_expt"
"","bandit","227","467184","0.0-188.0-0.0","03702532","wem/bandit_either_2","AMYURTQIMAC8T","either","6","0","","","","","","","0","0","1","0.1248284812","","0.4","0.8","0.6","0.2","","","","","0.1248284812","0.09264147873","0.3010433131","0.3903754431","","","","","","","","72","H","0","img/none_selected.jpg","","148","main_expt"
"","bandit","228","469713","0.0-189.0-0.0","03702532","wem/bandit_either_2","AMYURTQIMAC8T","either","6","951","","","","","","","0","0","1","","0.1498862571","0.4","0.8","0.6","0.2","0.1498862571","0.123708687","0.3421268102","0.4161192262","","","","","","","","","","","","72","H","0","img/none_selected.jpg","","149","main_expt"
"","bandit","229","472543","0.0-190.0-0.0","03702532","wem/bandit_either_2","AMYURTQIMAC8T","either","6","1290","","","","","","","0","0","1","0.1087811601","","0.4","0.8","0.6","0.2","","","","","0.2044632824","0.1087811601","0.3382865341","0.4545257836","","","","","","","","74","J","1","","","150","main_expt"
"","bandit","230","474434","0.0-191.0-0.0","03702532","wem/bandit_either_2","AMYURTQIMAC8T","either","6","333","","","","","","","0","0","1","0.1640336927","","0.4","0.8","0.6","0.2","","","","","0.1630699797","0.1640336927","0.3031951358","0.4553704948","","","","","","","","74","J","1","","","151","main_expt"
"","bandit","231","475991","0.0-192.0-0.0","03702532","wem/bandit_either_2","AMYURTQIMAC8T","either","6","18","","","","","","","0","1","0","","0.1474195158","0.4","0.8","0.6","0.2","0.1534962237","0.1474195158","0.3163498213","0.4692720684","","","","","","","","","","","","74","J","1","","","152","main_expt"
"","bandit","232","477662","0.0-193.0-0.0","03702532","wem/bandit_either_2","AMYURTQIMAC8T","either","6","129","","","","","","","0","0","1","","0.1506701345","0.4","0.8","0.6","0.2","0.1506701345","0.1200421148","0.3205280093","0.4794448159","","","","","","","","","","","","72","H","0","img/none_selected.jpg","","153","main_expt"
"","bandit","233","479637","0.0-194.0-0.0","03702532","wem/bandit_either_2","AMYURTQIMAC8T","either","6","433","","","","","","","0","1","0","","0.1810992197","0.4","0.8","0.6","0.2","0.1810992197","0.1295208369","0.2780981807","0.4762011242","","","","","","","","","","","","72","H","0","img/none_selected.jpg","","154","main_expt"
"","bandit","234","481186","0.0-195.0-0.0","03702532","wem/bandit_either_2","AMYURTQIMAC8T","either","6","27","","","","","","","0","0","1","0.2574031695","","0.4","0.8","0.6","0.2","","","","","0.2574031695","0.1189574303","0.2543788853","0.4797315341","","","","","","","","72","H","0","img/none_selected.jpg","","155","main_expt"
"","bandit","235","483384","0.0-196.0-0.0","03702532","wem/bandit_either_2","AMYURTQIMAC8T","either","6","641","","","","","","","0","1","0","","0.1838662476","0.4","0.8","0.6","0.2","0.1838662476","0.1511338071","0.2601772157","0.4815153028","","","","","","","","","","","","72","H","0","img/none_selected.jpg","","156","main_expt"
"","bandit","236","485799","0.0-197.0-0.0","03702532","wem/bandit_either_2","AMYURTQIMAC8T","either","6","877","","","","","","","0","0","1","0.1494559257","","0.4","0.8","0.6","0.2","","","","","0.1951262555","0.1494559257","0.27050514","0.4769669351","","","","","","","","74","J","1","","","157","main_expt"
"","bandit","237","487613","0.0-198.0-0.0","03702532","wem/bandit_either_2","AMYURTQIMAC8T","either","6","273","","","","","","","0","0","1","0.2912044809","","0.4","0.8","0.6","0.2","","","","","0.1711173681","0.1398300683","0.2912044809","0.4819637572","","","","","","","","75","K","2","","","158","main_expt"
"","bandit","238","489317","0.0-199.0-0.0","03702532","wem/bandit_either_2","AMYURTQIMAC8T","either","6","151","","","","","","","0","0","1","","0.4802617926","0.4","0.8","0.6","0.2","0.1262927185","0.1482700517","0.2863852675","0.4802617926","","","","","","","","","","","","76","L","3","","","159","main_expt"
"","bandit","239","490875","0.0-200.0-0.0","03702532","wem/bandit_either_2","AMYURTQIMAC8T","either","6","20","","","","","","","0","0","1","","0.1289005464","0.4","0.8","0.6","0.2","0.1289005464","0.1327856751","0.3188379944","0.4834703177","","","","","","","","","","","","72","H","0","img/none_selected.jpg","","160","main_expt"
"","bandit","240","492598","0.0-201.0-0.0","03702532","wem/bandit_either_2","AMYURTQIMAC8T","either","6","191","","","","","","","0","0","1","","0.07062595825","0.4","0.8","0.6","0.2","0.07062595825","0.1936248495","0.3918259889","0.4783639554","","","","","","","","","","","","72","H","0","img/none_selected.jpg","","161","main_expt"
"","bandit","241","496322","0.0-202.0-0.0","03702532","wem/bandit_either_2","AMYURTQIMAC8T","either","6","2181","","","","","","","0","0","1","","0.08554885259","0.4","0.8","0.6","0.2","0.08554885259","0.1917288119","0.3825352776","0.4702379588","","","","","","","","","","","","72","H","0","img/none_selected.jpg","","162","main_expt"
"","bandit","242","498119","0.0-203.0-0.0","03702532","wem/bandit_either_2","AMYURTQIMAC8T","either","6","238","","","","","","","0","0","1","","0.2410074379","0.4","0.8","0.6","0.2","0.05790820845","0.2410074379","0.3500114378","0.4761999765","","","","","","","","","","","","74","J","1","","","163","main_expt"
"","bandit","243","499715","0.0-204.0-0.0","03702532","wem/bandit_either_2","AMYURTQIMAC8T","either","6","42","","","","","","","0","0","1","0.2717164652","","0.4","0.8","0.6","0.2","","","","","0.04744410613","0.2717164652","0.3138306729","0.4683988395","","","","","","","","74","J","1","","","164","main_expt"
"","bandit","244","501360","0.0-205.0-0.0","03702532","wem/bandit_either_2","AMYURTQIMAC8T","either","6","98","","","","","","","1","0","0","0.4594806004","","0.4","0.8","0.6","0.2","","","","","0.07721988326","0.3360488911","0.3066591237","0.4594806004","","","","","","","","76","L","3","","","165","main_expt"
"","bandit","245","503258","0.0-206.0-0.0","03702532","wem/bandit_either_2","AMYURTQIMAC8T","either","6","341","","","","","","","1","0","0","0.3288768439","","0.4","0.8","0.6","0.2","","","","","0.09276645858","0.3288768439","0.359337808","0.4769271284","","","","","","","","74","J","1","","","166","main_expt"
"","bandit","246","505681","0.0-207.0-0.0","03702532","wem/bandit_either_2","AMYURTQIMAC8T","either","6","870","","","","","","","0","0","1","0.341079324","","0.4","0.8","0.6","0.2","","","","","0.1092251717","0.341079324","0.3888119778","0.4824675089","","","","","","","","74","J","1","","","167","main_expt"
"","bandit","247","507401","0.0-208.0-0.0","03702532","wem/bandit_either_2","AMYURTQIMAC8T","either","6","178","","","","","","","0","0","1","0.2972081376","","0.4","0.8","0.6","0.2","","","","","0.09704797424","0.2972081376","0.3188253523","0.4731218304","","","","","","","","74","J","1","","","168","main_expt"
"","bandit","248","508929","0.0-209.0-0.0","03702532","wem/bandit_either_2","AMYURTQIMAC8T","either","6","1","","","","","","","1","0","0","0.4558692975","","0.4","0.8","0.6","0.2","","","","","0.1131958007","0.2716537329","0.3035082617","0.4558692975","","","","","","","","76","L","3","","","169","main_expt"
"","bandit","249","510480","0.0-210.0-0.0","03702532","wem/bandit_either_2","AMYURTQIMAC8T","either","6","10","","","","","","","1","0","0","0.424927817","","0.4","0.8","0.6","0.2","","","","","0.1636150477","0.3705489528","0.3540810543","0.424927817","","","","","","","","76","L","3","","","170","main_expt"
"","bandit","250","520384","0.0-211.0-0.0","03702532","wem/bandit_either_2","AMYURTQIMAC8T","either","6","8357","","","","","","","1","0","0","0.2912941695","","0.4","0.8","0.6","0.2","","","","","0.1889182236","0.3259531709","0.2912941695","0.4254050478","","","","","","","","75","K","2","","","171","main_expt"
"","bandit","251","522072","0.0-212.0-0.0","03702532","wem/bandit_either_2","AMYURTQIMAC8T","either","6","164","","","","","","","0","0","1","","0.3253578443","0.4","0.8","0.6","0.2","0.1494540944","0.3253578443","0.2964718019","0.4319935488","","","","","","","","","","","","74","J","1","","","172","main_expt"
"","bandit","252","524095","0.0-213.0-0.0","03702532","wem/bandit_either_2","AMYURTQIMAC8T","either","6","488","","","","","","","0","0","1","","0.1700291406","0.4","0.8","0.6","0.2","0.1700291406","0.3133285256","0.2411205861","0.4157756128","","","","","","","","","","","","72","H","0","img/none_selected.jpg","","173","main_expt"
"","bandit","253","525678","0.0-214.0-0.0","03702532","wem/bandit_either_2","AMYURTQIMAC8T","either","6","41","","","","","","","0","0","1","0.2007600912","","0.4","0.8","0.6","0.2","","","","","0.2007600912","0.3470844982","0.2132737127","0.3650518631","","","","","","","","72","H","0","img/none_selected.jpg","","174","main_expt"
"","bandit","254","527550","0.0-215.0-0.0","03702532","wem/bandit_either_2","AMYURTQIMAC8T","either","6","332","","","","","","","0","0","1","0.1613291475","","0.4","0.8","0.6","0.2","","","","","0.1613291475","0.3615725976","0.2722172758","0.3583375904","","","","","","","","72","H","0","img/none_selected.jpg","","175","main_expt"
"","bandit","255","529137","0.0-216.0-0.0","03702532","wem/bandit_either_2","AMYURTQIMAC8T","either","6","40","","","","","","","0","1","0","","0.3849487833","0.4","0.8","0.6","0.2","0.1618540135","0.3592449917","0.3158297255","0.3849487833","","","","","","","","","","","","76","L","3","","","176","main_expt"
"","bandit","256","531340","0.0-217.0-0.0","03702532","wem/bandit_either_2","AMYURTQIMAC8T","either","6","675","","","","","","","0","0","1","","0.1337509382","0.4","0.8","0.6","0.2","0.1337509382","0.3614776984","0.3033070912","0.3741193846","","","","","","","","","","","","72","H","0","img/none_selected.jpg","","177","main_expt"
"","bandit","257","532933","0.0-218.0-0.0","03702532","wem/bandit_either_2","AMYURTQIMAC8T","either","6","48","","","","","","","0","0","1","","0.4042649322","0.4","0.8","0.6","0.2","0.172909152","0.4042649322","0.3070990366","0.3704436283","","","","","","","","","","","","74","J","1","","","178","main_expt"
"","bandit","258","534547","0.0-219.0-0.0","03702532","wem/bandit_either_2","AMYURTQIMAC8T","either","6","86","","","","","","","0","0","1","","0.3626499081","0.4","0.8","0.6","0.2","0.2306318455","0.3626499081","0.349206168","0.3718647044","","","","","","","","","","","","74","J","1","","","179","main_expt"
"","bandit","259","536194","0.0-220.0-0.0","03702532","wem/bandit_either_2","AMYURTQIMAC8T","either","6","120","","","","","","","1","0","0","0.365831292","","0.4","0.8","0.6","0.2","","","","","0.2531752843","0.365831292","0.3533593609","0.3144845341","","","","","","","","74","J","1","","","180","main_expt"
"","bandit","260","538151","0.0-221.0-0.0","03702532","wem/bandit_either_2","AMYURTQIMAC8T","either","6","423","","","","","","","0","0","1","0.3720079561","","0.4","0.8","0.6","0.2","","","","","0.2995137733","0.3720079561","0.3792633926","0.3328992573","","","","","","","","74","J","1","","","181","main_expt"
"","bandit","261","539775","0.0-222.0-0.0","03702532","wem/bandit_either_2","AMYURTQIMAC8T","either","6","108","","","","","","","0","0","1","0.3747751333","","0.4","0.8","0.6","0.2","","","","","0.2818604164","0.3747751333","0.4170401524","0.3443004049","","","","","","","","74","J","1","","","182","main_expt"
"","bandit","262","541298","0.0-223.0-0.0","03702532","wem/bandit_either_2","AMYURTQIMAC8T","either","6","4","","","","","","","0","0","1","","0.2706787236","0.4","0.8","0.6","0.2","0.2706787236","0.3772869326","0.4349898381","0.3572445505","","","","","","","","","","","","72","H","0","img/none_selected.jpg","","183","main_expt"
"","bandit","263","543154","0.0-224.0-0.0","03702532","wem/bandit_either_2","AMYURTQIMAC8T","either","6","327","","","","","","","0","0","1","","0.3719200221","0.4","0.8","0.6","0.2","0.2788381055","0.3719200221","0.4355724899","0.358140682","","","","","","","","","","","","74","J","1","","","184","main_expt"
"","bandit","264","544851","0.0-225.0-0.0","03702532","wem/bandit_either_2","AMYURTQIMAC8T","either","6","157","","","","","","","0","1","0","","0.2591604306","0.4","0.8","0.6","0.2","0.2591604306","0.3759280431","0.443517249","0.2938856532","","","","","","","","","","","","72","H","0","img/none_selected.jpg","","185","main_expt"
"","bandit","265","546657","0.0-226.0-0.0","03702532","wem/bandit_either_2","AMYURTQIMAC8T","either","6","281","","","","","","","0","0","1","0.1717283936","","0.4","0.8","0.6","0.2","","","","","0.1717283936","0.3686405037","0.4185550765","0.2570442146","","","","","","","","72","H","0","img/none_selected.jpg","","186","main_expt"
"","bandit","266","548191","0.0-227.0-0.0","03702532","wem/bandit_either_2","AMYURTQIMAC8T","either","6","13","","","","","","","1","0","0","0.4582246802","","0.4","0.8","0.6","0.2","","","","","0.1399016055","0.3693778387","0.4582246802","0.2781151114","","","","","","","","75","K","2","","","187","main_expt"
"","bandit","267","549880","0.0-228.0-0.0","03702532","wem/bandit_either_2","AMYURTQIMAC8T","either","6","147","","","","","","","0","0","1","0.4499637214","","0.4","0.8","0.6","0.2","","","","","0.116743447","0.3858781765","0.4499637214","0.2510368257","","","","","","","","75","K","2","","","188","main_expt"
"","bandit","268","551452","0.0-229.0-0.0","03702532","wem/bandit_either_2","AMYURTQIMAC8T","either","6","3","","","","","","","0","0","1","0.09810356538","","0.4","0.8","0.6","0.2","","","","","0.09810356538","0.353665234","0.4681283031","0.2299291889","","","","","","","","72","H","0","img/none_selected.jpg","","189","main_expt"
"","bandit","269","552972","0.0-230.0-0.0","03702532","wem/bandit_either_2","AMYURTQIMAC8T","either","6","3","","","","","","","1","0","0","0.1333212727","","0.4","0.8","0.6","0.2","","","","","0.1333212727","0.3702546744","0.4672384316","0.2957770397","","","","","","","","72","H","0","img/none_selected.jpg","","190","main_expt"
"","bandit","270","554642","0.0-231.0-0.0","03702532","wem/bandit_either_2","AMYURTQIMAC8T","either","6","128","","","","","","","0","0","1","0.4633056668","","0.4","0.8","0.6","0.2","","","","","0.07289491444","0.3373283559","0.4633056668","0.2806998676","","","","","","","","75","K","2","","","191","main_expt"
"","bandit","271","556230","0.0-232.0-0.0","03702532","wem/bandit_either_2","AMYURTQIMAC8T","either","6","43","","","","","","","0","0","1","","0.09060717316","0.4","0.8","0.6","0.2","0.09060717316","0.3717228864","0.4701423021","0.2578649702","","","","","","","","","","","","72","H","0","img/none_selected.jpg","","192","main_expt"
"","bandit","272","557781","0.0-233.0-0.0","03702532","wem/bandit_either_2","AMYURTQIMAC8T","either","6","16","","","","","","","0","0","1","","0.4625827917","0.4","0.8","0.6","0.2","0.1038106097","0.3861484819","0.4625827917","0.3019093773","","","","","","","","","","","","75","K","2","","","193","main_expt"
"","bandit","273","559315","0.0-234.0-0.0","03702532","wem/bandit_either_2","AMYURTQIMAC8T","either","6","3","","","","","","","0","0","1","0.1222204007","","0.4","0.8","0.6","0.2","","","","","0.1222204007","0.3884838939","0.4480064119","0.3028603149","","","","","","","","72","H","0","img/none_selected.jpg","","194","main_expt"
"","bandit","274","560863","0.0-235.0-0.0","03702532","wem/bandit_either_2","AMYURTQIMAC8T","either","6","30","","","","","","","0","0","1","","0.1230179676","0.4","0.8","0.6","0.2","0.1230179676","0.4058549971","0.4263193963","0.2933095063","","","","","","","","","","","","72","H","0","img/none_selected.jpg","","195","main_expt"
"","bandit","275","562412","0.0-236.0-0.0","03702532","wem/bandit_either_2","AMYURTQIMAC8T","either","6","16","","","","","","","0","0","1","","0.1972068901","0.4","0.8","0.6","0.2","0.1972068901","0.3894648227","0.4399191733","0.3333663608","","","","","","","","","","","","72","H","0","img/none_selected.jpg","","196","main_expt"
"","bandit","276","563944","0.0-237.0-0.0","03702532","wem/bandit_either_2","AMYURTQIMAC8T","either","6","4","","","","","","","0","0","1","","0.4303685687","0.4","0.8","0.6","0.2","0.2091218652","0.3452919481","0.4303685687","0.3472763543","","","","","","","","","","","","75","K","2","","","197","main_expt"
"","bandit","277","565569","0.0-238.0-0.0","03702532","wem/bandit_either_2","AMYURTQIMAC8T","either","6","89","","","","","","","0","1","0","","0.2316117542","0.4","0.8","0.6","0.2","0.2316117542","0.3571156804","0.4166638701","0.3420385624","","","","","","","","","","","","72","H","0","img/none_selected.jpg","","198","main_expt"
"","bandit","278","567216","0.0-239.0-0.0","03702532","wem/bandit_either_2","AMYURTQIMAC8T","either","6","112","","","","","","","0","0","1","0.1983173389","","0.4","0.8","0.6","0.2","","","","","0.1983173389","0.3761278261","0.4166192342","0.3009927129","","","","","","","","72","H","0","img/none_selected.jpg","","199","main_expt"
"","bandit","279","568865","0.0-240.0-0.0","03702532","wem/bandit_either_2","AMYURTQIMAC8T","either","6","130","","","","","","","1","0","0","0.3623939384","","0.4","0.8","0.6","0.2","","","","","0.2275108597","0.3623939384","0.4065109498","0.2834367318","","","","","","","","74","J","1","","","200","main_expt"
"","bandit","280","570686","0.0-241.0-0.0","03702532","wem/bandit_either_2","AMYURTQIMAC8T","either","6","285","","","","","","","1","0","0","0.3470966653","","0.4","0.8","0.6","0.2","","","","","0.2753755663","0.3470966653","0.4210367682","0.2305195973","","","","","","","","74","J","1","","","201","main_expt"
"","bandit","281","572394","0.0-242.0-0.0","03702532","wem/bandit_either_2","AMYURTQIMAC8T","either","6","187","","","","","","","1","0","0","0.3738670455","","0.4","0.8","0.6","0.2","","","","","0.2867984519","0.3738670455","0.4059774394","0.236439039","","","","","","","","74","J","1","","","202","main_expt"
"","bandit","282","574061","0.0-243.0-0.0","03702532","wem/bandit_either_2","AMYURTQIMAC8T","either","6","136","","","","","","","0","0","1","","0.4434414113","0.4","0.8","0.6","0.2","0.227681123","0.4434414113","0.4217634448","0.207292508","","","","","","","","","","","","74","J","1","","","203","main_expt"
"","bandit","283","575804","0.0-244.0-0.0","03702532","wem/bandit_either_2","AMYURTQIMAC8T","either","6","211","","","","","","","0","0","1","0.4363530878","","0.4","0.8","0.6","0.2","","","","","0.2421814767","0.4363530878","0.417590799","0.2706274655","","","","","","","","74","J","1","","","204","main_expt"
"","bandit","284","577489","0.0-245.0-0.0","03702532","wem/bandit_either_2","AMYURTQIMAC8T","either","6","153","","","","","","","1","0","0","0.4390009565","","0.4","0.8","0.6","0.2","","","","","0.2250127273","0.4390009565","0.3892328218","0.2688171721","","","","","","","","74","J","1","","","205","main_expt"
"","bandit","285","579031","0.0-246.0-0.0","03702532","wem/bandit_either_2","AMYURTQIMAC8T","either","6","15","","","","","","","0","0","1","0.4606838579","","0.4","0.8","0.6","0.2","","","","","0.2148063869","0.4606838579","0.3877758809","0.2774640617","","","","","","","","74","J","1","","","206","main_expt"
"","bandit","286","580688","0.0-247.0-0.0","03702532","wem/bandit_either_2","AMYURTQIMAC8T","either","6","136","","","","","","","1","0","0","0.4679198071","","0.4","0.8","0.6","0.2","","","","","0.2370073307","0.4679198071","0.3344078408","0.31303597","","","","","","","","74","J","1","","","207","main_expt"
"","bandit","287","582337","0.0-248.0-0.0","03702532","wem/bandit_either_2","AMYURTQIMAC8T","either","6","108","","","","","","","0","0","1","","0.4731710197","0.4","0.8","0.6","0.2","0.1736764344","0.4731710197","0.3285414067","0.3187850143","","","","","","","","","","","","74","J","1","","","208","main_expt"
"","bandit","288","584032","0.0-249.0-0.0","03702532","wem/bandit_either_2","AMYURTQIMAC8T","either","6","154","","","","","","","0","1","0","","0.472507437","0.4","0.8","0.6","0.2","0.2033963155","0.472507437","0.337659841","0.3031297305","","","","","","","","","","","","74","J","1","","","209","main_expt"
"","bandit","289","585621","0.0-250.0-0.0","03702532","wem/bandit_either_2","AMYURTQIMAC8T","either","6","48","","","","","","","1","0","0","0.4759946166","","0.4","0.8","0.6","0.2","","","","","0.1849029676","0.4759946166","0.322880172","0.3593083662","","","","","","","","74","J","1","","","210","main_expt"
"","bandit","290","587265","0.0-251.0-0.0","03702532","wem/bandit_either_2","AMYURTQIMAC8T","either","6","109","","","","","","","1","0","0","0.4838002785","","0.4","0.8","0.6","0.2","","","","","0.08033524441","0.4838002785","0.3440981268","0.3758292662","","","","","","","","74","J","1","","","211","main_expt"
"","bandit","291","588946","0.0-252.0-0.0","03702532","wem/bandit_either_2","AMYURTQIMAC8T","either","6","139","","","","","","","0","0","1","","0.4871609062","0.4","0.8","0.6","0.2","0.1024936548","0.4871609062","0.3135232579","0.3771764803","","","","","","","","","","","","74","J","1","","","212","main_expt"
"","bandit","292","590595","0.0-253.0-0.0","03702532","wem/bandit_either_2","AMYURTQIMAC8T","either","6","122","","","","","","","1","0","0","0.4829725273","","0.4","0.8","0.6","0.2","","","","","0.1380366818","0.4829725273","0.328558382","0.3935517348","","","","","","","","74","J","1","","","213","main_expt"
"","bandit","293","592166","0.0-254.0-0.0","03702532","wem/bandit_either_2","AMYURTQIMAC8T","either","6","38","","","","","","","0","1","0","","0.4742933803","0.4","0.8","0.6","0.2","0.1206441992","0.4742933803","0.3024402918","0.3792377037","","","","","","","","","","","","74","J","1","","","214","main_expt"
"","bandit","294","593762","0.0-255.0-0.0","03702532","wem/bandit_either_2","AMYURTQIMAC8T","either","6","63","","","","","","","0","0","1","0.4754417465","","0.4","0.8","0.6","0.2","","","","","0.1320715796","0.4754417465","0.3024001881","0.3364308411","","","","","","","","74","J","1","","","215","main_expt"
"","bandit","295","595392","0.0-256.0-0.0","03702532","wem/bandit_either_2","AMYURTQIMAC8T","either","6","76","","","","","","","0","0","1","0.4764866221","","0.4","0.8","0.6","0.2","","","","","0.1152906885","0.4764866221","0.2975117226","0.3348871659","","","","","","","","74","J","1","","","216","main_expt"
"","bandit","296","597040","0.0-257.0-0.0","03702532","wem/bandit_either_2","AMYURTQIMAC8T","either","6","113","","","","","","","0","1","0","","0.4727866334","0.4","0.8","0.6","0.2","0.1191406027","0.4727866334","0.3331298207","0.321293363","","","","","","","","","","","","74","J","1","","","217","main_expt"
"","bandit","297","598689","0.0-258.0-0.0","03702532","wem/bandit_either_2","AMYURTQIMAC8T","either","6","129","","","","","","","0","0","1","0.4664653133","","0.4","0.8","0.6","0.2","","","","","0.1177717736","0.4664653133","0.2905667849","0.3530973922","","","","","","","","74","J","1","","","218","main_expt"
"","bandit","298","600229","0.0-259.0-0.0","03702532","wem/bandit_either_2","AMYURTQIMAC8T","either","6","10","","","","","","","0","0","1","0.4636837267","","0.4","0.8","0.6","0.2","","","","","0.1178729669","0.4636837267","0.2701708387","0.3837093308","","","","","","","","74","J","1","","","219","main_expt"
"","bandit","299","601836","0.0-260.0-0.0","03702532","wem/bandit_either_2","AMYURTQIMAC8T","either","6","70","","","","","","","0","0","1","0.4599900571","","0.4","0.8","0.6","0.2","","","","","0.1284790336","0.4599900571","0.2395453957","0.3651541458","","","","","","","","74","J","1","","","220","main_expt"
"","bandit","300","603469","0.0-261.0-0.0","03702532","wem/bandit_either_2","AMYURTQIMAC8T","either","6","87","","","","","","","0","1","0","","0.4490722186","0.4","0.8","0.6","0.2","0.147465279","0.4490722186","0.2770622605","0.254085412","","","","","","","","","","","","74","J","1","","","221","main_expt"
"","bandit","301","605382","0.0-262.0-0.0","03702532","wem/bandit_either_2","AMYURTQIMAC8T","either","6","368","","","","","","","0","0","1","0.4253353094","","0.4","0.8","0.6","0.2","","","","","0.1441925756","0.4253353094","0.3390746663","0.2590796483","","","","","","","","74","J","1","","","222","main_expt"
"","bandit","302","606939","0.0-263.0-0.0","03702532","wem/bandit_either_2","AMYURTQIMAC8T","either","6","28","","","","","","","0","0","1","","0.4559825987","0.4","0.8","0.6","0.2","0.1731110736","0.4559825987","0.384843876","0.2640852941","","","","","","","","","","","","74","J","1","","","223","main_expt"
"","bandit","303","608488","0.0-264.0-0.0","03702532","wem/bandit_either_2","AMYURTQIMAC8T","either","6","20","","","","","","","1","0","0","0.464560515","","0.4","0.8","0.6","0.2","","","","","0.1124600034","0.464560515","0.4367619307","0.2636590797","","","","","","","","74","J","1","","","224","main_expt"
"","bandit","304","610096","0.0-265.0-0.0","03702532","wem/bandit_either_2","AMYURTQIMAC8T","either","6","71","","","","","","","1","0","0","0.4528378766","","0.4","0.8","0.6","0.2","","","","","0.1174510337","0.4528378766","0.42055701","0.3110444069","","","","","","","","74","J","1","","","225","main_expt"
"","bandit","305","611808","0.0-266.0-0.0","03702532","wem/bandit_either_2","AMYURTQIMAC8T","either","6","174","","","","","","","0","0","1","0.4585160156","","0.4","0.8","0.6","0.2","","","","","0.1494320736","0.4585160156","0.4282593698","0.3268768972","","","","","","","","74","J","1","","","226","main_expt"
"","bandit","306","613459","0.0-267.0-0.0","03702532","wem/bandit_either_2","AMYURTQIMAC8T","either","6","105","","","","","","","0","0","1","0.4525914875","","0.4","0.8","0.6","0.2","","","","","0.1655037845","0.4525914875","0.4213985596","0.3112991039","","","","","","","","74","J","1","","","227","main_expt"
"","bandit","307","615124","0.0-268.0-0.0","03702532","wem/bandit_either_2","AMYURTQIMAC8T","either","6","137","","","","","","","0","1","0","","0.4618810074","0.4","0.8","0.6","0.2","0.1595877114","0.4618810074","0.4115599459","0.3481066565","","","","","","","","","","","","74","J","1","","","228","main_expt"
"","bandit","308","616710","0.0-269.0-0.0","03702532","wem/bandit_either_2","AMYURTQIMAC8T","either","6","41","","","","","","","1","0","0","0.4661541784","","0.4","0.8","0.6","0.2","","","","","0.1811982871","0.4661541784","0.375967734","0.3267856819","","","","","","","","74","J","1","","","229","main_expt"
"","bandit","309","618323","0.0-270.0-0.0","03702532","wem/bandit_either_2","AMYURTQIMAC8T","either","6","68","","","","","","","1","0","0","0.4681373403","","0.4","0.8","0.6","0.2","","","","","0.2088208598","0.4681373403","0.4172813036","0.3043034776","","","","","","","","74","J","1","","","230","main_expt"
"","bandit","310","619923","0.0-271.0-0.0","03702532","wem/bandit_either_2","AMYURTQIMAC8T","either","6","52","","","","","","","0","0","1","0.4733838814","","0.4","0.8","0.6","0.2","","","","","0.2062946352","0.4733838814","0.3871641603","0.3127123154","","","","","","","","74","J","1","","","231","main_expt"
"","bandit","311","621489","0.0-272.0-0.0","03702532","wem/bandit_either_2","AMYURTQIMAC8T","either","6","32","","","","","","","0","0","1","0.455942125","","0.4","0.8","0.6","0.2","","","","","0.1448621505","0.455942125","0.3381606844","0.3039198066","","","","","","","","74","J","1","","","232","main_expt"
"","bandit","312","623086","0.0-273.0-0.0","03702532","wem/bandit_either_2","AMYURTQIMAC8T","either","6","59","","","","","","","1","0","0","0.4523014459","","0.4","0.8","0.6","0.2","","","","","0.1096360744","0.4523014459","0.2918198365","0.2846072758","","","","","","","","74","J","1","","","233","main_expt"
"","bandit","313","624654","0.0-274.0-0.0","03702532","wem/bandit_either_2","AMYURTQIMAC8T","either","6","21","","","","","","","0","0","1","0.4715877437","","0.4","0.8","0.6","0.2","","","","","0.1102272527","0.4715877437","0.3016980071","0.2430061478","","","","","","","","74","J","1","","","234","main_expt"
"","bandit","314","626233","0.0-275.0-0.0","03702532","wem/bandit_either_2","AMYURTQIMAC8T","either","6","46","","","","","","","0","0","1","","0.4667146267","0.4","0.8","0.6","0.2","0.1428859574","0.4667146267","0.2940059945","0.263037213","","","","","","","","","","","","74","J","1","","","235","main_expt"
"","bandit","315","627896","0.0-276.0-0.0","03702532","wem/bandit_either_2","AMYURTQIMAC8T","either","6","134","","","","","","","0","0","1","","0.4638430617","0.4","0.8","0.6","0.2","0.1659437887","0.4638430617","0.2926833733","0.2976510001","","","","","","","","","","","","74","J","1","","","236","main_expt"
"","bandit","316","629653","0.0-277.0-0.0","03702532","wem/bandit_either_2","AMYURTQIMAC8T","either","6","225","","","","","","","0","0","1","0.4584702359","","0.4","0.8","0.6","0.2","","","","","0.1948695303","0.4584702359","0.278351659","0.2789990486","","","","","","","","74","J","1","","","237","main_expt"
"","bandit","317","631405","0.0-278.0-0.0","03702532","wem/bandit_either_2","AMYURTQIMAC8T","either","6","214","","","","","","","0","0","1","","0.4297714473","0.4","0.8","0.6","0.2","0.2231382717","0.4297714473","0.2475781625","0.2760904485","","","","","","","","","","","","74","J","1","","","238","main_expt"
"","bandit","318","632994","0.0-279.0-0.0","03702532","wem/bandit_either_2","AMYURTQIMAC8T","either","6","31","","","","","","","0","0","1","0.4225482751","","0.4","0.8","0.6","0.2","","","","","0.2118273477","0.4225482751","0.2476463542","0.2679201555","","","","","","","","74","J","1","","","239","main_expt"
"","bandit","319","634686","0.0-280.0-0.0","03702532","wem/bandit_either_2","AMYURTQIMAC8T","either","6","147","","","","","","","0","0","1","0.2691810592","","0.4","0.8","0.6","0.2","","","","","0.175879666","0.3911766626","0.2691810592","0.1815101208","","","","","","","","75","K","2","","","240","main_expt"
"","bandit","320","636353","0.0-281.0-0.0","03702532","wem/bandit_either_2","AMYURTQIMAC8T","either","6","136","","","","","","","0","0","1","","0.2107278188","0.4","0.8","0.6","0.2","0.2619723004","0.3576719612","0.2600118225","0.2107278188","","","","","","","","","","","","76","L","3","","","241","main_expt"
"","bandit","321","638128","0.0-282.0-0.0","03702532","wem/bandit_either_2","AMYURTQIMAC8T","either","6","243","","","","","","","0","0","1","","0.253357122","0.4","0.8","0.6","0.2","0.253357122","0.3649942216","0.2585740571","0.1890457695","","","","","","","","","","","","72","H","0","img/none_selected.jpg","","242","main_expt"
"","bandit","322","639736","0.0-283.0-0.0","03702532","wem/bandit_either_2","AMYURTQIMAC8T","either","6","77","","","","","","","0","0","1","","0.2937411872","0.4","0.8","0.6","0.2","0.2937411872","0.3462843793","0.1943885749","0.1983598585","","","","","","","","","","","","72","H","0","img/none_selected.jpg","","243","main_expt"
"","bandit","323","641495","0.0-284.0-0.0","03702532","wem/bandit_either_2","AMYURTQIMAC8T","either","6","227","","","","","","","0","0","1","","0.2165838592","0.4","0.8","0.6","0.2","0.2743784529","0.3520149162","0.1861062248","0.2165838592","","","","","","","","","","","","76","L","3","","","244","main_expt"
"","bandit","324","643321","0.0-285.0-0.0","03702532","wem/bandit_either_2","AMYURTQIMAC8T","either","6","293","","","","","","","0","0","1","","0.2734657034","0.4","0.8","0.6","0.2","0.2734657034","0.3483485742","0.1398782291","0.1823109088","","","","","","","","","","","","72","H","0","img/none_selected.jpg","","245","main_expt"
"","bandit","325","645246","0.0-286.0-0.0","03702532","wem/bandit_either_2","AMYURTQIMAC8T","either","6","381","","","","","","","1","0","0","0.3814570076","","0.4","0.8","0.6","0.2","","","","","0.2285423815","0.3814570076","0.1392076576","0.172760958","","","","","","","","74","J","1","","","246","main_expt"
"","bandit","326","646879","0.0-287.0-0.0","03702532","wem/bandit_either_2","AMYURTQIMAC8T","either","6","104","","","","","","","1","0","0","0.3871035364","","0.4","0.8","0.6","0.2","","","","","0.269943793","0.3871035364","0.2028121248","0.1955602127","","","","","","","","74","J","1","","","247","main_expt"
"","bandit","327","648527","0.0-288.0-0.0","03702532","wem/bandit_either_2","AMYURTQIMAC8T","either","6","110","","","","","","","0","0","1","0.3746835134","","0.4","0.8","0.6","0.2","","","","","0.2974302923","0.3746835134","0.2522392451","0.1770790361","","","","","","","","74","J","1","","","248","main_expt"
