"consent","trial_type","trial_index","time_elapsed","internal_node_id","subjID","study","MID","cond","drift","rt","responses","key_press","expt_phase","like","value","connected","gems","bombs","no_reward","GemPrChosen","BombPrChosen","GainOverPainPr_0","GainOverPainPr_1","GainOverPainPr_2","GainOverPainPr_3","LosePr_0","LosePr_1","LosePr_2","LosePr_3","WinPr_0","WinPr_1","WinPr_2","WinPr_3","Q0","Q1","Q2","gender","age","ethnicity","target","respCharCode","respKey","respChoiceNum","respChoice","practice","trial_counter","trial_label"
"INL_behavioral_consent_30min_online.html","consent","0","28958","0.0-0.0","04976717","wem/bandit_either_2","ABX5OQLR6UNBC","either","5","","","","","","","","","","","","","","","","","","","","","","","","","","","","","","","","","","","","","",""
"","survey-text","1","37206","0.0-1.0","04976717","wem/bandit_either_2","ABX5OQLR6UNBC","either","5","7241","{""Q0"":""ABX5OQLR6UNBC""}","","","","","","","","","","","","","","","","","","","","","","","","","","","","","","","","","","","",""
"","text","2","100326","0.0-2.0","04976717","wem/bandit_either_2","ABX5OQLR6UNBC","either","5","62116","","32","","","","","","","","","","","","","","","","","","","","","","","","","","","","","","","","","","",""
"","text","3","105692","0.0-3.0","04976717","wem/bandit_either_2","ABX5OQLR6UNBC","either","5","5364","","32","","","","","","","","","","","","","","","","","","","","","","","","","","","","","","","","","","",""
"","text","4","130725","0.0-4.0","04976717","wem/bandit_either_2","ABX5OQLR6UNBC","either","5","25031","","32","","","","","","","","","","","","","","","","","","","","","","","","","","","","","","","","","","",""
"","text","5","143381","0.0-5.0","04976717","wem/bandit_either_2","ABX5OQLR6UNBC","either","5","12655","","32","","","","","","","","","","","","","","","","","","","","","","","","","","","","","","","","","","",""
"","text","6","171181","0.0-6.0","04976717","wem/bandit_either_2","ABX5OQLR6UNBC","either","5","27799","","32","","","","","","","","","","","","","","","","","","","","","","","","","","","","","","","","","","",""
"","text","7","177636","0.0-7.0","04976717","wem/bandit_either_2","ABX5OQLR6UNBC","either","5","6454","","32","","","","","","","","","","","","","","","","","","","","","","","","","","","","","","","","","","",""
"","text","8","181477","0.0-8.0","04976717","wem/bandit_either_2","ABX5OQLR6UNBC","either","5","3840","","32","","","","","","","","","","","","","","","","","","","","","","","","","","","","","","","","","","",""
"","identification","9","191696","0.0-9.0-0.0","04976717","wem/bandit_either_2","ABX5OQLR6UNBC","either","5","10209","","","","6","6","6","","","","","","","","","","","","","","","","","","","","","","","","the village of Zur","","","","","","",""
"","identification","10","211678","0.0-9.0-1.0","04976717","wem/bandit_either_2","ABX5OQLR6UNBC","either","5","18974","","","","3","3","0","","","","","","","","","","","","","","","","","","","","","","","","the village of Nyx","","","","","","",""
"","text","11","225492","0.0-10.0","04976717","wem/bandit_either_2","ABX5OQLR6UNBC","either","5","12812","","32","","","","","","","","","","","","","","","","","","","","","","","","","","","","","","","","","","",""
"","text","12","230052","0.0-11.0","04976717","wem/bandit_either_2","ABX5OQLR6UNBC","either","5","4559","","32","","","","","","","","","","","","","","","","","","","","","","","","","","","","","","","","","","",""
"","text","13","232140","0.0-12.0","04976717","wem/bandit_either_2","ABX5OQLR6UNBC","either","5","2087","","32","","","","","","","","","","","","","","","","","","","","","","","","","","","","","","","","","","",""
"","text","14","236573","0.0-13.0","04976717","wem/bandit_either_2","ABX5OQLR6UNBC","either","5","4431","","32","","","","","","","","","","","","","","","","","","","","","","","","","","","","","","","","","","",""
"","bandit","15","240508","0.0-14.0-0.0","04976717","wem/bandit_either_2","ABX5OQLR6UNBC","either","5","2429","","","","","","","0","0","1","0","0","","","","","0","","","","0","","","","","","","","","","","74","J","0","img/none_selected_demo.jpg","true","0",""
"","bandit","16","242788","0.0-15.0-0.0","04976717","wem/bandit_either_2","ABX5OQLR6UNBC","either","5","774","","","","","","","0","0","1","0","0","","","","","0","","","","0","","","","","","","","","","","75","K","0","img/none_selected_demo.jpg","true","0",""
"","text","17","251461","0.0-16.0","04976717","wem/bandit_either_2","ABX5OQLR6UNBC","either","5","8672","","32","","","","","","","","","","","","","","","","","","","","","","","","","","","","","","","","","","",""
"","text","18","260380","0.0-17.0","04976717","wem/bandit_either_2","ABX5OQLR6UNBC","either","5","8918","","32","","","","","","","","","","","","","","","","","","","","","","","","","","","","","","","","","","",""
"","text","19","260452","0.0-18.0","04976717","wem/bandit_either_2","ABX5OQLR6UNBC","either","5","71","","32","","","","","","","","","","","","","","","","","","","","","","","","","","","","","","","","","","",""
"","text","20","270852","0.0-19.0","04976717","wem/bandit_either_2","ABX5OQLR6UNBC","either","5","10399","","32","","","","","","","","","","","","","","","","","","","","","","","","","","","","","","","","","","",""
"","bandit","21","273188","0.0-20.0-0.0","04976717","wem/bandit_either_2","ABX5OQLR6UNBC","either","5","831","","","","","","","0","0","1","0.2","","0.5","0.5","","","","","","","0.8","0.2","","","","","","","","","","75","K","1","","true","0","80_20_practice"
"","bandit","22","275404","0.0-20.0-1.0","04976717","wem/bandit_either_2","ABX5OQLR6UNBC","either","5","711","","","","","","","0","1","0","","0.8","0.5","0.5","","","0.8","0.2","","","","","","","","","","","","","","74","J","0","img/none_selected_demo.jpg","true","0","80_20_practice"
"","bandit","23","279084","0.0-20.0-2.0","04976717","wem/bandit_either_2","ABX5OQLR6UNBC","either","5","2175","","","","","","","0","1","0","","0.8","0.5","0.5","","","0.8","0.2","","","","","","","","","","","","","","74","J","0","img/none_selected_demo.jpg","true","0","80_20_practice"
"","bandit","24","281026","0.0-20.0-3.0","04976717","wem/bandit_either_2","ABX5OQLR6UNBC","either","5","438","","","","","","","0","0","1","0.2","","0.5","0.5","","","","","","","0.8","0.2","","","","","","","","","","75","K","1","","true","0","80_20_practice"
"","bandit","25","283308","0.0-20.0-4.0","04976717","wem/bandit_either_2","ABX5OQLR6UNBC","either","5","776","","","","","","","0","1","0","","0.8","0.5","0.5","","","0.8","0.2","","","","","","","","","","","","","","74","J","0","img/none_selected_demo.jpg","true","0","80_20_practice"
"","bandit","26","285219","0.0-20.0-5.0","04976717","wem/bandit_either_2","ABX5OQLR6UNBC","either","5","407","","","","","","","1","0","0","0.2","","0.5","0.5","","","","","","","0.8","0.2","","","","","","","","","","75","K","1","","true","0","80_20_practice"
"","bandit","27","287938","0.0-20.0-6.0","04976717","wem/bandit_either_2","ABX5OQLR6UNBC","either","5","1215","","","","","","","0","0","1","","0.2","0.5","0.5","","","0.8","0.2","","","","","","","","","","","","","","75","K","1","","true","0","80_20_practice"
"","bandit","28","289756","0.0-20.0-7.0","04976717","wem/bandit_either_2","ABX5OQLR6UNBC","either","5","312","","","","","","","0","1","0","","0.8","0.5","0.5","","","0.8","0.2","","","","","","","","","","","","","","74","J","0","img/none_selected_demo.jpg","true","0","80_20_practice"
"","bandit","29","293802","0.0-20.0-8.0","04976717","wem/bandit_either_2","ABX5OQLR6UNBC","either","5","2542","","","","","","","1","0","0","0.8","","0.5","0.5","","","","","","","0.8","0.2","","","","","","","","","","74","J","0","img/none_selected_demo.jpg","true","0","80_20_practice"
"","bandit","30","295891","0.0-20.0-9.0","04976717","wem/bandit_either_2","ABX5OQLR6UNBC","either","5","583","","","","","","","1","0","0","0.8","","0.5","0.5","","","","","","","0.8","0.2","","","","","","","","","","74","J","0","img/none_selected_demo.jpg","true","0","80_20_practice"
"","bandit","31","297914","0.0-20.0-10.0","04976717","wem/bandit_either_2","ABX5OQLR6UNBC","either","5","519","","","","","","","1","0","0","0.8","","0.5","0.5","","","","","","","0.8","0.2","","","","","","","","","","74","J","0","img/none_selected_demo.jpg","true","0","80_20_practice"
"","bandit","32","299707","0.0-20.0-11.0","04976717","wem/bandit_either_2","ABX5OQLR6UNBC","either","5","288","","","","","","","0","1","0","","0.8","0.5","0.5","","","0.8","0.2","","","","","","","","","","","","","","74","J","0","img/none_selected_demo.jpg","true","0","80_20_practice"
"","bandit","33","301260","0.0-20.0-12.0","04976717","wem/bandit_either_2","ABX5OQLR6UNBC","either","5","47","","","","","","","1","0","0","0.8","","0.5","0.5","","","","","","","0.8","0.2","","","","","","","","","","74","J","0","img/none_selected_demo.jpg","true","0","80_20_practice"
"","bandit","34","302833","0.0-20.0-13.0","04976717","wem/bandit_either_2","ABX5OQLR6UNBC","either","5","70","","","","","","","1","0","0","0.8","","0.5","0.5","","","","","","","0.8","0.2","","","","","","","","","","74","J","0","img/none_selected_demo.jpg","true","0","80_20_practice"
"","bandit","35","305082","0.0-20.0-14.0","04976717","wem/bandit_either_2","ABX5OQLR6UNBC","either","5","744","","","","","","","0","0","1","","0.2","0.5","0.5","","","0.8","0.2","","","","","","","","","","","","","","75","K","1","","true","0","80_20_practice"
"","bandit","36","307634","0.0-20.0-15.0","04976717","wem/bandit_either_2","ABX5OQLR6UNBC","either","5","1046","","","","","","","0","1","0","","0.8","0.5","0.5","","","0.8","0.2","","","","","","","","","","","","","","74","J","0","img/none_selected_demo.jpg","true","0","80_20_practice"
"","bandit","37","309506","0.0-20.0-16.0","04976717","wem/bandit_either_2","ABX5OQLR6UNBC","either","5","367","","","","","","","0","0","1","","0.8","0.5","0.5","","","0.8","0.2","","","","","","","","","","","","","","74","J","0","img/none_selected_demo.jpg","true","0","80_20_practice"
"","bandit","38","311138","0.0-20.0-17.0","04976717","wem/bandit_either_2","ABX5OQLR6UNBC","either","5","127","","","","","","","0","1","0","","0.8","0.5","0.5","","","0.8","0.2","","","","","","","","","","","","","","74","J","0","img/none_selected_demo.jpg","true","0","80_20_practice"
"","bandit","39","313139","0.0-20.0-18.0","04976717","wem/bandit_either_2","ABX5OQLR6UNBC","either","5","496","","","","","","","1","0","0","0.8","","0.5","0.5","","","","","","","0.8","0.2","","","","","","","","","","74","J","0","img/none_selected_demo.jpg","true","0","80_20_practice"
"","bandit","40","317185","0.0-20.0-19.0","04976717","wem/bandit_either_2","ABX5OQLR6UNBC","either","5","2541","","","","","","","0","0","1","0.8","","0.5","0.5","","","","","","","0.8","0.2","","","","","","","","","","74","J","0","img/none_selected_demo.jpg","true","0","80_20_practice"
"","text","41","321380","0.0-21.0","04976717","wem/bandit_either_2","ABX5OQLR6UNBC","either","5","4193","","32","","","","","","","","","","","","","","","","","","","","","","","","","","","","","","","","","","",""
"","bandit","42","323962","0.0-22.0-0.0","04976717","wem/bandit_either_2","ABX5OQLR6UNBC","either","5","1078","","","","","","","1","0","0","1","0","","","","","0","1","","","1","0","","","","","","","","","","74","J","0","img/none_selected_demo.jpg","true","0",""
"","text","43","329044","0.0-23.0","04976717","wem/bandit_either_2","ABX5OQLR6UNBC","either","5","5080","","32","","","","","","","","","","","","","","","","","","","","","","","","","","","","","","","","","","",""
"","text","44","334452","0.0-24.0","04976717","wem/bandit_either_2","ABX5OQLR6UNBC","either","5","5406","","32","","","","","","","","","","","","","","","","","","","","","","","","","","","","","","","","","","",""
"","text","45","337980","0.0-25.0","04976717","wem/bandit_either_2","ABX5OQLR6UNBC","either","5","3527","","32","","","","","","","","","","","","","","","","","","","","","","","","","","","","","","","","","","",""
"","text","46","340875","0.0-26.0","04976717","wem/bandit_either_2","ABX5OQLR6UNBC","either","5","2895","","32","","","","","","","","","","","","","","","","","","","","","","","","","","","","","","","","","","",""
"","text","47","354676","0.0-27.0","04976717","wem/bandit_either_2","ABX5OQLR6UNBC","either","5","13799","","32","","","","","","","","","","","","","","","","","","","","","","","","","","","","","","","","","","",""
"","text","48","356907","0.0-28.0","04976717","wem/bandit_either_2","ABX5OQLR6UNBC","either","5","2230","","32","","","","","","","","","","","","","","","","","","","","","","","","","","","","","","","","","","",""
"","text","49","359804","0.0-29.0","04976717","wem/bandit_either_2","ABX5OQLR6UNBC","either","5","2895","","32","","","","","","","","","","","","","","","","","","","","","","","","","","","","","","","","","","",""
"","text","50","381860","0.0-30.0","04976717","wem/bandit_either_2","ABX5OQLR6UNBC","either","5","22056","","32","","","","","","","","","","","","","","","","","","","","","","","","","","","","","","","","","","",""
"","text","51","389699","0.0-31.0","04976717","wem/bandit_either_2","ABX5OQLR6UNBC","either","5","7838","","32","","","","","","","","","","","","","","","","","","","","","","","","","","","","","","","","","","",""
"","text","52","391660","0.0-32.0","04976717","wem/bandit_either_2","ABX5OQLR6UNBC","either","5","1959","","32","","","","","","","","","","","","","","","","","","","","","","","","","","","","","","","","","","",""
"","text","53","394283","0.0-33.0","04976717","wem/bandit_either_2","ABX5OQLR6UNBC","either","5","2621","","32","","","","","","","","","","","","","","","","","","","","","","","","","","","","","","","","","","",""
"","bandit","54","396347","0.0-34.0-0.0","04976717","wem/bandit_either_2","ABX5OQLR6UNBC","either","5","558","","","","","","","0","1","0","","0.8","0.5","0.5","0.5","0.5","0.8","0.2","0.6","0.2","","","","","","","","","","","","72","H","0","img/none_selected.jpg","true","0","full_practice"
"","bandit","55","398258","0.0-34.0-1.0","04976717","wem/bandit_either_2","ABX5OQLR6UNBC","either","5","406","","","","","","","0","0","1","","0.2","0.5","0.5","0.5","0.5","0.8","0.2","0.6","0.2","","","","","","","","","","","","74","J","1","","true","0","full_practice"
"","bandit","56","400499","0.0-34.0-2.0","04976717","wem/bandit_either_2","ABX5OQLR6UNBC","either","5","735","","","","","","","0","0","1","0.6","","0.5","0.5","0.5","0.5","","","","","0.8","0.2","0.6","0.2","","","","","","","","75","K","2","","true","0","full_practice"
"","bandit","57","402459","0.0-34.0-3.0","04976717","wem/bandit_either_2","ABX5OQLR6UNBC","either","5","454","","","","","","","0","0","1","","0.2","0.5","0.5","0.5","0.5","0.8","0.2","0.6","0.2","","","","","","","","","","","","76","L","3","","true","0","full_practice"
"","bandit","58","404612","0.0-34.0-4.0","04976717","wem/bandit_either_2","ABX5OQLR6UNBC","either","5","647","","","","","","","1","0","0","0.8","","0.5","0.5","0.5","0.5","","","","","0.8","0.2","0.6","0.2","","","","","","","","72","H","0","img/none_selected.jpg","true","0","full_practice"
"","bandit","59","406515","0.0-34.0-5.0","04976717","wem/bandit_either_2","ABX5OQLR6UNBC","either","5","396","","","","","","","0","1","0","","0.8","0.5","0.5","0.5","0.5","0.8","0.2","0.6","0.2","","","","","","","","","","","","72","H","0","img/none_selected.jpg","true","0","full_practice"
"","bandit","60","408402","0.0-34.0-6.0","04976717","wem/bandit_either_2","ABX5OQLR6UNBC","either","5","382","","","","","","","1","0","0","0.8","","0.5","0.5","0.5","0.5","","","","","0.8","0.2","0.6","0.2","","","","","","","","72","H","0","img/none_selected.jpg","true","0","full_practice"
"","bandit","61","410211","0.0-34.0-7.0","04976717","wem/bandit_either_2","ABX5OQLR6UNBC","either","5","303","","","","","","","1","0","0","0.8","","0.5","0.5","0.5","0.5","","","","","0.8","0.2","0.6","0.2","","","","","","","","72","H","0","img/none_selected.jpg","true","0","full_practice"
"","bandit","62","411995","0.0-34.0-8.0","04976717","wem/bandit_either_2","ABX5OQLR6UNBC","either","5","279","","","","","","","1","0","0","0.8","","0.5","0.5","0.5","0.5","","","","","0.8","0.2","0.6","0.2","","","","","","","","72","H","0","img/none_selected.jpg","true","0","full_practice"
"","bandit","63","413762","0.0-34.0-9.0","04976717","wem/bandit_either_2","ABX5OQLR6UNBC","either","5","262","","","","","","","0","0","1","0.8","","0.5","0.5","0.5","0.5","","","","","0.8","0.2","0.6","0.2","","","","","","","","72","H","0","img/none_selected.jpg","true","0","full_practice"
"","bandit","64","415635","0.0-34.0-10.0","04976717","wem/bandit_either_2","ABX5OQLR6UNBC","either","5","367","","","","","","","0","1","0","","0.2","0.5","0.5","0.5","0.5","0.8","0.2","0.6","0.2","","","","","","","","","","","","74","J","1","","true","0","full_practice"
"","bandit","65","417451","0.0-34.0-11.0","04976717","wem/bandit_either_2","ABX5OQLR6UNBC","either","5","311","","","","","","","0","1","0","","0.2","0.5","0.5","0.5","0.5","0.8","0.2","0.6","0.2","","","","","","","","","","","","74","J","1","","true","0","full_practice"
"","bandit","66","419258","0.0-34.0-12.0","04976717","wem/bandit_either_2","ABX5OQLR6UNBC","either","5","303","","","","","","","0","0","1","0.2","","0.5","0.5","0.5","0.5","","","","","0.8","0.2","0.6","0.2","","","","","","","","74","J","1","","true","0","full_practice"
"","bandit","67","420939","0.0-34.0-13.0","04976717","wem/bandit_either_2","ABX5OQLR6UNBC","either","5","176","","","","","","","1","0","0","0.6","","0.5","0.5","0.5","0.5","","","","","0.8","0.2","0.6","0.2","","","","","","","","75","K","2","","true","0","full_practice"
"","bandit","68","422788","0.0-34.0-14.0","04976717","wem/bandit_either_2","ABX5OQLR6UNBC","either","5","344","","","","","","","0","0","1","0.6","","0.5","0.5","0.5","0.5","","","","","0.8","0.2","0.6","0.2","","","","","","","","75","K","2","","true","0","full_practice"
"","bandit","69","424570","0.0-34.0-15.0","04976717","wem/bandit_either_2","ABX5OQLR6UNBC","either","5","278","","","","","","","0","0","1","","0.2","0.5","0.5","0.5","0.5","0.8","0.2","0.6","0.2","","","","","","","","","","","","76","L","3","","true","0","full_practice"
"","bandit","70","426412","0.0-34.0-16.0","04976717","wem/bandit_either_2","ABX5OQLR6UNBC","either","5","336","","","","","","","0","0","1","0.6","","0.5","0.5","0.5","0.5","","","","","0.8","0.2","0.6","0.2","","","","","","","","75","K","2","","true","0","full_practice"
"","bandit","71","428268","0.0-34.0-17.0","04976717","wem/bandit_either_2","ABX5OQLR6UNBC","either","5","350","","","","","","","0","0","1","0.2","","0.5","0.5","0.5","0.5","","","","","0.8","0.2","0.6","0.2","","","","","","","","74","J","1","","true","0","full_practice"
"","bandit","72","429954","0.0-34.0-18.0","04976717","wem/bandit_either_2","ABX5OQLR6UNBC","either","5","182","","","","","","","0","1","0","","0.8","0.5","0.5","0.5","0.5","0.8","0.2","0.6","0.2","","","","","","","","","","","","72","H","0","img/none_selected.jpg","true","0","full_practice"
"","bandit","73","431820","0.0-34.0-19.0","04976717","wem/bandit_either_2","ABX5OQLR6UNBC","either","5","360","","","","","","","1","0","0","0.8","","0.5","0.5","0.5","0.5","","","","","0.8","0.2","0.6","0.2","","","","","","","","72","H","0","img/none_selected.jpg","true","0","full_practice"
"","text","74","435493","0.0-35.0","04976717","wem/bandit_either_2","ABX5OQLR6UNBC","either","5","3671","","32","","","","","","","","","","","","","","","","","","","","","","","","","","","","","","","","","","",""
"","text","75","447789","0.0-36.0","04976717","wem/bandit_either_2","ABX5OQLR6UNBC","either","5","11292","","32","","","","","","","","","","","","","","","","","","","","","","","","","","","","","","","","","","",""
"","text","76","458885","0.0-37.0","04976717","wem/bandit_either_2","ABX5OQLR6UNBC","either","5","11095","","32","","","","","","","","","","","","","","","","","","","","","","","","","","","","","","","","","","",""
"","text","77","463780","0.0-38.0","04976717","wem/bandit_either_2","ABX5OQLR6UNBC","either","5","4894","","32","","","","","","","","","","","","","","","","","","","","","","","","","","","","","","","","","","",""
"","text","78","469285","0.0-39.0","04976717","wem/bandit_either_2","ABX5OQLR6UNBC","either","5","5503","","32","","","","","","","","","","","","","","","","","","","","","","","","","","","","","","","","","","",""
"","text","79","473349","0.0-40.0","04976717","wem/bandit_either_2","ABX5OQLR6UNBC","either","5","4062","","32","","","","","","","","","","","","","","","","","","","","","","","","","","","","","","","","","","",""
"","bandit","80","475803","0.0-41.0-0.0","04976717","wem/bandit_either_2","ABX5OQLR6UNBC","either","5","949","","","","","","","0","0","1","","0.1165465043","0.8","0.6","0.4","0.2","0.1165465043","0.3897275569","0.3340388524","0.4265570961","","","","","","","","","","","","72","H","0","img/none_selected.jpg","","1","main_expt"
"","bandit","81","477426","0.0-42.0-0.0","04976717","wem/bandit_either_2","ABX5OQLR6UNBC","either","5","118","","","","","","","0","0","1","0.3911966266","","0.8","0.6","0.4","0.2","","","","","0.08371899021","0.3911966266","0.3223834482","0.4177099958","","","","","","","","74","J","1","","","2","main_expt"
"","bandit","82","479404","0.0-43.0-0.0","04976717","wem/bandit_either_2","ABX5OQLR6UNBC","either","5","471","","","","","","","1","0","0","0.3585509001","","0.8","0.6","0.4","0.2","","","","","0.04339790364","0.4074861021","0.3585509001","0.4192185534","","","","","","","","75","K","2","","","3","main_expt"
"","bandit","83","481340","0.0-44.0-0.0","04976717","wem/bandit_either_2","ABX5OQLR6UNBC","either","5","431","","","","","","","0","0","1","0.3416436242","","0.8","0.6","0.4","0.2","","","","","0.04073472785","0.3965638453","0.3416436242","0.4241610434","","","","","","","","75","K","2","","","4","main_expt"
"","bandit","84","483211","0.0-45.0-0.0","04976717","wem/bandit_either_2","ABX5OQLR6UNBC","either","5","365","","","","","","","0","0","1","0.3444758892","","0.8","0.6","0.4","0.2","","","","","0.04731773769","0.3688269119","0.3444758892","0.4284837315","","","","","","","","75","K","2","","","5","main_expt"
"","bandit","85","485124","0.0-46.0-0.0","04976717","wem/bandit_either_2","ABX5OQLR6UNBC","either","5","407","","","","","","","0","0","1","","0.4328708062","0.8","0.6","0.4","0.2","0.05617088868","0.3865867917","0.3574177426","0.4328708062","","","","","","","","","","","","76","L","3","","","6","main_expt"
"","bandit","86","487106","0.0-47.0-0.0","04976717","wem/bandit_either_2","ABX5OQLR6UNBC","either","5","478","","","","","","","1","0","0","0.05606577856","","0.8","0.6","0.4","0.2","","","","","0.05606577856","0.4294719924","0.3634052143","0.4176545671","","","","","","","","72","H","0","img/none_selected.jpg","","7","main_expt"
"","bandit","87","489004","0.0-48.0-0.0","04976717","wem/bandit_either_2","ABX5OQLR6UNBC","either","5","389","","","","","","","0","0","1","0.09244853328","","0.8","0.6","0.4","0.2","","","","","0.09244853328","0.4210378118","0.3675420607","0.4022395488","","","","","","","","72","H","0","img/none_selected.jpg","","8","main_expt"
"","bandit","88","490859","0.0-49.0-0.0","04976717","wem/bandit_either_2","ABX5OQLR6UNBC","either","5","350","","","","","","","0","1","0","","0.4502112583","0.8","0.6","0.4","0.2","0.1271341085","0.4502112583","0.3921196104","0.3929004949","","","","","","","","","","","","74","J","1","","","9","main_expt"
"","bandit","89","492867","0.0-50.0-0.0","04976717","wem/bandit_either_2","ABX5OQLR6UNBC","either","5","503","","","","","","","0","0","1","0.4452653155","","0.8","0.6","0.4","0.2","","","","","0.1370717255","0.4452653155","0.4026182126","0.3863711448","","","","","","","","74","J","1","","","10","main_expt"
"","bandit","90","494725","0.0-51.0-0.0","04976717","wem/bandit_either_2","ABX5OQLR6UNBC","either","5","351","","","","","","","1","0","0","0.3543069494","","0.8","0.6","0.4","0.2","","","","","0.1275050207","0.4352349267","0.3543069494","0.4205849279","","","","","","","","75","K","2","","","11","main_expt"
"","bandit","91","496836","0.0-52.0-0.0","04976717","wem/bandit_either_2","ABX5OQLR6UNBC","either","5","604","","","","","","","0","0","1","","0.3504097904","0.8","0.6","0.4","0.2","0.122317004","0.4029030639","0.3504097904","0.4525069231","","","","","","","","","","","","75","K","2","","","12","main_expt"
"","bandit","92","498787","0.0-53.0-0.0","04976717","wem/bandit_either_2","ABX5OQLR6UNBC","either","5","446","","","","","","","0","1","0","","0.4485799753","0.8","0.6","0.4","0.2","0.1251711411","0.4198147105","0.2787441393","0.4485799753","","","","","","","","","","","","76","L","3","","","13","main_expt"
"","bandit","93","500786","0.0-54.0-0.0","04976717","wem/bandit_either_2","ABX5OQLR6UNBC","either","5","495","","","","","","","0","0","1","","0.4504049656","0.8","0.6","0.4","0.2","0.1380641988","0.3761312174","0.2723245106","0.4504049656","","","","","","","","","","","","76","L","3","","","14","main_expt"
"","bandit","94","502732","0.0-55.0-0.0","04976717","wem/bandit_either_2","ABX5OQLR6UNBC","either","5","438","","","","","","","0","0","1","0.2010812313","","0.8","0.6","0.4","0.2","","","","","0.2010812313","0.4017507227","0.3687644442","0.4281165459","","","","","","","","72","H","0","img/none_selected.jpg","","15","main_expt"
"","bandit","95","504588","0.0-56.0-0.0","04976717","wem/bandit_either_2","ABX5OQLR6UNBC","either","5","351","","","","","","","0","0","1","","0.3859888637","0.8","0.6","0.4","0.2","0.1747275657","0.3859888637","0.3992289848","0.4035101098","","","","","","","","","","","","74","J","1","","","16","main_expt"
"","bandit","96","506453","0.0-57.0-0.0","04976717","wem/bandit_either_2","ABX5OQLR6UNBC","either","5","359","","","","","","","0","1","0","","0.4067061876","0.8","0.6","0.4","0.2","0.1816524112","0.3706978481","0.4067061876","0.4063691663","","","","","","","","","","","","75","K","2","","","17","main_expt"
"","bandit","97","508332","0.0-58.0-0.0","04976717","wem/bandit_either_2","ABX5OQLR6UNBC","either","5","373","","","","","","","0","0","1","0.3969002131","","0.8","0.6","0.4","0.2","","","","","0.1700798448","0.3323991027","0.3969002131","0.4201618032","","","","","","","","75","K","2","","","18","main_expt"
"","bandit","98","510195","0.0-59.0-0.0","04976717","wem/bandit_either_2","ABX5OQLR6UNBC","either","5","357","","","","","","","0","0","1","0.3868389751","","0.8","0.6","0.4","0.2","","","","","0.1998500639","0.3301718366","0.3930099592","0.3868389751","","","","","","","","76","L","3","","","19","main_expt"
"","bandit","99","512107","0.0-60.0-0.0","04976717","wem/bandit_either_2","ABX5OQLR6UNBC","either","5","407","","","","","","","0","0","1","0.2418808817","","0.8","0.6","0.4","0.2","","","","","0.2418808817","0.3714618997","0.3791602553","0.3868875991","","","","","","","","72","H","0","img/none_selected.jpg","","20","main_expt"
"","bandit","100","513941","0.0-61.0-0.0","04976717","wem/bandit_either_2","ABX5OQLR6UNBC","either","5","326","","","","","","","0","0","1","","0.3621694591","0.8","0.6","0.4","0.2","0.2293341009","0.3621694591","0.4127515201","0.4253770554","","","","","","","","","","","","74","J","1","","","21","main_expt"
"","bandit","101","515477","0.0-62.0-0.0","04976717","wem/bandit_either_2","ABX5OQLR6UNBC","either","5","30","","","","","","","1","0","0","0.4164833055","","0.8","0.6","0.4","0.2","","","","","0.2074184163","0.3648829928","0.4164833055","0.4285762007","","","","","","","","75","K","2","","","22","main_expt"
"","bandit","102","517362","0.0-63.0-0.0","04976717","wem/bandit_either_2","ABX5OQLR6UNBC","either","5","381","","","","","","","1","0","0","0.4143027846","","0.8","0.6","0.4","0.2","","","","","0.1832507358","0.2856994719","0.4143027846","0.4082522222","","","","","","","","75","K","2","","","23","main_expt"
"","bandit","103","519188","0.0-64.0-0.0","04976717","wem/bandit_either_2","ABX5OQLR6UNBC","either","5","318","","","","","","","1","0","0","0.3649270698","","0.8","0.6","0.4","0.2","","","","","0.1469425149","0.3152516524","0.3649270698","0.4027270218","","","","","","","","75","K","2","","","24","main_expt"
"","bandit","104","521012","0.0-65.0-0.0","04976717","wem/bandit_either_2","ABX5OQLR6UNBC","either","5","318","","","","","","","0","1","0","","0.392676409","0.8","0.6","0.4","0.2","0.102794739","0.2778145345","0.392676409","0.4100212433","","","","","","","","","","","","75","K","2","","","25","main_expt"
"","bandit","105","522821","0.0-66.0-0.0","04976717","wem/bandit_either_2","ABX5OQLR6UNBC","either","5","302","","","","","","","0","0","1","0.4031565401","","0.8","0.6","0.4","0.2","","","","","0.1173732637","0.3170506137","0.4031565401","0.4190791169","","","","","","","","75","K","2","","","26","main_expt"
"","bandit","106","524642","0.0-67.0-0.0","04976717","wem/bandit_either_2","ABX5OQLR6UNBC","either","5","316","","","","","","","0","0","1","","0.4245959001","0.8","0.6","0.4","0.2","0.08835016803","0.3223143746","0.4245959001","0.4527212376","","","","","","","","","","","","75","K","2","","","27","main_expt"
"","bandit","107","526411","0.0-68.0-0.0","04976717","wem/bandit_either_2","ABX5OQLR6UNBC","either","5","264","","","","","","","0","1","0","","0.4480998813","0.8","0.6","0.4","0.2","0.1134440288","0.3234472479","0.4232885055","0.4480998813","","","","","","","","","","","","76","L","3","","","28","main_expt"
"","bandit","108","528300","0.0-69.0-0.0","04976717","wem/bandit_either_2","ABX5OQLR6UNBC","either","5","383","","","","","","","0","0","1","","0.4628669208","0.8","0.6","0.4","0.2","0.1982905849","0.2881425904","0.4495512981","0.4628669208","","","","","","","","","","","","76","L","3","","","29","main_expt"
"","bandit","109","530491","0.0-70.0-0.0","04976717","wem/bandit_either_2","ABX5OQLR6UNBC","either","5","685","","","","","","","1","0","0","0.2366655967","","0.8","0.6","0.4","0.2","","","","","0.2366655967","0.2326555855","0.4485299892","0.4565655028","","","","","","","","72","H","0","img/none_selected.jpg","","30","main_expt"
"","bandit","110","532532","0.0-71.0-0.0","04976717","wem/bandit_either_2","ABX5OQLR6UNBC","either","5","535","","","","","","","0","0","1","0.1622470467","","0.8","0.6","0.4","0.2","","","","","0.1622470467","0.2364604256","0.4599237238","0.4686031056","","","","","","","","72","H","0","img/none_selected.jpg","","31","main_expt"
"","bandit","111","534436","0.0-72.0-0.0","04976717","wem/bandit_either_2","ABX5OQLR6UNBC","either","5","397","","","","","","","1","0","0","0.2451982598","","0.8","0.6","0.4","0.2","","","","","0.1771911602","0.2451982598","0.4508116693","0.4659582456","","","","","","","","74","J","1","","","32","main_expt"
"","bandit","112","536283","0.0-73.0-0.0","04976717","wem/bandit_either_2","ABX5OQLR6UNBC","either","5","342","","","","","","","0","0","1","0.2360369815","","0.8","0.6","0.4","0.2","","","","","0.1622836308","0.2360369815","0.45101727","0.4810757035","","","","","","","","74","J","1","","","33","main_expt"
"","bandit","113","538156","0.0-74.0-0.0","04976717","wem/bandit_either_2","ABX5OQLR6UNBC","either","5","367","","","","","","","0","1","0","","0.4340174653","0.8","0.6","0.4","0.2","0.1655985557","0.2317763892","0.4340174653","0.4842727378","","","","","","","","","","","","75","K","2","","","34","main_expt"
"","bandit","114","539995","0.0-75.0-0.0","04976717","wem/bandit_either_2","ABX5OQLR6UNBC","either","5","333","","","","","","","0","0","1","","0.4040147441","0.8","0.6","0.4","0.2","0.1492797185","0.2527891731","0.4040147441","0.4745470136","","","","","","","","","","","","75","K","2","","","35","main_expt"
"","bandit","115","541868","0.0-76.0-0.0","04976717","wem/bandit_either_2","ABX5OQLR6UNBC","either","5","366","","","","","","","0","1","0","","0.4440965139","0.8","0.6","0.4","0.2","0.1504543003","0.2641283143","0.4268829696","0.4440965139","","","","","","","","","","","","76","L","3","","","36","main_expt"
"","bandit","116","543996","0.0-77.0-0.0","04976717","wem/bandit_either_2","ABX5OQLR6UNBC","either","5","622","","","","","","","0","0","1","","0.4544425755","0.8","0.6","0.4","0.2","0.1064249526","0.2309310423","0.4562327564","0.4544425755","","","","","","","","","","","","76","L","3","","","37","main_expt"
"","bandit","117","546276","0.0-78.0-0.0","04976717","wem/bandit_either_2","ABX5OQLR6UNBC","either","5","773","","","","","","","0","1","0","","0.1346530267","0.8","0.6","0.4","0.2","0.1346530267","0.2093170459","0.4481627861","0.4700138218","","","","","","","","","","","","72","H","0","img/none_selected.jpg","","38","main_expt"
"","bandit","118","548140","0.0-79.0-0.0","04976717","wem/bandit_either_2","ABX5OQLR6UNBC","either","5","358","","","","","","","0","0","1","0.1303494481","","0.8","0.6","0.4","0.2","","","","","0.1303494481","0.1398625959","0.4475890948","0.466948448","","","","","","","","72","H","0","img/none_selected.jpg","","39","main_expt"
"","bandit","119","549708","0.0-80.0-0.0","04976717","wem/bandit_either_2","ABX5OQLR6UNBC","either","5","63","","","","","","","0","0","1","0.09690087606","","0.8","0.6","0.4","0.2","","","","","0.1492074344","0.09690087606","0.4501575696","0.4679256248","","","","","","","","74","J","1","","","40","main_expt"
"","bandit","120","551587","0.0-81.0-0.0","04976717","wem/bandit_either_2","ABX5OQLR6UNBC","either","5","374","","","","","","","0","0","1","0.1129569356","","0.8","0.6","0.4","0.2","","","","","0.1370672299","0.1129569356","0.4121884666","0.445537573","","","","","","","","74","J","1","","","41","main_expt"
"","bandit","121","553459","0.0-82.0-0.0","04976717","wem/bandit_either_2","ABX5OQLR6UNBC","either","5","367","","","","","","","0","0","1","","0.4379939247","0.8","0.6","0.4","0.2","0.08144147181","0.1227033228","0.4379939247","0.4521531226","","","","","","","","","","","","75","K","2","","","42","main_expt"
"","bandit","122","555268","0.0-83.0-0.0","04976717","wem/bandit_either_2","ABX5OQLR6UNBC","either","5","302","","","","","","","0","0","1","","0.4271747655","0.8","0.6","0.4","0.2","0.06793865388","0.08393287497","0.4271747655","0.4695072217","","","","","","","","","","","","75","K","2","","","43","main_expt"
"","bandit","123","557036","0.0-84.0-0.0","04976717","wem/bandit_either_2","ABX5OQLR6UNBC","either","5","262","","","","","","","0","0","1","","0.4807409838","0.8","0.6","0.4","0.2","0.05295344446","0.06260074275","0.4480494518","0.4807409838","","","","","","","","","","","","76","L","3","","","44","main_expt"
"","bandit","124","558925","0.0-85.0-0.0","04976717","wem/bandit_either_2","ABX5OQLR6UNBC","either","5","381","","","","","","","0","0","1","","0.4507048108","0.8","0.6","0.4","0.2","0.02744239742","0.08062123592","0.4269729589","0.4507048108","","","","","","","","","","","","76","L","3","","","45","main_expt"
"","bandit","125","560828","0.0-86.0-0.0","04976717","wem/bandit_either_2","ABX5OQLR6UNBC","either","5","398","","","","","","","0","0","1","","0.02347437243","0.8","0.6","0.4","0.2","0.02347437243","0.1110847749","0.4475746277","0.4382321206","","","","","","","","","","","","72","H","0","img/none_selected.jpg","","46","main_expt"
"","bandit","126","562627","0.0-87.0-0.0","04976717","wem/bandit_either_2","ABX5OQLR6UNBC","either","5","293","","","","","","","0","0","1","0.05346849493","","0.8","0.6","0.4","0.2","","","","","0.02418160198","0.05346849493","0.4295618238","0.4393937913","","","","","","","","74","J","1","","","47","main_expt"
"","bandit","127","564523","0.0-88.0-0.0","04976717","wem/bandit_either_2","ABX5OQLR6UNBC","either","5","391","","","","","","","0","0","1","0.4431907244","","0.8","0.6","0.4","0.2","","","","","0.01182676654","0.04499733497","0.4431907244","0.440318131","","","","","","","","75","K","2","","","48","main_expt"
"","bandit","128","566219","0.0-89.0-0.0","04976717","wem/bandit_either_2","ABX5OQLR6UNBC","either","5","190","","","","","","","0","0","1","","0.4362102412","0.8","0.6","0.4","0.2","0.0186287842","0.07378534534","0.4187732916","0.4362102412","","","","","","","","","","","","76","L","3","","","49","main_expt"
"","bandit","129","568059","0.0-90.0-0.0","04976717","wem/bandit_either_2","ABX5OQLR6UNBC","either","5","334","","","","","","","0","0","1","0.02550629551","","0.8","0.6","0.4","0.2","","","","","0.02550629551","0.06168845619","0.356579213","0.44488671","","","","","","","","72","H","0","img/none_selected.jpg","","50","main_expt"
"","bandit","130","569861","0.0-91.0-0.0","04976717","wem/bandit_either_2","ABX5OQLR6UNBC","either","5","294","","","","","","","0","0","1","0.1062028567","","0.8","0.6","0.4","0.2","","","","","0.04366809707","0.1062028567","0.2629404955","0.4633405548","","","","","","","","74","J","1","","","51","main_expt"
"","bandit","131","571652","0.0-92.0-0.0","04976717","wem/bandit_either_2","ABX5OQLR6UNBC","either","5","285","","","","","","","1","0","0","0.2919747068","","0.8","0.6","0.4","0.2","","","","","0.04357168116","0.1379608546","0.2919747068","0.4528043762","","","","","","","","75","K","2","","","52","main_expt"
"","bandit","132","573428","0.0-93.0-0.0","04976717","wem/bandit_either_2","ABX5OQLR6UNBC","either","5","270","","","","","","","1","0","0","0.3809901122","","0.8","0.6","0.4","0.2","","","","","0.03899227154","0.1356826849","0.3809901122","0.4390431751","","","","","","","","75","K","2","","","53","main_expt"
"","bandit","133","575275","0.0-94.0-0.0","04976717","wem/bandit_either_2","ABX5OQLR6UNBC","either","5","341","","","","","","","1","0","0","0.3452518694","","0.8","0.6","0.4","0.2","","","","","0.04009146386","0.1038772241","0.3452518694","0.4549270822","","","","","","","","75","K","2","","","54","main_expt"
"","bandit","134","577052","0.0-95.0-0.0","04976717","wem/bandit_either_2","ABX5OQLR6UNBC","either","5","270","","","","","","","0","1","0","","0.3263112327","0.8","0.6","0.4","0.2","0.0155768565","0.1689791829","0.3263112327","0.4710341864","","","","","","","","","","","","75","K","2","","","55","main_expt"
"","bandit","135","578852","0.0-96.0-0.0","04976717","wem/bandit_either_2","ABX5OQLR6UNBC","either","5","294","","","","","","","1","0","0","0.3308963945","","0.8","0.6","0.4","0.2","","","","","0.02112461672","0.1108888145","0.3308963945","0.4745834276","","","","","","","","75","K","2","","","56","main_expt"
"","bandit","136","580740","0.0-97.0-0.0","04976717","wem/bandit_either_2","ABX5OQLR6UNBC","either","5","381","","","","","","","0","0","1","","0.3150326571","0.8","0.6","0.4","0.2","0.0126553198","0.1206542402","0.3150326571","0.489318572","","","","","","","","","","","","75","K","2","","","57","main_expt"
"","bandit","137","582716","0.0-98.0-0.0","04976717","wem/bandit_either_2","ABX5OQLR6UNBC","either","5","471","","","","","","","0","0","1","","0.480037986","0.8","0.6","0.4","0.2","0.01131359515","0.09707343937","0.3049116772","0.480037986","","","","","","","","","","","","76","L","3","","","58","main_expt"
"","bandit","138","584539","0.0-99.0-0.0","04976717","wem/bandit_either_2","ABX5OQLR6UNBC","either","5","317","","","","","","","0","0","1","0.3050987947","","0.8","0.6","0.4","0.2","","","","","0.01030075821","0.1044384952","0.3050987947","0.4593461039","","","","","","","","75","K","2","","","59","main_expt"
"","bandit","139","586331","0.0-100.0-0.0","04976717","wem/bandit_either_2","ABX5OQLR6UNBC","either","5","286","","","","","","","0","0","1","0.08890369623","","0.8","0.6","0.4","0.2","","","","","0.005868957973","0.08890369623","0.3274009355","0.446051488","","","","","","","","74","J","1","","","60","main_expt"
"","bandit","140","588291","0.0-101.0-0.0","04976717","wem/bandit_either_2","ABX5OQLR6UNBC","either","5","454","","","","","","","0","0","1","0.004361943215","","0.8","0.6","0.4","0.2","","","","","0.004361943215","0.08921221942","0.3428943983","0.4391285327","","","","","","","","72","H","0","img/none_selected.jpg","","61","main_expt"
"","bandit","141","590123","0.0-102.0-0.0","04976717","wem/bandit_either_2","ABX5OQLR6UNBC","either","5","326","","","","","","","0","0","1","0.005208412743","","0.8","0.6","0.4","0.2","","","","","0.005208412743","0.09812025034","0.3549763931","0.4063883723","","","","","","","","72","H","0","img/none_selected.jpg","","62","main_expt"
"","bandit","142","591915","0.0-103.0-0.0","04976717","wem/bandit_either_2","ABX5OQLR6UNBC","either","5","286","","","","","","","0","0","1","0.09006279409","","0.8","0.6","0.4","0.2","","","","","0.006461011255","0.09006279409","0.3496678451","0.4330387396","","","","","","","","74","J","1","","","63","main_expt"
"","bandit","143","593827","0.0-104.0-0.0","04976717","wem/bandit_either_2","ABX5OQLR6UNBC","either","5","406","","","","","","","0","0","1","0.3188537263","","0.8","0.6","0.4","0.2","","","","","0.01267926231","0.1118976224","0.3188537263","0.4207902426","","","","","","","","75","K","2","","","64","main_expt"
"","bandit","144","595620","0.0-105.0-0.0","04976717","wem/bandit_either_2","ABX5OQLR6UNBC","either","5","285","","","","","","","0","1","0","","0.3719582347","0.8","0.6","0.4","0.2","0.009732787917","0.1053817613","0.3191795336","0.3719582347","","","","","","","","","","","","76","L","3","","","65","main_expt"
"","bandit","145","597389","0.0-106.0-0.0","04976717","wem/bandit_either_2","ABX5OQLR6UNBC","either","5","261","","","","","","","0","1","0","","0.3748569955","0.8","0.6","0.4","0.2","0.01092542651","0.1307356695","0.268616347","0.3748569955","","","","","","","","","","","","76","L","3","","","66","main_expt"
"","bandit","146","599171","0.0-107.0-0.0","04976717","wem/bandit_either_2","ABX5OQLR6UNBC","either","5","276","","","","","","","0","0","1","","0.335252031","0.8","0.6","0.4","0.2","0.02125534741","0.1418436428","0.259194563","0.335252031","","","","","","","","","","","","76","L","3","","","67","main_expt"
"","bandit","147","601052","0.0-108.0-0.0","04976717","wem/bandit_either_2","ABX5OQLR6UNBC","either","5","374","","","","","","","0","0","1","0.02360283027","","0.8","0.6","0.4","0.2","","","","","0.02360283027","0.1459089566","0.2281204868","0.3199157278","","","","","","","","72","H","0","img/none_selected.jpg","","68","main_expt"
"","bandit","148","602700","0.0-109.0-0.0","04976717","wem/bandit_either_2","ABX5OQLR6UNBC","either","5","141","","","","","","","0","0","1","","0.1809721424","0.8","0.6","0.4","0.2","0.02539305756","0.1809721424","0.2195844169","0.3068525281","","","","","","","","","","","","74","J","1","","","69","main_expt"
"","bandit","149","604301","0.0-110.0-0.0","04976717","wem/bandit_either_2","ABX5OQLR6UNBC","either","5","94","","","","","","","0","0","1","","0.1883338509","0.8","0.6","0.4","0.2","0.05014388586","0.1784068974","0.1883338509","0.3181076016","","","","","","","","","","","","75","K","2","","","70","main_expt"
"","bandit","150","606052","0.0-111.0-0.0","04976717","wem/bandit_either_2","ABX5OQLR6UNBC","either","5","244","","","","","","","0","0","1","0.2926426422","","0.8","0.6","0.4","0.2","","","","","0.04209054697","0.1973023396","0.1639708178","0.2926426422","","","","","","","","76","L","3","","","71","main_expt"
"","bandit","151","607859","0.0-112.0-0.0","04976717","wem/bandit_either_2","ABX5OQLR6UNBC","either","5","302","","","","","","","0","0","1","","0.05611199342","0.8","0.6","0.4","0.2","0.05611199342","0.2436342847","0.1312842785","0.2380263643","","","","","","","","","","","","72","H","0","img/none_selected.jpg","","72","main_expt"
"","bandit","152","609596","0.0-113.0-0.0","04976717","wem/bandit_either_2","ABX5OQLR6UNBC","either","5","230","","","","","","","0","0","1","0.1992173182","","0.8","0.6","0.4","0.2","","","","","0.05293238473","0.1992173182","0.1805041857","0.2407197948","","","","","","","","74","J","1","","","73","main_expt"
"","bandit","153","611403","0.0-114.0-0.0","04976717","wem/bandit_either_2","ABX5OQLR6UNBC","either","5","301","","","","","","","0","0","1","","0.1739557812","0.8","0.6","0.4","0.2","0.0318456884","0.2347098304","0.1739557812","0.2317468449","","","","","","","","","","","","75","K","2","","","74","main_expt"
"","bandit","154","612987","0.0-115.0-0.0","04976717","wem/bandit_either_2","ABX5OQLR6UNBC","either","5","78","","","","","","","1","0","0","0.2545997551","","0.8","0.6","0.4","0.2","","","","","0.03873230677","0.2641442137","0.2434916027","0.2545997551","","","","","","","","76","L","3","","","75","main_expt"
"","bandit","155","614932","0.0-116.0-0.0","04976717","wem/bandit_either_2","ABX5OQLR6UNBC","either","5","439","","","","","","","0","0","1","","0.2890845388","0.8","0.6","0.4","0.2","0.03304947682","0.3192644053","0.2438468568","0.2890845388","","","","","","","","","","","","76","L","3","","","76","main_expt"
"","bandit","156","616595","0.0-117.0-0.0","04976717","wem/bandit_either_2","ABX5OQLR6UNBC","either","5","157","","","","","","","0","0","1","0.02607887458","","0.8","0.6","0.4","0.2","","","","","0.02607887458","0.3351132613","0.2425324642","0.2386362654","","","","","","","","72","H","0","img/none_selected.jpg","","77","main_expt"
"","bandit","157","618595","0.0-118.0-0.0","04976717","wem/bandit_either_2","ABX5OQLR6UNBC","either","5","493","","","","","","","1","0","0","0.3086784207","","0.8","0.6","0.4","0.2","","","","","0.02492981692","0.3086784207","0.205588479","0.2673679704","","","","","","","","74","J","1","","","78","main_expt"
"","bandit","158","620555","0.0-119.0-0.0","04976717","wem/bandit_either_2","ABX5OQLR6UNBC","either","5","454","","","","","","","0","0","1","","0.213062191","0.8","0.6","0.4","0.2","0.01824110002","0.3076482073","0.213062191","0.2813811921","","","","","","","","","","","","75","K","2","","","79","main_expt"
"","bandit","159","622284","0.0-120.0-0.0","04976717","wem/bandit_either_2","ABX5OQLR6UNBC","either","5","222","","","","","","","0","0","1","","0.3605025214","0.8","0.6","0.4","0.2","0.0202176162","0.3605025214","0.1852926048","0.2419447949","","","","","","","","","","","","74","J","1","","","80","main_expt"
"","bandit","160","623987","0.0-121.0-0.0","04976717","wem/bandit_either_2","ABX5OQLR6UNBC","either","5","197","","","","","","","0","0","1","0.2332942271","","0.8","0.6","0.4","0.2","","","","","0.0252752587","0.3286166321","0.2332942271","0.323481111","","","","","","","","75","K","2","","","81","main_expt"
"","bandit","161","625900","0.0-122.0-0.0","04976717","wem/bandit_either_2","ABX5OQLR6UNBC","either","5","405","","","","","","","0","0","1","0.3097244961","","0.8","0.6","0.4","0.2","","","","","0.05668457717","0.3459677762","0.2087797338","0.3097244961","","","","","","","","76","L","3","","","82","main_expt"
"","bandit","162","627756","0.0-123.0-0.0","04976717","wem/bandit_either_2","ABX5OQLR6UNBC","either","5","349","","","","","","","1","0","0","0.07760530004","","0.8","0.6","0.4","0.2","","","","","0.07760530004","0.3092751195","0.2049979043","0.2787498647","","","","","","","","72","H","0","img/none_selected.jpg","","83","main_expt"
"","bandit","163","629653","0.0-124.0-0.0","04976717","wem/bandit_either_2","ABX5OQLR6UNBC","either","5","388","","","","","","","0","0","1","0.03696005566","","0.8","0.6","0.4","0.2","","","","","0.03696005566","0.3044630387","0.2151780091","0.2589524449","","","","","","","","72","H","0","img/none_selected.jpg","","84","main_expt"
"","bandit","164","631476","0.0-125.0-0.0","04976717","wem/bandit_either_2","ABX5OQLR6UNBC","either","5","316","","","","","","","0","0","1","","0.04177257934","0.8","0.6","0.4","0.2","0.04177257934","0.2812480587","0.1497615914","0.2769318636","","","","","","","","","","","","72","H","0","img/none_selected.jpg","","85","main_expt"
"","bandit","165","633267","0.0-126.0-0.0","04976717","wem/bandit_either_2","ABX5OQLR6UNBC","either","5","285","","","","","","","0","0","1","","0.2506532223","0.8","0.6","0.4","0.2","0.0385770192","0.2506532223","0.1223687677","0.2849222391","","","","","","","","","","","","74","J","1","","","86","main_expt"
"","bandit","166","635139","0.0-127.0-0.0","04976717","wem/bandit_either_2","ABX5OQLR6UNBC","either","5","366","","","","","","","0","0","1","","0.1472857413","0.8","0.6","0.4","0.2","0.03720252147","0.2269900387","0.1472857413","0.3131087309","","","","","","","","","","","","75","K","2","","","87","main_expt"
"","bandit","167","636971","0.0-128.0-0.0","04976717","wem/bandit_either_2","ABX5OQLR6UNBC","either","5","326","","","","","","","0","1","0","","0.3038587512","0.8","0.6","0.4","0.2","0.06746059371","0.1504729919","0.1252586248","0.3038587512","","","","","","","","","","","","76","L","3","","","88","main_expt"
"","bandit","168","638755","0.0-129.0-0.0","04976717","wem/bandit_either_2","ABX5OQLR6UNBC","either","5","278","","","","","","","0","0","1","","0.3308022157","0.8","0.6","0.4","0.2","0.04069757945","0.1382070302","0.1194927994","0.3308022157","","","","","","","","","","","","76","L","3","","","89","main_expt"
"","bandit","169","640698","0.0-130.0-0.0","04976717","wem/bandit_either_2","ABX5OQLR6UNBC","either","5","436","","","","","","","0","0","1","0.07325379503","","0.8","0.6","0.4","0.2","","","","","0.07325379503","0.1364765349","0.1589750007","0.3574922351","","","","","","","","72","H","0","img/none_selected.jpg","","90","main_expt"
"","bandit","170","642579","0.0-131.0-0.0","04976717","wem/bandit_either_2","ABX5OQLR6UNBC","either","5","374","","","","","","","0","0","1","","0.09318196272","0.8","0.6","0.4","0.2","0.06877471811","0.09318196272","0.1859960426","0.3729517688","","","","","","","","","","","","74","J","1","","","91","main_expt"
"","bandit","171","644452","0.0-132.0-0.0","04976717","wem/bandit_either_2","ABX5OQLR6UNBC","either","5","366","","","","","","","0","0","1","","0.192419488","0.8","0.6","0.4","0.2","0.04115987362","0.06946097624","0.192419488","0.398352994","","","","","","","","","","","","75","K","2","","","92","main_expt"
"","bandit","172","646381","0.0-133.0-0.0","04976717","wem/bandit_either_2","ABX5OQLR6UNBC","either","5","421","","","","","","","0","1","0","","0.4135860398","0.8","0.6","0.4","0.2","0.07078892783","0.08102832817","0.1716033463","0.4135860398","","","","","","","","","","","","76","L","3","","","93","main_expt"
"","bandit","173","648147","0.0-134.0-0.0","04976717","wem/bandit_either_2","ABX5OQLR6UNBC","either","5","262","","","","","","","0","0","1","0.3786880174","","0.8","0.6","0.4","0.2","","","","","0.05572868433","0.1271360848","0.1935897604","0.3786880174","","","","","","","","76","L","3","","","94","main_expt"
"","bandit","174","650179","0.0-135.0-0.0","04976717","wem/bandit_either_2","ABX5OQLR6UNBC","either","5","525","","","","","","","0","0","1","0.05056929995","","0.8","0.6","0.4","0.2","","","","","0.05056929995","0.1097592989","0.2193228015","0.3823424718","","","","","","","","72","H","0","img/none_selected.jpg","","95","main_expt"
"","bandit","175","651963","0.0-136.0-0.0","04976717","wem/bandit_either_2","ABX5OQLR6UNBC","either","5","278","","","","","","","0","0","1","","0.1085490834","0.8","0.6","0.4","0.2","0.04159874267","0.1085490834","0.3262643469","0.3642725552","","","","","","","","","","","","74","J","1","","","96","main_expt"
"","bandit","176","653868","0.0-137.0-0.0","04976717","wem/bandit_either_2","ABX5OQLR6UNBC","either","5","398","","","","","","","0","0","1","0.3207405496","","0.8","0.6","0.4","0.2","","","","","0.03654451862","0.1049812554","0.3207405496","0.3197717944","","","","","","","","75","K","2","","","97","main_expt"
"","bandit","177","655700","0.0-138.0-0.0","04976717","wem/bandit_either_2","ABX5OQLR6UNBC","either","5","325","","","","","","","0","0","1","","0.2514424369","0.8","0.6","0.4","0.2","0.04190300095","0.08177978443","0.3712856991","0.2514424369","","","","","","","","","","","","76","L","3","","","98","main_expt"
"","bandit","178","657595","0.0-139.0-0.0","04976717","wem/bandit_either_2","ABX5OQLR6UNBC","either","5","390","","","","","","","0","0","1","0.08742990617","","0.8","0.6","0.4","0.2","","","","","0.08742990617","0.07574087804","0.3740145378","0.2926772137","","","","","","","","72","H","0","img/none_selected.jpg","","99","main_expt"
"","bandit","179","659403","0.0-140.0-0.0","04976717","wem/bandit_either_2","ABX5OQLR6UNBC","either","5","302","","","","","","","0","0","1","0.07829319678","","0.8","0.6","0.4","0.2","","","","","0.08966523481","0.07829319678","0.3776295542","0.234485335","","","","","","","","74","J","1","","","100","main_expt"
"","bandit","180","661243","0.0-141.0-0.0","04976717","wem/bandit_either_2","ABX5OQLR6UNBC","either","5","332","","","","","","","0","0","1","","0.3592666398","0.8","0.6","0.4","0.2","0.07849065771","0.07919243683","0.3592666398","0.250352175","","","","","","","","","","","","75","K","2","","","101","main_expt"
"","bandit","181","663260","0.0-142.0-0.0","04976717","wem/bandit_either_2","ABX5OQLR6UNBC","either","5","510","","","","","","","0","0","1","","0.2139972863","0.8","0.6","0.4","0.2","0.1054267613","0.1052753188","0.3412191773","0.2139972863","","","","","","","","","","","","76","L","3","","","102","main_expt"
"","bandit","182","665196","0.0-143.0-0.0","04976717","wem/bandit_either_2","ABX5OQLR6UNBC","either","5","428","","","","","","","0","0","1","","0.1120981937","0.8","0.6","0.4","0.2","0.1120981937","0.1248526142","0.3133100433","0.20092706","","","","","","","","","","","","72","H","0","img/none_selected.jpg","","103","main_expt"
"","bandit","183","666899","0.0-144.0-0.0","04976717","wem/bandit_either_2","ABX5OQLR6UNBC","either","5","197","","","","","","","0","0","1","0.142969925","","0.8","0.6","0.4","0.2","","","","","0.1034740879","0.142969925","0.3219148419","0.2305366804","","","","","","","","74","J","1","","","104","main_expt"
"","bandit","184","668771","0.0-145.0-0.0","04976717","wem/bandit_either_2","ABX5OQLR6UNBC","either","5","365","","","","","","","0","0","1","","0.3300892518","0.8","0.6","0.4","0.2","0.07597240327","0.13947254","0.3300892518","0.2102135581","","","","","","","","","","","","75","K","2","","","105","main_expt"
"","bandit","185","670749","0.0-146.0-0.0","04976717","wem/bandit_either_2","ABX5OQLR6UNBC","either","5","470","","","","","","","0","1","0","","0.2219457329","0.8","0.6","0.4","0.2","0.1124257427","0.1329526997","0.3401839058","0.2219457329","","","","","","","","","","","","76","L","3","","","106","main_expt"
"","bandit","186","672620","0.0-147.0-0.0","04976717","wem/bandit_either_2","ABX5OQLR6UNBC","either","5","363","","","","","","","0","0","1","","0.3048423019","0.8","0.6","0.4","0.2","0.1133168519","0.1727290233","0.3784706915","0.3048423019","","","","","","","","","","","","76","L","3","","","107","main_expt"
"","bandit","187","674499","0.0-148.0-0.0","04976717","wem/bandit_either_2","ABX5OQLR6UNBC","either","5","373","","","","","","","1","0","0","0.1752395656","","0.8","0.6","0.4","0.2","","","","","0.1752395656","0.1864487031","0.3945753887","0.258150515","","","","","","","","72","H","0","img/none_selected.jpg","","108","main_expt"
"","bandit","188","676308","0.0-149.0-0.0","04976717","wem/bandit_either_2","ABX5OQLR6UNBC","either","5","301","","","","","","","0","1","0","","0.1862973424","0.8","0.6","0.4","0.2","0.1862973424","0.2463216238","0.356827327","0.1859129148","","","","","","","","","","","","72","H","0","img/none_selected.jpg","","109","main_expt"
"","bandit","189","678092","0.0-150.0-0.0","04976717","wem/bandit_either_2","ABX5OQLR6UNBC","either","5","276","","","","","","","1","0","0","0.2015845776","","0.8","0.6","0.4","0.2","","","","","0.2015845776","0.2431522628","0.2344179837","0.1371624404","","","","","","","","72","H","0","img/none_selected.jpg","","110","main_expt"
"","bandit","190","679907","0.0-151.0-0.0","04976717","wem/bandit_either_2","ABX5OQLR6UNBC","either","5","308","","","","","","","0","0","1","0.2003651753","","0.8","0.6","0.4","0.2","","","","","0.2003651753","0.1757476643","0.2644823096","0.1258232978","","","","","","","","72","H","0","img/none_selected.jpg","","111","main_expt"
"","bandit","191","681851","0.0-152.0-0.0","04976717","wem/bandit_either_2","ABX5OQLR6UNBC","either","5","437","","","","","","","0","0","1","","0.2451518953","0.8","0.6","0.4","0.2","0.21392293","0.2451518953","0.28311182","0.1529967373","","","","","","","","","","","","74","J","1","","","112","main_expt"
"","bandit","192","683699","0.0-153.0-0.0","04976717","wem/bandit_either_2","ABX5OQLR6UNBC","either","5","342","","","","","","","1","0","0","0.2413269532","","0.8","0.6","0.4","0.2","","","","","0.1606798039","0.2407836715","0.2413269532","0.148248117","","","","","","","","75","K","2","","","113","main_expt"
"","bandit","193","685371","0.0-154.0-0.0","04976717","wem/bandit_either_2","ABX5OQLR6UNBC","either","5","165","","","","","","","0","0","1","0.3100969134","","0.8","0.6","0.4","0.2","","","","","0.2095980235","0.3099317417","0.3100969134","0.1562208239","","","","","","","","75","K","2","","","114","main_expt"
"","bandit","194","687092","0.0-155.0-0.0","04976717","wem/bandit_either_2","ABX5OQLR6UNBC","either","5","213","","","","","","","0","0","1","","0.2138032898","0.8","0.6","0.4","0.2","0.2550279667","0.3180754701","0.329842252","0.2138032898","","","","","","","","","","","","76","L","3","","","115","main_expt"
"","bandit","195","689292","0.0-156.0-0.0","04976717","wem/bandit_either_2","ABX5OQLR6UNBC","either","5","693","","","","","","","0","1","0","","0.2331260325","0.8","0.6","0.4","0.2","0.2471764387","0.2919742107","0.3223706096","0.2331260325","","","","","","","","","","","","76","L","3","","","116","main_expt"
"","bandit","196","691123","0.0-157.0-0.0","04976717","wem/bandit_either_2","ABX5OQLR6UNBC","either","5","325","","","","","","","0","0","1","","0.1826309729","0.8","0.6","0.4","0.2","0.2730878341","0.2799774295","0.3098408215","0.1826309729","","","","","","","","","","","","76","L","3","","","117","main_expt"
"","bandit","197","692948","0.0-158.0-0.0","04976717","wem/bandit_either_2","ABX5OQLR6UNBC","either","5","318","","","","","","","0","0","1","0.2974554567","","0.8","0.6","0.4","0.2","","","","","0.2071462199","0.2646714695","0.2974554567","0.1511269107","","","","","","","","75","K","2","","","118","main_expt"
"","bandit","198","694741","0.0-159.0-0.0","04976717","wem/bandit_either_2","ABX5OQLR6UNBC","either","5","285","","","","","","","1","0","0","0.3179839519","","0.8","0.6","0.4","0.2","","","","","0.2275232499","0.3179839519","0.3598468986","0.1559979654","","","","","","","","74","J","1","","","119","main_expt"
"","bandit","199","696556","0.0-160.0-0.0","04976717","wem/bandit_either_2","ABX5OQLR6UNBC","either","5","308","","","","","","","0","1","0","","0.3302262658","0.8","0.6","0.4","0.2","0.2767559596","0.3302262658","0.2984373086","0.1463004055","","","","","","","","","","","","74","J","1","","","120","main_expt"
"","bandit","200","698452","0.0-161.0-0.0","04976717","wem/bandit_either_2","ABX5OQLR6UNBC","either","5","386","","","","","","","0","0","1","","0.3500549905","0.8","0.6","0.4","0.2","0.3448590315","0.3500549905","0.2973090059","0.1418195479","","","","","","","","","","","","74","J","1","","","121","main_expt"
"","bandit","201","700428","0.0-162.0-0.0","04976717","wem/bandit_either_2","ABX5OQLR6UNBC","either","5","469","","","","","","","0","0","1","0.3593301016","","0.8","0.6","0.4","0.2","","","","","0.3593301016","0.2686616284","0.3382791822","0.1270782113","","","","","","","","72","H","0","img/none_selected.jpg","","122","main_expt"
"","bandit","202","702332","0.0-163.0-0.0","04976717","wem/bandit_either_2","ABX5OQLR6UNBC","either","5","396","","","","","","","0","0","1","0.3680529171","","0.8","0.6","0.4","0.2","","","","","0.3680529171","0.2277230314","0.3154347028","0.1207154071","","","","","","","","72","H","0","img/none_selected.jpg","","123","main_expt"
"","bandit","203","704085","0.0-164.0-0.0","04976717","wem/bandit_either_2","ABX5OQLR6UNBC","either","5","245","","","","","","","0","0","1","0.3287090939","","0.8","0.6","0.4","0.2","","","","","0.3476523483","0.3287090939","0.2966737815","0.1229329119","","","","","","","","74","J","1","","","124","main_expt"
"","bandit","204","705939","0.0-165.0-0.0","04976717","wem/bandit_either_2","ABX5OQLR6UNBC","either","5","346","","","","","","","0","0","1","","0.3094831126","0.8","0.6","0.4","0.2","0.3564603465","0.3687339586","0.3094831126","0.09241122996","","","","","","","","","","","","75","K","2","","","125","main_expt"
"","bandit","205","707851","0.0-166.0-0.0","04976717","wem/bandit_either_2","ABX5OQLR6UNBC","either","5","405","","","","","","","0","0","1","","0.08418962236","0.8","0.6","0.4","0.2","0.3550684458","0.3836195774","0.2488993205","0.08418962236","","","","","","","","","","","","76","L","3","","","126","main_expt"
"","bandit","206","709715","0.0-167.0-0.0","04976717","wem/bandit_either_2","ABX5OQLR6UNBC","either","5","357","","","","","","","0","0","1","0.3235559827","","0.8","0.6","0.4","0.2","","","","","0.3235559827","0.3617365958","0.1953487027","0.154715772","","","","","","","","72","H","0","img/none_selected.jpg","","127","main_expt"
"","bandit","207","711434","0.0-168.0-0.0","04976717","wem/bandit_either_2","ABX5OQLR6UNBC","either","5","213","","","","","","","0","0","1","","0.3235283493","0.8","0.6","0.4","0.2","0.312087491","0.3235283493","0.2171889907","0.1556709078","","","","","","","","","","","","74","J","1","","","128","main_expt"
"","bandit","208","713243","0.0-169.0-0.0","04976717","wem/bandit_either_2","ABX5OQLR6UNBC","either","5","301","","","","","","","0","0","1","","0.2467699801","0.8","0.6","0.4","0.2","0.2843272188","0.3453830546","0.2467699801","0.1214200615","","","","","","","","","","","","75","K","2","","","129","main_expt"
"","bandit","209","715093","0.0-170.0-0.0","04976717","wem/bandit_either_2","ABX5OQLR6UNBC","either","5","341","","","","","","","0","0","1","","0.1377283829","0.8","0.6","0.4","0.2","0.2128416856","0.3242747857","0.2814443482","0.1377283829","","","","","","","","","","","","76","L","3","","","130","main_expt"
"","bandit","210","717042","0.0-171.0-0.0","04976717","wem/bandit_either_2","ABX5OQLR6UNBC","either","5","443","","","","","","","0","1","0","","0.2403879813","0.8","0.6","0.4","0.2","0.2403879813","0.3417201858","0.2834176508","0.1397421628","","","","","","","","","","","","72","H","0","img/none_selected.jpg","","131","main_expt"
"","bandit","211","718763","0.0-172.0-0.0","04976717","wem/bandit_either_2","ABX5OQLR6UNBC","either","5","214","","","","","","","0","0","1","0.2811421594","","0.8","0.6","0.4","0.2","","","","","0.2811421594","0.3498614837","0.2429908031","0.1061875113","","","","","","","","72","H","0","img/none_selected.jpg","","132","main_expt"
"","bandit","212","720564","0.0-173.0-0.0","04976717","wem/bandit_either_2","ABX5OQLR6UNBC","either","5","294","","","","","","","0","0","1","","0.3134828643","0.8","0.6","0.4","0.2","0.3002858371","0.3134828643","0.3053559495","0.07774811701","","","","","","","","","","","","74","J","1","","","133","main_expt"
"","bandit","213","722475","0.0-174.0-0.0","04976717","wem/bandit_either_2","ABX5OQLR6UNBC","either","5","404","","","","","","","0","0","1","0.2693478067","","0.8","0.6","0.4","0.2","","","","","0.277406375","0.3554593188","0.2693478067","0.08211281178","","","","","","","","75","K","2","","","134","main_expt"
"","bandit","214","724316","0.0-175.0-0.0","04976717","wem/bandit_either_2","ABX5OQLR6UNBC","either","5","332","","","","","","","0","1","0","","0.1123817552","0.8","0.6","0.4","0.2","0.2897147582","0.3150900126","0.3369166079","0.1123817552","","","","","","","","","","","","76","L","3","","","135","main_expt"
"","bandit","215","726116","0.0-176.0-0.0","04976717","wem/bandit_either_2","ABX5OQLR6UNBC","either","5","294","","","","","","","0","0","1","","0.1478339482","0.8","0.6","0.4","0.2","0.3590576628","0.3199395785","0.268603144","0.1478339482","","","","","","","","","","","","76","L","3","","","136","main_expt"
"","bandit","216","728108","0.0-177.0-0.0","04976717","wem/bandit_either_2","ABX5OQLR6UNBC","either","5","484","","","","","","","0","0","1","0.2373427956","","0.8","0.6","0.4","0.2","","","","","0.3822427384","0.33362357","0.2373427956","0.1374936615","","","","","","","","75","K","2","","","137","main_expt"
"","bandit","217","729962","0.0-178.0-0.0","04976717","wem/bandit_either_2","ABX5OQLR6UNBC","either","5","349","","","","","","","1","0","0","0.3611324022","","0.8","0.6","0.4","0.2","","","","","0.3410071165","0.3611324022","0.2206869265","0.159761955","","","","","","","","74","J","1","","","138","main_expt"
"","bandit","218","731778","0.0-179.0-0.0","04976717","wem/bandit_either_2","ABX5OQLR6UNBC","either","5","310","","","","","","","0","0","1","0.3504145086","","0.8","0.6","0.4","0.2","","","","","0.3738014659","0.3504145086","0.2177966349","0.1363721132","","","","","","","","74","J","1","","","139","main_expt"
"","bandit","219","733715","0.0-180.0-0.0","04976717","wem/bandit_either_2","ABX5OQLR6UNBC","either","5","430","","","","","","","1","0","0","0.422575493","","0.8","0.6","0.4","0.2","","","","","0.422575493","0.309774603","0.2387685432","0.1031445192","","","","","","","","72","H","0","img/none_selected.jpg","","140","main_expt"
"","bandit","220","735588","0.0-181.0-0.0","04976717","wem/bandit_either_2","ABX5OQLR6UNBC","either","5","366","","","","","","","0","0","1","0.4439129864","","0.8","0.6","0.4","0.2","","","","","0.4439129864","0.3506531288","0.2575087366","0.09805286369","","","","","","","","72","H","0","img/none_selected.jpg","","141","main_expt"
"","bandit","221","737685","0.0-182.0-0.0","04976717","wem/bandit_either_2","ABX5OQLR6UNBC","either","5","589","","","","","","","0","1","0","","0.2965027242","0.8","0.6","0.4","0.2","0.4323802182","0.2965027242","0.2392038972","0.1149002948","","","","","","","","","","","","74","J","1","","","142","main_expt"
"","bandit","222","739516","0.0-183.0-0.0","04976717","wem/bandit_either_2","ABX5OQLR6UNBC","either","5","322","","","","","","","0","0","1","","0.2087517366","0.8","0.6","0.4","0.2","0.4358412593","0.2087517366","0.2216470548","0.1209542099","","","","","","","","","","","","74","J","1","","","143","main_expt"
"","bandit","223","741458","0.0-184.0-0.0","04976717","wem/bandit_either_2","ABX5OQLR6UNBC","either","5","437","","","","","","","0","0","1","","0.2224896139","0.8","0.6","0.4","0.2","0.4407373256","0.2313605626","0.2224896139","0.1202521083","","","","","","","","","","","","75","K","2","","","144","main_expt"
"","bandit","224","743291","0.0-185.0-0.0","04976717","wem/bandit_either_2","ABX5OQLR6UNBC","either","5","326","","","","","","","0","0","1","","0.1619743669","0.8","0.6","0.4","0.2","0.4661091035","0.1785565547","0.1925605464","0.1619743669","","","","","","","","","","","","76","L","3","","","145","main_expt"
"","bandit","225","745132","0.0-186.0-0.0","04976717","wem/bandit_either_2","ABX5OQLR6UNBC","either","5","333","","","","","","","0","0","1","","0.4637097668","0.8","0.6","0.4","0.2","0.4637097668","0.1770660648","0.2069800611","0.1664631043","","","","","","","","","","","","72","H","0","img/none_selected.jpg","","146","main_expt"
"","bandit","226","746939","0.0-187.0-0.0","04976717","wem/bandit_either_2","ABX5OQLR6UNBC","either","5","300","","","","","","","0","0","1","","0.1063371611","0.8","0.6","0.4","0.2","0.4700491642","0.1063371611","0.2489662189","0.1669241763","","","","","","","","","","","","74","J","1","","","147","main_expt"
"","bandit","227","748789","0.0-188.0-0.0","04976717","wem/bandit_either_2","ABX5OQLR6UNBC","either","5","341","","","","","","","0","0","1","0.1946464158","","0.8","0.6","0.4","0.2","","","","","0.4648109734","0.1216370817","0.1946464158","0.1581456949","","","","","","","","75","K","2","","","148","main_expt"
"","bandit","228","750747","0.0-189.0-0.0","04976717","wem/bandit_either_2","ABX5OQLR6UNBC","either","5","452","","","","","","","0","0","1","","0.1698392466","0.8","0.6","0.4","0.2","0.4635511513","0.1024256959","0.1826562491","0.1698392466","","","","","","","","","","","","76","L","3","","","149","main_expt"
"","bandit","229","752580","0.0-190.0-0.0","04976717","wem/bandit_either_2","ABX5OQLR6UNBC","either","5","325","","","","","","","0","0","1","0.4445017148","","0.8","0.6","0.4","0.2","","","","","0.4445017148","0.1371094633","0.1750473563","0.2140114634","","","","","","","","72","H","0","img/none_selected.jpg","","150","main_expt"
"","bandit","230","754420","0.0-191.0-0.0","04976717","wem/bandit_either_2","ABX5OQLR6UNBC","either","5","333","","","","","","","1","0","0","0.1702433702","","0.8","0.6","0.4","0.2","","","","","0.4434799742","0.1702433702","0.1109536645","0.2392960001","","","","","","","","74","J","1","","","151","main_expt"
"","bandit","231","756181","0.0-192.0-0.0","04976717","wem/bandit_either_2","ABX5OQLR6UNBC","either","5","253","","","","","","","0","0","1","0.1860489046","","0.8","0.6","0.4","0.2","","","","","0.4451665291","0.1860489046","0.1143086707","0.2095863317","","","","","","","","74","J","1","","","152","main_expt"
"","bandit","232","758084","0.0-193.0-0.0","04976717","wem/bandit_either_2","ABX5OQLR6UNBC","either","5","396","","","","","","","0","0","1","","0.1236290712","0.8","0.6","0.4","0.2","0.4401532833","0.2117094388","0.1236290712","0.2543258611","","","","","","","","","","","","75","K","2","","","153","main_expt"
"","bandit","233","759980","0.0-194.0-0.0","04976717","wem/bandit_either_2","ABX5OQLR6UNBC","either","5","389","","","","","","","0","1","0","","0.2602259906","0.8","0.6","0.4","0.2","0.4516855879","0.2072389033","0.1600695342","0.2602259906","","","","","","","","","","","","76","L","3","","","154","main_expt"
"","bandit","234","761763","0.0-195.0-0.0","04976717","wem/bandit_either_2","ABX5OQLR6UNBC","either","5","276","","","","","","","0","1","0","","0.2750581274","0.8","0.6","0.4","0.2","0.4480264808","0.1986333914","0.1770288166","0.2750581274","","","","","","","","","","","","76","L","3","","","155","main_expt"
"","bandit","235","763524","0.0-196.0-0.0","04976717","wem/bandit_either_2","ABX5OQLR6UNBC","either","5","251","","","","","","","0","1","0","","0.2438045727","0.8","0.6","0.4","0.2","0.4260414265","0.2054640346","0.1761817894","0.2438045727","","","","","","","","","","","","76","L","3","","","156","main_expt"
"","bandit","236","765325","0.0-197.0-0.0","04976717","wem/bandit_either_2","ABX5OQLR6UNBC","either","5","293","","","","","","","0","0","1","0.2857025143","","0.8","0.6","0.4","0.2","","","","","0.4365201507","0.1810715383","0.1998830888","0.2857025143","","","","","","","","76","L","3","","","157","main_expt"
"","bandit","237","767179","0.0-198.0-0.0","04976717","wem/bandit_either_2","ABX5OQLR6UNBC","either","5","347","","","","","","","0","1","0","","0.2150354531","0.8","0.6","0.4","0.2","0.4076244479","0.2118906364","0.2150354531","0.2887719476","","","","","","","","","","","","75","K","2","","","158","main_expt"
"","bandit","238","769003","0.0-199.0-0.0","04976717","wem/bandit_either_2","ABX5OQLR6UNBC","either","5","317","","","","","","","0","0","1","","0.2221069796","0.8","0.6","0.4","0.2","0.403953851","0.2293976715","0.2221069796","0.2859462397","","","","","","","","","","","","75","K","2","","","159","main_expt"
"","bandit","239","770899","0.0-200.0-0.0","04976717","wem/bandit_either_2","ABX5OQLR6UNBC","either","5","390","","","","","","","0","1","0","","0.2186051381","0.8","0.6","0.4","0.2","0.4282135537","0.2186051381","0.2627335039","0.207432816","","","","","","","","","","","","74","J","1","","","160","main_expt"
"","bandit","240","772781","0.0-201.0-0.0","04976717","wem/bandit_either_2","ABX5OQLR6UNBC","either","5","373","","","","","","","0","0","1","0.2175927206","","0.8","0.6","0.4","0.2","","","","","0.4479073124","0.2175927206","0.2922457848","0.1611694724","","","","","","","","74","J","1","","","161","main_expt"
"","bandit","241","774723","0.0-202.0-0.0","04976717","wem/bandit_either_2","ABX5OQLR6UNBC","either","5","436","","","","","","","1","0","0","0.4456201243","","0.8","0.6","0.4","0.2","","","","","0.4456201243","0.2370404117","0.3040212123","0.14378348","","","","","","","","72","H","0","img/none_selected.jpg","","162","main_expt"
"","bandit","242","776564","0.0-203.0-0.0","04976717","wem/bandit_either_2","ABX5OQLR6UNBC","either","5","333","","","","","","","0","0","1","0.4384930657","","0.8","0.6","0.4","0.2","","","","","0.4384930657","0.2778780432","0.2933359027","0.1707099899","","","","","","","","72","H","0","img/none_selected.jpg","","163","main_expt"
"","bandit","243","778460","0.0-204.0-0.0","04976717","wem/bandit_either_2","ABX5OQLR6UNBC","either","5","387","","","","","","","0","0","1","","0.2643388611","0.8","0.6","0.4","0.2","0.4231568034","0.2643388611","0.2388203062","0.1933693166","","","","","","","","","","","","74","J","1","","","164","main_expt"
"","bandit","244","780340","0.0-205.0-0.0","04976717","wem/bandit_either_2","ABX5OQLR6UNBC","either","5","372","","","","","","","0","0","1","","0.2646204916","0.8","0.6","0.4","0.2","0.4412535734","0.1967204453","0.2646204916","0.2406324952","","","","","","","","","","","","75","K","2","","","165","main_expt"
"","bandit","245","782165","0.0-206.0-0.0","04976717","wem/bandit_either_2","ABX5OQLR6UNBC","either","5","317","","","","","","","0","1","0","","0.2650462377","0.8","0.6","0.4","0.2","0.438364003","0.1567937345","0.2591758032","0.2650462377","","","","","","","","","","","","76","L","3","","","166","main_expt"
"","bandit","246","783916","0.0-207.0-0.0","04976717","wem/bandit_either_2","ABX5OQLR6UNBC","either","5","242","","","","","","","0","0","1","","0.245875583","0.8","0.6","0.4","0.2","0.4290991351","0.1201482918","0.1955934818","0.245875583","","","","","","","","","","","","76","L","3","","","167","main_expt"
"","bandit","247","785788","0.0-208.0-0.0","04976717","wem/bandit_either_2","ABX5OQLR6UNBC","either","5","364","","","","","","","1","0","0","0.4510860662","","0.8","0.6","0.4","0.2","","","","","0.4510860662","0.0936051119","0.2090603634","0.257303599","","","","","","","","72","H","0","img/none_selected.jpg","","168","main_expt"
"","bandit","248","787579","0.0-209.0-0.0","04976717","wem/bandit_either_2","ABX5OQLR6UNBC","either","5","283","","","","","","","0","0","1","0.4491424364","","0.8","0.6","0.4","0.2","","","","","0.4491424364","0.08775096918","0.2678479696","0.2993732043","","","","","","","","72","H","0","img/none_selected.jpg","","169","main_expt"
"","bandit","249","789181","0.0-210.0-0.0","04976717","wem/bandit_either_2","ABX5OQLR6UNBC","either","5","94","","","","","","","0","0","1","","0.06743429675","0.8","0.6","0.4","0.2","0.4332244901","0.06743429675","0.2532125956","0.3388977639","","","","","","","","","","","","74","J","1","","","170","main_expt"
"","bandit","250","790979","0.0-211.0-0.0","04976717","wem/bandit_either_2","ABX5OQLR6UNBC","either","5","292","","","","","","","0","0","1","0.05979118822","","0.8","0.6","0.4","0.2","","","","","0.4405036994","0.05979118822","0.2568627054","0.2947926635","","","","","","","","74","J","1","","","171","main_expt"
"","bandit","251","792780","0.0-212.0-0.0","04976717","wem/bandit_either_2","ABX5OQLR6UNBC","either","5","293","","","","","","","1","0","0","0.2451563353","","0.8","0.6","0.4","0.2","","","","","0.4358521759","0.03200499914","0.2451563353","0.2892529657","","","","","","","","75","K","2","","","172","main_expt"
"","bandit","252","794636","0.0-213.0-0.0","04976717","wem/bandit_either_2","ABX5OQLR6UNBC","either","5","349","","","","","","","1","0","0","0.3003395367","","0.8","0.6","0.4","0.2","","","","","0.4471617722","0.04613358223","0.3003395367","0.2571917514","","","","","","","","75","K","2","","","173","main_expt"
"","bandit","253","796437","0.0-214.0-0.0","04976717","wem/bandit_either_2","ABX5OQLR6UNBC","either","5","292","","","","","","","0","0","1","","0.2545998681","0.8","0.6","0.4","0.2","0.4560251174","0.05969677181","0.2545998681","0.244173221","","","","","","","","","","","","75","K","2","","","174","main_expt"
"","bandit","254","798275","0.0-215.0-0.0","04976717","wem/bandit_either_2","ABX5OQLR6UNBC","either","5","329","","","","","","","0","0","1","","0.2038098688","0.8","0.6","0.4","0.2","0.4379349024","0.05930066603","0.3383135611","0.2038098688","","","","","","","","","","","","76","L","3","","","175","main_expt"
"","bandit","255","800403","0.0-216.0-0.0","04976717","wem/bandit_either_2","ABX5OQLR6UNBC","either","5","620","","","","","","","0","0","1","0.4328841116","","0.8","0.6","0.4","0.2","","","","","0.4328841116","0.08110879181","0.3880627729","0.2053823003","","","","","","","","72","H","0","img/none_selected.jpg","","176","main_expt"
"","bandit","256","802396","0.0-217.0-0.0","04976717","wem/bandit_either_2","ABX5OQLR6UNBC","either","5","485","","","","","","","0","0","1","","0.07611568943","0.8","0.6","0.4","0.2","0.3965365967","0.07611568943","0.3920994557","0.2193083282","","","","","","","","","","","","74","J","1","","","177","main_expt"
"","bandit","257","804643","0.0-218.0-0.0","04976717","wem/bandit_either_2","ABX5OQLR6UNBC","either","5","741","","","","","","","1","0","0","0.3882277994","","0.8","0.6","0.4","0.2","","","","","0.3899234309","0.1220467165","0.3882277994","0.1904263594","","","","","","","","75","K","2","","","178","main_expt"
"","bandit","258","806491","0.0-219.0-0.0","04976717","wem/bandit_either_2","ABX5OQLR6UNBC","either","5","341","","","","","","","0","0","1","","0.3939691408","0.8","0.6","0.4","0.2","0.4238443777","0.1698853315","0.3939691408","0.2212788648","","","","","","","","","","","","75","K","2","","","179","main_expt"
"","bandit","259","808356","0.0-220.0-0.0","04976717","wem/bandit_either_2","ABX5OQLR6UNBC","either","5","356","","","","","","","0","0","1","","0.2640717145","0.8","0.6","0.4","0.2","0.4487400994","0.1374762061","0.4074656662","0.2640717145","","","","","","","","","","","","76","L","3","","","180","main_expt"
"","bandit","260","810236","0.0-221.0-0.0","04976717","wem/bandit_either_2","ABX5OQLR6UNBC","either","5","372","","","","","","","1","0","0","0.4314573438","","0.8","0.6","0.4","0.2","","","","","0.4314573438","0.09961924189","0.3724421945","0.2426483564","","","","","","","","72","H","0","img/none_selected.jpg","","181","main_expt"
"","bandit","261","812092","0.0-222.0-0.0","04976717","wem/bandit_either_2","ABX5OQLR6UNBC","either","5","348","","","","","","","1","0","0","0.4458059303","","0.8","0.6","0.4","0.2","","","","","0.4458059303","0.1391043194","0.2998177931","0.2001563476","","","","","","","","72","H","0","img/none_selected.jpg","","182","main_expt"
"","bandit","262","813860","0.0-223.0-0.0","04976717","wem/bandit_either_2","ABX5OQLR6UNBC","either","5","260","","","","","","","1","0","0","0.4485460149","","0.8","0.6","0.4","0.2","","","","","0.4485460149","0.1336424596","0.3629728763","0.2167094124","","","","","","","","72","H","0","img/none_selected.jpg","","183","main_expt"
"","bandit","263","815452","0.0-224.0-0.0","04976717","wem/bandit_either_2","ABX5OQLR6UNBC","either","5","84","","","","","","","0","0","1","0.4078350507","","0.8","0.6","0.4","0.2","","","","","0.4078350507","0.115911235","0.3763603645","0.2402813617","","","","","","","","72","H","0","img/none_selected.jpg","","184","main_expt"
"","bandit","264","817267","0.0-225.0-0.0","04976717","wem/bandit_either_2","ABX5OQLR6UNBC","either","5","309","","","","","","","0","0","1","0.1394203739","","0.8","0.6","0.4","0.2","","","","","0.3805788675","0.1394203739","0.3472982705","0.2745112141","","","","","","","","74","J","1","","","185","main_expt"
"","bandit","265","819186","0.0-226.0-0.0","04976717","wem/bandit_either_2","ABX5OQLR6UNBC","either","5","412","","","","","","","0","0","1","0.3095995051","","0.8","0.6","0.4","0.2","","","","","0.4236809331","0.1557479742","0.3095995051","0.2774566956","","","","","","","","75","K","2","","","186","main_expt"
"","bandit","266","820980","0.0-227.0-0.0","04976717","wem/bandit_either_2","ABX5OQLR6UNBC","either","5","286","","","","","","","0","1","0","","0.2876011691","0.8","0.6","0.4","0.2","0.4058627081","0.1823611596","0.2567332284","0.2876011691","","","","","","","","","","","","76","L","3","","","187","main_expt"
"","bandit","267","822603","0.0-228.0-0.0","04976717","wem/bandit_either_2","ABX5OQLR6UNBC","either","5","115","","","","","","","0","0","1","","0.2947112378","0.8","0.6","0.4","0.2","0.3913346521","0.1854179297","0.2555256861","0.2947112378","","","","","","","","","","","","76","L","3","","","188","main_expt"
"","bandit","268","824523","0.0-229.0-0.0","04976717","wem/bandit_either_2","ABX5OQLR6UNBC","either","5","413","","","","","","","1","0","0","0.3760164219","","0.8","0.6","0.4","0.2","","","","","0.3760164219","0.1875645599","0.2009875262","0.2581494","","","","","","","","72","H","0","img/none_selected.jpg","","189","main_expt"
"","bandit","269","826340","0.0-230.0-0.0","04976717","wem/bandit_either_2","ABX5OQLR6UNBC","either","5","310","","","","","","","0","0","1","0.3327352817","","0.8","0.6","0.4","0.2","","","","","0.3327352817","0.2018323604","0.2055488595","0.1756323468","","","","","","","","72","H","0","img/none_selected.jpg","","190","main_expt"
"","bandit","270","828164","0.0-231.0-0.0","04976717","wem/bandit_either_2","ABX5OQLR6UNBC","either","5","317","","","","","","","0","0","1","","0.221094727","0.8","0.6","0.4","0.2","0.3015177445","0.221094727","0.1506387864","0.2521570866","","","","","","","","","","","","74","J","1","","","191","main_expt"
"","bandit","271","830229","0.0-232.0-0.0","04976717","wem/bandit_either_2","ABX5OQLR6UNBC","either","5","553","","","","","","","0","0","1","0.2027442266","","0.8","0.6","0.4","0.2","","","","","0.2773298268","0.2320570195","0.2027442266","0.2964739449","","","","","","","","75","K","2","","","192","main_expt"
"","bandit","272","832085","0.0-233.0-0.0","04976717","wem/bandit_either_2","ABX5OQLR6UNBC","either","5","348","","","","","","","0","0","1","","0.2612966838","0.8","0.6","0.4","0.2","0.2836613797","0.2948950962","0.1969137872","0.2612966838","","","","","","","","","","","","76","L","3","","","193","main_expt"
"","bandit","273","833972","0.0-234.0-0.0","04976717","wem/bandit_either_2","ABX5OQLR6UNBC","either","5","379","","","","","","","0","0","1","0.2799350415","","0.8","0.6","0.4","0.2","","","","","0.2799350415","0.2602906927","0.2114994946","0.3292914436","","","","","","","","72","H","0","img/none_selected.jpg","","194","main_expt"
"","bandit","274","835885","0.0-235.0-0.0","04976717","wem/bandit_either_2","ABX5OQLR6UNBC","either","5","403","","","","","","","0","0","1","0.1771499101","","0.8","0.6","0.4","0.2","","","","","0.2068597772","0.1771499101","0.2467939011","0.4070308407","","","","","","","","74","J","1","","","195","main_expt"
"","bandit","275","837725","0.0-236.0-0.0","04976717","wem/bandit_either_2","ABX5OQLR6UNBC","either","5","331","","","","","","","0","0","1","","0.2731811988","0.8","0.6","0.4","0.2","0.2679469531","0.1746274925","0.2731811988","0.3494820729","","","","","","","","","","","","75","K","2","","","196","main_expt"
"","bandit","276","839644","0.0-237.0-0.0","04976717","wem/bandit_either_2","ABX5OQLR6UNBC","either","5","411","","","","","","","0","0","1","0.3571939809","","0.8","0.6","0.4","0.2","","","","","0.2448078588","0.193224684","0.2512114903","0.3571939809","","","","","","","","76","L","3","","","197","main_expt"
"","bandit","277","841523","0.0-238.0-0.0","04976717","wem/bandit_either_2","ABX5OQLR6UNBC","either","5","370","","","","","","","0","0","1","0.2433987968","","0.8","0.6","0.4","0.2","","","","","0.2433987968","0.1771509929","0.190651112","0.382430028","","","","","","","","72","H","0","img/none_selected.jpg","","198","main_expt"
"","bandit","278","843307","0.0-239.0-0.0","04976717","wem/bandit_either_2","ABX5OQLR6UNBC","either","5","276","","","","","","","0","0","1","0.2466668772","","0.8","0.6","0.4","0.2","","","","","0.2653624242","0.2466668772","0.1701189695","0.3353474301","","","","","","","","74","J","1","","","199","main_expt"
"","bandit","279","845098","0.0-240.0-0.0","04976717","wem/bandit_either_2","ABX5OQLR6UNBC","either","5","284","","","","","","","0","0","1","","0.1656975488","0.8","0.6","0.4","0.2","0.2551376492","0.2477816141","0.1656975488","0.3321976498","","","","","","","","","","","","75","K","2","","","200","main_expt"
"","bandit","280","847106","0.0-241.0-0.0","04976717","wem/bandit_either_2","ABX5OQLR6UNBC","either","5","500","","","","","","","0","0","1","","0.3218117355","0.8","0.6","0.4","0.2","0.2660639347","0.2744817861","0.1647298582","0.3218117355","","","","","","","","","","","","76","L","3","","","201","main_expt"
"","bandit","281","849027","0.0-242.0-0.0","04976717","wem/bandit_either_2","ABX5OQLR6UNBC","either","5","413","","","","","","","1","0","0","0.2220900594","","0.8","0.6","0.4","0.2","","","","","0.2220900594","0.3043062986","0.1242041815","0.2949214693","","","","","","","","72","H","0","img/none_selected.jpg","","202","main_expt"
"","bandit","282","850673","0.0-243.0-0.0","04976717","wem/bandit_either_2","ABX5OQLR6UNBC","either","5","140","","","","","","","0","0","1","","0.1543353204","0.8","0.6","0.4","0.2","0.1543353204","0.272185569","0.1684487429","0.300077299","","","","","","","","","","","","72","H","0","img/none_selected.jpg","","203","main_expt"
"","bandit","283","852683","0.0-244.0-0.0","04976717","wem/bandit_either_2","ABX5OQLR6UNBC","either","5","501","","","","","","","0","0","1","0.1605482003","","0.8","0.6","0.4","0.2","","","","","0.1605482003","0.2610767704","0.1666409686","0.2866085977","","","","","","","","72","H","0","img/none_selected.jpg","","204","main_expt"
"","bandit","284","854787","0.0-245.0-0.0","04976717","wem/bandit_either_2","ABX5OQLR6UNBC","either","5","596","","","","","","","1","0","0","0.2832615928","","0.8","0.6","0.4","0.2","","","","","0.1406914754","0.2832615928","0.2197286508","0.2695546272","","","","","","","","74","J","1","","","205","main_expt"
"","bandit","285","856625","0.0-246.0-0.0","04976717","wem/bandit_either_2","ABX5OQLR6UNBC","either","5","330","","","","","","","0","1","0","","0.300913322","0.8","0.6","0.4","0.2","0.1138947463","0.300913322","0.2754509052","0.2622178416","","","","","","","","","","","","74","J","1","","","206","main_expt"
"","bandit","286","858435","0.0-247.0-0.0","04976717","wem/bandit_either_2","ABX5OQLR6UNBC","either","5","301","","","","","","","0","0","1","0.3260258847","","0.8","0.6","0.4","0.2","","","","","0.1096702189","0.3260258847","0.2664869377","0.2498186578","","","","","","","","74","J","1","","","207","main_expt"
"","bandit","287","860436","0.0-248.0-0.0","04976717","wem/bandit_either_2","ABX5OQLR6UNBC","either","5","493","","","","","","","0","0","1","","0.2686565688","0.8","0.6","0.4","0.2","0.09922356593","0.3173829003","0.2686565688","0.2335358635","","","","","","","","","","","","75","K","2","","","208","main_expt"
"","bandit","288","862259","0.0-249.0-0.0","04976717","wem/bandit_either_2","ABX5OQLR6UNBC","either","5","315","","","","","","","0","0","1","","0.2380255957","0.8","0.6","0.4","0.2","0.101567507","0.3153846937","0.2380255957","0.2638942681","","","","","","","","","","","","75","K","2","","","209","main_expt"
"","bandit","289","864067","0.0-250.0-0.0","04976717","wem/bandit_either_2","ABX5OQLR6UNBC","either","5","300","","","","","","","0","0","1","","0.2526926237","0.8","0.6","0.4","0.2","0.08675379402","0.3010876552","0.2507768727","0.2526926237","","","","","","","","","","","","76","L","3","","","210","main_expt"
"","bandit","290","865938","0.0-251.0-0.0","04976717","wem/bandit_either_2","ABX5OQLR6UNBC","either","5","363","","","","","","","0","0","1","0.07512021269","","0.8","0.6","0.4","0.2","","","","","0.07512021269","0.2864900033","0.2685142319","0.2740367769","","","","","","","","72","H","0","img/none_selected.jpg","","211","main_expt"
"","bandit","291","867692","0.0-252.0-0.0","04976717","wem/bandit_either_2","ABX5OQLR6UNBC","either","5","245","","","","","","","0","0","1","0.3163372434","","0.8","0.6","0.4","0.2","","","","","0.08144254236","0.3163372434","0.260511483","0.2440836191","","","","","","","","74","J","1","","","212","main_expt"
"","bandit","292","869483","0.0-253.0-0.0","04976717","wem/bandit_either_2","ABX5OQLR6UNBC","either","5","283","","","","","","","0","0","1","","0.2579605047","0.8","0.6","0.4","0.2","0.06585574052","0.2701305136","0.2579605047","0.2341903104","","","","","","","","","","","","75","K","2","","","213","main_expt"
"","bandit","293","871339","0.0-254.0-0.0","04976717","wem/bandit_either_2","ABX5OQLR6UNBC","either","5","349","","","","","","","0","1","0","","0.2097526345","0.8","0.6","0.4","0.2","0.08686614453","0.302599165","0.2470456849","0.2097526345","","","","","","","","","","","","76","L","3","","","214","main_expt"
"","bandit","294","873147","0.0-255.0-0.0","04976717","wem/bandit_either_2","ABX5OQLR6UNBC","either","5","299","","","","","","","0","0","1","","0.1796882487","0.8","0.6","0.4","0.2","0.1068548489","0.2968005471","0.3285383036","0.1796882487","","","","","","","","","","","","76","L","3","","","215","main_expt"
"","bandit","295","875292","0.0-256.0-0.0","04976717","wem/bandit_either_2","ABX5OQLR6UNBC","either","5","636","","","","","","","0","0","1","0.1211736082","","0.8","0.6","0.4","0.2","","","","","0.1211736082","0.2835536598","0.3780044773","0.2237900511","","","","","","","","72","H","0","img/none_selected.jpg","","216","main_expt"
"","bandit","296","877243","0.0-257.0-0.0","04976717","wem/bandit_either_2","ABX5OQLR6UNBC","either","5","443","","","","","","","1","0","0","0.2520762718","","0.8","0.6","0.4","0.2","","","","","0.09343701815","0.2520762718","0.3939228946","0.2265358539","","","","","","","","74","J","1","","","217","main_expt"
"","bandit","297","879131","0.0-258.0-0.0","04976717","wem/bandit_either_2","ABX5OQLR6UNBC","either","5","380","","","","","","","0","0","1","0.2562699476","","0.8","0.6","0.4","0.2","","","","","0.1001055386","0.2562699476","0.3198270803","0.2364013437","","","","","","","","74","J","1","","","218","main_expt"
"","bandit","298","880969","0.0-259.0-0.0","04976717","wem/bandit_either_2","ABX5OQLR6UNBC","either","5","331","","","","","","","0","0","1","","0.3502502288","0.8","0.6","0.4","0.2","0.09524874014","0.3002431464","0.3502502288","0.2810560361","","","","","","","","","","","","75","K","2","","","219","main_expt"
"","bandit","299","883051","0.0-260.0-0.0","04976717","wem/bandit_either_2","ABX5OQLR6UNBC","either","5","574","","","","","","","0","0","1","0.3027429446","","0.8","0.6","0.4","0.2","","","","","0.1304899995","0.3365413303","0.3402456168","0.3027429446","","","","","","","","76","L","3","","","220","main_expt"
"","bandit","300","885044","0.0-261.0-0.0","04976717","wem/bandit_either_2","ABX5OQLR6UNBC","either","5","484","","","","","","","1","0","0","0.1272814923","","0.8","0.6","0.4","0.2","","","","","0.1272814923","0.2946103072","0.3770059732","0.3132134988","","","","","","","","72","H","0","img/none_selected.jpg","","221","main_expt"
"","bandit","301","886876","0.0-262.0-0.0","04976717","wem/bandit_either_2","ABX5OQLR6UNBC","either","5","323","","","","","","","0","0","1","0.1654407056","","0.8","0.6","0.4","0.2","","","","","0.1654407056","0.3267284332","0.3864421123","0.2424821827","","","","","","","","72","H","0","img/none_selected.jpg","","222","main_expt"
"","bandit","302","888715","0.0-263.0-0.0","04976717","wem/bandit_either_2","ABX5OQLR6UNBC","either","5","331","","","","","","","0","0","1","","0.3175152631","0.8","0.6","0.4","0.2","0.1788325852","0.3175152631","0.4205211408","0.2595367495","","","","","","","","","","","","74","J","1","","","223","main_expt"
"","bandit","303","890666","0.0-264.0-0.0","04976717","wem/bandit_either_2","ABX5OQLR6UNBC","either","5","444","","","","","","","1","0","0","0.4131889957","","0.8","0.6","0.4","0.2","","","","","0.1736623033","0.3192400935","0.4131889957","0.328819141","","","","","","","","75","K","2","","","224","main_expt"
"","bandit","304","892467","0.0-265.0-0.0","04976717","wem/bandit_either_2","ABX5OQLR6UNBC","either","5","292","","","","","","","0","0","1","","0.4001513574","0.8","0.6","0.4","0.2","0.1721911447","0.3096750449","0.4001513574","0.356121412","","","","","","","","","","","","75","K","2","","","225","main_expt"
"","bandit","305","894356","0.0-266.0-0.0","04976717","wem/bandit_either_2","ABX5OQLR6UNBC","either","5","380","","","","","","","0","1","0","","0.3394019192","0.8","0.6","0.4","0.2","0.2133818582","0.3142833063","0.3963688582","0.3394019192","","","","","","","","","","","","76","L","3","","","226","main_expt"
"","bandit","306","896251","0.0-267.0-0.0","04976717","wem/bandit_either_2","ABX5OQLR6UNBC","either","5","386","","","","","","","0","0","1","","0.2860553004","0.8","0.6","0.4","0.2","0.2620007467","0.3096885674","0.3979714495","0.2860553004","","","","","","","","","","","","76","L","3","","","227","main_expt"
"","bandit","307","898563","0.0-268.0-0.0","04976717","wem/bandit_either_2","ABX5OQLR6UNBC","either","5","804","","","","","","","0","0","1","0.2961930455","","0.8","0.6","0.4","0.2","","","","","0.2961930455","0.3048295172","0.3811043637","0.2967856672","","","","","","","","72","H","0","img/none_selected.jpg","","228","main_expt"
"","bandit","308","900524","0.0-269.0-0.0","04976717","wem/bandit_either_2","ABX5OQLR6UNBC","either","5","451","","","","","","","0","0","1","","0.2553920021","0.8","0.6","0.4","0.2","0.3081123415","0.2553920021","0.3488149186","0.2857745529","","","","","","","","","","","","74","J","1","","","229","main_expt"
"","bandit","309","902460","0.0-270.0-0.0","04976717","wem/bandit_either_2","ABX5OQLR6UNBC","either","5","428","","","","","","","0","0","1","0.2883621188","","0.8","0.6","0.4","0.2","","","","","0.3027177586","0.2783794412","0.2883621188","0.2589404948","","","","","","","","75","K","2","","","230","main_expt"
"","bandit","310","904308","0.0-271.0-0.0","04976717","wem/bandit_either_2","ABX5OQLR6UNBC","either","5","339","","","","","","","1","0","0","0.2628441024","","0.8","0.6","0.4","0.2","","","","","0.2495346478","0.2735536708","0.2444465504","0.2628441024","","","","","","","","76","L","3","","","231","main_expt"
"","bandit","311","906101","0.0-272.0-0.0","04976717","wem/bandit_either_2","ABX5OQLR6UNBC","either","5","284","","","","","","","0","0","1","","0.276537748","0.8","0.6","0.4","0.2","0.2185872191","0.2262440502","0.2996930955","0.276537748","","","","","","","","","","","","76","L","3","","","232","main_expt"
"","bandit","312","908388","0.0-273.0-0.0","04976717","wem/bandit_either_2","ABX5OQLR6UNBC","either","5","778","","","","","","","1","0","0","0.1874863907","","0.8","0.6","0.4","0.2","","","","","0.1874863907","0.2171974885","0.3103031796","0.2485723575","","","","","","","","72","H","0","img/none_selected.jpg","","233","main_expt"
"","bandit","313","910147","0.0-274.0-0.0","04976717","wem/bandit_either_2","ABX5OQLR6UNBC","either","5","252","","","","","","","0","0","1","0.2165838284","","0.8","0.6","0.4","0.2","","","","","0.2165838284","0.2951485073","0.2971988612","0.2172766866","","","","","","","","72","H","0","img/none_selected.jpg","","234","main_expt"
"","bandit","314","911998","0.0-275.0-0.0","04976717","wem/bandit_either_2","ABX5OQLR6UNBC","either","5","340","","","","","","","0","0","1","0.3135740045","","0.8","0.6","0.4","0.2","","","","","0.1791302586","0.3135740045","0.3266576642","0.221542824","","","","","","","","74","J","1","","","235","main_expt"
"","bandit","315","914155","0.0-276.0-0.0","04976717","wem/bandit_either_2","ABX5OQLR6UNBC","either","5","650","","","","","","","0","0","1","0.3596878827","","0.8","0.6","0.4","0.2","","","","","0.2463713802","0.2945285262","0.3596878827","0.2200573756","","","","","","","","75","K","2","","","236","main_expt"
"","bandit","316","916044","0.0-277.0-0.0","04976717","wem/bandit_either_2","ABX5OQLR6UNBC","either","5","380","","","","","","","0","0","1","0.2146478317","","0.8","0.6","0.4","0.2","","","","","0.2204623923","0.2797454337","0.3951370387","0.2146478317","","","","","","","","76","L","3","","","237","main_expt"
"","bandit","317","917948","0.0-278.0-0.0","04976717","wem/bandit_either_2","ABX5OQLR6UNBC","either","5","396","","","","","","","1","0","0","0.2316256556","","0.8","0.6","0.4","0.2","","","","","0.2316256556","0.266453507","0.3863552979","0.2237656472","","","","","","","","72","H","0","img/none_selected.jpg","","238","main_expt"
"","bandit","318","919717","0.0-279.0-0.0","04976717","wem/bandit_either_2","ABX5OQLR6UNBC","either","5","258","","","","","","","1","0","0","0.310831157","","0.8","0.6","0.4","0.2","","","","","0.2406304147","0.310831157","0.3962704677","0.2302611888","","","","","","","","74","J","1","","","239","main_expt"
"","bandit","319","921692","0.0-280.0-0.0","04976717","wem/bandit_either_2","ABX5OQLR6UNBC","either","5","466","","","","","","","0","0","1","","0.331950591","0.8","0.6","0.4","0.2","0.2624476398","0.331950591","0.3926977495","0.2253069634","","","","","","","","","","","","74","J","1","","","240","main_expt"
"","bandit","320","923820","0.0-281.0-0.0","04976717","wem/bandit_either_2","ABX5OQLR6UNBC","either","5","619","","","","","","","0","0","1","","0.3381110468","0.8","0.6","0.4","0.2","0.2627099727","0.3223776605","0.3381110468","0.2523404353","","","","","","","","","","","","75","K","2","","","241","main_expt"
"","bandit","321","925707","0.0-282.0-0.0","04976717","wem/bandit_either_2","ABX5OQLR6UNBC","either","5","379","","","","","","","0","1","0","","0.238450381","0.8","0.6","0.4","0.2","0.2262339403","0.3389272588","0.3213381148","0.238450381","","","","","","","","","","","","76","L","3","","","242","main_expt"
"","bandit","322","927435","0.0-283.0-0.0","04976717","wem/bandit_either_2","ABX5OQLR6UNBC","either","5","219","","","","","","","0","1","0","","0.2476478509","0.8","0.6","0.4","0.2","0.2511573395","0.4023830898","0.3395415742","0.2476478509","","","","","","","","","","","","76","L","3","","","243","main_expt"
"","bandit","323","929187","0.0-284.0-0.0","04976717","wem/bandit_either_2","ABX5OQLR6UNBC","either","5","245","","","","","","","0","0","1","","0.2603762171","0.8","0.6","0.4","0.2","0.3112309098","0.4072225753","0.3077285799","0.2603762171","","","","","","","","","","","","76","L","3","","","244","main_expt"
"","bandit","324","931171","0.0-285.0-0.0","04976717","wem/bandit_either_2","ABX5OQLR6UNBC","either","5","475","","","","","","","0","0","1","","0.3169667097","0.8","0.6","0.4","0.2","0.3169667097","0.4047901721","0.269997398","0.2778117757","","","","","","","","","","","","72","H","0","img/none_selected.jpg","","245","main_expt"
"","bandit","325","933044","0.0-286.0-0.0","04976717","wem/bandit_either_2","ABX5OQLR6UNBC","either","5","363","","","","","","","0","0","1","","0.4245844383","0.8","0.6","0.4","0.2","0.3774934029","0.4245844383","0.2896792764","0.2571702875","","","","","","","","","","","","74","J","1","","","246","main_expt"
"","bandit","326","934972","0.0-287.0-0.0","04976717","wem/bandit_either_2","ABX5OQLR6UNBC","either","5","419","","","","","","","0","1","0","","0.3079745892","0.8","0.6","0.4","0.2","0.3592590195","0.4425022826","0.3079745892","0.2790325972","","","","","","","","","","","","75","K","2","","","247","main_expt"
"","bandit","327","936724","0.0-288.0-0.0","04976717","wem/bandit_either_2","ABX5OQLR6UNBC","either","5","243","","","","","","","0","0","1","","0.2306801962","0.8","0.6","0.4","0.2","0.3659800935","0.4454461089","0.2306801962","0.2665328125","","","","","","","","","","","","75","K","2","","","248","main_expt"
