"consent","trial_type","trial_index","time_elapsed","internal_node_id","subjID","study","MID","cond","drift","rt","responses","key_press","expt_phase","like","value","connected","gems","bombs","no_reward","GemPrChosen","BombPrChosen","GainOverPainPr_0","GainOverPainPr_1","GainOverPainPr_2","GainOverPainPr_3","LosePr_0","LosePr_1","LosePr_2","LosePr_3","WinPr_0","WinPr_1","WinPr_2","WinPr_3","Q0","Q1","Q2","gender","age","ethnicity","target","respCharCode","respKey","respChoiceNum","respChoice","practice","trial_counter","trial_label"
"INL_behavioral_consent_30min_online.html","consent","0","10801","0.0-0.0","05055147","wem/bandit_either_2","APO6KZZ79PO9Q","either","5","","","","","","","","","","","","","","","","","","","","","","","","","","","","","","","","","","","","","",""
"","survey-text","1","20410","0.0-1.0","05055147","wem/bandit_either_2","APO6KZZ79PO9Q","either","5","8547","{""Q0"":""APO6KZZ79PO9Q""}","","","","","","","","","","","","","","","","","","","","","","","","","","","","","","","","","","","",""
"","text","2","53752","0.0-2.0","05055147","wem/bandit_either_2","APO6KZZ79PO9Q","either","5","32337","","32","","","","","","","","","","","","","","","","","","","","","","","","","","","","","","","","","","",""
"","text","3","943566","0.0-3.0","05055147","wem/bandit_either_2","APO6KZZ79PO9Q","either","5","889809","","32","","","","","","","","","","","","","","","","","","","","","","","","","","","","","","","","","","",""
"","text","4","943588","0.0-4.0","05055147","wem/bandit_either_2","APO6KZZ79PO9Q","either","5","15","","32","","","","","","","","","","","","","","","","","","","","","","","","","","","","","","","","","","",""
"","text","5","953475","0.0-5.0","05055147","wem/bandit_either_2","APO6KZZ79PO9Q","either","5","9885","","32","","","","","","","","","","","","","","","","","","","","","","","","","","","","","","","","","","",""
"","text","6","1149356","0.0-6.0","05055147","wem/bandit_either_2","APO6KZZ79PO9Q","either","5","195879","","32","","","","","","","","","","","","","","","","","","","","","","","","","","","","","","","","","","",""
"","text","7","1158327","0.0-7.0","05055147","wem/bandit_either_2","APO6KZZ79PO9Q","either","5","8969","","32","","","","","","","","","","","","","","","","","","","","","","","","","","","","","","","","","","",""
"","text","8","1163011","0.0-8.0","05055147","wem/bandit_either_2","APO6KZZ79PO9Q","either","5","4682","","32","","","","","","","","","","","","","","","","","","","","","","","","","","","","","","","","","","",""
"","identification","9","1171235","0.0-9.0-0.0","05055147","wem/bandit_either_2","APO6KZZ79PO9Q","either","5","8170","","","","0","0","0","","","","","","","","","","","","","","","","","","","","","","","","the village of Zur","","","","","","",""
"","identification","10","1177609","0.0-9.0-1.0","05055147","wem/bandit_either_2","APO6KZZ79PO9Q","either","5","5335","","","","5","5","5","","","","","","","","","","","","","","","","","","","","","","","","the village of Nyx","","","","","","",""
"","text","11","1183547","0.0-10.0","05055147","wem/bandit_either_2","APO6KZZ79PO9Q","either","5","4936","","32","","","","","","","","","","","","","","","","","","","","","","","","","","","","","","","","","","",""
"","text","12","1186203","0.0-11.0","05055147","wem/bandit_either_2","APO6KZZ79PO9Q","either","5","2654","","32","","","","","","","","","","","","","","","","","","","","","","","","","","","","","","","","","","",""
"","text","13","1191198","0.0-12.0","05055147","wem/bandit_either_2","APO6KZZ79PO9Q","either","5","4992","","32","","","","","","","","","","","","","","","","","","","","","","","","","","","","","","","","","","",""
"","text","14","1196411","0.0-13.0","05055147","wem/bandit_either_2","APO6KZZ79PO9Q","either","5","5211","","32","","","","","","","","","","","","","","","","","","","","","","","","","","","","","","","","","","",""
"","bandit","15","1201661","0.0-14.0-0.0","05055147","wem/bandit_either_2","APO6KZZ79PO9Q","either","5","3735","","","","","","","0","0","1","0","0","","","","","0","","","","0","","","","","","","","","","","74","J","0","img/none_selected_demo.jpg","true","0",""
"","bandit","16","1208449","0.0-15.0-0.0","05055147","wem/bandit_either_2","APO6KZZ79PO9Q","either","5","5279","","","","","","","0","0","1","0","0","","","","","0","","","","0","","","","","","","","","","","75","K","0","img/none_selected_demo.jpg","true","0",""
"","text","17","1216171","0.0-16.0","05055147","wem/bandit_either_2","APO6KZZ79PO9Q","either","5","7719","","32","","","","","","","","","","","","","","","","","","","","","","","","","","","","","","","","","","",""
"","text","18","1227350","0.0-17.0","05055147","wem/bandit_either_2","APO6KZZ79PO9Q","either","5","11177","","32","","","","","","","","","","","","","","","","","","","","","","","","","","","","","","","","","","",""
"","text","19","1233692","0.0-18.0","05055147","wem/bandit_either_2","APO6KZZ79PO9Q","either","5","6339","","32","","","","","","","","","","","","","","","","","","","","","","","","","","","","","","","","","","",""
"","text","20","1238382","0.0-19.0","05055147","wem/bandit_either_2","APO6KZZ79PO9Q","either","5","4688","","32","","","","","","","","","","","","","","","","","","","","","","","","","","","","","","","","","","",""
"","bandit","21","1240427","0.0-20.0-0.0","05055147","wem/bandit_either_2","APO6KZZ79PO9Q","either","5","537","","","","","","","1","0","0","0.8","","0.5","0.5","","","","","","","0.8","0.2","","","","","","","","","","74","J","0","img/none_selected_demo.jpg","true","0","80_20_practice"
"","bandit","22","1242971","0.0-20.0-1.0","05055147","wem/bandit_either_2","APO6KZZ79PO9Q","either","5","1036","","","","","","","0","0","1","0.8","","0.5","0.5","","","","","","","0.8","0.2","","","","","","","","","","74","J","0","img/none_selected_demo.jpg","true","0","80_20_practice"
"","bandit","23","1245100","0.0-20.0-2.0","05055147","wem/bandit_either_2","APO6KZZ79PO9Q","either","5","621","","","","","","","0","0","1","0.2","","0.5","0.5","","","","","","","0.8","0.2","","","","","","","","","","75","K","1","","true","0","80_20_practice"
"","bandit","24","1246926","0.0-20.0-3.0","05055147","wem/bandit_either_2","APO6KZZ79PO9Q","either","5","291","","","","","","","0","0","1","0.2","","0.5","0.5","","","","","","","0.8","0.2","","","","","","","","","","75","K","1","","true","0","80_20_practice"
"","bandit","25","1248643","0.0-20.0-4.0","05055147","wem/bandit_either_2","APO6KZZ79PO9Q","either","5","209","","","","","","","0","1","0","","0.8","0.5","0.5","","","0.8","0.2","","","","","","","","","","","","","","74","J","0","img/none_selected_demo.jpg","true","0","80_20_practice"
"","bandit","26","1250613","0.0-20.0-5.0","05055147","wem/bandit_either_2","APO6KZZ79PO9Q","either","5","462","","","","","","","1","0","0","0.8","","0.5","0.5","","","","","","","0.8","0.2","","","","","","","","","","74","J","0","img/none_selected_demo.jpg","true","0","80_20_practice"
"","bandit","27","1252442","0.0-20.0-6.0","05055147","wem/bandit_either_2","APO6KZZ79PO9Q","either","5","322","","","","","","","0","1","0","","0.8","0.5","0.5","","","0.8","0.2","","","","","","","","","","","","","","74","J","0","img/none_selected_demo.jpg","true","0","80_20_practice"
"","bandit","28","1254226","0.0-20.0-7.0","05055147","wem/bandit_either_2","APO6KZZ79PO9Q","either","5","277","","","","","","","0","1","0","","0.8","0.5","0.5","","","0.8","0.2","","","","","","","","","","","","","","74","J","0","img/none_selected_demo.jpg","true","0","80_20_practice"
"","bandit","29","1256335","0.0-20.0-8.0","05055147","wem/bandit_either_2","APO6KZZ79PO9Q","either","5","580","","","","","","","1","0","0","0.8","","0.5","0.5","","","","","","","0.8","0.2","","","","","","","","","","74","J","0","img/none_selected_demo.jpg","true","0","80_20_practice"
"","bandit","30","1258297","0.0-20.0-9.0","05055147","wem/bandit_either_2","APO6KZZ79PO9Q","either","5","431","","","","","","","0","1","0","","0.8","0.5","0.5","","","0.8","0.2","","","","","","","","","","","","","","74","J","0","img/none_selected_demo.jpg","true","0","80_20_practice"
"","bandit","31","1260291","0.0-20.0-10.0","05055147","wem/bandit_either_2","APO6KZZ79PO9Q","either","5","486","","","","","","","1","0","0","0.8","","0.5","0.5","","","","","","","0.8","0.2","","","","","","","","","","74","J","0","img/none_selected_demo.jpg","true","0","80_20_practice"
"","bandit","32","1262484","0.0-20.0-11.0","05055147","wem/bandit_either_2","APO6KZZ79PO9Q","either","5","686","","","","","","","1","0","0","0.8","","0.5","0.5","","","","","","","0.8","0.2","","","","","","","","","","74","J","0","img/none_selected_demo.jpg","true","0","80_20_practice"
"","bandit","33","1264316","0.0-20.0-12.0","05055147","wem/bandit_either_2","APO6KZZ79PO9Q","either","5","283","","","","","","","1","0","0","0.8","","0.5","0.5","","","","","","","0.8","0.2","","","","","","","","","","74","J","0","img/none_selected_demo.jpg","true","0","80_20_practice"
"","bandit","34","1267690","0.0-20.0-13.0","05055147","wem/bandit_either_2","APO6KZZ79PO9Q","either","5","1865","","","","","","","0","1","0","","0.8","0.5","0.5","","","0.8","0.2","","","","","","","","","","","","","","74","J","0","img/none_selected_demo.jpg","true","0","80_20_practice"
"","bandit","35","1269506","0.0-20.0-14.0","05055147","wem/bandit_either_2","APO6KZZ79PO9Q","either","5","306","","","","","","","1","0","0","0.8","","0.5","0.5","","","","","","","0.8","0.2","","","","","","","","","","74","J","0","img/none_selected_demo.jpg","true","0","80_20_practice"
"","bandit","36","1271298","0.0-20.0-15.0","05055147","wem/bandit_either_2","APO6KZZ79PO9Q","either","5","285","","","","","","","0","1","0","","0.8","0.5","0.5","","","0.8","0.2","","","","","","","","","","","","","","74","J","0","img/none_selected_demo.jpg","true","0","80_20_practice"
"","bandit","37","1273169","0.0-20.0-16.0","05055147","wem/bandit_either_2","APO6KZZ79PO9Q","either","5","334","","","","","","","0","1","0","","0.8","0.5","0.5","","","0.8","0.2","","","","","","","","","","","","","","74","J","0","img/none_selected_demo.jpg","true","0","80_20_practice"
"","bandit","38","1275106","0.0-20.0-17.0","05055147","wem/bandit_either_2","APO6KZZ79PO9Q","either","5","429","","","","","","","0","1","0","","0.8","0.5","0.5","","","0.8","0.2","","","","","","","","","","","","","","74","J","0","img/none_selected_demo.jpg","true","0","80_20_practice"
"","bandit","39","1277274","0.0-20.0-18.0","05055147","wem/bandit_either_2","APO6KZZ79PO9Q","either","5","661","","","","","","","0","0","1","","0.8","0.5","0.5","","","0.8","0.2","","","","","","","","","","","","","","74","J","0","img/none_selected_demo.jpg","true","0","80_20_practice"
"","bandit","40","1279698","0.0-20.0-19.0","05055147","wem/bandit_either_2","APO6KZZ79PO9Q","either","5","915","","","","","","","1","0","0","0.8","","0.5","0.5","","","","","","","0.8","0.2","","","","","","","","","","74","J","0","img/none_selected_demo.jpg","true","0","80_20_practice"
"","text","41","1281693","0.0-21.0","05055147","wem/bandit_either_2","APO6KZZ79PO9Q","either","5","1992","","32","","","","","","","","","","","","","","","","","","","","","","","","","","","","","","","","","","",""
"","bandit","42","1284362","0.0-22.0-0.0","05055147","wem/bandit_either_2","APO6KZZ79PO9Q","either","5","1161","","","","","","","1","0","0","1","0","","","","","0","1","","","1","0","","","","","","","","","","74","J","0","img/none_selected_demo.jpg","true","0",""
"","text","43","1286435","0.0-23.0","05055147","wem/bandit_either_2","APO6KZZ79PO9Q","either","5","2069","","32","","","","","","","","","","","","","","","","","","","","","","","","","","","","","","","","","","",""
"","text","44","1289283","0.0-24.0","05055147","wem/bandit_either_2","APO6KZZ79PO9Q","either","5","2842","","32","","","","","","","","","","","","","","","","","","","","","","","","","","","","","","","","","","",""
"","text","45","1290755","0.0-25.0","05055147","wem/bandit_either_2","APO6KZZ79PO9Q","either","5","1468","","32","","","","","","","","","","","","","","","","","","","","","","","","","","","","","","","","","","",""
"","text","46","1292350","0.0-26.0","05055147","wem/bandit_either_2","APO6KZZ79PO9Q","either","5","1592","","32","","","","","","","","","","","","","","","","","","","","","","","","","","","","","","","","","","",""
"","text","47","1301467","0.0-27.0","05055147","wem/bandit_either_2","APO6KZZ79PO9Q","either","5","9114","","32","","","","","","","","","","","","","","","","","","","","","","","","","","","","","","","","","","",""
"","text","48","1304317","0.0-28.0","05055147","wem/bandit_either_2","APO6KZZ79PO9Q","either","5","2847","","32","","","","","","","","","","","","","","","","","","","","","","","","","","","","","","","","","","",""
"","text","49","1307571","0.0-29.0","05055147","wem/bandit_either_2","APO6KZZ79PO9Q","either","5","3249","","32","","","","","","","","","","","","","","","","","","","","","","","","","","","","","","","","","","",""
"","text","50","1309354","0.0-30.0","05055147","wem/bandit_either_2","APO6KZZ79PO9Q","either","5","1780","","32","","","","","","","","","","","","","","","","","","","","","","","","","","","","","","","","","","",""
"","text","51","1313867","0.0-31.0","05055147","wem/bandit_either_2","APO6KZZ79PO9Q","either","5","4509","","32","","","","","","","","","","","","","","","","","","","","","","","","","","","","","","","","","","",""
"","text","52","1323462","0.0-32.0","05055147","wem/bandit_either_2","APO6KZZ79PO9Q","either","5","9591","","32","","","","","","","","","","","","","","","","","","","","","","","","","","","","","","","","","","",""
"","text","53","1328255","0.0-33.0","05055147","wem/bandit_either_2","APO6KZZ79PO9Q","either","5","4783","","32","","","","","","","","","","","","","","","","","","","","","","","","","","","","","","","","","","",""
"","bandit","54","1330370","0.0-34.0-0.0","05055147","wem/bandit_either_2","APO6KZZ79PO9Q","either","5","605","","","","","","","1","0","0","0.8","","0.5","0.5","0.5","0.5","","","","","0.8","0.2","0.6","0.2","","","","","","","","72","H","0","img/none_selected.jpg","true","0","full_practice"
"","bandit","55","1332295","0.0-34.0-1.0","05055147","wem/bandit_either_2","APO6KZZ79PO9Q","either","5","395","","","","","","","0","0","1","0.2","","0.5","0.5","0.5","0.5","","","","","0.8","0.2","0.6","0.2","","","","","","","","76","L","3","","true","0","full_practice"
"","bandit","56","1334305","0.0-34.0-2.0","05055147","wem/bandit_either_2","APO6KZZ79PO9Q","either","5","502","","","","","","","0","1","0","","0.6","0.5","0.5","0.5","0.5","0.8","0.2","0.6","0.2","","","","","","","","","","","","75","K","2","","true","0","full_practice"
"","bandit","57","1336190","0.0-34.0-3.0","05055147","wem/bandit_either_2","APO6KZZ79PO9Q","either","5","373","","","","","","","1","0","0","0.8","","0.5","0.5","0.5","0.5","","","","","0.8","0.2","0.6","0.2","","","","","","","","72","H","0","img/none_selected.jpg","true","0","full_practice"
"","bandit","58","1338032","0.0-34.0-4.0","05055147","wem/bandit_either_2","APO6KZZ79PO9Q","either","5","301","","","","","","","1","0","0","0.8","","0.5","0.5","0.5","0.5","","","","","0.8","0.2","0.6","0.2","","","","","","","","72","H","0","img/none_selected.jpg","true","0","full_practice"
"","bandit","59","1339817","0.0-34.0-5.0","05055147","wem/bandit_either_2","APO6KZZ79PO9Q","either","5","278","","","","","","","1","0","0","0.8","","0.5","0.5","0.5","0.5","","","","","0.8","0.2","0.6","0.2","","","","","","","","72","H","0","img/none_selected.jpg","true","0","full_practice"
"","bandit","60","1341678","0.0-34.0-6.0","05055147","wem/bandit_either_2","APO6KZZ79PO9Q","either","5","324","","","","","","","1","0","0","0.8","","0.5","0.5","0.5","0.5","","","","","0.8","0.2","0.6","0.2","","","","","","","","72","H","0","img/none_selected.jpg","true","0","full_practice"
"","bandit","61","1343537","0.0-34.0-7.0","05055147","wem/bandit_either_2","APO6KZZ79PO9Q","either","5","325","","","","","","","0","0","1","","0.8","0.5","0.5","0.5","0.5","0.8","0.2","0.6","0.2","","","","","","","","","","","","72","H","0","img/none_selected.jpg","true","0","full_practice"
"","bandit","62","1345256","0.0-34.0-8.0","05055147","wem/bandit_either_2","APO6KZZ79PO9Q","either","5","203","","","","","","","0","1","0","","0.6","0.5","0.5","0.5","0.5","0.8","0.2","0.6","0.2","","","","","","","","","","","","75","K","2","","true","0","full_practice"
"","bandit","63","1347096","0.0-34.0-9.0","05055147","wem/bandit_either_2","APO6KZZ79PO9Q","either","5","311","","","","","","","0","0","1","0.6","","0.5","0.5","0.5","0.5","","","","","0.8","0.2","0.6","0.2","","","","","","","","75","K","2","","true","0","full_practice"
"","bandit","64","1348996","0.0-34.0-10.0","05055147","wem/bandit_either_2","APO6KZZ79PO9Q","either","5","357","","","","","","","1","0","0","0.6","","0.5","0.5","0.5","0.5","","","","","0.8","0.2","0.6","0.2","","","","","","","","75","K","2","","true","0","full_practice"
"","bandit","65","1350786","0.0-34.0-11.0","05055147","wem/bandit_either_2","APO6KZZ79PO9Q","either","5","282","","","","","","","1","0","0","0.6","","0.5","0.5","0.5","0.5","","","","","0.8","0.2","0.6","0.2","","","","","","","","75","K","2","","true","0","full_practice"
"","bandit","66","1352618","0.0-34.0-12.0","05055147","wem/bandit_either_2","APO6KZZ79PO9Q","either","5","315","","","","","","","1","0","0","0.6","","0.5","0.5","0.5","0.5","","","","","0.8","0.2","0.6","0.2","","","","","","","","75","K","2","","true","0","full_practice"
"","bandit","67","1354523","0.0-34.0-13.0","05055147","wem/bandit_either_2","APO6KZZ79PO9Q","either","5","396","","","","","","","1","0","0","0.6","","0.5","0.5","0.5","0.5","","","","","0.8","0.2","0.6","0.2","","","","","","","","75","K","2","","true","0","full_practice"
"","bandit","68","1356587","0.0-34.0-14.0","05055147","wem/bandit_either_2","APO6KZZ79PO9Q","either","5","553","","","","","","","0","0","1","0.6","","0.5","0.5","0.5","0.5","","","","","0.8","0.2","0.6","0.2","","","","","","","","75","K","2","","true","0","full_practice"
"","bandit","69","1358430","0.0-34.0-15.0","05055147","wem/bandit_either_2","APO6KZZ79PO9Q","either","5","293","","","","","","","1","0","0","0.8","","0.5","0.5","0.5","0.5","","","","","0.8","0.2","0.6","0.2","","","","","","","","72","H","0","img/none_selected.jpg","true","0","full_practice"
"","bandit","70","1360402","0.0-34.0-16.0","05055147","wem/bandit_either_2","APO6KZZ79PO9Q","either","5","464","","","","","","","0","1","0","","0.8","0.5","0.5","0.5","0.5","0.8","0.2","0.6","0.2","","","","","","","","","","","","72","H","0","img/none_selected.jpg","true","0","full_practice"
"","bandit","71","1362633","0.0-34.0-17.0","05055147","wem/bandit_either_2","APO6KZZ79PO9Q","either","5","723","","","","","","","0","0","1","","0.8","0.5","0.5","0.5","0.5","0.8","0.2","0.6","0.2","","","","","","","","","","","","72","H","0","img/none_selected.jpg","true","0","full_practice"
"","bandit","72","1364339","0.0-34.0-18.0","05055147","wem/bandit_either_2","APO6KZZ79PO9Q","either","5","197","","","","","","","0","1","0","","0.8","0.5","0.5","0.5","0.5","0.8","0.2","0.6","0.2","","","","","","","","","","","","72","H","0","img/none_selected.jpg","true","0","full_practice"
"","bandit","73","1366739","0.0-34.0-19.0","05055147","wem/bandit_either_2","APO6KZZ79PO9Q","either","5","891","","","","","","","0","1","0","","0.6","0.5","0.5","0.5","0.5","0.8","0.2","0.6","0.2","","","","","","","","","","","","75","K","2","","true","0","full_practice"
"","text","74","1368902","0.0-35.0","05055147","wem/bandit_either_2","APO6KZZ79PO9Q","either","5","2152","","32","","","","","","","","","","","","","","","","","","","","","","","","","","","","","","","","","","",""
"","text","75","1376852","0.0-36.0","05055147","wem/bandit_either_2","APO6KZZ79PO9Q","either","5","6944","","32","","","","","","","","","","","","","","","","","","","","","","","","","","","","","","","","","","",""
"","text","76","1378380","0.0-37.0","05055147","wem/bandit_either_2","APO6KZZ79PO9Q","either","5","1524","","32","","","","","","","","","","","","","","","","","","","","","","","","","","","","","","","","","","",""
"","text","77","1381079","0.0-38.0","05055147","wem/bandit_either_2","APO6KZZ79PO9Q","either","5","2691","","32","","","","","","","","","","","","","","","","","","","","","","","","","","","","","","","","","","",""
"","text","78","1383756","0.0-39.0","05055147","wem/bandit_either_2","APO6KZZ79PO9Q","either","5","2673","","32","","","","","","","","","","","","","","","","","","","","","","","","","","","","","","","","","","",""
"","text","79","1387812","0.0-40.0","05055147","wem/bandit_either_2","APO6KZZ79PO9Q","either","5","4051","","32","","","","","","","","","","","","","","","","","","","","","","","","","","","","","","","","","","",""
"","bandit","80","1393149","0.0-41.0-0.0","05055147","wem/bandit_either_2","APO6KZZ79PO9Q","either","5","3829","","","","","","","1","0","0","0.3897275569","","0.2","0.4","0.8","0.6","","","","","0.3340388524","0.4265570961","0.3897275569","0.1165465043","","","","","","","","75","K","2","","","1","main_expt"
"","bandit","81","1394969","0.0-42.0-0.0","05055147","wem/bandit_either_2","APO6KZZ79PO9Q","either","5","295","","","","","","","1","0","0","0.3911966266","","0.2","0.4","0.8","0.6","","","","","0.3223834482","0.4177099958","0.3911966266","0.08371899021","","","","","","","","75","K","2","","","2","main_expt"
"","bandit","82","1396882","0.0-43.0-0.0","05055147","wem/bandit_either_2","APO6KZZ79PO9Q","either","5","400","","","","","","","0","0","1","0.4074861021","","0.2","0.4","0.8","0.6","","","","","0.3585509001","0.4192185534","0.4074861021","0.04339790364","","","","","","","","75","K","2","","","3","main_expt"
"","bandit","83","1398725","0.0-44.0-0.0","05055147","wem/bandit_either_2","APO6KZZ79PO9Q","either","5","307","","","","","","","0","0","1","","0.3965638453","0.2","0.4","0.8","0.6","0.3416436242","0.4241610434","0.3965638453","0.04073472785","","","","","","","","","","","","75","K","2","","","4","main_expt"
"","bandit","84","1407363","0.0-45.0-0.0","05055147","wem/bandit_either_2","APO6KZZ79PO9Q","either","5","7095","","","","","","","0","0","1","","0.3444758892","0.2","0.4","0.8","0.6","0.3444758892","0.4284837315","0.3688269119","0.04731773769","","","","","","","","","","","","72","H","0","img/none_selected.jpg","","5","main_expt"
"","bandit","85","1409217","0.0-46.0-0.0","05055147","wem/bandit_either_2","APO6KZZ79PO9Q","either","5","345","","","","","","","0","1","0","","0.4328708062","0.2","0.4","0.8","0.6","0.3574177426","0.4328708062","0.3865867917","0.05617088868","","","","","","","","","","","","74","J","1","","","6","main_expt"
"","bandit","86","1411068","0.0-47.0-0.0","05055147","wem/bandit_either_2","APO6KZZ79PO9Q","either","5","324","","","","","","","0","1","0","","0.4294719924","0.2","0.4","0.8","0.6","0.3634052143","0.4176545671","0.4294719924","0.05606577856","","","","","","","","","","","","75","K","2","","","7","main_expt"
"","bandit","87","1413139","0.0-48.0-0.0","05055147","wem/bandit_either_2","APO6KZZ79PO9Q","either","5","536","","","","","","","1","0","0","0.4210378118","","0.2","0.4","0.8","0.6","","","","","0.3675420607","0.4022395488","0.4210378118","0.09244853328","","","","","","","","75","K","2","","","8","main_expt"
"","bandit","88","1414985","0.0-49.0-0.0","05055147","wem/bandit_either_2","APO6KZZ79PO9Q","either","5","337","","","","","","","0","1","0","","0.4502112583","0.2","0.4","0.8","0.6","0.3921196104","0.3929004949","0.4502112583","0.1271341085","","","","","","","","","","","","75","K","2","","","9","main_expt"
"","bandit","89","1416692","0.0-50.0-0.0","05055147","wem/bandit_either_2","APO6KZZ79PO9Q","either","5","195","","","","","","","0","0","1","0.4452653155","","0.2","0.4","0.8","0.6","","","","","0.4026182126","0.3863711448","0.4452653155","0.1370717255","","","","","","","","75","K","2","","","10","main_expt"
"","bandit","90","1418541","0.0-51.0-0.0","05055147","wem/bandit_either_2","APO6KZZ79PO9Q","either","5","338","","","","","","","1","0","0","0.4205849279","","0.2","0.4","0.8","0.6","","","","","0.3543069494","0.4205849279","0.4352349267","0.1275050207","","","","","","","","74","J","1","","","11","main_expt"
"","bandit","91","1420522","0.0-52.0-0.0","05055147","wem/bandit_either_2","APO6KZZ79PO9Q","either","5","471","","","","","","","0","1","0","","0.4525069231","0.2","0.4","0.8","0.6","0.3504097904","0.4525069231","0.4029030639","0.122317004","","","","","","","","","","","","74","J","1","","","12","main_expt"
"","bandit","92","1422505","0.0-53.0-0.0","05055147","wem/bandit_either_2","APO6KZZ79PO9Q","either","5","474","","","","","","","0","0","1","","0.4485799753","0.2","0.4","0.8","0.6","0.2787441393","0.4485799753","0.4198147105","0.1251711411","","","","","","","","","","","","74","J","1","","","13","main_expt"
"","bandit","93","1424754","0.0-54.0-0.0","05055147","wem/bandit_either_2","APO6KZZ79PO9Q","either","5","713","","","","","","","0","0","1","0.3761312174","","0.2","0.4","0.8","0.6","","","","","0.2723245106","0.4504049656","0.3761312174","0.1380641988","","","","","","","","75","K","2","","","14","main_expt"
"","bandit","94","1426465","0.0-55.0-0.0","05055147","wem/bandit_either_2","APO6KZZ79PO9Q","either","5","202","","","","","","","0","0","1","0.2010812313","","0.2","0.4","0.8","0.6","","","","","0.3687644442","0.4281165459","0.4017507227","0.2010812313","","","","","","","","76","L","3","","","15","main_expt"
"","bandit","95","1428257","0.0-56.0-0.0","05055147","wem/bandit_either_2","APO6KZZ79PO9Q","either","5","282","","","","","","","0","0","1","","0.3992289848","0.2","0.4","0.8","0.6","0.3992289848","0.4035101098","0.3859888637","0.1747275657","","","","","","","","","","","","72","H","0","img/none_selected.jpg","","16","main_expt"
"","bandit","96","1430889","0.0-57.0-0.0","05055147","wem/bandit_either_2","APO6KZZ79PO9Q","either","5","1123","","","","","","","0","1","0","","0.4063691663","0.2","0.4","0.8","0.6","0.4067061876","0.4063691663","0.3706978481","0.1816524112","","","","","","","","","","","","74","J","1","","","17","main_expt"
"","bandit","97","1432745","0.0-58.0-0.0","05055147","wem/bandit_either_2","APO6KZZ79PO9Q","either","5","346","","","","","","","0","0","1","","0.4201618032","0.2","0.4","0.8","0.6","0.3969002131","0.4201618032","0.3323991027","0.1700798448","","","","","","","","","","","","74","J","1","","","18","main_expt"
"","bandit","98","1434825","0.0-59.0-0.0","05055147","wem/bandit_either_2","APO6KZZ79PO9Q","either","5","569","","","","","","","0","0","1","","0.3930099592","0.2","0.4","0.8","0.6","0.3930099592","0.3868389751","0.3301718366","0.1998500639","","","","","","","","","","","","72","H","0","img/none_selected.jpg","","19","main_expt"
"","bandit","99","1436619","0.0-60.0-0.0","05055147","wem/bandit_either_2","APO6KZZ79PO9Q","either","5","275","","","","","","","0","0","1","","0.3791602553","0.2","0.4","0.8","0.6","0.3791602553","0.3868875991","0.3714618997","0.2418808817","","","","","","","","","","","","72","H","0","img/none_selected.jpg","","20","main_expt"
"","bandit","100","1438561","0.0-61.0-0.0","05055147","wem/bandit_either_2","APO6KZZ79PO9Q","either","5","432","","","","","","","0","1","0","","0.4127515201","0.2","0.4","0.8","0.6","0.4127515201","0.4253770554","0.3621694591","0.2293341009","","","","","","","","","","","","72","H","0","img/none_selected.jpg","","21","main_expt"
"","bandit","101","1440411","0.0-62.0-0.0","05055147","wem/bandit_either_2","APO6KZZ79PO9Q","either","5","339","","","","","","","0","0","1","","0.4164833055","0.2","0.4","0.8","0.6","0.4164833055","0.4285762007","0.3648829928","0.2074184163","","","","","","","","","","","","72","H","0","img/none_selected.jpg","","22","main_expt"
"","bandit","102","1442211","0.0-63.0-0.0","05055147","wem/bandit_either_2","APO6KZZ79PO9Q","either","5","280","","","","","","","0","0","1","0.4082522222","","0.2","0.4","0.8","0.6","","","","","0.4143027846","0.4082522222","0.2856994719","0.1832507358","","","","","","","","74","J","1","","","23","main_expt"
"","bandit","103","1444036","0.0-64.0-0.0","05055147","wem/bandit_either_2","APO6KZZ79PO9Q","either","5","285","","","","","","","1","0","0","0.4027270218","","0.2","0.4","0.8","0.6","","","","","0.3649270698","0.4027270218","0.3152516524","0.1469425149","","","","","","","","74","J","1","","","24","main_expt"
"","bandit","104","1445851","0.0-65.0-0.0","05055147","wem/bandit_either_2","APO6KZZ79PO9Q","either","5","299","","","","","","","0","1","0","","0.4100212433","0.2","0.4","0.8","0.6","0.392676409","0.4100212433","0.2778145345","0.102794739","","","","","","","","","","","","74","J","1","","","25","main_expt"
"","bandit","105","1447792","0.0-66.0-0.0","05055147","wem/bandit_either_2","APO6KZZ79PO9Q","either","5","431","","","","","","","0","1","0","","0.4190791169","0.2","0.4","0.8","0.6","0.4031565401","0.4190791169","0.3170506137","0.1173732637","","","","","","","","","","","","74","J","1","","","26","main_expt"
"","bandit","106","1449677","0.0-67.0-0.0","05055147","wem/bandit_either_2","APO6KZZ79PO9Q","either","5","320","","","","","","","0","0","1","","0.4527212376","0.2","0.4","0.8","0.6","0.4245959001","0.4527212376","0.3223143746","0.08835016803","","","","","","","","","","","","74","J","1","","","27","main_expt"
"","bandit","107","1451444","0.0-68.0-0.0","05055147","wem/bandit_either_2","APO6KZZ79PO9Q","either","5","257","","","","","","","0","0","1","","0.3234472479","0.2","0.4","0.8","0.6","0.4232885055","0.4480998813","0.3234472479","0.1134440288","","","","","","","","","","","","75","K","2","","","28","main_expt"
"","bandit","108","1453244","0.0-69.0-0.0","05055147","wem/bandit_either_2","APO6KZZ79PO9Q","either","5","263","","","","","","","0","0","1","0.1982905849","","0.2","0.4","0.8","0.6","","","","","0.4495512981","0.4628669208","0.2881425904","0.1982905849","","","","","","","","76","L","3","","","29","main_expt"
"","bandit","109","1455069","0.0-70.0-0.0","05055147","wem/bandit_either_2","APO6KZZ79PO9Q","either","5","295","","","","","","","0","0","1","0.2326555855","","0.2","0.4","0.8","0.6","","","","","0.4485299892","0.4565655028","0.2326555855","0.2366655967","","","","","","","","75","K","2","","","30","main_expt"
"","bandit","110","1456729","0.0-71.0-0.0","05055147","wem/bandit_either_2","APO6KZZ79PO9Q","either","5","150","","","","","","","0","0","1","","0.1622470467","0.2","0.4","0.8","0.6","0.4599237238","0.4686031056","0.2364604256","0.1622470467","","","","","","","","","","","","76","L","3","","","31","main_expt"
"","bandit","111","1458946","0.0-72.0-0.0","05055147","wem/bandit_either_2","APO6KZZ79PO9Q","either","5","704","","","","","","","0","0","1","0.4659582456","","0.2","0.4","0.8","0.6","","","","","0.4508116693","0.4659582456","0.2451982598","0.1771911602","","","","","","","","74","J","1","","","32","main_expt"
"","bandit","112","1461050","0.0-73.0-0.0","05055147","wem/bandit_either_2","APO6KZZ79PO9Q","either","5","569","","","","","","","0","0","1","0.2360369815","","0.2","0.4","0.8","0.6","","","","","0.45101727","0.4810757035","0.2360369815","0.1622836308","","","","","","","","75","K","2","","","33","main_expt"
"","bandit","113","1462949","0.0-74.0-0.0","05055147","wem/bandit_either_2","APO6KZZ79PO9Q","either","5","385","","","","","","","0","1","0","","0.4340174653","0.2","0.4","0.8","0.6","0.4340174653","0.4842727378","0.2317763892","0.1655985557","","","","","","","","","","","","72","H","0","img/none_selected.jpg","","34","main_expt"
"","bandit","114","1464804","0.0-75.0-0.0","05055147","wem/bandit_either_2","APO6KZZ79PO9Q","either","5","342","","","","","","","0","1","0","","0.4040147441","0.2","0.4","0.8","0.6","0.4040147441","0.4745470136","0.2527891731","0.1492797185","","","","","","","","","","","","72","H","0","img/none_selected.jpg","","35","main_expt"
"","bandit","115","1466737","0.0-76.0-0.0","05055147","wem/bandit_either_2","APO6KZZ79PO9Q","either","5","422","","","","","","","0","1","0","","0.4268829696","0.2","0.4","0.8","0.6","0.4268829696","0.4440965139","0.2641283143","0.1504543003","","","","","","","","","","","","72","H","0","img/none_selected.jpg","","36","main_expt"
"","bandit","116","1468649","0.0-77.0-0.0","05055147","wem/bandit_either_2","APO6KZZ79PO9Q","either","5","387","","","","","","","0","0","1","0.4562327564","","0.2","0.4","0.8","0.6","","","","","0.4562327564","0.4544425755","0.2309310423","0.1064249526","","","","","","","","72","H","0","img/none_selected.jpg","","37","main_expt"
"","bandit","117","1471089","0.0-78.0-0.0","05055147","wem/bandit_either_2","APO6KZZ79PO9Q","either","5","907","","","","","","","0","0","1","","0.4700138218","0.2","0.4","0.8","0.6","0.4481627861","0.4700138218","0.2093170459","0.1346530267","","","","","","","","","","","","74","J","1","","","38","main_expt"
"","bandit","118","1472859","0.0-79.0-0.0","05055147","wem/bandit_either_2","APO6KZZ79PO9Q","either","5","258","","","","","","","0","0","1","","0.4475890948","0.2","0.4","0.8","0.6","0.4475890948","0.466948448","0.1398625959","0.1303494481","","","","","","","","","","","","72","H","0","img/none_selected.jpg","","39","main_expt"
"","bandit","119","1474754","0.0-80.0-0.0","05055147","wem/bandit_either_2","APO6KZZ79PO9Q","either","5","385","","","","","","","0","0","1","0.09690087606","","0.2","0.4","0.8","0.6","","","","","0.4501575696","0.4679256248","0.09690087606","0.1492074344","","","","","","","","75","K","2","","","40","main_expt"
"","bandit","120","1476962","0.0-81.0-0.0","05055147","wem/bandit_either_2","APO6KZZ79PO9Q","either","5","688","","","","","","","0","0","1","0.1370672299","","0.2","0.4","0.8","0.6","","","","","0.4121884666","0.445537573","0.1129569356","0.1370672299","","","","","","","","76","L","3","","","41","main_expt"
"","bandit","121","1478787","0.0-82.0-0.0","05055147","wem/bandit_either_2","APO6KZZ79PO9Q","either","5","314","","","","","","","1","0","0","0.08144147181","","0.2","0.4","0.8","0.6","","","","","0.4379939247","0.4521531226","0.1227033228","0.08144147181","","","","","","","","76","L","3","","","42","main_expt"
"","bandit","122","1480658","0.0-83.0-0.0","05055147","wem/bandit_either_2","APO6KZZ79PO9Q","either","5","359","","","","","","","0","0","1","","0.06793865388","0.2","0.4","0.8","0.6","0.4271747655","0.4695072217","0.08393287497","0.06793865388","","","","","","","","","","","","76","L","3","","","43","main_expt"
"","bandit","123","1482708","0.0-84.0-0.0","05055147","wem/bandit_either_2","APO6KZZ79PO9Q","either","5","522","","","","","","","0","0","1","0.05295344446","","0.2","0.4","0.8","0.6","","","","","0.4480494518","0.4807409838","0.06260074275","0.05295344446","","","","","","","","76","L","3","","","44","main_expt"
"","bandit","124","1484525","0.0-85.0-0.0","05055147","wem/bandit_either_2","APO6KZZ79PO9Q","either","5","304","","","","","","","0","0","1","0.08062123592","","0.2","0.4","0.8","0.6","","","","","0.4269729589","0.4507048108","0.08062123592","0.02744239742","","","","","","","","75","K","2","","","45","main_expt"
"","bandit","125","1486162","0.0-86.0-0.0","05055147","wem/bandit_either_2","APO6KZZ79PO9Q","either","5","125","","","","","","","0","1","0","","0.4382321206","0.2","0.4","0.8","0.6","0.4475746277","0.4382321206","0.1110847749","0.02347437243","","","","","","","","","","","","74","J","1","","","46","main_expt"
"","bandit","126","1488022","0.0-87.0-0.0","05055147","wem/bandit_either_2","APO6KZZ79PO9Q","either","5","320","","","","","","","0","1","0","","0.4393937913","0.2","0.4","0.8","0.6","0.4295618238","0.4393937913","0.05346849493","0.02418160198","","","","","","","","","","","","74","J","1","","","47","main_expt"
"","bandit","127","1489986","0.0-88.0-0.0","05055147","wem/bandit_either_2","APO6KZZ79PO9Q","either","5","449","","","","","","","0","0","1","","0.440318131","0.2","0.4","0.8","0.6","0.4431907244","0.440318131","0.04499733497","0.01182676654","","","","","","","","","","","","74","J","1","","","48","main_expt"
"","bandit","128","1492299","0.0-89.0-0.0","05055147","wem/bandit_either_2","APO6KZZ79PO9Q","either","5","799","","","","","","","0","1","0","","0.4187732916","0.2","0.4","0.8","0.6","0.4187732916","0.4362102412","0.07378534534","0.0186287842","","","","","","","","","","","","72","H","0","img/none_selected.jpg","","49","main_expt"
"","bandit","129","1498191","0.0-90.0-0.0","05055147","wem/bandit_either_2","APO6KZZ79PO9Q","either","5","4372","","","","","","","0","0","1","","0.44488671","0.2","0.4","0.8","0.6","0.356579213","0.44488671","0.06168845619","0.02550629551","","","","","","","","","","","","74","J","1","","","50","main_expt"
"","bandit","130","1500299","0.0-91.0-0.0","05055147","wem/bandit_either_2","APO6KZZ79PO9Q","either","5","590","","","","","","","0","0","1","","0.2629404955","0.2","0.4","0.8","0.6","0.2629404955","0.4633405548","0.1062028567","0.04366809707","","","","","","","","","","","","72","H","0","img/none_selected.jpg","","51","main_expt"
"","bandit","131","1502223","0.0-92.0-0.0","05055147","wem/bandit_either_2","APO6KZZ79PO9Q","either","5","382","","","","","","","0","0","1","","0.1379608546","0.2","0.4","0.8","0.6","0.2919747068","0.4528043762","0.1379608546","0.04357168116","","","","","","","","","","","","75","K","2","","","52","main_expt"
"","bandit","132","1504071","0.0-93.0-0.0","05055147","wem/bandit_either_2","APO6KZZ79PO9Q","either","5","321","","","","","","","0","1","0","","0.4390431751","0.2","0.4","0.8","0.6","0.3809901122","0.4390431751","0.1356826849","0.03899227154","","","","","","","","","","","","74","J","1","","","53","main_expt"
"","bandit","133","1505907","0.0-94.0-0.0","05055147","wem/bandit_either_2","APO6KZZ79PO9Q","either","5","321","","","","","","","0","0","1","","0.4549270822","0.2","0.4","0.8","0.6","0.3452518694","0.4549270822","0.1038772241","0.04009146386","","","","","","","","","","","","74","J","1","","","54","main_expt"
"","bandit","134","1508055","0.0-95.0-0.0","05055147","wem/bandit_either_2","APO6KZZ79PO9Q","either","5","632","","","","","","","0","0","1","","0.0155768565","0.2","0.4","0.8","0.6","0.3263112327","0.4710341864","0.1689791829","0.0155768565","","","","","","","","","","","","76","L","3","","","55","main_expt"
"","bandit","135","1509943","0.0-96.0-0.0","05055147","wem/bandit_either_2","APO6KZZ79PO9Q","either","5","349","","","","","","","0","0","1","0.1108888145","","0.2","0.4","0.8","0.6","","","","","0.3308963945","0.4745834276","0.1108888145","0.02112461672","","","","","","","","75","K","2","","","56","main_expt"
"","bandit","136","1511875","0.0-97.0-0.0","05055147","wem/bandit_either_2","APO6KZZ79PO9Q","either","5","420","","","","","","","0","1","0","","0.3150326571","0.2","0.4","0.8","0.6","0.3150326571","0.489318572","0.1206542402","0.0126553198","","","","","","","","","","","","72","H","0","img/none_selected.jpg","","57","main_expt"
"","bandit","137","1513858","0.0-98.0-0.0","05055147","wem/bandit_either_2","APO6KZZ79PO9Q","either","5","472","","","","","","","0","0","1","","0.3049116772","0.2","0.4","0.8","0.6","0.3049116772","0.480037986","0.09707343937","0.01131359515","","","","","","","","","","","","72","H","0","img/none_selected.jpg","","58","main_expt"
"","bandit","138","1516706","0.0-99.0-0.0","05055147","wem/bandit_either_2","APO6KZZ79PO9Q","either","5","1293","","","","","","","0","1","0","","0.4593461039","0.2","0.4","0.8","0.6","0.3050987947","0.4593461039","0.1044384952","0.01030075821","","","","","","","","","","","","74","J","1","","","59","main_expt"
"","bandit","139","1519243","0.0-100.0-0.0","05055147","wem/bandit_either_2","APO6KZZ79PO9Q","either","5","1024","","","","","","","1","0","0","0.446051488","","0.2","0.4","0.8","0.6","","","","","0.3274009355","0.446051488","0.08890369623","0.005868957973","","","","","","","","74","J","1","","","60","main_expt"
"","bandit","140","1521248","0.0-101.0-0.0","05055147","wem/bandit_either_2","APO6KZZ79PO9Q","either","5","474","","","","","","","0","0","1","","0.4391285327","0.2","0.4","0.8","0.6","0.3428943983","0.4391285327","0.08921221942","0.004361943215","","","","","","","","","","","","74","J","1","","","61","main_expt"
"","bandit","141","1524066","0.0-102.0-0.0","05055147","wem/bandit_either_2","APO6KZZ79PO9Q","either","5","1306","","","","","","","0","0","1","","0.09812025034","0.2","0.4","0.8","0.6","0.3549763931","0.4063883723","0.09812025034","0.005208412743","","","","","","","","","","","","75","K","2","","","62","main_expt"
"","bandit","142","1526409","0.0-103.0-0.0","05055147","wem/bandit_either_2","APO6KZZ79PO9Q","either","5","807","","","","","","","0","1","0","","0.3496678451","0.2","0.4","0.8","0.6","0.3496678451","0.4330387396","0.09006279409","0.006461011255","","","","","","","","","","","","72","H","0","img/none_selected.jpg","","63","main_expt"
"","bandit","143","1528426","0.0-104.0-0.0","05055147","wem/bandit_either_2","APO6KZZ79PO9Q","either","5","489","","","","","","","1","0","0","0.4207902426","","0.2","0.4","0.8","0.6","","","","","0.3188537263","0.4207902426","0.1118976224","0.01267926231","","","","","","","","74","J","1","","","64","main_expt"
"","bandit","144","1530633","0.0-105.0-0.0","05055147","wem/bandit_either_2","APO6KZZ79PO9Q","either","5","696","","","","","","","0","0","1","","0.3719582347","0.2","0.4","0.8","0.6","0.3191795336","0.3719582347","0.1053817613","0.009732787917","","","","","","","","","","","","74","J","1","","","65","main_expt"
"","bandit","145","1533043","0.0-106.0-0.0","05055147","wem/bandit_either_2","APO6KZZ79PO9Q","either","5","898","","","","","","","1","0","0","0.268616347","","0.2","0.4","0.8","0.6","","","","","0.268616347","0.3748569955","0.1307356695","0.01092542651","","","","","","","","72","H","0","img/none_selected.jpg","","66","main_expt"
"","bandit","146","1535073","0.0-107.0-0.0","05055147","wem/bandit_either_2","APO6KZZ79PO9Q","either","5","499","","","","","","","0","0","1","0.259194563","","0.2","0.4","0.8","0.6","","","","","0.259194563","0.335252031","0.1418436428","0.02125534741","","","","","","","","72","H","0","img/none_selected.jpg","","67","main_expt"
"","bandit","147","1536935","0.0-108.0-0.0","05055147","wem/bandit_either_2","APO6KZZ79PO9Q","either","5","344","","","","","","","0","0","1","0.1459089566","","0.2","0.4","0.8","0.6","","","","","0.2281204868","0.3199157278","0.1459089566","0.02360283027","","","","","","","","75","K","2","","","68","main_expt"
"","bandit","148","1538678","0.0-109.0-0.0","05055147","wem/bandit_either_2","APO6KZZ79PO9Q","either","5","221","","","","","","","0","1","0","","0.02539305756","0.2","0.4","0.8","0.6","0.2195844169","0.3068525281","0.1809721424","0.02539305756","","","","","","","","","","","","76","L","3","","","69","main_expt"
"","bandit","149","1540594","0.0-110.0-0.0","05055147","wem/bandit_either_2","APO6KZZ79PO9Q","either","5","403","","","","","","","0","0","1","","0.05014388586","0.2","0.4","0.8","0.6","0.1883338509","0.3181076016","0.1784068974","0.05014388586","","","","","","","","","","","","76","L","3","","","70","main_expt"
"","bandit","150","1543506","0.0-111.0-0.0","05055147","wem/bandit_either_2","APO6KZZ79PO9Q","either","5","1367","","","","","","","0","0","1","","0.1973023396","0.2","0.4","0.8","0.6","0.1639708178","0.2926426422","0.1973023396","0.04209054697","","","","","","","","","","","","75","K","2","","","71","main_expt"
"","bandit","151","1546347","0.0-112.0-0.0","05055147","wem/bandit_either_2","APO6KZZ79PO9Q","either","5","1304","","","","","","","0","1","0","","0.2380263643","0.2","0.4","0.8","0.6","0.1312842785","0.2380263643","0.2436342847","0.05611199342","","","","","","","","","","","","74","J","1","","","72","main_expt"
"","bandit","152","1550160","0.0-113.0-0.0","05055147","wem/bandit_either_2","APO6KZZ79PO9Q","either","5","2273","","","","","","","0","0","1","","0.2407197948","0.2","0.4","0.8","0.6","0.1805041857","0.2407197948","0.1992173182","0.05293238473","","","","","","","","","","","","74","J","1","","","73","main_expt"
"","bandit","153","1552978","0.0-114.0-0.0","05055147","wem/bandit_either_2","APO6KZZ79PO9Q","either","5","1296","","","","","","","0","0","1","","0.1739557812","0.2","0.4","0.8","0.6","0.1739557812","0.2317468449","0.2347098304","0.0318456884","","","","","","","","","","","","72","H","0","img/none_selected.jpg","","74","main_expt"
"","bandit","154","1555534","0.0-115.0-0.0","05055147","wem/bandit_either_2","APO6KZZ79PO9Q","either","5","1041","","","","","","","1","0","0","0.2434916027","","0.2","0.4","0.8","0.6","","","","","0.2434916027","0.2545997551","0.2641442137","0.03873230677","","","","","","","","72","H","0","img/none_selected.jpg","","75","main_expt"
"","bandit","155","1560316","0.0-116.0-0.0","05055147","wem/bandit_either_2","APO6KZZ79PO9Q","either","5","3256","","","","","","","0","0","1","","0.2890845388","0.2","0.4","0.8","0.6","0.2438468568","0.2890845388","0.3192644053","0.03304947682","","","","","","","","","","","","74","J","1","","","76","main_expt"
"","bandit","156","1563507","0.0-117.0-0.0","05055147","wem/bandit_either_2","APO6KZZ79PO9Q","either","5","1669","","","","","","","0","0","1","","0.02607887458","0.2","0.4","0.8","0.6","0.2425324642","0.2386362654","0.3351132613","0.02607887458","","","","","","","","","","","","76","L","3","","","77","main_expt"
"","bandit","157","1565714","0.0-118.0-0.0","05055147","wem/bandit_either_2","APO6KZZ79PO9Q","either","5","651","","","","","","","1","0","0","0.3086784207","","0.2","0.4","0.8","0.6","","","","","0.205588479","0.2673679704","0.3086784207","0.02492981692","","","","","","","","75","K","2","","","78","main_expt"
"","bandit","158","1568206","0.0-119.0-0.0","05055147","wem/bandit_either_2","APO6KZZ79PO9Q","either","5","958","","","","","","","0","0","1","","0.213062191","0.2","0.4","0.8","0.6","0.213062191","0.2813811921","0.3076482073","0.01824110002","","","","","","","","","","","","72","H","0","img/none_selected.jpg","","79","main_expt"
"","bandit","159","1570089","0.0-120.0-0.0","05055147","wem/bandit_either_2","APO6KZZ79PO9Q","either","5","370","","","","","","","0","0","1","0.2419447949","","0.2","0.4","0.8","0.6","","","","","0.1852926048","0.2419447949","0.3605025214","0.0202176162","","","","","","","","74","J","1","","","80","main_expt"
"","bandit","160","1571979","0.0-121.0-0.0","05055147","wem/bandit_either_2","APO6KZZ79PO9Q","either","5","374","","","","","","","0","1","0","","0.2332942271","0.2","0.4","0.8","0.6","0.2332942271","0.323481111","0.3286166321","0.0252752587","","","","","","","","","","","","72","H","0","img/none_selected.jpg","","81","main_expt"
"","bandit","161","1573816","0.0-122.0-0.0","05055147","wem/bandit_either_2","APO6KZZ79PO9Q","either","5","293","","","","","","","0","0","1","","0.2087797338","0.2","0.4","0.8","0.6","0.2087797338","0.3097244961","0.3459677762","0.05668457717","","","","","","","","","","","","72","H","0","img/none_selected.jpg","","82","main_expt"
"","bandit","162","1577548","0.0-123.0-0.0","05055147","wem/bandit_either_2","APO6KZZ79PO9Q","either","5","2190","","","","","","","0","0","1","","0.2787498647","0.2","0.4","0.8","0.6","0.2049979043","0.2787498647","0.3092751195","0.07760530004","","","","","","","","","","","","74","J","1","","","83","main_expt"
"","bandit","163","1580258","0.0-124.0-0.0","05055147","wem/bandit_either_2","APO6KZZ79PO9Q","either","5","1194","","","","","","","0","0","1","0.2151780091","","0.2","0.4","0.8","0.6","","","","","0.2151780091","0.2589524449","0.3044630387","0.03696005566","","","","","","","","72","H","0","img/none_selected.jpg","","84","main_expt"
"","bandit","164","1581790","0.0-125.0-0.0","05055147","wem/bandit_either_2","APO6KZZ79PO9Q","either","5","12","","","","","","","0","0","1","0.04177257934","","0.2","0.4","0.8","0.6","","","","","0.1497615914","0.2769318636","0.2812480587","0.04177257934","","","","","","","","76","L","3","","","85","main_expt"
"","bandit","165","1584611","0.0-126.0-0.0","05055147","wem/bandit_either_2","APO6KZZ79PO9Q","either","5","1304","","","","","","","0","0","1","0.2506532223","","0.2","0.4","0.8","0.6","","","","","0.1223687677","0.2849222391","0.2506532223","0.0385770192","","","","","","","","75","K","2","","","86","main_expt"
"","bandit","166","1586267","0.0-127.0-0.0","05055147","wem/bandit_either_2","APO6KZZ79PO9Q","either","5","121","","","","","","","0","0","1","0.03720252147","","0.2","0.4","0.8","0.6","","","","","0.1472857413","0.3131087309","0.2269900387","0.03720252147","","","","","","","","76","L","3","","","87","main_expt"
"","bandit","167","1588562","0.0-128.0-0.0","05055147","wem/bandit_either_2","APO6KZZ79PO9Q","either","5","770","","","","","","","0","0","1","","0.3038587512","0.2","0.4","0.8","0.6","0.1252586248","0.3038587512","0.1504729919","0.06746059371","","","","","","","","","","","","74","J","1","","","88","main_expt"
"","bandit","168","1590980","0.0-129.0-0.0","05055147","wem/bandit_either_2","APO6KZZ79PO9Q","either","5","899","","","","","","","0","0","1","0.1194927994","","0.2","0.4","0.8","0.6","","","","","0.1194927994","0.3308022157","0.1382070302","0.04069757945","","","","","","","","72","H","0","img/none_selected.jpg","","89","main_expt"
"","bandit","169","1593254","0.0-130.0-0.0","05055147","wem/bandit_either_2","APO6KZZ79PO9Q","either","5","731","","","","","","","1","0","0","0.1589750007","","0.2","0.4","0.8","0.6","","","","","0.1589750007","0.3574922351","0.1364765349","0.07325379503","","","","","","","","72","H","0","img/none_selected.jpg","","90","main_expt"
"","bandit","170","1595122","0.0-131.0-0.0","05055147","wem/bandit_either_2","APO6KZZ79PO9Q","either","5","354","","","","","","","0","0","1","","0.1859960426","0.2","0.4","0.8","0.6","0.1859960426","0.3729517688","0.09318196272","0.06877471811","","","","","","","","","","","","72","H","0","img/none_selected.jpg","","91","main_expt"
"","bandit","171","1597363","0.0-132.0-0.0","05055147","wem/bandit_either_2","APO6KZZ79PO9Q","either","5","717","","","","","","","0","0","1","","0.398352994","0.2","0.4","0.8","0.6","0.192419488","0.398352994","0.06946097624","0.04115987362","","","","","","","","","","","","74","J","1","","","92","main_expt"
"","bandit","172","1599035","0.0-133.0-0.0","05055147","wem/bandit_either_2","APO6KZZ79PO9Q","either","5","158","","","","","","","0","0","1","0.08102832817","","0.2","0.4","0.8","0.6","","","","","0.1716033463","0.4135860398","0.08102832817","0.07078892783","","","","","","","","75","K","2","","","93","main_expt"
"","bandit","173","1603935","0.0-134.0-0.0","05055147","wem/bandit_either_2","APO6KZZ79PO9Q","either","5","3364","","","","","","","0","0","1","0.05572868433","","0.2","0.4","0.8","0.6","","","","","0.1935897604","0.3786880174","0.1271360848","0.05572868433","","","","","","","","76","L","3","","","94","main_expt"
"","bandit","174","1608886","0.0-135.0-0.0","05055147","wem/bandit_either_2","APO6KZZ79PO9Q","either","5","3423","","","","","","","0","0","1","0.1097592989","","0.2","0.4","0.8","0.6","","","","","0.2193228015","0.3823424718","0.1097592989","0.05056929995","","","","","","","","75","K","2","","","95","main_expt"
"","bandit","175","1610972","0.0-136.0-0.0","05055147","wem/bandit_either_2","APO6KZZ79PO9Q","either","5","568","","","","","","","0","0","1","0.04159874267","","0.2","0.4","0.8","0.6","","","","","0.3262643469","0.3642725552","0.1085490834","0.04159874267","","","","","","","","76","L","3","","","96","main_expt"
"","bandit","176","1612767","0.0-137.0-0.0","05055147","wem/bandit_either_2","APO6KZZ79PO9Q","either","5","276","","","","","","","0","0","1","","0.3197717944","0.2","0.4","0.8","0.6","0.3207405496","0.3197717944","0.1049812554","0.03654451862","","","","","","","","","","","","74","J","1","","","97","main_expt"
"","bandit","177","1614671","0.0-138.0-0.0","05055147","wem/bandit_either_2","APO6KZZ79PO9Q","either","5","372","","","","","","","0","0","1","","0.3712856991","0.2","0.4","0.8","0.6","0.3712856991","0.2514424369","0.08177978443","0.04190300095","","","","","","","","","","","","72","H","0","img/none_selected.jpg","","98","main_expt"
"","bandit","178","1616545","0.0-139.0-0.0","05055147","wem/bandit_either_2","APO6KZZ79PO9Q","either","5","353","","","","","","","0","0","1","0.2926772137","","0.2","0.4","0.8","0.6","","","","","0.3740145378","0.2926772137","0.07574087804","0.08742990617","","","","","","","","74","J","1","","","99","main_expt"
"","bandit","179","1618568","0.0-140.0-0.0","05055147","wem/bandit_either_2","APO6KZZ79PO9Q","either","5","495","","","","","","","0","0","1","0.07829319678","","0.2","0.4","0.8","0.6","","","","","0.3776295542","0.234485335","0.07829319678","0.08966523481","","","","","","","","75","K","2","","","100","main_expt"
"","bandit","180","1621976","0.0-141.0-0.0","05055147","wem/bandit_either_2","APO6KZZ79PO9Q","either","5","1861","","","","","","","0","0","1","","0.3592666398","0.2","0.4","0.8","0.6","0.3592666398","0.250352175","0.07919243683","0.07849065771","","","","","","","","","","","","72","H","0","img/none_selected.jpg","","101","main_expt"
"","bandit","181","1623668","0.0-142.0-0.0","05055147","wem/bandit_either_2","APO6KZZ79PO9Q","either","5","161","","","","","","","0","0","1","","0.3412191773","0.2","0.4","0.8","0.6","0.3412191773","0.2139972863","0.1052753188","0.1054267613","","","","","","","","","","","","72","H","0","img/none_selected.jpg","","102","main_expt"
"","bandit","182","1625579","0.0-143.0-0.0","05055147","wem/bandit_either_2","APO6KZZ79PO9Q","either","5","396","","","","","","","0","0","1","","0.20092706","0.2","0.4","0.8","0.6","0.3133100433","0.20092706","0.1248526142","0.1120981937","","","","","","","","","","","","74","J","1","","","103","main_expt"
"","bandit","183","1627697","0.0-144.0-0.0","05055147","wem/bandit_either_2","APO6KZZ79PO9Q","either","5","600","","","","","","","0","0","1","","0.142969925","0.2","0.4","0.8","0.6","0.3219148419","0.2305366804","0.142969925","0.1034740879","","","","","","","","","","","","75","K","2","","","104","main_expt"
"","bandit","184","1630107","0.0-145.0-0.0","05055147","wem/bandit_either_2","APO6KZZ79PO9Q","either","5","862","","","","","","","0","0","1","","0.07597240327","0.2","0.4","0.8","0.6","0.3300892518","0.2102135581","0.13947254","0.07597240327","","","","","","","","","","","","76","L","3","","","105","main_expt"
"","bandit","185","1632003","0.0-146.0-0.0","05055147","wem/bandit_either_2","APO6KZZ79PO9Q","either","5","381","","","","","","","0","0","1","0.1124257427","","0.2","0.4","0.8","0.6","","","","","0.3401839058","0.2219457329","0.1329526997","0.1124257427","","","","","","","","76","L","3","","","106","main_expt"
"","bandit","186","1633884","0.0-147.0-0.0","05055147","wem/bandit_either_2","APO6KZZ79PO9Q","either","5","364","","","","","","","0","0","1","0.1727290233","","0.2","0.4","0.8","0.6","","","","","0.3784706915","0.3048423019","0.1727290233","0.1133168519","","","","","","","","75","K","2","","","107","main_expt"
"","bandit","187","1635914","0.0-148.0-0.0","05055147","wem/bandit_either_2","APO6KZZ79PO9Q","either","5","507","","","","","","","0","0","1","","0.1752395656","0.2","0.4","0.8","0.6","0.3945753887","0.258150515","0.1864487031","0.1752395656","","","","","","","","","","","","76","L","3","","","108","main_expt"
"","bandit","188","1637970","0.0-149.0-0.0","05055147","wem/bandit_either_2","APO6KZZ79PO9Q","either","5","520","","","","","","","0","0","1","","0.1859129148","0.2","0.4","0.8","0.6","0.356827327","0.1859129148","0.2463216238","0.1862973424","","","","","","","","","","","","74","J","1","","","109","main_expt"
"","bandit","189","1640152","0.0-150.0-0.0","05055147","wem/bandit_either_2","APO6KZZ79PO9Q","either","5","628","","","","","","","0","0","1","0.2344179837","","0.2","0.4","0.8","0.6","","","","","0.2344179837","0.1371624404","0.2431522628","0.2015845776","","","","","","","","72","H","0","img/none_selected.jpg","","110","main_expt"
"","bandit","190","1642311","0.0-151.0-0.0","05055147","wem/bandit_either_2","APO6KZZ79PO9Q","either","5","620","","","","","","","0","0","1","","0.1258232978","0.2","0.4","0.8","0.6","0.2644823096","0.1258232978","0.1757476643","0.2003651753","","","","","","","","","","","","74","J","1","","","111","main_expt"
"","bandit","191","1644223","0.0-152.0-0.0","05055147","wem/bandit_either_2","APO6KZZ79PO9Q","either","5","392","","","","","","","0","0","1","","0.28311182","0.2","0.4","0.8","0.6","0.28311182","0.1529967373","0.2451518953","0.21392293","","","","","","","","","","","","72","H","0","img/none_selected.jpg","","112","main_expt"
"","bandit","192","1646182","0.0-153.0-0.0","05055147","wem/bandit_either_2","APO6KZZ79PO9Q","either","5","440","","","","","","","0","0","1","0.2407836715","","0.2","0.4","0.8","0.6","","","","","0.2413269532","0.148248117","0.2407836715","0.1606798039","","","","","","","","75","K","2","","","113","main_expt"
"","bandit","193","1648249","0.0-154.0-0.0","05055147","wem/bandit_either_2","APO6KZZ79PO9Q","either","5","545","","","","","","","0","0","1","0.2095980235","","0.2","0.4","0.8","0.6","","","","","0.3100969134","0.1562208239","0.3099317417","0.2095980235","","","","","","","","76","L","3","","","114","main_expt"
"","bandit","194","1650263","0.0-155.0-0.0","05055147","wem/bandit_either_2","APO6KZZ79PO9Q","either","5","498","","","","","","","0","0","1","","0.3180754701","0.2","0.4","0.8","0.6","0.329842252","0.2138032898","0.3180754701","0.2550279667","","","","","","","","","","","","75","K","2","","","115","main_expt"
"","bandit","195","1652316","0.0-156.0-0.0","05055147","wem/bandit_either_2","APO6KZZ79PO9Q","either","5","520","","","","","","","0","0","1","","0.2471764387","0.2","0.4","0.8","0.6","0.3223706096","0.2331260325","0.2919742107","0.2471764387","","","","","","","","","","","","76","L","3","","","116","main_expt"
"","bandit","196","1654171","0.0-157.0-0.0","05055147","wem/bandit_either_2","APO6KZZ79PO9Q","either","5","338","","","","","","","0","0","1","","0.1826309729","0.2","0.4","0.8","0.6","0.3098408215","0.1826309729","0.2799774295","0.2730878341","","","","","","","","","","","","74","J","1","","","117","main_expt"
"","bandit","197","1656086","0.0-158.0-0.0","05055147","wem/bandit_either_2","APO6KZZ79PO9Q","either","5","372","","","","","","","0","0","1","0.2646714695","","0.2","0.4","0.8","0.6","","","","","0.2974554567","0.1511269107","0.2646714695","0.2071462199","","","","","","","","75","K","2","","","118","main_expt"
"","bandit","198","1657995","0.0-159.0-0.0","05055147","wem/bandit_either_2","APO6KZZ79PO9Q","either","5","369","","","","","","","0","0","1","0.3598468986","","0.2","0.4","0.8","0.6","","","","","0.3598468986","0.1559979654","0.3179839519","0.2275232499","","","","","","","","72","H","0","img/none_selected.jpg","","119","main_expt"
"","bandit","199","1659913","0.0-160.0-0.0","05055147","wem/bandit_either_2","APO6KZZ79PO9Q","either","5","378","","","","","","","0","0","1","","0.2984373086","0.2","0.4","0.8","0.6","0.2984373086","0.1463004055","0.3302262658","0.2767559596","","","","","","","","","","","","72","H","0","img/none_selected.jpg","","120","main_expt"
"","bandit","200","1661796","0.0-161.0-0.0","05055147","wem/bandit_either_2","APO6KZZ79PO9Q","either","5","325","","","","","","","0","0","1","","0.1418195479","0.2","0.4","0.8","0.6","0.2973090059","0.1418195479","0.3500549905","0.3448590315","","","","","","","","","","","","74","J","1","","","121","main_expt"
"","bandit","201","1663603","0.0-162.0-0.0","05055147","wem/bandit_either_2","APO6KZZ79PO9Q","either","5","289","","","","","","","0","0","1","","0.3593301016","0.2","0.4","0.8","0.6","0.3382791822","0.1270782113","0.2686616284","0.3593301016","","","","","","","","","","","","76","L","3","","","122","main_expt"
"","bandit","202","1665501","0.0-163.0-0.0","05055147","wem/bandit_either_2","APO6KZZ79PO9Q","either","5","379","","","","","","","1","0","0","0.2277230314","","0.2","0.4","0.8","0.6","","","","","0.3154347028","0.1207154071","0.2277230314","0.3680529171","","","","","","","","75","K","2","","","123","main_expt"
"","bandit","203","1667701","0.0-164.0-0.0","05055147","wem/bandit_either_2","APO6KZZ79PO9Q","either","5","658","","","","","","","0","0","1","0.3287090939","","0.2","0.4","0.8","0.6","","","","","0.2966737815","0.1229329119","0.3287090939","0.3476523483","","","","","","","","75","K","2","","","124","main_expt"
"","bandit","204","1669858","0.0-165.0-0.0","05055147","wem/bandit_either_2","APO6KZZ79PO9Q","either","5","641","","","","","","","0","0","1","0.09241122996","","0.2","0.4","0.8","0.6","","","","","0.3094831126","0.09241122996","0.3687339586","0.3564603465","","","","","","","","74","J","1","","","125","main_expt"
"","bandit","205","1672532","0.0-166.0-0.0","05055147","wem/bandit_either_2","APO6KZZ79PO9Q","either","5","1136","","","","","","","0","1","0","","0.3836195774","0.2","0.4","0.8","0.6","0.2488993205","0.08418962236","0.3836195774","0.3550684458","","","","","","","","","","","","75","K","2","","","126","main_expt"
"","bandit","206","1675477","0.0-167.0-0.0","05055147","wem/bandit_either_2","APO6KZZ79PO9Q","either","5","1420","","","","","","","0","0","1","0.3617365958","","0.2","0.4","0.8","0.6","","","","","0.1953487027","0.154715772","0.3617365958","0.3235559827","","","","","","","","75","K","2","","","127","main_expt"
"","bandit","207","1677699","0.0-168.0-0.0","05055147","wem/bandit_either_2","APO6KZZ79PO9Q","either","5","689","","","","","","","0","0","1","0.1556709078","","0.2","0.4","0.8","0.6","","","","","0.2171889907","0.1556709078","0.3235283493","0.312087491","","","","","","","","74","J","1","","","128","main_expt"
"","bandit","208","1679737","0.0-169.0-0.0","05055147","wem/bandit_either_2","APO6KZZ79PO9Q","either","5","523","","","","","","","0","0","1","0.3453830546","","0.2","0.4","0.8","0.6","","","","","0.2467699801","0.1214200615","0.3453830546","0.2843272188","","","","","","","","75","K","2","","","129","main_expt"
"","bandit","209","1681633","0.0-170.0-0.0","05055147","wem/bandit_either_2","APO6KZZ79PO9Q","either","5","377","","","","","","","0","0","1","0.2128416856","","0.2","0.4","0.8","0.6","","","","","0.2814443482","0.1377283829","0.3242747857","0.2128416856","","","","","","","","76","L","3","","","130","main_expt"
"","bandit","210","1683727","0.0-171.0-0.0","05055147","wem/bandit_either_2","APO6KZZ79PO9Q","either","5","489","","","","","","","0","0","1","0.2834176508","","0.2","0.4","0.8","0.6","","","","","0.2834176508","0.1397421628","0.3417201858","0.2403879813","","","","","","","","72","H","0","img/none_selected.jpg","","131","main_expt"
"","bandit","211","1685620","0.0-172.0-0.0","05055147","wem/bandit_either_2","APO6KZZ79PO9Q","either","5","372","","","","","","","0","0","1","0.1061875113","","0.2","0.4","0.8","0.6","","","","","0.2429908031","0.1061875113","0.3498614837","0.2811421594","","","","","","","","74","J","1","","","132","main_expt"
"","bandit","212","1688137","0.0-173.0-0.0","05055147","wem/bandit_either_2","APO6KZZ79PO9Q","either","5","978","","","","","","","0","0","1","0.3134828643","","0.2","0.4","0.8","0.6","","","","","0.3053559495","0.07774811701","0.3134828643","0.3002858371","","","","","","","","75","K","2","","","133","main_expt"
"","bandit","213","1690110","0.0-174.0-0.0","05055147","wem/bandit_either_2","APO6KZZ79PO9Q","either","5","424","","","","","","","0","0","1","","0.277406375","0.2","0.4","0.8","0.6","0.2693478067","0.08211281178","0.3554593188","0.277406375","","","","","","","","","","","","76","L","3","","","134","main_expt"
"","bandit","214","1709260","0.0-175.0-0.0","05055147","wem/bandit_either_2","APO6KZZ79PO9Q","either","5","17628","","","","","","","0","0","1","0.3150900126","","0.2","0.4","0.8","0.6","","","","","0.3369166079","0.1123817552","0.3150900126","0.2897147582","","","","","","","","75","K","2","","","135","main_expt"
"","bandit","215","1711181","0.0-176.0-0.0","05055147","wem/bandit_either_2","APO6KZZ79PO9Q","either","5","347","","","","","","","0","0","1","","0.3590576628","0.2","0.4","0.8","0.6","0.268603144","0.1478339482","0.3199395785","0.3590576628","","","","","","","","","","","","76","L","3","","","136","main_expt"
"","bandit","216","1714092","0.0-177.0-0.0","05055147","wem/bandit_either_2","APO6KZZ79PO9Q","either","5","1378","","","","","","","0","0","1","","0.1374936615","0.2","0.4","0.8","0.6","0.2373427956","0.1374936615","0.33362357","0.3822427384","","","","","","","","","","","","74","J","1","","","137","main_expt"
"","bandit","217","1715920","0.0-178.0-0.0","05055147","wem/bandit_either_2","APO6KZZ79PO9Q","either","5","306","","","","","","","0","0","1","0.3611324022","","0.2","0.4","0.8","0.6","","","","","0.2206869265","0.159761955","0.3611324022","0.3410071165","","","","","","","","75","K","2","","","138","main_expt"
"","bandit","218","1717819","0.0-179.0-0.0","05055147","wem/bandit_either_2","APO6KZZ79PO9Q","either","5","341","","","","","","","1","0","0","0.3504145086","","0.2","0.4","0.8","0.6","","","","","0.2177966349","0.1363721132","0.3504145086","0.3738014659","","","","","","","","75","K","2","","","139","main_expt"
"","bandit","219","1719643","0.0-180.0-0.0","05055147","wem/bandit_either_2","APO6KZZ79PO9Q","either","5","305","","","","","","","0","0","1","0.309774603","","0.2","0.4","0.8","0.6","","","","","0.2387685432","0.1031445192","0.309774603","0.422575493","","","","","","","","75","K","2","","","140","main_expt"
"","bandit","220","1721474","0.0-181.0-0.0","05055147","wem/bandit_either_2","APO6KZZ79PO9Q","either","5","310","","","","","","","0","0","1","0.3506531288","","0.2","0.4","0.8","0.6","","","","","0.2575087366","0.09805286369","0.3506531288","0.4439129864","","","","","","","","75","K","2","","","141","main_expt"
"","bandit","221","1723385","0.0-182.0-0.0","05055147","wem/bandit_either_2","APO6KZZ79PO9Q","either","5","376","","","","","","","1","0","0","0.1149002948","","0.2","0.4","0.8","0.6","","","","","0.2392038972","0.1149002948","0.2965027242","0.4323802182","","","","","","","","74","J","1","","","142","main_expt"
"","bandit","222","1725308","0.0-183.0-0.0","05055147","wem/bandit_either_2","APO6KZZ79PO9Q","either","5","400","","","","","","","0","0","1","0.2087517366","","0.2","0.4","0.8","0.6","","","","","0.2216470548","0.1209542099","0.2087517366","0.4358412593","","","","","","","","75","K","2","","","143","main_expt"
"","bandit","223","1727137","0.0-184.0-0.0","05055147","wem/bandit_either_2","APO6KZZ79PO9Q","either","5","310","","","","","","","0","0","1","0.1202521083","","0.2","0.4","0.8","0.6","","","","","0.2224896139","0.1202521083","0.2313605626","0.4407373256","","","","","","","","74","J","1","","","144","main_expt"
"","bandit","224","1729178","0.0-185.0-0.0","05055147","wem/bandit_either_2","APO6KZZ79PO9Q","either","5","523","","","","","","","0","1","0","","0.1619743669","0.2","0.4","0.8","0.6","0.1925605464","0.1619743669","0.1785565547","0.4661091035","","","","","","","","","","","","74","J","1","","","145","main_expt"
"","bandit","225","1731033","0.0-186.0-0.0","05055147","wem/bandit_either_2","APO6KZZ79PO9Q","either","5","309","","","","","","","0","0","1","0.1664631043","","0.2","0.4","0.8","0.6","","","","","0.2069800611","0.1664631043","0.1770660648","0.4637097668","","","","","","","","74","J","1","","","146","main_expt"
"","bandit","226","1732855","0.0-187.0-0.0","05055147","wem/bandit_either_2","APO6KZZ79PO9Q","either","5","256","","","","","","","0","0","1","","0.1669241763","0.2","0.4","0.8","0.6","0.2489662189","0.1669241763","0.1063371611","0.4700491642","","","","","","","","","","","","74","J","1","","","147","main_expt"
"","bandit","227","1734771","0.0-188.0-0.0","05055147","wem/bandit_either_2","APO6KZZ79PO9Q","either","5","387","","","","","","","0","0","1","","0.1946464158","0.2","0.4","0.8","0.6","0.1946464158","0.1581456949","0.1216370817","0.4648109734","","","","","","","","","","","","72","H","0","img/none_selected.jpg","","148","main_expt"
"","bandit","228","1736622","0.0-189.0-0.0","05055147","wem/bandit_either_2","APO6KZZ79PO9Q","either","5","315","","","","","","","0","0","1","","0.1698392466","0.2","0.4","0.8","0.6","0.1826562491","0.1698392466","0.1024256959","0.4635511513","","","","","","","","","","","","74","J","1","","","149","main_expt"
"","bandit","229","1738569","0.0-190.0-0.0","05055147","wem/bandit_either_2","APO6KZZ79PO9Q","either","5","415","","","","","","","0","0","1","","0.1750473563","0.2","0.4","0.8","0.6","0.1750473563","0.2140114634","0.1371094633","0.4445017148","","","","","","","","","","","","72","H","0","img/none_selected.jpg","","150","main_expt"
"","bandit","230","1740553","0.0-191.0-0.0","05055147","wem/bandit_either_2","APO6KZZ79PO9Q","either","5","463","","","","","","","0","0","1","","0.1702433702","0.2","0.4","0.8","0.6","0.1109536645","0.2392960001","0.1702433702","0.4434799742","","","","","","","","","","","","75","K","2","","","151","main_expt"
"","bandit","231","1742398","0.0-192.0-0.0","05055147","wem/bandit_either_2","APO6KZZ79PO9Q","either","5","318","","","","","","","0","0","1","0.4451665291","","0.2","0.4","0.8","0.6","","","","","0.1143086707","0.2095863317","0.1860489046","0.4451665291","","","","","","","","76","L","3","","","152","main_expt"
"","bandit","232","1744291","0.0-193.0-0.0","05055147","wem/bandit_either_2","APO6KZZ79PO9Q","either","5","327","","","","","","","0","0","1","0.2543258611","","0.2","0.4","0.8","0.6","","","","","0.1236290712","0.2543258611","0.2117094388","0.4401532833","","","","","","","","74","J","1","","","153","main_expt"
"","bandit","233","1746273","0.0-194.0-0.0","05055147","wem/bandit_either_2","APO6KZZ79PO9Q","either","5","466","","","","","","","0","0","1","","0.1600695342","0.2","0.4","0.8","0.6","0.1600695342","0.2602259906","0.2072389033","0.4516855879","","","","","","","","","","","","72","H","0","img/none_selected.jpg","","154","main_expt"
"","bandit","234","1748167","0.0-195.0-0.0","05055147","wem/bandit_either_2","APO6KZZ79PO9Q","either","5","346","","","","","","","0","1","0","","0.2750581274","0.2","0.4","0.8","0.6","0.1770288166","0.2750581274","0.1986333914","0.4480264808","","","","","","","","","","","","74","J","1","","","155","main_expt"
"","bandit","235","1750090","0.0-196.0-0.0","05055147","wem/bandit_either_2","APO6KZZ79PO9Q","either","5","403","","","","","","","0","0","1","0.2054640346","","0.2","0.4","0.8","0.6","","","","","0.1761817894","0.2438045727","0.2054640346","0.4260414265","","","","","","","","75","K","2","","","156","main_expt"
"","bandit","236","1752348","0.0-197.0-0.0","05055147","wem/bandit_either_2","APO6KZZ79PO9Q","either","5","723","","","","","","","0","0","1","0.1810715383","","0.2","0.4","0.8","0.6","","","","","0.1998830888","0.2857025143","0.1810715383","0.4365201507","","","","","","","","75","K","2","","","157","main_expt"
"","bandit","237","1754233","0.0-198.0-0.0","05055147","wem/bandit_either_2","APO6KZZ79PO9Q","either","5","368","","","","","","","1","0","0","0.4076244479","","0.2","0.4","0.8","0.6","","","","","0.2150354531","0.2887719476","0.2118906364","0.4076244479","","","","","","","","76","L","3","","","158","main_expt"
"","bandit","238","1756726","0.0-199.0-0.0","05055147","wem/bandit_either_2","APO6KZZ79PO9Q","either","5","952","","","","","","","0","0","1","0.2293976715","","0.2","0.4","0.8","0.6","","","","","0.2221069796","0.2859462397","0.2293976715","0.403953851","","","","","","","","75","K","2","","","159","main_expt"
"","bandit","239","1759713","0.0-200.0-0.0","05055147","wem/bandit_either_2","APO6KZZ79PO9Q","either","5","1457","","","","","","","1","0","0","0.4282135537","","0.2","0.4","0.8","0.6","","","","","0.2627335039","0.207432816","0.2186051381","0.4282135537","","","","","","","","76","L","3","","","160","main_expt"
"","bandit","240","1762545","0.0-201.0-0.0","05055147","wem/bandit_either_2","APO6KZZ79PO9Q","either","5","1313","","","","","","","1","0","0","0.4479073124","","0.2","0.4","0.8","0.6","","","","","0.2922457848","0.1611694724","0.2175927206","0.4479073124","","","","","","","","76","L","3","","","161","main_expt"
"","bandit","241","1764918","0.0-202.0-0.0","05055147","wem/bandit_either_2","APO6KZZ79PO9Q","either","5","827","","","","","","","1","0","0","0.2370404117","","0.2","0.4","0.8","0.6","","","","","0.3040212123","0.14378348","0.2370404117","0.4456201243","","","","","","","","75","K","2","","","162","main_expt"
"","bandit","242","1768258","0.0-203.0-0.0","05055147","wem/bandit_either_2","APO6KZZ79PO9Q","either","5","1821","","","","","","","0","0","1","0.4384930657","","0.2","0.4","0.8","0.6","","","","","0.2933359027","0.1707099899","0.2778780432","0.4384930657","","","","","","","","76","L","3","","","163","main_expt"
"","bandit","243","1770596","0.0-204.0-0.0","05055147","wem/bandit_either_2","APO6KZZ79PO9Q","either","5","820","","","","","","","0","0","1","0.2643388611","","0.2","0.4","0.8","0.6","","","","","0.2388203062","0.1933693166","0.2643388611","0.4231568034","","","","","","","","75","K","2","","","164","main_expt"
"","bandit","244","1772865","0.0-205.0-0.0","05055147","wem/bandit_either_2","APO6KZZ79PO9Q","either","5","743","","","","","","","0","0","1","","0.2406324952","0.2","0.4","0.8","0.6","0.2646204916","0.2406324952","0.1967204453","0.4412535734","","","","","","","","","","","","74","J","1","","","165","main_expt"
"","bandit","245","1775026","0.0-206.0-0.0","05055147","wem/bandit_either_2","APO6KZZ79PO9Q","either","5","643","","","","","","","0","1","0","","0.2591758032","0.2","0.4","0.8","0.6","0.2591758032","0.2650462377","0.1567937345","0.438364003","","","","","","","","","","","","72","H","0","img/none_selected.jpg","","166","main_expt"
"","bandit","246","1778129","0.0-207.0-0.0","05055147","wem/bandit_either_2","APO6KZZ79PO9Q","either","5","1584","","","","","","","0","0","1","0.245875583","","0.2","0.4","0.8","0.6","","","","","0.1955934818","0.245875583","0.1201482918","0.4290991351","","","","","","","","74","J","1","","","167","main_expt"
"","bandit","247","1780429","0.0-208.0-0.0","05055147","wem/bandit_either_2","APO6KZZ79PO9Q","either","5","763","","","","","","","0","0","1","0.0936051119","","0.2","0.4","0.8","0.6","","","","","0.2090603634","0.257303599","0.0936051119","0.4510860662","","","","","","","","75","K","2","","","168","main_expt"
"","bandit","248","1782830","0.0-209.0-0.0","05055147","wem/bandit_either_2","APO6KZZ79PO9Q","either","5","879","","","","","","","0","0","1","","0.4491424364","0.2","0.4","0.8","0.6","0.2678479696","0.2993732043","0.08775096918","0.4491424364","","","","","","","","","","","","76","L","3","","","169","main_expt"
"","bandit","249","1785344","0.0-210.0-0.0","05055147","wem/bandit_either_2","APO6KZZ79PO9Q","either","5","983","","","","","","","0","0","1","","0.2532125956","0.2","0.4","0.8","0.6","0.2532125956","0.3388977639","0.06743429675","0.4332244901","","","","","","","","","","","","72","H","0","img/none_selected.jpg","","170","main_expt"
"","bandit","250","1787372","0.0-211.0-0.0","05055147","wem/bandit_either_2","APO6KZZ79PO9Q","either","5","507","","","","","","","0","1","0","","0.2947926635","0.2","0.4","0.8","0.6","0.2568627054","0.2947926635","0.05979118822","0.4405036994","","","","","","","","","","","","74","J","1","","","171","main_expt"
"","bandit","251","1791673","0.0-212.0-0.0","05055147","wem/bandit_either_2","APO6KZZ79PO9Q","either","5","2780","","","","","","","1","0","0","0.2892529657","","0.2","0.4","0.8","0.6","","","","","0.2451563353","0.2892529657","0.03200499914","0.4358521759","","","","","","","","74","J","1","","","172","main_expt"
"","bandit","252","1794515","0.0-213.0-0.0","05055147","wem/bandit_either_2","APO6KZZ79PO9Q","either","5","1292","","","","","","","0","0","1","","0.3003395367","0.2","0.4","0.8","0.6","0.3003395367","0.2571917514","0.04613358223","0.4471617722","","","","","","","","","","","","72","H","0","img/none_selected.jpg","","173","main_expt"
"","bandit","253","1796190","0.0-214.0-0.0","05055147","wem/bandit_either_2","APO6KZZ79PO9Q","either","5","152","","","","","","","1","0","0","0.244173221","","0.2","0.4","0.8","0.6","","","","","0.2545998681","0.244173221","0.05969677181","0.4560251174","","","","","","","","74","J","1","","","174","main_expt"
"","bandit","254","1798065","0.0-215.0-0.0","05055147","wem/bandit_either_2","APO6KZZ79PO9Q","either","5","340","","","","","","","0","0","1","0.05930066603","","0.2","0.4","0.8","0.6","","","","","0.3383135611","0.2038098688","0.05930066603","0.4379349024","","","","","","","","75","K","2","","","175","main_expt"
"","bandit","255","1800508","0.0-216.0-0.0","05055147","wem/bandit_either_2","APO6KZZ79PO9Q","either","5","911","","","","","","","0","0","1","0.4328841116","","0.2","0.4","0.8","0.6","","","","","0.3880627729","0.2053823003","0.08110879181","0.4328841116","","","","","","","","76","L","3","","","176","main_expt"
"","bandit","256","1803124","0.0-217.0-0.0","05055147","wem/bandit_either_2","APO6KZZ79PO9Q","either","5","1072","","","","","","","0","0","1","0.07611568943","","0.2","0.4","0.8","0.6","","","","","0.3920994557","0.2193083282","0.07611568943","0.3965365967","","","","","","","","75","K","2","","","177","main_expt"
"","bandit","257","1804995","0.0-218.0-0.0","05055147","wem/bandit_either_2","APO6KZZ79PO9Q","either","5","354","","","","","","","0","1","0","","0.1904263594","0.2","0.4","0.8","0.6","0.3882277994","0.1904263594","0.1220467165","0.3899234309","","","","","","","","","","","","74","J","1","","","178","main_expt"
"","bandit","258","1807626","0.0-219.0-0.0","05055147","wem/bandit_either_2","APO6KZZ79PO9Q","either","5","1112","","","","","","","0","1","0","","0.3939691408","0.2","0.4","0.8","0.6","0.3939691408","0.2212788648","0.1698853315","0.4238443777","","","","","","","","","","","","72","H","0","img/none_selected.jpg","","179","main_expt"
"","bandit","259","1809841","0.0-220.0-0.0","05055147","wem/bandit_either_2","APO6KZZ79PO9Q","either","5","682","","","","","","","0","1","0","","0.2640717145","0.2","0.4","0.8","0.6","0.4074656662","0.2640717145","0.1374762061","0.4487400994","","","","","","","","","","","","74","J","1","","","180","main_expt"
"","bandit","260","1812445","0.0-221.0-0.0","05055147","wem/bandit_either_2","APO6KZZ79PO9Q","either","5","1060","","","","","","","0","0","1","","0.2426483564","0.2","0.4","0.8","0.6","0.3724421945","0.2426483564","0.09961924189","0.4314573438","","","","","","","","","","","","74","J","1","","","181","main_expt"
"","bandit","261","1814537","0.0-222.0-0.0","05055147","wem/bandit_either_2","APO6KZZ79PO9Q","either","5","572","","","","","","","0","0","1","0.1391043194","","0.2","0.4","0.8","0.6","","","","","0.2998177931","0.2001563476","0.1391043194","0.4458059303","","","","","","","","75","K","2","","","182","main_expt"
"","bandit","262","1818149","0.0-223.0-0.0","05055147","wem/bandit_either_2","APO6KZZ79PO9Q","either","5","2044","","","","","","","0","0","1","","0.3629728763","0.2","0.4","0.8","0.6","0.3629728763","0.2167094124","0.1336424596","0.4485460149","","","","","","","","","","","","72","H","0","img/none_selected.jpg","","183","main_expt"
"","bandit","263","1826525","0.0-224.0-0.0","05055147","wem/bandit_either_2","APO6KZZ79PO9Q","either","5","6810","","","","","","","0","1","0","","0.3763603645","0.2","0.4","0.8","0.6","0.3763603645","0.2402813617","0.115911235","0.4078350507","","","","","","","","","","","","72","H","0","img/none_selected.jpg","","184","main_expt"
"","bandit","264","1830001","0.0-225.0-0.0","05055147","wem/bandit_either_2","APO6KZZ79PO9Q","either","5","1953","","","","","","","1","0","0","0.2745112141","","0.2","0.4","0.8","0.6","","","","","0.3472982705","0.2745112141","0.1394203739","0.3805788675","","","","","","","","74","J","1","","","185","main_expt"
"","bandit","265","1832499","0.0-226.0-0.0","05055147","wem/bandit_either_2","APO6KZZ79PO9Q","either","5","973","","","","","","","1","0","0","0.2774566956","","0.2","0.4","0.8","0.6","","","","","0.3095995051","0.2774566956","0.1557479742","0.4236809331","","","","","","","","74","J","1","","","186","main_expt"
"","bandit","266","1834865","0.0-227.0-0.0","05055147","wem/bandit_either_2","APO6KZZ79PO9Q","either","5","849","","","","","","","0","1","0","","0.2876011691","0.2","0.4","0.8","0.6","0.2567332284","0.2876011691","0.1823611596","0.4058627081","","","","","","","","","","","","74","J","1","","","187","main_expt"
"","bandit","267","1836681","0.0-228.0-0.0","05055147","wem/bandit_either_2","APO6KZZ79PO9Q","either","5","295","","","","","","","0","0","1","","0.2947112378","0.2","0.4","0.8","0.6","0.2555256861","0.2947112378","0.1854179297","0.3913346521","","","","","","","","","","","","74","J","1","","","188","main_expt"
"","bandit","268","1838503","0.0-229.0-0.0","05055147","wem/bandit_either_2","APO6KZZ79PO9Q","either","5","303","","","","","","","0","0","1","0.1875645599","","0.2","0.4","0.8","0.6","","","","","0.2009875262","0.2581494","0.1875645599","0.3760164219","","","","","","","","75","K","2","","","189","main_expt"
"","bandit","269","1840422","0.0-230.0-0.0","05055147","wem/bandit_either_2","APO6KZZ79PO9Q","either","5","340","","","","","","","0","1","0","","0.2055488595","0.2","0.4","0.8","0.6","0.2055488595","0.1756323468","0.2018323604","0.3327352817","","","","","","","","","","","","72","H","0","img/none_selected.jpg","","190","main_expt"
"","bandit","270","1842297","0.0-231.0-0.0","05055147","wem/bandit_either_2","APO6KZZ79PO9Q","either","5","352","","","","","","","0","0","1","0.1506387864","","0.2","0.4","0.8","0.6","","","","","0.1506387864","0.2521570866","0.221094727","0.3015177445","","","","","","","","72","H","0","img/none_selected.jpg","","191","main_expt"
"","bandit","271","1844143","0.0-232.0-0.0","05055147","wem/bandit_either_2","APO6KZZ79PO9Q","either","5","319","","","","","","","0","1","0","","0.2964739449","0.2","0.4","0.8","0.6","0.2027442266","0.2964739449","0.2320570195","0.2773298268","","","","","","","","","","","","74","J","1","","","192","main_expt"
"","bandit","272","1845993","0.0-233.0-0.0","05055147","wem/bandit_either_2","APO6KZZ79PO9Q","either","5","328","","","","","","","0","0","1","0.2612966838","","0.2","0.4","0.8","0.6","","","","","0.1969137872","0.2612966838","0.2948950962","0.2836613797","","","","","","","","74","J","1","","","193","main_expt"
"","bandit","273","1847938","0.0-234.0-0.0","05055147","wem/bandit_either_2","APO6KZZ79PO9Q","either","5","426","","","","","","","0","0","1","","0.2114994946","0.2","0.4","0.8","0.6","0.2114994946","0.3292914436","0.2602906927","0.2799350415","","","","","","","","","","","","72","H","0","img/none_selected.jpg","","194","main_expt"
"","bandit","274","1849836","0.0-235.0-0.0","05055147","wem/bandit_either_2","APO6KZZ79PO9Q","either","5","352","","","","","","","0","0","1","0.1771499101","","0.2","0.4","0.8","0.6","","","","","0.2467939011","0.4070308407","0.1771499101","0.2068597772","","","","","","","","75","K","2","","","195","main_expt"
"","bandit","275","1851548","0.0-236.0-0.0","05055147","wem/bandit_either_2","APO6KZZ79PO9Q","either","5","189","","","","","","","0","1","0","","0.3494820729","0.2","0.4","0.8","0.6","0.2731811988","0.3494820729","0.1746274925","0.2679469531","","","","","","","","","","","","74","J","1","","","196","main_expt"
"","bandit","276","1853377","0.0-237.0-0.0","05055147","wem/bandit_either_2","APO6KZZ79PO9Q","either","5","307","","","","","","","0","1","0","","0.3571939809","0.2","0.4","0.8","0.6","0.2512114903","0.3571939809","0.193224684","0.2448078588","","","","","","","","","","","","74","J","1","","","197","main_expt"
"","bandit","277","1855317","0.0-238.0-0.0","05055147","wem/bandit_either_2","APO6KZZ79PO9Q","either","5","386","","","","","","","0","0","1","","0.382430028","0.2","0.4","0.8","0.6","0.190651112","0.382430028","0.1771509929","0.2433987968","","","","","","","","","","","","74","J","1","","","198","main_expt"
"","bandit","278","1857211","0.0-239.0-0.0","05055147","wem/bandit_either_2","APO6KZZ79PO9Q","either","5","365","","","","","","","0","0","1","0.3353474301","","0.2","0.4","0.8","0.6","","","","","0.1701189695","0.3353474301","0.2466668772","0.2653624242","","","","","","","","74","J","1","","","199","main_expt"
"","bandit","279","1859096","0.0-240.0-0.0","05055147","wem/bandit_either_2","APO6KZZ79PO9Q","either","5","353","","","","","","","1","0","0","0.2551376492","","0.2","0.4","0.8","0.6","","","","","0.1656975488","0.3321976498","0.2477816141","0.2551376492","","","","","","","","76","L","3","","","200","main_expt"
"","bandit","280","1860988","0.0-241.0-0.0","05055147","wem/bandit_either_2","APO6KZZ79PO9Q","either","5","364","","","","","","","0","1","0","","0.2660639347","0.2","0.4","0.8","0.6","0.1647298582","0.3218117355","0.2744817861","0.2660639347","","","","","","","","","","","","76","L","3","","","201","main_expt"
"","bandit","281","1862852","0.0-242.0-0.0","05055147","wem/bandit_either_2","APO6KZZ79PO9Q","either","5","345","","","","","","","0","0","1","","0.2220900594","0.2","0.4","0.8","0.6","0.1242041815","0.2949214693","0.3043062986","0.2220900594","","","","","","","","","","","","76","L","3","","","202","main_expt"
"","bandit","282","1864840","0.0-243.0-0.0","05055147","wem/bandit_either_2","APO6KZZ79PO9Q","either","5","452","","","","","","","0","0","1","0.1543353204","","0.2","0.4","0.8","0.6","","","","","0.1684487429","0.300077299","0.272185569","0.1543353204","","","","","","","","76","L","3","","","203","main_expt"
"","bandit","283","1866725","0.0-244.0-0.0","05055147","wem/bandit_either_2","APO6KZZ79PO9Q","either","5","339","","","","","","","0","0","1","0.2610767704","","0.2","0.4","0.8","0.6","","","","","0.1666409686","0.2866085977","0.2610767704","0.1605482003","","","","","","","","75","K","2","","","204","main_expt"
"","bandit","284","1868432","0.0-245.0-0.0","05055147","wem/bandit_either_2","APO6KZZ79PO9Q","either","5","189","","","","","","","0","0","1","","0.2695546272","0.2","0.4","0.8","0.6","0.2197286508","0.2695546272","0.2832615928","0.1406914754","","","","","","","","","","","","74","J","1","","","205","main_expt"
"","bandit","285","1870447","0.0-246.0-0.0","05055147","wem/bandit_either_2","APO6KZZ79PO9Q","either","5","475","","","","","","","0","1","0","","0.2754509052","0.2","0.4","0.8","0.6","0.2754509052","0.2622178416","0.300913322","0.1138947463","","","","","","","","","","","","72","H","0","img/none_selected.jpg","","206","main_expt"
"","bandit","286","1873613","0.0-247.0-0.0","05055147","wem/bandit_either_2","APO6KZZ79PO9Q","either","5","359","","","","","","","0","0","1","","0.2664869377","0.2","0.4","0.8","0.6","0.2664869377","0.2498186578","0.3260258847","0.1096702189","","","","","","","","","","","","72","H","0","img/none_selected.jpg","","207","main_expt"
"","bandit","287","1876337","0.0-248.0-0.0","05055147","wem/bandit_either_2","APO6KZZ79PO9Q","either","5","1201","","","","","","","0","1","0","","0.2686565688","0.2","0.4","0.8","0.6","0.2686565688","0.2335358635","0.3173829003","0.09922356593","","","","","","","","","","","","72","H","0","img/none_selected.jpg","","208","main_expt"
"","bandit","288","1878212","0.0-249.0-0.0","05055147","wem/bandit_either_2","APO6KZZ79PO9Q","either","5","354","","","","","","","0","0","1","","0.2380255957","0.2","0.4","0.8","0.6","0.2380255957","0.2638942681","0.3153846937","0.101567507","","","","","","","","","","","","72","H","0","img/none_selected.jpg","","209","main_expt"
"","bandit","289","1880072","0.0-250.0-0.0","05055147","wem/bandit_either_2","APO6KZZ79PO9Q","either","5","323","","","","","","","0","0","1","0.2526926237","","0.2","0.4","0.8","0.6","","","","","0.2507768727","0.2526926237","0.3010876552","0.08675379402","","","","","","","","74","J","1","","","210","main_expt"
"","bandit","290","1881996","0.0-251.0-0.0","05055147","wem/bandit_either_2","APO6KZZ79PO9Q","either","5","389","","","","","","","0","0","1","","0.2685142319","0.2","0.4","0.8","0.6","0.2685142319","0.2740367769","0.2864900033","0.07512021269","","","","","","","","","","","","72","H","0","img/none_selected.jpg","","211","main_expt"
"","bandit","291","1883872","0.0-252.0-0.0","05055147","wem/bandit_either_2","APO6KZZ79PO9Q","either","5","342","","","","","","","0","0","1","0.2440836191","","0.2","0.4","0.8","0.6","","","","","0.260511483","0.2440836191","0.3163372434","0.08144254236","","","","","","","","74","J","1","","","212","main_expt"
"","bandit","292","1885742","0.0-253.0-0.0","05055147","wem/bandit_either_2","APO6KZZ79PO9Q","either","5","345","","","","","","","0","0","1","0.2701305136","","0.2","0.4","0.8","0.6","","","","","0.2579605047","0.2341903104","0.2701305136","0.06585574052","","","","","","","","75","K","2","","","213","main_expt"
"","bandit","293","1887584","0.0-254.0-0.0","05055147","wem/bandit_either_2","APO6KZZ79PO9Q","either","5","323","","","","","","","0","0","1","","0.08686614453","0.2","0.4","0.8","0.6","0.2470456849","0.2097526345","0.302599165","0.08686614453","","","","","","","","","","","","76","L","3","","","214","main_expt"
"","bandit","294","1889554","0.0-255.0-0.0","05055147","wem/bandit_either_2","APO6KZZ79PO9Q","either","5","447","","","","","","","1","0","0","0.2968005471","","0.2","0.4","0.8","0.6","","","","","0.3285383036","0.1796882487","0.2968005471","0.1068548489","","","","","","","","75","K","2","","","215","main_expt"
"","bandit","295","1891391","0.0-256.0-0.0","05055147","wem/bandit_either_2","APO6KZZ79PO9Q","either","5","306","","","","","","","0","0","1","0.2835536598","","0.2","0.4","0.8","0.6","","","","","0.3780044773","0.2237900511","0.2835536598","0.1211736082","","","","","","","","75","K","2","","","216","main_expt"
"","bandit","296","1893990","0.0-257.0-0.0","05055147","wem/bandit_either_2","APO6KZZ79PO9Q","either","5","1072","","","","","","","0","0","1","","0.2265358539","0.2","0.4","0.8","0.6","0.3939228946","0.2265358539","0.2520762718","0.09343701815","","","","","","","","","","","","74","J","1","","","217","main_expt"
"","bandit","297","1896102","0.0-258.0-0.0","05055147","wem/bandit_either_2","APO6KZZ79PO9Q","either","5","591","","","","","","","0","1","0","","0.3198270803","0.2","0.4","0.8","0.6","0.3198270803","0.2364013437","0.2562699476","0.1001055386","","","","","","","","","","","","72","H","0","img/none_selected.jpg","","218","main_expt"
"","bandit","298","1898538","0.0-259.0-0.0","05055147","wem/bandit_either_2","APO6KZZ79PO9Q","either","5","915","","","","","","","0","0","1","","0.3502502288","0.2","0.4","0.8","0.6","0.3502502288","0.2810560361","0.3002431464","0.09524874014","","","","","","","","","","","","72","H","0","img/none_selected.jpg","","219","main_expt"
"","bandit","299","1900901","0.0-260.0-0.0","05055147","wem/bandit_either_2","APO6KZZ79PO9Q","either","5","815","","","","","","","1","0","0","0.3027429446","","0.2","0.4","0.8","0.6","","","","","0.3402456168","0.3027429446","0.3365413303","0.1304899995","","","","","","","","74","J","1","","","220","main_expt"
"","bandit","300","1902991","0.0-261.0-0.0","05055147","wem/bandit_either_2","APO6KZZ79PO9Q","either","5","559","","","","","","","1","0","0","0.3132134988","","0.2","0.4","0.8","0.6","","","","","0.3770059732","0.3132134988","0.2946103072","0.1272814923","","","","","","","","74","J","1","","","221","main_expt"
"","bandit","301","1905251","0.0-262.0-0.0","05055147","wem/bandit_either_2","APO6KZZ79PO9Q","either","5","740","","","","","","","0","1","0","","0.2424821827","0.2","0.4","0.8","0.6","0.3864421123","0.2424821827","0.3267284332","0.1654407056","","","","","","","","","","","","74","J","1","","","222","main_expt"
"","bandit","302","1907308","0.0-263.0-0.0","05055147","wem/bandit_either_2","APO6KZZ79PO9Q","either","5","523","","","","","","","0","0","1","","0.2595367495","0.2","0.4","0.8","0.6","0.4205211408","0.2595367495","0.3175152631","0.1788325852","","","","","","","","","","","","74","J","1","","","223","main_expt"
"","bandit","303","1909352","0.0-264.0-0.0","05055147","wem/bandit_either_2","APO6KZZ79PO9Q","either","5","490","","","","","","","1","0","0","0.3192400935","","0.2","0.4","0.8","0.6","","","","","0.4131889957","0.328819141","0.3192400935","0.1736623033","","","","","","","","75","K","2","","","224","main_expt"
"","bandit","304","1911391","0.0-265.0-0.0","05055147","wem/bandit_either_2","APO6KZZ79PO9Q","either","5","485","","","","","","","0","0","1","0.3096750449","","0.2","0.4","0.8","0.6","","","","","0.4001513574","0.356121412","0.3096750449","0.1721911447","","","","","","","","75","K","2","","","225","main_expt"
"","bandit","305","1913307","0.0-266.0-0.0","05055147","wem/bandit_either_2","APO6KZZ79PO9Q","either","5","370","","","","","","","0","0","1","0.3394019192","","0.2","0.4","0.8","0.6","","","","","0.3963688582","0.3394019192","0.3142833063","0.2133818582","","","","","","","","74","J","1","","","226","main_expt"
"","bandit","306","1915217","0.0-267.0-0.0","05055147","wem/bandit_either_2","APO6KZZ79PO9Q","either","5","390","","","","","","","0","0","1","","0.3979714495","0.2","0.4","0.8","0.6","0.3979714495","0.2860553004","0.3096885674","0.2620007467","","","","","","","","","","","","72","H","0","img/none_selected.jpg","","227","main_expt"
"","bandit","307","1917101","0.0-268.0-0.0","05055147","wem/bandit_either_2","APO6KZZ79PO9Q","either","5","359","","","","","","","0","0","1","","0.3811043637","0.2","0.4","0.8","0.6","0.3811043637","0.2967856672","0.3048295172","0.2961930455","","","","","","","","","","","","72","H","0","img/none_selected.jpg","","228","main_expt"
"","bandit","308","1918961","0.0-269.0-0.0","05055147","wem/bandit_either_2","APO6KZZ79PO9Q","either","5","322","","","","","","","0","0","1","0.2857745529","","0.2","0.4","0.8","0.6","","","","","0.3488149186","0.2857745529","0.2553920021","0.3081123415","","","","","","","","74","J","1","","","229","main_expt"
"","bandit","309","1921016","0.0-270.0-0.0","05055147","wem/bandit_either_2","APO6KZZ79PO9Q","either","5","530","","","","","","","0","0","1","0.2783794412","","0.2","0.4","0.8","0.6","","","","","0.2883621188","0.2589404948","0.2783794412","0.3027177586","","","","","","","","75","K","2","","","230","main_expt"
"","bandit","310","1922887","0.0-271.0-0.0","05055147","wem/bandit_either_2","APO6KZZ79PO9Q","either","5","341","","","","","","","0","0","1","0.2495346478","","0.2","0.4","0.8","0.6","","","","","0.2444465504","0.2628441024","0.2735536708","0.2495346478","","","","","","","","76","L","3","","","231","main_expt"
"","bandit","311","1925191","0.0-272.0-0.0","05055147","wem/bandit_either_2","APO6KZZ79PO9Q","either","5","768","","","","","","","0","0","1","0.2262440502","","0.2","0.4","0.8","0.6","","","","","0.2996930955","0.276537748","0.2262440502","0.2185872191","","","","","","","","75","K","2","","","232","main_expt"
"","bandit","312","1927283","0.0-273.0-0.0","05055147","wem/bandit_either_2","APO6KZZ79PO9Q","either","5","567","","","","","","","0","0","1","0.1874863907","","0.2","0.4","0.8","0.6","","","","","0.3103031796","0.2485723575","0.2171974885","0.1874863907","","","","","","","","76","L","3","","","233","main_expt"
"","bandit","313","1929165","0.0-274.0-0.0","05055147","wem/bandit_either_2","APO6KZZ79PO9Q","either","5","321","","","","","","","0","0","1","","0.2172766866","0.2","0.4","0.8","0.6","0.2971988612","0.2172766866","0.2951485073","0.2165838284","","","","","","","","","","","","74","J","1","","","234","main_expt"
"","bandit","314","1931166","0.0-275.0-0.0","05055147","wem/bandit_either_2","APO6KZZ79PO9Q","either","5","477","","","","","","","0","0","1","","0.3266576642","0.2","0.4","0.8","0.6","0.3266576642","0.221542824","0.3135740045","0.1791302586","","","","","","","","","","","","72","H","0","img/none_selected.jpg","","235","main_expt"
"","bandit","315","1933618","0.0-276.0-0.0","05055147","wem/bandit_either_2","APO6KZZ79PO9Q","either","5","899","","","","","","","0","0","1","","0.2200573756","0.2","0.4","0.8","0.6","0.3596878827","0.2200573756","0.2945285262","0.2463713802","","","","","","","","","","","","74","J","1","","","236","main_expt"
"","bandit","316","1935807","0.0-277.0-0.0","05055147","wem/bandit_either_2","APO6KZZ79PO9Q","either","5","633","","","","","","","0","0","1","","0.2797454337","0.2","0.4","0.8","0.6","0.3951370387","0.2146478317","0.2797454337","0.2204623923","","","","","","","","","","","","75","K","2","","","237","main_expt"
"","bandit","317","1938083","0.0-278.0-0.0","05055147","wem/bandit_either_2","APO6KZZ79PO9Q","either","5","755","","","","","","","0","1","0","","0.2316256556","0.2","0.4","0.8","0.6","0.3863552979","0.2237656472","0.266453507","0.2316256556","","","","","","","","","","","","76","L","3","","","238","main_expt"
"","bandit","318","1940542","0.0-279.0-0.0","05055147","wem/bandit_either_2","APO6KZZ79PO9Q","either","5","928","","","","","","","1","0","0","0.2406304147","","0.2","0.4","0.8","0.6","","","","","0.3962704677","0.2302611888","0.310831157","0.2406304147","","","","","","","","76","L","3","","","239","main_expt"
"","bandit","319","1942673","0.0-280.0-0.0","05055147","wem/bandit_either_2","APO6KZZ79PO9Q","either","5","604","","","","","","","1","0","0","0.2624476398","","0.2","0.4","0.8","0.6","","","","","0.3926977495","0.2253069634","0.331950591","0.2624476398","","","","","","","","76","L","3","","","240","main_expt"
"","bandit","320","1944599","0.0-281.0-0.0","05055147","wem/bandit_either_2","APO6KZZ79PO9Q","either","5","390","","","","","","","0","0","1","","0.2627099727","0.2","0.4","0.8","0.6","0.3381110468","0.2523404353","0.3223776605","0.2627099727","","","","","","","","","","","","76","L","3","","","241","main_expt"
"","bandit","321","1946497","0.0-282.0-0.0","05055147","wem/bandit_either_2","APO6KZZ79PO9Q","either","5","373","","","","","","","0","0","1","","0.3389272588","0.2","0.4","0.8","0.6","0.3213381148","0.238450381","0.3389272588","0.2262339403","","","","","","","","","","","","75","K","2","","","242","main_expt"
"","bandit","322","1948611","0.0-283.0-0.0","05055147","wem/bandit_either_2","APO6KZZ79PO9Q","either","5","588","","","","","","","1","0","0","0.4023830898","","0.2","0.4","0.8","0.6","","","","","0.3395415742","0.2476478509","0.4023830898","0.2511573395","","","","","","","","75","K","2","","","243","main_expt"
"","bandit","323","1950465","0.0-284.0-0.0","05055147","wem/bandit_either_2","APO6KZZ79PO9Q","either","5","329","","","","","","","0","1","0","","0.4072225753","0.2","0.4","0.8","0.6","0.3077285799","0.2603762171","0.4072225753","0.3112309098","","","","","","","","","","","","75","K","2","","","244","main_expt"
"","bandit","324","1952282","0.0-285.0-0.0","05055147","wem/bandit_either_2","APO6KZZ79PO9Q","either","5","291","","","","","","","1","0","0","0.4047901721","","0.2","0.4","0.8","0.6","","","","","0.269997398","0.2778117757","0.4047901721","0.3169667097","","","","","","","","75","K","2","","","245","main_expt"
"","bandit","325","1954113","0.0-286.0-0.0","05055147","wem/bandit_either_2","APO6KZZ79PO9Q","either","5","305","","","","","","","0","0","1","0.4245844383","","0.2","0.4","0.8","0.6","","","","","0.2896792764","0.2571702875","0.4245844383","0.3774934029","","","","","","","","75","K","2","","","246","main_expt"
"","bandit","326","1955993","0.0-287.0-0.0","05055147","wem/bandit_either_2","APO6KZZ79PO9Q","either","5","337","","","","","","","0","0","1","","0.2790325972","0.2","0.4","0.8","0.6","0.3079745892","0.2790325972","0.4425022826","0.3592590195","","","","","","","","","","","","74","J","1","","","247","main_expt"
