"consent","trial_type","trial_index","time_elapsed","internal_node_id","subjID","study","MID","cond","drift","rt","responses","key_press","expt_phase","like","value","connected","gems","bombs","no_reward","GemPrChosen","BombPrChosen","GainOverPainPr_0","GainOverPainPr_1","GainOverPainPr_2","GainOverPainPr_3","LosePr_0","LosePr_1","LosePr_2","LosePr_3","WinPr_0","WinPr_1","WinPr_2","WinPr_3","Q0","Q1","Q2","gender","age","ethnicity","target","respCharCode","respKey","respChoiceNum","respChoice","practice","trial_counter","trial_label"
"INL_behavioral_consent_30min_online.html","consent","0","29712","0.0-0.0","06244427","wem/bandit_either_2","A8028AFBBS29G","either","4","","","","","","","","","","","","","","","","","","","","","","","","","","","","","","","","","","","","","",""
"","survey-text","1","56346","0.0-1.0","06244427","wem/bandit_either_2","A8028AFBBS29G","either","4","25626","{""Q0"":""A8028AFBBS29G""}","","","","","","","","","","","","","","","","","","","","","","","","","","","","","","","","","","","",""
"","text","2","73507","0.0-2.0","06244427","wem/bandit_either_2","A8028AFBBS29G","either","4","16157","","32","","","","","","","","","","","","","","","","","","","","","","","","","","","","","","","","","","",""
"","text","3","86737","0.0-3.0","06244427","wem/bandit_either_2","A8028AFBBS29G","either","4","13228","","32","","","","","","","","","","","","","","","","","","","","","","","","","","","","","","","","","","",""
"","text","4","137441","0.0-4.0","06244427","wem/bandit_either_2","A8028AFBBS29G","either","4","50703","","32","","","","","","","","","","","","","","","","","","","","","","","","","","","","","","","","","","",""
"","text","5","154465","0.0-5.0","06244427","wem/bandit_either_2","A8028AFBBS29G","either","4","17022","","32","","","","","","","","","","","","","","","","","","","","","","","","","","","","","","","","","","",""
"","text","6","187737","0.0-6.0","06244427","wem/bandit_either_2","A8028AFBBS29G","either","4","33271","","32","","","","","","","","","","","","","","","","","","","","","","","","","","","","","","","","","","",""
"","text","7","199809","0.0-7.0","06244427","wem/bandit_either_2","A8028AFBBS29G","either","4","12071","","32","","","","","","","","","","","","","","","","","","","","","","","","","","","","","","","","","","",""
"","text","8","206040","0.0-8.0","06244427","wem/bandit_either_2","A8028AFBBS29G","either","4","6230","","32","","","","","","","","","","","","","","","","","","","","","","","","","","","","","","","","","","",""
"","identification","9","221084","0.0-9.0-0.0","06244427","wem/bandit_either_2","A8028AFBBS29G","either","4","15026","","","","6","6","6","","","","","","","","","","","","","","","","","","","","","","","","the village of Zur","","","","","","",""
"","identification","10","232505","0.0-9.0-1.0","06244427","wem/bandit_either_2","A8028AFBBS29G","either","4","10409","","","","0","0","0","","","","","","","","","","","","","","","","","","","","","","","","the village of Nyx","","","","","","",""
"","text","11","240769","0.0-10.0","06244427","wem/bandit_either_2","A8028AFBBS29G","either","4","7261","","32","","","","","","","","","","","","","","","","","","","","","","","","","","","","","","","","","","",""
"","text","12","246088","0.0-11.0","06244427","wem/bandit_either_2","A8028AFBBS29G","either","4","5318","","32","","","","","","","","","","","","","","","","","","","","","","","","","","","","","","","","","","",""
"","text","13","249567","0.0-12.0","06244427","wem/bandit_either_2","A8028AFBBS29G","either","4","3479","","32","","","","","","","","","","","","","","","","","","","","","","","","","","","","","","","","","","",""
"","text","14","254498","0.0-13.0","06244427","wem/bandit_either_2","A8028AFBBS29G","either","4","4929","","32","","","","","","","","","","","","","","","","","","","","","","","","","","","","","","","","","","",""
"","bandit","15","259585","0.0-14.0-0.0","06244427","wem/bandit_either_2","A8028AFBBS29G","either","4","3562","","","","","","","0","0","1","0","0","","","","","0","","","","0","","","","","","","","","","","74","J","0","img/none_selected_demo.jpg","true","0",""
"","bandit","16","263736","0.0-15.0-0.0","06244427","wem/bandit_either_2","A8028AFBBS29G","either","4","2644","","","","","","","0","0","1","0","0","","","","","0","","","","0","","","","","","","","","","","75","K","0","img/none_selected_demo.jpg","true","0",""
"","text","17","279017","0.0-16.0","06244427","wem/bandit_either_2","A8028AFBBS29G","either","4","15279","","32","","","","","","","","","","","","","","","","","","","","","","","","","","","","","","","","","","",""
"","text","18","291273","0.0-17.0","06244427","wem/bandit_either_2","A8028AFBBS29G","either","4","12254","","32","","","","","","","","","","","","","","","","","","","","","","","","","","","","","","","","","","",""
"","text","19","314154","0.0-18.0","06244427","wem/bandit_either_2","A8028AFBBS29G","either","4","22878","","32","","","","","","","","","","","","","","","","","","","","","","","","","","","","","","","","","","",""
"","text","20","322144","0.0-19.0","06244427","wem/bandit_either_2","A8028AFBBS29G","either","4","7988","","32","","","","","","","","","","","","","","","","","","","","","","","","","","","","","","","","","","",""
"","bandit","21","325391","0.0-20.0-0.0","06244427","wem/bandit_either_2","A8028AFBBS29G","either","4","1741","","","","","","","0","0","1","","0.2","0.5","0.5","","","0.8","0.2","","","","","","","","","","","","","","75","K","1","","true","0","80_20_practice"
"","bandit","22","328512","0.0-20.0-1.0","06244427","wem/bandit_either_2","A8028AFBBS29G","either","4","1614","","","","","","","1","0","0","0.8","","0.5","0.5","","","","","","","0.8","0.2","","","","","","","","","","74","J","0","img/none_selected_demo.jpg","true","0","80_20_practice"
"","bandit","23","331241","0.0-20.0-2.0","06244427","wem/bandit_either_2","A8028AFBBS29G","either","4","1221","","","","","","","1","0","0","0.8","","0.5","0.5","","","","","","","0.8","0.2","","","","","","","","","","74","J","0","img/none_selected_demo.jpg","true","0","80_20_practice"
"","bandit","24","333645","0.0-20.0-3.0","06244427","wem/bandit_either_2","A8028AFBBS29G","either","4","899","","","","","","","0","1","0","","0.8","0.5","0.5","","","0.8","0.2","","","","","","","","","","","","","","74","J","0","img/none_selected_demo.jpg","true","0","80_20_practice"
"","bandit","25","335751","0.0-20.0-4.0","06244427","wem/bandit_either_2","A8028AFBBS29G","either","4","599","","","","","","","1","0","0","0.8","","0.5","0.5","","","","","","","0.8","0.2","","","","","","","","","","74","J","0","img/none_selected_demo.jpg","true","0","80_20_practice"
"","bandit","26","337894","0.0-20.0-5.0","06244427","wem/bandit_either_2","A8028AFBBS29G","either","4","638","","","","","","","0","0","1","0.8","","0.5","0.5","","","","","","","0.8","0.2","","","","","","","","","","74","J","0","img/none_selected_demo.jpg","true","0","80_20_practice"
"","bandit","27","340158","0.0-20.0-6.0","06244427","wem/bandit_either_2","A8028AFBBS29G","either","4","760","","","","","","","0","1","0","","0.8","0.5","0.5","","","0.8","0.2","","","","","","","","","","","","","","74","J","0","img/none_selected_demo.jpg","true","0","80_20_practice"
"","bandit","28","342408","0.0-20.0-7.0","06244427","wem/bandit_either_2","A8028AFBBS29G","either","4","742","","","","","","","0","0","1","","0.8","0.5","0.5","","","0.8","0.2","","","","","","","","","","","","","","74","J","0","img/none_selected_demo.jpg","true","0","80_20_practice"
"","bandit","29","344422","0.0-20.0-8.0","06244427","wem/bandit_either_2","A8028AFBBS29G","either","4","509","","","","","","","1","0","0","0.8","","0.5","0.5","","","","","","","0.8","0.2","","","","","","","","","","74","J","0","img/none_selected_demo.jpg","true","0","80_20_practice"
"","bandit","30","346694","0.0-20.0-9.0","06244427","wem/bandit_either_2","A8028AFBBS29G","either","4","766","","","","","","","1","0","0","0.8","","0.5","0.5","","","","","","","0.8","0.2","","","","","","","","","","74","J","0","img/none_selected_demo.jpg","true","0","80_20_practice"
"","bandit","31","348839","0.0-20.0-10.0","06244427","wem/bandit_either_2","A8028AFBBS29G","either","4","638","","","","","","","1","0","0","0.8","","0.5","0.5","","","","","","","0.8","0.2","","","","","","","","","","74","J","0","img/none_selected_demo.jpg","true","0","80_20_practice"
"","bandit","32","350983","0.0-20.0-11.0","06244427","wem/bandit_either_2","A8028AFBBS29G","either","4","638","","","","","","","0","0","1","","0.8","0.5","0.5","","","0.8","0.2","","","","","","","","","","","","","","74","J","0","img/none_selected_demo.jpg","true","0","80_20_practice"
"","bandit","33","353118","0.0-20.0-12.0","06244427","wem/bandit_either_2","A8028AFBBS29G","either","4","628","","","","","","","0","1","0","","0.8","0.5","0.5","","","0.8","0.2","","","","","","","","","","","","","","74","J","0","img/none_selected_demo.jpg","true","0","80_20_practice"
"","bandit","34","355398","0.0-20.0-13.0","06244427","wem/bandit_either_2","A8028AFBBS29G","either","4","773","","","","","","","1","0","0","0.8","","0.5","0.5","","","","","","","0.8","0.2","","","","","","","","","","74","J","0","img/none_selected_demo.jpg","true","0","80_20_practice"
"","bandit","35","357400","0.0-20.0-14.0","06244427","wem/bandit_either_2","A8028AFBBS29G","either","4","494","","","","","","","1","0","0","0.8","","0.5","0.5","","","","","","","0.8","0.2","","","","","","","","","","74","J","0","img/none_selected_demo.jpg","true","0","80_20_practice"
"","bandit","36","359567","0.0-20.0-15.0","06244427","wem/bandit_either_2","A8028AFBBS29G","either","4","660","","","","","","","0","1","0","","0.8","0.5","0.5","","","0.8","0.2","","","","","","","","","","","","","","74","J","0","img/none_selected_demo.jpg","true","0","80_20_practice"
"","bandit","37","361495","0.0-20.0-16.0","06244427","wem/bandit_either_2","A8028AFBBS29G","either","4","421","","","","","","","0","1","0","","0.8","0.5","0.5","","","0.8","0.2","","","","","","","","","","","","","","74","J","0","img/none_selected_demo.jpg","true","0","80_20_practice"
"","bandit","38","363479","0.0-20.0-17.0","06244427","wem/bandit_either_2","A8028AFBBS29G","either","4","477","","","","","","","0","1","0","","0.8","0.5","0.5","","","0.8","0.2","","","","","","","","","","","","","","74","J","0","img/none_selected_demo.jpg","true","0","80_20_practice"
"","bandit","39","365478","0.0-20.0-18.0","06244427","wem/bandit_either_2","A8028AFBBS29G","either","4","493","","","","","","","0","1","0","","0.8","0.5","0.5","","","0.8","0.2","","","","","","","","","","","","","","74","J","0","img/none_selected_demo.jpg","true","0","80_20_practice"
"","bandit","40","367565","0.0-20.0-19.0","06244427","wem/bandit_either_2","A8028AFBBS29G","either","4","582","","","","","","","1","0","0","0.8","","0.5","0.5","","","","","","","0.8","0.2","","","","","","","","","","74","J","0","img/none_selected_demo.jpg","true","0","80_20_practice"
"","text","41","380352","0.0-21.0","06244427","wem/bandit_either_2","A8028AFBBS29G","either","4","12784","","32","","","","","","","","","","","","","","","","","","","","","","","","","","","","","","","","","","",""
"","bandit","42","383815","0.0-22.0-0.0","06244427","wem/bandit_either_2","A8028AFBBS29G","either","4","1956","","","","","","","1","0","0","1","0","","","","","0","1","","","1","0","","","","","","","","","","74","J","0","img/none_selected_demo.jpg","true","0",""
"","text","43","394825","0.0-23.0","06244427","wem/bandit_either_2","A8028AFBBS29G","either","4","11007","","32","","","","","","","","","","","","","","","","","","","","","","","","","","","","","","","","","","",""
"","text","44","401952","0.0-24.0","06244427","wem/bandit_either_2","A8028AFBBS29G","either","4","7125","","32","","","","","","","","","","","","","","","","","","","","","","","","","","","","","","","","","","",""
"","text","45","406944","0.0-25.0","06244427","wem/bandit_either_2","A8028AFBBS29G","either","4","4990","","32","","","","","","","","","","","","","","","","","","","","","","","","","","","","","","","","","","",""
"","text","46","413384","0.0-26.0","06244427","wem/bandit_either_2","A8028AFBBS29G","either","4","6437","","32","","","","","","","","","","","","","","","","","","","","","","","","","","","","","","","","","","",""
"","text","47","427081","0.0-27.0","06244427","wem/bandit_either_2","A8028AFBBS29G","either","4","13695","","32","","","","","","","","","","","","","","","","","","","","","","","","","","","","","","","","","","",""
"","text","48","433184","0.0-28.0","06244427","wem/bandit_either_2","A8028AFBBS29G","either","4","6100","","32","","","","","","","","","","","","","","","","","","","","","","","","","","","","","","","","","","",""
"","text","49","442569","0.0-29.0","06244427","wem/bandit_either_2","A8028AFBBS29G","either","4","9383","","32","","","","","","","","","","","","","","","","","","","","","","","","","","","","","","","","","","",""
"","text","50","448536","0.0-30.0","06244427","wem/bandit_either_2","A8028AFBBS29G","either","4","5964","","32","","","","","","","","","","","","","","","","","","","","","","","","","","","","","","","","","","",""
"","text","51","455752","0.0-31.0","06244427","wem/bandit_either_2","A8028AFBBS29G","either","4","7214","","32","","","","","","","","","","","","","","","","","","","","","","","","","","","","","","","","","","",""
"","text","52","458575","0.0-32.0","06244427","wem/bandit_either_2","A8028AFBBS29G","either","4","2821","","32","","","","","","","","","","","","","","","","","","","","","","","","","","","","","","","","","","",""
"","text","53","481176","0.0-33.0","06244427","wem/bandit_either_2","A8028AFBBS29G","either","4","22597","","32","","","","","","","","","","","","","","","","","","","","","","","","","","","","","","","","","","",""
"","bandit","54","485101","0.0-34.0-0.0","06244427","wem/bandit_either_2","A8028AFBBS29G","either","4","2420","","","","","","","1","0","0","0.2","","0.5","0.5","0.5","0.5","","","","","0.8","0.2","0.6","0.2","","","","","","","","76","L","3","","true","0","full_practice"
"","bandit","55","487270","0.0-34.0-1.0","06244427","wem/bandit_either_2","A8028AFBBS29G","either","4","661","","","","","","","0","0","1","","0.2","0.5","0.5","0.5","0.5","0.8","0.2","0.6","0.2","","","","","","","","","","","","76","L","3","","true","0","full_practice"
"","bandit","56","489278","0.0-34.0-2.0","06244427","wem/bandit_either_2","A8028AFBBS29G","either","4","500","","","","","","","0","0","1","0.2","","0.5","0.5","0.5","0.5","","","","","0.8","0.2","0.6","0.2","","","","","","","","76","L","3","","true","0","full_practice"
"","bandit","57","491325","0.0-34.0-3.0","06244427","wem/bandit_either_2","A8028AFBBS29G","either","4","540","","","","","","","1","0","0","0.6","","0.5","0.5","0.5","0.5","","","","","0.8","0.2","0.6","0.2","","","","","","","","75","K","2","","true","0","full_practice"
"","bandit","58","493309","0.0-34.0-4.0","06244427","wem/bandit_either_2","A8028AFBBS29G","either","4","479","","","","","","","1","0","0","0.6","","0.5","0.5","0.5","0.5","","","","","0.8","0.2","0.6","0.2","","","","","","","","75","K","2","","true","0","full_practice"
"","bandit","59","495165","0.0-34.0-5.0","06244427","wem/bandit_either_2","A8028AFBBS29G","either","4","349","","","","","","","0","0","1","0.6","","0.5","0.5","0.5","0.5","","","","","0.8","0.2","0.6","0.2","","","","","","","","75","K","2","","true","0","full_practice"
"","bandit","60","497133","0.0-34.0-6.0","06244427","wem/bandit_either_2","A8028AFBBS29G","either","4","462","","","","","","","0","0","1","0.6","","0.5","0.5","0.5","0.5","","","","","0.8","0.2","0.6","0.2","","","","","","","","75","K","2","","true","0","full_practice"
"","bandit","61","499533","0.0-34.0-7.0","06244427","wem/bandit_either_2","A8028AFBBS29G","either","4","892","","","","","","","0","1","0","","0.2","0.5","0.5","0.5","0.5","0.8","0.2","0.6","0.2","","","","","","","","","","","","74","J","1","","true","0","full_practice"
"","bandit","62","501629","0.0-34.0-8.0","06244427","wem/bandit_either_2","A8028AFBBS29G","either","4","589","","","","","","","0","0","1","0.2","","0.5","0.5","0.5","0.5","","","","","0.8","0.2","0.6","0.2","","","","","","","","74","J","1","","true","0","full_practice"
"","bandit","63","503535","0.0-34.0-9.0","06244427","wem/bandit_either_2","A8028AFBBS29G","either","4","398","","","","","","","0","0","1","0.2","","0.5","0.5","0.5","0.5","","","","","0.8","0.2","0.6","0.2","","","","","","","","74","J","1","","true","0","full_practice"
"","bandit","64","505445","0.0-34.0-10.0","06244427","wem/bandit_either_2","A8028AFBBS29G","either","4","403","","","","","","","0","1","0","","0.8","0.5","0.5","0.5","0.5","0.8","0.2","0.6","0.2","","","","","","","","","","","","72","H","0","img/none_selected.jpg","true","0","full_practice"
"","bandit","65","507310","0.0-34.0-11.0","06244427","wem/bandit_either_2","A8028AFBBS29G","either","4","356","","","","","","","1","0","0","0.8","","0.5","0.5","0.5","0.5","","","","","0.8","0.2","0.6","0.2","","","","","","","","72","H","0","img/none_selected.jpg","true","0","full_practice"
"","bandit","66","509164","0.0-34.0-12.0","06244427","wem/bandit_either_2","A8028AFBBS29G","either","4","348","","","","","","","1","0","0","0.8","","0.5","0.5","0.5","0.5","","","","","0.8","0.2","0.6","0.2","","","","","","","","72","H","0","img/none_selected.jpg","true","0","full_practice"
"","bandit","67","511061","0.0-34.0-13.0","06244427","wem/bandit_either_2","A8028AFBBS29G","either","4","390","","","","","","","0","1","0","","0.8","0.5","0.5","0.5","0.5","0.8","0.2","0.6","0.2","","","","","","","","","","","","72","H","0","img/none_selected.jpg","true","0","full_practice"
"","bandit","68","512893","0.0-34.0-14.0","06244427","wem/bandit_either_2","A8028AFBBS29G","either","4","324","","","","","","","1","0","0","0.8","","0.5","0.5","0.5","0.5","","","","","0.8","0.2","0.6","0.2","","","","","","","","72","H","0","img/none_selected.jpg","true","0","full_practice"
"","bandit","69","514753","0.0-34.0-15.0","06244427","wem/bandit_either_2","A8028AFBBS29G","either","4","349","","","","","","","1","0","0","0.8","","0.5","0.5","0.5","0.5","","","","","0.8","0.2","0.6","0.2","","","","","","","","72","H","0","img/none_selected.jpg","true","0","full_practice"
"","bandit","70","516630","0.0-34.0-16.0","06244427","wem/bandit_either_2","A8028AFBBS29G","either","4","370","","","","","","","1","0","0","0.8","","0.5","0.5","0.5","0.5","","","","","0.8","0.2","0.6","0.2","","","","","","","","72","H","0","img/none_selected.jpg","true","0","full_practice"
"","bandit","71","518503","0.0-34.0-17.0","06244427","wem/bandit_either_2","A8028AFBBS29G","either","4","365","","","","","","","0","1","0","","0.8","0.5","0.5","0.5","0.5","0.8","0.2","0.6","0.2","","","","","","","","","","","","72","H","0","img/none_selected.jpg","true","0","full_practice"
"","bandit","72","520319","0.0-34.0-18.0","06244427","wem/bandit_either_2","A8028AFBBS29G","either","4","309","","","","","","","0","0","1","0.8","","0.5","0.5","0.5","0.5","","","","","0.8","0.2","0.6","0.2","","","","","","","","72","H","0","img/none_selected.jpg","true","0","full_practice"
"","bandit","73","522175","0.0-34.0-19.0","06244427","wem/bandit_either_2","A8028AFBBS29G","either","4","348","","","","","","","0","1","0","","0.8","0.5","0.5","0.5","0.5","0.8","0.2","0.6","0.2","","","","","","","","","","","","72","H","0","img/none_selected.jpg","true","0","full_practice"
"","text","74","527105","0.0-35.0","06244427","wem/bandit_either_2","A8028AFBBS29G","either","4","4921","","32","","","","","","","","","","","","","","","","","","","","","","","","","","","","","","","","","","",""
"","text","75","551129","0.0-36.0","06244427","wem/bandit_either_2","A8028AFBBS29G","either","4","23019","","32","","","","","","","","","","","","","","","","","","","","","","","","","","","","","","","","","","",""
"","text","76","571265","0.0-37.0","06244427","wem/bandit_either_2","A8028AFBBS29G","either","4","20133","","32","","","","","","","","","","","","","","","","","","","","","","","","","","","","","","","","","","",""
"","text","77","579096","0.0-38.0","06244427","wem/bandit_either_2","A8028AFBBS29G","either","4","7828","","32","","","","","","","","","","","","","","","","","","","","","","","","","","","","","","","","","","",""
"","text","78","593250","0.0-39.0","06244427","wem/bandit_either_2","A8028AFBBS29G","either","4","14151","","32","","","","","","","","","","","","","","","","","","","","","","","","","","","","","","","","","","",""
"","text","79","600552","0.0-40.0","06244427","wem/bandit_either_2","A8028AFBBS29G","either","4","7299","","32","","","","","","","","","","","","","","","","","","","","","","","","","","","","","","","","","","",""
"","bandit","80","604214","0.0-41.0-0.0","06244427","wem/bandit_either_2","A8028AFBBS29G","either","4","2155","","","","","","","0","1","0","","0.3242650943","0.8","0.2","0.6","0.4","0.2771551185","0.3525715257","0.3894728165","0.3242650943","","","","","","","","","","","","76","L","3","","","1","main_expt"
"","bandit","81","606488","0.0-42.0-0.0","06244427","wem/bandit_either_2","A8028AFBBS29G","either","4","767","","","","","","","0","0","1","0.3296228245","","0.8","0.2","0.6","0.4","","","","","0.3030893157","0.390153736","0.363660736","0.3296228245","","","","","","","","76","L","3","","","2","main_expt"
"","bandit","82","608774","0.0-43.0-0.0","06244427","wem/bandit_either_2","A8028AFBBS29G","either","4","780","","","","","","","0","1","0","","0.3102780753","0.8","0.2","0.6","0.4","0.3211059343","0.3725447061","0.3842171554","0.3102780753","","","","","","","","","","","","76","L","3","","","3","main_expt"
"","bandit","83","611064","0.0-44.0-0.0","06244427","wem/bandit_either_2","A8028AFBBS29G","either","4","776","","","","","","","0","0","1","","0.2749892112","0.8","0.2","0.6","0.4","0.2804386453","0.3431524481","0.3831963053","0.2749892112","","","","","","","","","","","","76","L","3","","","4","main_expt"
"","bandit","84","613046","0.0-45.0-0.0","06244427","wem/bandit_either_2","A8028AFBBS29G","either","4","475","","","","","","","0","0","1","0.3037824898","","0.8","0.2","0.6","0.4","","","","","0.2609559086","0.3448007793","0.4056596471","0.3037824898","","","","","","","","76","L","3","","","5","main_expt"
"","bandit","85","615166","0.0-46.0-0.0","06244427","wem/bandit_either_2","A8028AFBBS29G","either","4","612","","","","","","","0","0","1","0.4409946319","","0.8","0.2","0.6","0.4","","","","","0.2259287768","0.3980888019","0.4409946319","0.3217417103","","","","","","","","75","K","2","","","6","main_expt"
"","bandit","86","617047","0.0-47.0-0.0","06244427","wem/bandit_either_2","A8028AFBBS29G","either","4","374","","","","","","","0","0","1","0.3821747998","","0.8","0.2","0.6","0.4","","","","","0.2433618728","0.3693121862","0.3821747998","0.3018715163","","","","","","","","75","K","2","","","7","main_expt"
"","bandit","87","619637","0.0-48.0-0.0","06244427","wem/bandit_either_2","A8028AFBBS29G","either","4","1082","","","","","","","0","0","1","","0.2933697555","0.8","0.2","0.6","0.4","0.2025356769","0.2933697555","0.3841844813","0.3643645816","","","","","","","","","","","","74","J","1","","","8","main_expt"
"","bandit","88","621654","0.0-49.0-0.0","06244427","wem/bandit_either_2","A8028AFBBS29G","either","4","508","","","","","","","0","0","1","","0.3036212831","0.8","0.2","0.6","0.4","0.1441028094","0.3036212831","0.3412237964","0.3418610374","","","","","","","","","","","","74","J","1","","","9","main_expt"
"","bandit","89","623911","0.0-50.0-0.0","06244427","wem/bandit_either_2","A8028AFBBS29G","either","4","748","","","","","","","0","0","1","0.1736005971","","0.8","0.2","0.6","0.4","","","","","0.1736005971","0.308020301","0.3256420777","0.3190157878","","","","","","","","72","H","0","img/none_selected.jpg","","10","main_expt"
"","bandit","90","626038","0.0-51.0-0.0","06244427","wem/bandit_either_2","A8028AFBBS29G","either","4","619","","","","","","","0","0","1","0.1836365694","","0.8","0.2","0.6","0.4","","","","","0.1836365694","0.3065973113","0.3514007431","0.2998731478","","","","","","","","72","H","0","img/none_selected.jpg","","11","main_expt"
"","bandit","91","628271","0.0-52.0-0.0","06244427","wem/bandit_either_2","A8028AFBBS29G","either","4","726","","","","","","","0","0","1","0.2143869662","","0.8","0.2","0.6","0.4","","","","","0.2143869662","0.3271859636","0.3722032088","0.2942822571","","","","","","","","72","H","0","img/none_selected.jpg","","12","main_expt"
"","bandit","92","630558","0.0-53.0-0.0","06244427","wem/bandit_either_2","A8028AFBBS29G","either","4","780","","","","","","","0","0","1","","0.2761076709","0.8","0.2","0.6","0.4","0.1637139448","0.2761076709","0.3681707299","0.3009212619","","","","","","","","","","","","74","J","1","","","13","main_expt"
"","bandit","93","633214","0.0-54.0-0.0","06244427","wem/bandit_either_2","A8028AFBBS29G","either","4","1147","","","","","","","1","0","0","0.3528222564","","0.8","0.2","0.6","0.4","","","","","0.1488535162","0.2311164494","0.3528222564","0.3227424667","","","","","","","","75","K","2","","","14","main_expt"
"","bandit","94","635294","0.0-55.0-0.0","06244427","wem/bandit_either_2","A8028AFBBS29G","either","4","573","","","","","","","0","0","1","0.3738838661","","0.8","0.2","0.6","0.4","","","","","0.1332411271","0.2905977425","0.3738838661","0.3547546862","","","","","","","","75","K","2","","","15","main_expt"
"","bandit","95","638094","0.0-56.0-0.0","06244427","wem/bandit_either_2","A8028AFBBS29G","either","4","1292","","","","","","","0","0","1","0.3241157583","","0.8","0.2","0.6","0.4","","","","","0.09882415698","0.2924554969","0.3385239332","0.3241157583","","","","","","","","76","L","3","","","16","main_expt"
"","bandit","96","640004","0.0-57.0-0.0","06244427","wem/bandit_either_2","A8028AFBBS29G","either","4","404","","","","","","","0","0","1","0.3363410386","","0.8","0.2","0.6","0.4","","","","","0.1069157009","0.3114836302","0.3111355138","0.3363410386","","","","","","","","76","L","3","","","17","main_expt"
"","bandit","97","642071","0.0-58.0-0.0","06244427","wem/bandit_either_2","A8028AFBBS29G","either","4","556","","","","","","","0","0","1","","0.3880947854","0.8","0.2","0.6","0.4","0.134958137","0.3215333475","0.3487767647","0.3880947854","","","","","","","","","","","","76","L","3","","","18","main_expt"
"","bandit","98","644213","0.0-59.0-0.0","06244427","wem/bandit_either_2","A8028AFBBS29G","either","4","634","","","","","","","0","0","1","0.3010303499","","0.8","0.2","0.6","0.4","","","","","0.1230418706","0.2733398822","0.3010303499","0.4116912081","","","","","","","","75","K","2","","","19","main_expt"
"","bandit","99","646405","0.0-60.0-0.0","06244427","wem/bandit_either_2","A8028AFBBS29G","either","4","685","","","","","","","1","0","0","0.2907203997","","0.8","0.2","0.6","0.4","","","","","0.09866604889","0.2351410235","0.2907203997","0.3973894305","","","","","","","","75","K","2","","","20","main_expt"
"","bandit","100","648597","0.0-61.0-0.0","06244427","wem/bandit_either_2","A8028AFBBS29G","either","4","684","","","","","","","0","1","0","","0.3088108907","0.8","0.2","0.6","0.4","0.1021222834","0.2257810982","0.3088108907","0.369037109","","","","","","","","","","","","75","K","2","","","21","main_expt"
"","bandit","101","650582","0.0-62.0-0.0","06244427","wem/bandit_either_2","A8028AFBBS29G","either","4","478","","","","","","","0","0","1","","0.349202701","0.8","0.2","0.6","0.4","0.1234138809","0.2221856846","0.349202701","0.4179468344","","","","","","","","","","","","75","K","2","","","22","main_expt"
"","bandit","102","652557","0.0-63.0-0.0","06244427","wem/bandit_either_2","A8028AFBBS29G","either","4","467","","","","","","","0","0","1","0.3785068464","","0.8","0.2","0.6","0.4","","","","","0.1030640584","0.2127124712","0.3785068464","0.4276062926","","","","","","","","75","K","2","","","23","main_expt"
"","bandit","103","656214","0.0-64.0-0.0","06244427","wem/bandit_either_2","A8028AFBBS29G","either","4","2148","","","","","","","0","0","1","0.1261035851","","0.8","0.2","0.6","0.4","","","","","0.1261035851","0.1882566648","0.4012919653","0.4078122208","","","","","","","","72","H","0","img/none_selected.jpg","","24","main_expt"
"","bandit","104","658614","0.0-65.0-0.0","06244427","wem/bandit_either_2","A8028AFBBS29G","either","4","892","","","","","","","0","0","1","","0.1273223766","0.8","0.2","0.6","0.4","0.1796705612","0.1273223766","0.400899794","0.3950411191","","","","","","","","","","","","74","J","1","","","25","main_expt"
"","bandit","105","660564","0.0-66.0-0.0","06244427","wem/bandit_either_2","A8028AFBBS29G","either","4","442","","","","","","","0","0","1","","0.4126274585","0.8","0.2","0.6","0.4","0.2414651519","0.15747458","0.4126274585","0.4322303329","","","","","","","","","","","","75","K","2","","","26","main_expt"
"","bandit","106","662712","0.0-67.0-0.0","06244427","wem/bandit_either_2","A8028AFBBS29G","either","4","639","","","","","","","0","0","1","","0.4353643722","0.8","0.2","0.6","0.4","0.2005374927","0.1442684908","0.3992263875","0.4353643722","","","","","","","","","","","","76","L","3","","","27","main_expt"
"","bandit","107","664928","0.0-68.0-0.0","06244427","wem/bandit_either_2","A8028AFBBS29G","either","4","705","","","","","","","1","0","0","0.3846584236","","0.8","0.2","0.6","0.4","","","","","0.3197257227","0.2255404594","0.3846584236","0.4464017809","","","","","","","","75","K","2","","","28","main_expt"
"","bandit","108","667237","0.0-69.0-0.0","06244427","wem/bandit_either_2","A8028AFBBS29G","either","4","802","","","","","","","0","0","1","0.3561298134","","0.8","0.2","0.6","0.4","","","","","0.3141869899","0.2730951691","0.3561298134","0.4417109462","","","","","","","","75","K","2","","","29","main_expt"
"","bandit","109","669526","0.0-70.0-0.0","06244427","wem/bandit_either_2","A8028AFBBS29G","either","4","779","","","","","","","0","0","1","0.3101363315","","0.8","0.2","0.6","0.4","","","","","0.3445991012","0.2890412698","0.3101363315","0.4065908859","","","","","","","","75","K","2","","","30","main_expt"
"","bandit","110","671510","0.0-71.0-0.0","06244427","wem/bandit_either_2","A8028AFBBS29G","either","4","474","","","","","","","0","0","1","","0.3954582793","0.8","0.2","0.6","0.4","0.3456655029","0.3309226042","0.3322219809","0.3954582793","","","","","","","","","","","","76","L","3","","","31","main_expt"
"","bandit","111","674405","0.0-72.0-0.0","06244427","wem/bandit_either_2","A8028AFBBS29G","either","4","1387","","","","","","","0","0","1","0.3826172224","","0.8","0.2","0.6","0.4","","","","","0.3826172224","0.3519301717","0.3516269472","0.3716723047","","","","","","","","72","H","0","img/none_selected.jpg","","32","main_expt"
"","bandit","112","676894","0.0-73.0-0.0","06244427","wem/bandit_either_2","A8028AFBBS29G","either","4","978","","","","","","","1","0","0","0.3414953842","","0.8","0.2","0.6","0.4","","","","","0.3804083149","0.3414953842","0.3852085553","0.3799724366","","","","","","","","74","J","1","","","33","main_expt"
"","bandit","113","678941","0.0-74.0-0.0","06244427","wem/bandit_either_2","A8028AFBBS29G","either","4","538","","","","","","","0","1","0","","0.2938412915","0.8","0.2","0.6","0.4","0.3808178469","0.2938412915","0.4196644934","0.409480615","","","","","","","","","","","","74","J","1","","","34","main_expt"
"","bandit","114","681022","0.0-75.0-0.0","06244427","wem/bandit_either_2","A8028AFBBS29G","either","4","572","","","","","","","0","0","1","0.2256616696","","0.8","0.2","0.6","0.4","","","","","0.376129724","0.2256616696","0.420891004","0.3869649509","","","","","","","","74","J","1","","","35","main_expt"
"","bandit","115","683142","0.0-76.0-0.0","06244427","wem/bandit_either_2","A8028AFBBS29G","either","4","610","","","","","","","0","0","1","0.2525957923","","0.8","0.2","0.6","0.4","","","","","0.4027809904","0.2525957923","0.3808881167","0.3045389962","","","","","","","","74","J","1","","","36","main_expt"
"","bandit","116","685150","0.0-77.0-0.0","06244427","wem/bandit_either_2","A8028AFBBS29G","either","4","500","","","","","","","0","0","1","","0.2333373749","0.8","0.2","0.6","0.4","0.3715556026","0.2333373749","0.3634360393","0.2954217214","","","","","","","","","","","","74","J","1","","","37","main_expt"
"","bandit","117","687143","0.0-78.0-0.0","06244427","wem/bandit_either_2","A8028AFBBS29G","either","4","483","","","","","","","1","0","0","0.3432691328","","0.8","0.2","0.6","0.4","","","","","0.354842885","0.2126884676","0.3432691328","0.2749906923","","","","","","","","75","K","2","","","38","main_expt"
"","bandit","118","689246","0.0-79.0-0.0","06244427","wem/bandit_either_2","A8028AFBBS29G","either","4","594","","","","","","","0","0","1","0.3113322025","","0.8","0.2","0.6","0.4","","","","","0.3066825603","0.212498526","0.3113322025","0.2911873598","","","","","","","","75","K","2","","","39","main_expt"
"","bandit","119","691406","0.0-80.0-0.0","06244427","wem/bandit_either_2","A8028AFBBS29G","either","4","652","","","","","","","0","0","1","0.3298138996","","0.8","0.2","0.6","0.4","","","","","0.3208648015","0.2031275136","0.3298138996","0.3066149412","","","","","","","","75","K","2","","","40","main_expt"
"","bandit","120","693437","0.0-81.0-0.0","06244427","wem/bandit_either_2","A8028AFBBS29G","either","4","522","","","","","","","0","0","1","","0.2409224204","0.8","0.2","0.6","0.4","0.2774570704","0.2409224204","0.3590557929","0.2612722093","","","","","","","","","","","","74","J","1","","","41","main_expt"
"","bandit","121","695623","0.0-82.0-0.0","06244427","wem/bandit_either_2","A8028AFBBS29G","either","4","676","","","","","","","0","1","0","","0.2166695961","0.8","0.2","0.6","0.4","0.3092882543","0.2166695961","0.3455434044","0.2579482203","","","","","","","","","","","","74","J","1","","","42","main_expt"
"","bandit","122","697997","0.0-83.0-0.0","06244427","wem/bandit_either_2","A8028AFBBS29G","either","4","865","","","","","","","0","0","1","0.2314197793","","0.8","0.2","0.6","0.4","","","","","0.3161251671","0.2314197793","0.4020043176","0.2232302517","","","","","","","","74","J","1","","","43","main_expt"
"","bandit","123","700654","0.0-84.0-0.0","06244427","wem/bandit_either_2","A8028AFBBS29G","either","4","1148","","","","","","","0","0","1","","0.2435669349","0.8","0.2","0.6","0.4","0.3032549762","0.1889371852","0.4088695108","0.2435669349","","","","","","","","","","","","76","L","3","","","44","main_expt"
"","bandit","124","702671","0.0-85.0-0.0","06244427","wem/bandit_either_2","A8028AFBBS29G","either","4","508","","","","","","","0","0","1","0.3914045207","","0.8","0.2","0.6","0.4","","","","","0.3012359134","0.2152104473","0.3914045207","0.1885724617","","","","","","","","75","K","2","","","45","main_expt"
"","bandit","125","704967","0.0-86.0-0.0","06244427","wem/bandit_either_2","A8028AFBBS29G","either","4","786","","","","","","","0","0","1","","0.2260726972","0.8","0.2","0.6","0.4","0.2994346937","0.2260726972","0.3682142312","0.104230756","","","","","","","","","","","","74","J","1","","","46","main_expt"
"","bandit","126","706874","0.0-87.0-0.0","06244427","wem/bandit_either_2","A8028AFBBS29G","either","4","395","","","","","","","0","0","1","","0.3169549043","0.8","0.2","0.6","0.4","0.3169549043","0.2330399618","0.3462276735","0.09013225529","","","","","","","","","","","","72","H","0","img/none_selected.jpg","","47","main_expt"
"","bandit","127","708654","0.0-88.0-0.0","06244427","wem/bandit_either_2","A8028AFBBS29G","either","4","271","","","","","","","0","0","1","","0.2769685944","0.8","0.2","0.6","0.4","0.3137179834","0.2769685944","0.3501405617","0.1066227192","","","","","","","","","","","","74","J","1","","","48","main_expt"
"","bandit","128","710486","0.0-89.0-0.0","06244427","wem/bandit_either_2","A8028AFBBS29G","either","4","323","","","","","","","0","0","1","0.3607669766","","0.8","0.2","0.6","0.4","","","","","0.3026837323","0.2954986192","0.3607669766","0.1273062614","","","","","","","","75","K","2","","","49","main_expt"
"","bandit","129","712365","0.0-90.0-0.0","06244427","wem/bandit_either_2","A8028AFBBS29G","either","4","369","","","","","","","0","0","1","","0.3776327681","0.8","0.2","0.6","0.4","0.2690248343","0.2730110453","0.3776327681","0.08158159543","","","","","","","","","","","","75","K","2","","","50","main_expt"
"","bandit","130","714296","0.0-91.0-0.0","06244427","wem/bandit_either_2","A8028AFBBS29G","either","4","422","","","","","","","0","0","1","","0.2672659715","0.8","0.2","0.6","0.4","0.2407215714","0.2672659715","0.3922012959","0.08035098666","","","","","","","","","","","","74","J","1","","","51","main_expt"
"","bandit","131","717415","0.0-92.0-0.0","06244427","wem/bandit_either_2","A8028AFBBS29G","either","4","1611","","","","","","","0","1","0","","0.1007468434","0.8","0.2","0.6","0.4","0.2758158767","0.2552972095","0.3532085343","0.1007468434","","","","","","","","","","","","76","L","3","","","52","main_expt"
"","bandit","132","719536","0.0-93.0-0.0","06244427","wem/bandit_either_2","A8028AFBBS29G","either","4","610","","","","","","","0","0","1","0.1479770317","","0.8","0.2","0.6","0.4","","","","","0.2661511239","0.1954439593","0.3597378762","0.1479770317","","","","","","","","76","L","3","","","53","main_expt"
"","bandit","133","721446","0.0-94.0-0.0","06244427","wem/bandit_either_2","A8028AFBBS29G","either","4","400","","","","","","","0","0","1","0.1450389045","","0.8","0.2","0.6","0.4","","","","","0.250303373","0.1250298759","0.3553644404","0.1450389045","","","","","","","","76","L","3","","","54","main_expt"
"","bandit","134","723544","0.0-95.0-0.0","06244427","wem/bandit_either_2","A8028AFBBS29G","either","4","589","","","","","","","0","0","1","0.3427354451","","0.8","0.2","0.6","0.4","","","","","0.1850572083","0.1224949652","0.3427354451","0.1678096349","","","","","","","","75","K","2","","","55","main_expt"
"","bandit","135","725526","0.0-96.0-0.0","06244427","wem/bandit_either_2","A8028AFBBS29G","either","4","473","","","","","","","0","1","0","","0.3158877586","0.8","0.2","0.6","0.4","0.2410157884","0.1312048923","0.3158877586","0.1748395718","","","","","","","","","","","","75","K","2","","","56","main_expt"
"","bandit","136","727735","0.0-97.0-0.0","06244427","wem/bandit_either_2","A8028AFBBS29G","either","4","699","","","","","","","0","0","1","0.3224611445","","0.8","0.2","0.6","0.4","","","","","0.2657224069","0.14452077","0.3224611445","0.146986137","","","","","","","","75","K","2","","","57","main_expt"
"","bandit","137","730458","0.0-98.0-0.0","06244427","wem/bandit_either_2","A8028AFBBS29G","either","4","1207","","","","","","","0","0","1","","0.1198415177","0.8","0.2","0.6","0.4","0.2361308133","0.1198415177","0.3378672788","0.1316135006","","","","","","","","","","","","74","J","1","","","58","main_expt"
"","bandit","138","732360","0.0-99.0-0.0","06244427","wem/bandit_either_2","A8028AFBBS29G","either","4","391","","","","","","","0","0","1","","0.2078360154","0.8","0.2","0.6","0.4","0.2078360154","0.1674914914","0.3438075972","0.1776120447","","","","","","","","","","","","72","H","0","img/none_selected.jpg","","59","main_expt"
"","bandit","139","734485","0.0-100.0-0.0","06244427","wem/bandit_either_2","A8028AFBBS29G","either","4","617","","","","","","","0","0","1","0.2256957235","","0.8","0.2","0.6","0.4","","","","","0.2256957235","0.147959707","0.2950987239","0.2034864675","","","","","","","","72","H","0","img/none_selected.jpg","","60","main_expt"
"","bandit","140","736678","0.0-101.0-0.0","06244427","wem/bandit_either_2","A8028AFBBS29G","either","4","684","","","","","","","0","0","1","","0.1217284172","0.8","0.2","0.6","0.4","0.2713547376","0.1217284172","0.2939622289","0.1325668513","","","","","","","","","","","","74","J","1","","","61","main_expt"
"","bandit","141","738646","0.0-102.0-0.0","06244427","wem/bandit_either_2","A8028AFBBS29G","either","4","461","","","","","","","0","0","1","0.2907096119","","0.8","0.2","0.6","0.4","","","","","0.2800078023","0.1392905859","0.2907096119","0.125492747","","","","","","","","75","K","2","","","62","main_expt"
"","bandit","142","740582","0.0-103.0-0.0","06244427","wem/bandit_either_2","A8028AFBBS29G","either","4","428","","","","","","","0","0","1","0.1081989139","","0.8","0.2","0.6","0.4","","","","","0.362183352","0.1953314019","0.2696382907","0.1081989139","","","","","","","","76","L","3","","","63","main_expt"
"","bandit","143","742583","0.0-104.0-0.0","06244427","wem/bandit_either_2","A8028AFBBS29G","either","4","489","","","","","","","0","0","1","","0.09104284411","0.8","0.2","0.6","0.4","0.3354395381","0.2618523415","0.2496415039","0.09104284411","","","","","","","","","","","","76","L","3","","","64","main_expt"
"","bandit","144","744560","0.0-105.0-0.0","06244427","wem/bandit_either_2","A8028AFBBS29G","either","4","464","","","","","","","1","0","0","0.2364994079","","0.8","0.2","0.6","0.4","","","","","0.2893845237","0.2686672798","0.2364994079","0.1264903162","","","","","","","","75","K","2","","","65","main_expt"
"","bandit","145","746654","0.0-106.0-0.0","06244427","wem/bandit_either_2","A8028AFBBS29G","either","4","584","","","","","","","0","0","1","0.2541683514","","0.8","0.2","0.6","0.4","","","","","0.2355717356","0.2451656397","0.2541683514","0.1665937301","","","","","","","","75","K","2","","","66","main_expt"
"","bandit","146","748582","0.0-107.0-0.0","06244427","wem/bandit_either_2","A8028AFBBS29G","either","4","419","","","","","","","1","0","0","0.2445320338","","0.8","0.2","0.6","0.4","","","","","0.2848755716","0.2445320338","0.2985471382","0.1740025863","","","","","","","","74","J","1","","","67","main_expt"
"","bandit","147","750510","0.0-108.0-0.0","06244427","wem/bandit_either_2","A8028AFBBS29G","either","4","416","","","","","","","0","1","0","","0.2261158315","0.8","0.2","0.6","0.4","0.3341158043","0.2261158315","0.3391290389","0.2300011382","","","","","","","","","","","","74","J","1","","","68","main_expt"
"","bandit","148","752502","0.0-109.0-0.0","06244427","wem/bandit_either_2","A8028AFBBS29G","either","4","483","","","","","","","1","0","0","0.1627286519","","0.8","0.2","0.6","0.4","","","","","0.3253412689","0.1627286519","0.3114764975","0.1768594062","","","","","","","","74","J","1","","","69","main_expt"
"","bandit","149","754637","0.0-110.0-0.0","06244427","wem/bandit_either_2","A8028AFBBS29G","either","4","625","","","","","","","0","1","0","","0.1301009224","0.8","0.2","0.6","0.4","0.3280915152","0.1301009224","0.3056328376","0.1906145184","","","","","","","","","","","","74","J","1","","","70","main_expt"
"","bandit","150","756814","0.0-111.0-0.0","06244427","wem/bandit_either_2","A8028AFBBS29G","either","4","666","","","","","","","0","1","0","","0.1356707761","0.8","0.2","0.6","0.4","0.3772643828","0.1356707761","0.3445325487","0.1451664327","","","","","","","","","","","","74","J","1","","","71","main_expt"
"","bandit","151","758774","0.0-112.0-0.0","06244427","wem/bandit_either_2","A8028AFBBS29G","either","4","450","","","","","","","0","0","1","","0.1045412551","0.8","0.2","0.6","0.4","0.4074174212","0.1045412551","0.364612409","0.1091447996","","","","","","","","","","","","74","J","1","","","72","main_expt"
"","bandit","152","760816","0.0-113.0-0.0","06244427","wem/bandit_either_2","A8028AFBBS29G","either","4","531","","","","","","","0","0","1","","0.0867882282","0.8","0.2","0.6","0.4","0.3736299767","0.0867882282","0.4454774056","0.1248737042","","","","","","","","","","","","74","J","1","","","73","main_expt"
"","bandit","153","763304","0.0-114.0-0.0","06244427","wem/bandit_either_2","A8028AFBBS29G","either","4","976","","","","","","","0","1","0","","0.383211712","0.8","0.2","0.6","0.4","0.383211712","0.1018359722","0.4492830973","0.1073746888","","","","","","","","","","","","72","H","0","img/none_selected.jpg","","74","main_expt"
"","bandit","154","765478","0.0-115.0-0.0","06244427","wem/bandit_either_2","A8028AFBBS29G","either","4","665","","","","","","","1","0","0","0.3681962321","","0.8","0.2","0.6","0.4","","","","","0.3681962321","0.09443707336","0.449321966","0.1051395745","","","","","","","","72","H","0","img/none_selected.jpg","","75","main_expt"
"","bandit","155","767511","0.0-116.0-0.0","06244427","wem/bandit_either_2","A8028AFBBS29G","either","4","523","","","","","","","1","0","0","0.3574328021","","0.8","0.2","0.6","0.4","","","","","0.3574328021","0.08768691443","0.4299726132","0.09171451076","","","","","","","","72","H","0","img/none_selected.jpg","","76","main_expt"
"","bandit","156","769750","0.0-117.0-0.0","06244427","wem/bandit_either_2","A8028AFBBS29G","either","4","730","","","","","","","0","0","1","0.4041720962","","0.8","0.2","0.6","0.4","","","","","0.4041720962","0.07744448812","0.4349340462","0.1256070833","","","","","","","","72","H","0","img/none_selected.jpg","","77","main_expt"
"","bandit","157","771718","0.0-118.0-0.0","06244427","wem/bandit_either_2","A8028AFBBS29G","either","4","459","","","","","","","0","0","1","0.4000946746","","0.8","0.2","0.6","0.4","","","","","0.4000946746","0.05712631425","0.4112950215","0.1398604905","","","","","","","","72","H","0","img/none_selected.jpg","","78","main_expt"
"","bandit","158","775415","0.0-119.0-0.0","06244427","wem/bandit_either_2","A8028AFBBS29G","either","4","2185","","","","","","","0","0","1","0.4123046053","","0.8","0.2","0.6","0.4","","","","","0.425248604","0.03981704588","0.4123046053","0.1303191282","","","","","","","","75","K","2","","","79","main_expt"
"","bandit","159","777295","0.0-120.0-0.0","06244427","wem/bandit_either_2","A8028AFBBS29G","either","4","368","","","","","","","0","0","1","0.1491340647","","0.8","0.2","0.6","0.4","","","","","0.4263383456","0.02961196177","0.4345430878","0.1491340647","","","","","","","","76","L","3","","","80","main_expt"
"","bandit","160","779357","0.0-121.0-0.0","06244427","wem/bandit_either_2","A8028AFBBS29G","either","4","554","","","","","","","0","0","1","","0.0408206899","0.8","0.2","0.6","0.4","0.4377411966","0.0408206899","0.4255274095","0.1484119081","","","","","","","","","","","","74","J","1","","","81","main_expt"
"","bandit","161","781400","0.0-122.0-0.0","06244427","wem/bandit_either_2","A8028AFBBS29G","either","4","531","","","","","","","1","0","0","0.4263216968","","0.8","0.2","0.6","0.4","","","","","0.4263216968","0.03491361241","0.4266934287","0.135460029","","","","","","","","72","H","0","img/none_selected.jpg","","82","main_expt"
"","bandit","162","783415","0.0-123.0-0.0","06244427","wem/bandit_either_2","A8028AFBBS29G","either","4","506","","","","","","","1","0","0","0.4536492548","","0.8","0.2","0.6","0.4","","","","","0.4536492548","0.01881925386","0.4321646522","0.09497461961","","","","","","","","72","H","0","img/none_selected.jpg","","83","main_expt"
"","bandit","163","785471","0.0-124.0-0.0","06244427","wem/bandit_either_2","A8028AFBBS29G","either","4","544","","","","","","","0","0","1","0.4344769981","","0.8","0.2","0.6","0.4","","","","","0.4344769981","0.03441768066","0.43129245","0.0956585677","","","","","","","","72","H","0","img/none_selected.jpg","","84","main_expt"
"","bandit","164","787566","0.0-125.0-0.0","06244427","wem/bandit_either_2","A8028AFBBS29G","either","4","585","","","","","","","0","0","1","0.4167097255","","0.8","0.2","0.6","0.4","","","","","0.4167097255","0.04015732792","0.4307495417","0.08427930603","","","","","","","","72","H","0","img/none_selected.jpg","","85","main_expt"
"","bandit","165","789487","0.0-126.0-0.0","06244427","wem/bandit_either_2","A8028AFBBS29G","either","4","408","","","","","","","1","0","0","0.4215971904","","0.8","0.2","0.6","0.4","","","","","0.4215971904","0.0462821445","0.4327415212","0.09540141202","","","","","","","","72","H","0","img/none_selected.jpg","","86","main_expt"
"","bandit","166","791552","0.0-127.0-0.0","06244427","wem/bandit_either_2","A8028AFBBS29G","either","4","553","","","","","","","0","0","1","","0.3962725568","0.8","0.2","0.6","0.4","0.3962725568","0.07236867375","0.4507305815","0.06504543429","","","","","","","","","","","","72","H","0","img/none_selected.jpg","","87","main_expt"
"","bandit","167","793592","0.0-128.0-0.0","06244427","wem/bandit_either_2","A8028AFBBS29G","either","4","529","","","","","","","0","0","1","0.4038430626","","0.8","0.2","0.6","0.4","","","","","0.4038430626","0.1132918069","0.4571393315","0.05894337134","","","","","","","","72","H","0","img/none_selected.jpg","","88","main_expt"
"","bandit","168","795390","0.0-129.0-0.0","06244427","wem/bandit_either_2","A8028AFBBS29G","either","4","288","","","","","","","1","0","0","0.1466354559","","0.8","0.2","0.6","0.4","","","","","0.4247877058","0.1466354559","0.4639779763","0.06803635399","","","","","","","","74","J","1","","","89","main_expt"
"","bandit","169","797271","0.0-130.0-0.0","06244427","wem/bandit_either_2","A8028AFBBS29G","either","4","369","","","","","","","0","0","1","0.1746819083","","0.8","0.2","0.6","0.4","","","","","0.4196700557","0.1746819083","0.4620017245","0.09657856289","","","","","","","","74","J","1","","","90","main_expt"
"","bandit","170","799214","0.0-131.0-0.0","06244427","wem/bandit_either_2","A8028AFBBS29G","either","4","432","","","","","","","1","0","0","0.4492963398","","0.8","0.2","0.6","0.4","","","","","0.401758082","0.1864657318","0.4492963398","0.08522031428","","","","","","","","75","K","2","","","91","main_expt"
"","bandit","171","801246","0.0-132.0-0.0","06244427","wem/bandit_either_2","A8028AFBBS29G","either","4","521","","","","","","","0","0","1","","0.462009279","0.8","0.2","0.6","0.4","0.3422099147","0.2124622091","0.462009279","0.07078380504","","","","","","","","","","","","75","K","2","","","92","main_expt"
"","bandit","172","803173","0.0-133.0-0.0","06244427","wem/bandit_either_2","A8028AFBBS29G","either","4","416","","","","","","","0","0","1","","0.4363090379","0.8","0.2","0.6","0.4","0.3279059742","0.245786276","0.4363090379","0.0564278809","","","","","","","","","","","","75","K","2","","","93","main_expt"
"","bandit","173","805054","0.0-134.0-0.0","06244427","wem/bandit_either_2","A8028AFBBS29G","either","4","373","","","","","","","0","0","1","","0.06067733924","0.8","0.2","0.6","0.4","0.3155724737","0.2316759231","0.4457519602","0.06067733924","","","","","","","","","","","","76","L","3","","","94","main_expt"
"","bandit","174","806847","0.0-135.0-0.0","06244427","wem/bandit_either_2","A8028AFBBS29G","either","4","280","","","","","","","0","0","1","","0.4231248902","0.8","0.2","0.6","0.4","0.3519625041","0.2231756969","0.4231248902","0.08632751489","","","","","","","","","","","","75","K","2","","","95","main_expt"
"","bandit","175","808647","0.0-136.0-0.0","06244427","wem/bandit_either_2","A8028AFBBS29G","either","4","289","","","","","","","0","0","1","","0.1957128212","0.8","0.2","0.6","0.4","0.3661455107","0.1957128212","0.4210676831","0.08481729553","","","","","","","","","","","","74","J","1","","","96","main_expt"
"","bandit","176","810566","0.0-137.0-0.0","06244427","wem/bandit_either_2","A8028AFBBS29G","either","4","408","","","","","","","0","0","1","0.3558031673","","0.8","0.2","0.6","0.4","","","","","0.3558031673","0.1638116915","0.4022895305","0.08386440452","","","","","","","","72","H","0","img/none_selected.jpg","","97","main_expt"
"","bandit","177","812503","0.0-138.0-0.0","06244427","wem/bandit_either_2","A8028AFBBS29G","either","4","426","","","","","","","0","1","0","","0.3558230887","0.8","0.2","0.6","0.4","0.3558230887","0.1405816365","0.4187351015","0.0940701929","","","","","","","","","","","","72","H","0","img/none_selected.jpg","","98","main_expt"
"","bandit","178","814519","0.0-139.0-0.0","06244427","wem/bandit_either_2","A8028AFBBS29G","either","4","504","","","","","","","0","0","1","","0.3064708089","0.8","0.2","0.6","0.4","0.3064708089","0.1435678602","0.3981340028","0.1285058524","","","","","","","","","","","","72","H","0","img/none_selected.jpg","","99","main_expt"
"","bandit","179","816560","0.0-140.0-0.0","06244427","wem/bandit_either_2","A8028AFBBS29G","either","4","530","","","","","","","0","1","0","","0.352498313","0.8","0.2","0.6","0.4","0.352498313","0.1478754355","0.3520446815","0.065882019","","","","","","","","","","","","72","H","0","img/none_selected.jpg","","100","main_expt"
"","bandit","180","818646","0.0-141.0-0.0","06244427","wem/bandit_either_2","A8028AFBBS29G","either","4","575","","","","","","","0","0","1","0.3511810171","","0.8","0.2","0.6","0.4","","","","","0.3511810171","0.1532559328","0.3715523215","0.05692140794","","","","","","","","72","H","0","img/none_selected.jpg","","101","main_expt"
"","bandit","181","820662","0.0-142.0-0.0","06244427","wem/bandit_either_2","A8028AFBBS29G","either","4","505","","","","","","","0","0","1","0.3246867477","","0.8","0.2","0.6","0.4","","","","","0.3246867477","0.15857411","0.3966955113","0.04322280369","","","","","","","","72","H","0","img/none_selected.jpg","","102","main_expt"
"","bandit","182","822583","0.0-143.0-0.0","06244427","wem/bandit_either_2","A8028AFBBS29G","either","4","408","","","","","","","0","0","1","","0.1552377357","0.8","0.2","0.6","0.4","0.2827689756","0.1552377357","0.3865714765","0.05121437093","","","","","","","","","","","","74","J","1","","","103","main_expt"
"","bandit","183","824447","0.0-144.0-0.0","06244427","wem/bandit_either_2","A8028AFBBS29G","either","4","353","","","","","","","0","0","1","","0.1584193753","0.8","0.2","0.6","0.4","0.3307995119","0.1584193753","0.3440646931","0.06548077564","","","","","","","","","","","","74","J","1","","","104","main_expt"
"","bandit","184","826271","0.0-145.0-0.0","06244427","wem/bandit_either_2","A8028AFBBS29G","either","4","308","","","","","","","0","1","0","","0.330981063","0.8","0.2","0.6","0.4","0.3078297571","0.192058402","0.330981063","0.07577357845","","","","","","","","","","","","75","K","2","","","105","main_expt"
"","bandit","185","828280","0.0-146.0-0.0","06244427","wem/bandit_either_2","A8028AFBBS29G","either","4","497","","","","","","","0","0","1","","0.3317280627","0.8","0.2","0.6","0.4","0.3202685942","0.1562344916","0.3317280627","0.09041352565","","","","","","","","","","","","75","K","2","","","106","main_expt"
"","bandit","186","830142","0.0-147.0-0.0","06244427","wem/bandit_either_2","A8028AFBBS29G","either","4","350","","","","","","","0","1","0","","0.2760665195","0.8","0.2","0.6","0.4","0.3163418234","0.1493116313","0.2760665195","0.1184921167","","","","","","","","","","","","75","K","2","","","107","main_expt"
"","bandit","187","831999","0.0-148.0-0.0","06244427","wem/bandit_either_2","A8028AFBBS29G","either","4","340","","","","","","","1","0","0","0.2826301941","","0.8","0.2","0.6","0.4","","","","","0.3425943818","0.1357435498","0.2826301941","0.1057615429","","","","","","","","75","K","2","","","108","main_expt"
"","bandit","188","833846","0.0-149.0-0.0","06244427","wem/bandit_either_2","A8028AFBBS29G","either","4","334","","","","","","","1","0","0","0.318117281","","0.8","0.2","0.6","0.4","","","","","0.2852030557","0.1164074326","0.318117281","0.1464484126","","","","","","","","75","K","2","","","109","main_expt"
"","bandit","189","835758","0.0-150.0-0.0","06244427","wem/bandit_either_2","A8028AFBBS29G","either","4","400","","","","","","","0","0","1","0.3358587519","","0.8","0.2","0.6","0.4","","","","","0.3392406975","0.1444451916","0.3358587519","0.1641354829","","","","","","","","75","K","2","","","110","main_expt"
"","bandit","190","837720","0.0-151.0-0.0","06244427","wem/bandit_either_2","A8028AFBBS29G","either","4","450","","","","","","","0","1","0","","0.3031660534","0.8","0.2","0.6","0.4","0.3023411017","0.09905323685","0.3031660534","0.1386891192","","","","","","","","","","","","75","K","2","","","111","main_expt"
"","bandit","191","839615","0.0-152.0-0.0","06244427","wem/bandit_either_2","A8028AFBBS29G","either","4","383","","","","","","","1","0","0","0.2773548355","","0.8","0.2","0.6","0.4","","","","","0.296849772","0.09652445584","0.2773548355","0.1847512065","","","","","","","","75","K","2","","","112","main_expt"
"","bandit","192","841462","0.0-153.0-0.0","06244427","wem/bandit_either_2","A8028AFBBS29G","either","4","335","","","","","","","0","1","0","","0.2370758425","0.8","0.2","0.6","0.4","0.2673419259","0.09961189632","0.2370758425","0.1304555333","","","","","","","","","","","","75","K","2","","","113","main_expt"
"","bandit","193","843413","0.0-154.0-0.0","06244427","wem/bandit_either_2","A8028AFBBS29G","either","4","437","","","","","","","0","0","1","0.1821928837","","0.8","0.2","0.6","0.4","","","","","0.2670531803","0.1036139638","0.1821928837","0.1770102637","","","","","","","","75","K","2","","","114","main_expt"
"","bandit","194","845402","0.0-155.0-0.0","06244427","wem/bandit_either_2","A8028AFBBS29G","either","4","476","","","","","","","0","0","1","","0.1564651975","0.8","0.2","0.6","0.4","0.2825009356","0.0968506792","0.1315453283","0.1564651975","","","","","","","","","","","","76","L","3","","","115","main_expt"
"","bandit","195","847271","0.0-156.0-0.0","06244427","wem/bandit_either_2","A8028AFBBS29G","either","4","355","","","","","","","0","0","1","","0.1665702367","0.8","0.2","0.6","0.4","0.3237719372","0.08782875681","0.1102777544","0.1665702367","","","","","","","","","","","","76","L","3","","","116","main_expt"
"","bandit","196","849446","0.0-157.0-0.0","06244427","wem/bandit_either_2","A8028AFBBS29G","either","4","664","","","","","","","0","0","1","0.1101610351","","0.8","0.2","0.6","0.4","","","","","0.3154846423","0.06031800864","0.1101610351","0.1530687496","","","","","","","","75","K","2","","","117","main_expt"
"","bandit","197","851512","0.0-158.0-0.0","06244427","wem/bandit_either_2","A8028AFBBS29G","either","4","553","","","","","","","0","0","1","0.122460482","","0.8","0.2","0.6","0.4","","","","","0.2584508078","0.05633053331","0.122460482","0.1674206906","","","","","","","","75","K","2","","","118","main_expt"
"","bandit","198","853695","0.0-159.0-0.0","06244427","wem/bandit_either_2","A8028AFBBS29G","either","4","670","","","","","","","0","0","1","","0.1990215448","0.8","0.2","0.6","0.4","0.2141905193","0.07530514027","0.1451868924","0.1990215448","","","","","","","","","","","","76","L","3","","","119","main_expt"
"","bandit","199","855591","0.0-160.0-0.0","06244427","wem/bandit_either_2","A8028AFBBS29G","either","4","384","","","","","","","0","0","1","0.2208640619","","0.8","0.2","0.6","0.4","","","","","0.2341954374","0.09639595661","0.09092593383","0.2208640619","","","","","","","","76","L","3","","","120","main_expt"
"","bandit","200","857485","0.0-161.0-0.0","06244427","wem/bandit_either_2","A8028AFBBS29G","either","4","383","","","","","","","0","0","1","0.1080456108","","0.8","0.2","0.6","0.4","","","","","0.1886372651","0.1421799471","0.1080456108","0.2602917539","","","","","","","","75","K","2","","","121","main_expt"
"","bandit","201","859472","0.0-162.0-0.0","06244427","wem/bandit_either_2","A8028AFBBS29G","either","4","475","","","","","","","0","0","1","0.1624760489","","0.8","0.2","0.6","0.4","","","","","0.1597592322","0.1624760489","0.1169053248","0.2512498235","","","","","","","","74","J","1","","","122","main_expt"
"","bandit","202","861486","0.0-163.0-0.0","06244427","wem/bandit_either_2","A8028AFBBS29G","either","4","503","","","","","","","1","0","0","0.1895266442","","0.8","0.2","0.6","0.4","","","","","0.1895266442","0.1640214383","0.1571594809","0.2266242761","","","","","","","","72","H","0","img/none_selected.jpg","","123","main_expt"
"","bandit","203","863473","0.0-164.0-0.0","06244427","wem/bandit_either_2","A8028AFBBS29G","either","4","473","","","","","","","0","0","1","0.2042850732","","0.8","0.2","0.6","0.4","","","","","0.2042850732","0.2014340991","0.2231804049","0.2373824638","","","","","","","","72","H","0","img/none_selected.jpg","","124","main_expt"
"","bandit","204","865534","0.0-165.0-0.0","06244427","wem/bandit_either_2","A8028AFBBS29G","either","4","550","","","","","","","0","0","1","0.1812515389","","0.8","0.2","0.6","0.4","","","","","0.1812515389","0.2229229076","0.2232794356","0.2538727107","","","","","","","","72","H","0","img/none_selected.jpg","","125","main_expt"
"","bandit","205","867406","0.0-166.0-0.0","06244427","wem/bandit_either_2","A8028AFBBS29G","either","4","361","","","","","","","0","0","1","0.1694736183","","0.8","0.2","0.6","0.4","","","","","0.1694736183","0.2324712723","0.2316903634","0.290219491","","","","","","","","72","H","0","img/none_selected.jpg","","126","main_expt"
"","bandit","206","869298","0.0-167.0-0.0","06244427","wem/bandit_either_2","A8028AFBBS29G","either","4","374","","","","","","","0","0","1","","0.2628391623","0.8","0.2","0.6","0.4","0.1624528765","0.2628391623","0.2337524142","0.2542505169","","","","","","","","","","","","74","J","1","","","127","main_expt"
"","bandit","207","871191","0.0-168.0-0.0","06244427","wem/bandit_either_2","A8028AFBBS29G","either","4","382","","","","","","","0","0","1","","0.2198210178","0.8","0.2","0.6","0.4","0.1632982916","0.2654356302","0.2198210178","0.2582316027","","","","","","","","","","","","75","K","2","","","128","main_expt"
"","bandit","208","872767","0.0-169.0-0.0","06244427","wem/bandit_either_2","A8028AFBBS29G","either","4","64","","","","","","","0","0","1","","0.3267566011","0.8","0.2","0.6","0.4","0.2264598068","0.2070569149","0.2280168395","0.3267566011","","","","","","","","","","","","76","L","3","","","129","main_expt"
"","bandit","209","875999","0.0-170.0-0.0","06244427","wem/bandit_either_2","A8028AFBBS29G","either","4","1721","","","","","","","0","0","1","0.202760285","","0.8","0.2","0.6","0.4","","","","","0.202760285","0.2579182239","0.243895296","0.3323271388","","","","","","","","72","H","0","img/none_selected.jpg","","130","main_expt"
"","bandit","210","877903","0.0-171.0-0.0","06244427","wem/bandit_either_2","A8028AFBBS29G","either","4","392","","","","","","","0","0","1","","0.2329110821","0.8","0.2","0.6","0.4","0.1585094705","0.2329110821","0.2164454501","0.2666668646","","","","","","","","","","","","74","J","1","","","131","main_expt"
"","bandit","211","879871","0.0-172.0-0.0","06244427","wem/bandit_either_2","A8028AFBBS29G","either","4","456","","","","","","","0","0","1","","0.200468731","0.8","0.2","0.6","0.4","0.1304261544","0.2400232435","0.200468731","0.2359119393","","","","","","","","","","","","75","K","2","","","132","main_expt"
"","bandit","212","881814","0.0-173.0-0.0","06244427","wem/bandit_either_2","A8028AFBBS29G","either","4","431","","","","","","","0","0","1","","0.2540740643","0.8","0.2","0.6","0.4","0.09339990826","0.2084798617","0.2038597077","0.2540740643","","","","","","","","","","","","76","L","3","","","133","main_expt"
"","bandit","213","883758","0.0-174.0-0.0","06244427","wem/bandit_either_2","A8028AFBBS29G","either","4","432","","","","","","","0","0","1","0.08524612959","","0.8","0.2","0.6","0.4","","","","","0.08524612959","0.2034544","0.2263269307","0.2414927735","","","","","","","","72","H","0","img/none_selected.jpg","","134","main_expt"
"","bandit","214","885525","0.0-175.0-0.0","06244427","wem/bandit_either_2","A8028AFBBS29G","either","4","256","","","","","","","0","0","1","","0.2088958693","0.8","0.2","0.6","0.4","0.0622033461","0.2088958693","0.2686469146","0.2632369982","","","","","","","","","","","","74","J","1","","","135","main_expt"
"","bandit","215","887551","0.0-176.0-0.0","06244427","wem/bandit_either_2","A8028AFBBS29G","either","4","512","","","","","","","0","1","0","","0.3170393738","0.8","0.2","0.6","0.4","0.05632890875","0.2573758916","0.3170393738","0.3032623762","","","","","","","","","","","","75","K","2","","","136","main_expt"
"","bandit","216","889574","0.0-177.0-0.0","06244427","wem/bandit_either_2","A8028AFBBS29G","either","4","511","","","","","","","0","1","0","","0.338962466","0.8","0.2","0.6","0.4","0.06052980877","0.2467438462","0.338962466","0.2984046037","","","","","","","","","","","","75","K","2","","","137","main_expt"
"","bandit","217","891526","0.0-178.0-0.0","06244427","wem/bandit_either_2","A8028AFBBS29G","either","4","439","","","","","","","0","0","1","0.3586643031","","0.8","0.2","0.6","0.4","","","","","0.1038497792","0.2221944767","0.3586643031","0.3110629865","","","","","","","","75","K","2","","","138","main_expt"
"","bandit","218","893536","0.0-179.0-0.0","06244427","wem/bandit_either_2","A8028AFBBS29G","either","4","494","","","","","","","1","0","0","0.3430902759","","0.8","0.2","0.6","0.4","","","","","0.08561062373","0.2750517365","0.3430902759","0.3048373826","","","","","","","","75","K","2","","","139","main_expt"
"","bandit","219","895430","0.0-180.0-0.0","06244427","wem/bandit_either_2","A8028AFBBS29G","either","4","382","","","","","","","0","1","0","","0.3777112835","0.8","0.2","0.6","0.4","0.08025295029","0.277474309","0.3777112835","0.3163642845","","","","","","","","","","","","75","K","2","","","140","main_expt"
"","bandit","220","897276","0.0-181.0-0.0","06244427","wem/bandit_either_2","A8028AFBBS29G","either","4","335","","","","","","","0","1","0","","0.4276051364","0.8","0.2","0.6","0.4","0.09309891757","0.2932007391","0.4276051364","0.2213861514","","","","","","","","","","","","75","K","2","","","141","main_expt"
"","bandit","221","899166","0.0-182.0-0.0","06244427","wem/bandit_either_2","A8028AFBBS29G","either","4","376","","","","","","","1","0","0","0.4312347149","","0.8","0.2","0.6","0.4","","","","","0.1107976638","0.3001807938","0.4312347149","0.2492613222","","","","","","","","75","K","2","","","142","main_expt"
"","bandit","222","901295","0.0-183.0-0.0","06244427","wem/bandit_either_2","A8028AFBBS29G","either","4","615","","","","","","","0","1","0","","0.386657586","0.8","0.2","0.6","0.4","0.09575525052","0.3640878437","0.386657586","0.2645663874","","","","","","","","","","","","75","K","2","","","143","main_expt"
"","bandit","223","903133","0.0-184.0-0.0","06244427","wem/bandit_either_2","A8028AFBBS29G","either","4","326","","","","","","","0","0","1","0.3409851627","","0.8","0.2","0.6","0.4","","","","","0.07222794989","0.2706796495","0.3409851627","0.2928215939","","","","","","","","75","K","2","","","144","main_expt"
"","bandit","224","905055","0.0-185.0-0.0","06244427","wem/bandit_either_2","A8028AFBBS29G","either","4","407","","","","","","","0","0","1","","0.3538709708","0.8","0.2","0.6","0.4","0.03203798906","0.2359726437","0.3538709708","0.3178979655","","","","","","","","","","","","75","K","2","","","145","main_expt"
"","bandit","225","907005","0.0-186.0-0.0","06244427","wem/bandit_either_2","A8028AFBBS29G","either","4","440","","","","","","","0","0","1","0.2850957273","","0.8","0.2","0.6","0.4","","","","","0.03073079809","0.2200332621","0.2745956728","0.2850957273","","","","","","","","76","L","3","","","146","main_expt"
"","bandit","226","908725","0.0-187.0-0.0","06244427","wem/bandit_either_2","A8028AFBBS29G","either","4","208","","","","","","","0","1","0","","0.1957794229","0.8","0.2","0.6","0.4","0.05105424151","0.1957794229","0.2375793476","0.2483519338","","","","","","","","","","","","74","J","1","","","147","main_expt"
"","bandit","227","910639","0.0-188.0-0.0","06244427","wem/bandit_either_2","A8028AFBBS29G","either","4","400","","","","","","","0","1","0","","0.1790722045","0.8","0.2","0.6","0.4","0.04045355104","0.1790722045","0.2954602587","0.2309770791","","","","","","","","","","","","74","J","1","","","148","main_expt"
"","bandit","228","912590","0.0-189.0-0.0","06244427","wem/bandit_either_2","A8028AFBBS29G","either","4","439","","","","","","","0","0","1","","0.2189150546","0.8","0.2","0.6","0.4","0.06416506337","0.2189150546","0.3435099865","0.1759049641","","","","","","","","","","","","74","J","1","","","149","main_expt"
"","bandit","229","914591","0.0-190.0-0.0","06244427","wem/bandit_either_2","A8028AFBBS29G","either","4","486","","","","","","","0","0","1","","0.2119229637","0.8","0.2","0.6","0.4","0.07819388902","0.2119229637","0.268900415","0.1910702346","","","","","","","","","","","","74","J","1","","","150","main_expt"
"","bandit","230","916446","0.0-191.0-0.0","06244427","wem/bandit_either_2","A8028AFBBS29G","either","4","342","","","","","","","0","1","0","","0.2326488896","0.8","0.2","0.6","0.4","0.1186979887","0.2472398003","0.2326488896","0.1799178466","","","","","","","","","","","","75","K","2","","","151","main_expt"
"","bandit","231","918365","0.0-192.0-0.0","06244427","wem/bandit_either_2","A8028AFBBS29G","either","4","406","","","","","","","0","0","1","0.2768057641","","0.8","0.2","0.6","0.4","","","","","0.1084773402","0.2148428051","0.2768057641","0.1826140084","","","","","","","","75","K","2","","","152","main_expt"
"","bandit","232","920174","0.0-193.0-0.0","06244427","wem/bandit_either_2","A8028AFBBS29G","either","4","295","","","","","","","0","0","1","","0.2997660112","0.8","0.2","0.6","0.4","0.1314289417","0.1598057249","0.2997660112","0.147924298","","","","","","","","","","","","75","K","2","","","153","main_expt"
"","bandit","233","922118","0.0-194.0-0.0","06244427","wem/bandit_either_2","A8028AFBBS29G","either","4","431","","","","","","","0","0","1","0.1354051011","","0.8","0.2","0.6","0.4","","","","","0.1354051011","0.1489099923","0.3196464983","0.1388357139","","","","","","","","72","H","0","img/none_selected.jpg","","154","main_expt"
"","bandit","234","924151","0.0-195.0-0.0","06244427","wem/bandit_either_2","A8028AFBBS29G","either","4","519","","","","","","","0","0","1","0.1085215933","","0.8","0.2","0.6","0.4","","","","","0.1085215933","0.1502541116","0.3141654429","0.1658398244","","","","","","","","72","H","0","img/none_selected.jpg","","155","main_expt"
"","bandit","235","926111","0.0-196.0-0.0","06244427","wem/bandit_either_2","A8028AFBBS29G","either","4","446","","","","","","","0","0","1","0.1383379057","","0.8","0.2","0.6","0.4","","","","","0.1383379057","0.1605084188","0.2667217688","0.1104921729","","","","","","","","72","H","0","img/none_selected.jpg","","156","main_expt"
"","bandit","236","928030","0.0-197.0-0.0","06244427","wem/bandit_either_2","A8028AFBBS29G","either","4","406","","","","","","","0","0","1","","0.1684101418","0.8","0.2","0.6","0.4","0.1428990181","0.1684101418","0.2867075714","0.09530810267","","","","","","","","","","","","74","J","1","","","157","main_expt"
"","bandit","237","929878","0.0-198.0-0.0","06244427","wem/bandit_either_2","A8028AFBBS29G","either","4","334","","","","","","","0","0","1","0.2788639118","","0.8","0.2","0.6","0.4","","","","","0.07455979893","0.1807688322","0.2788639118","0.1211627972","","","","","","","","75","K","2","","","158","main_expt"
"","bandit","238","932245","0.0-199.0-0.0","06244427","wem/bandit_either_2","A8028AFBBS29G","either","4","856","","","","","","","0","1","0","","0.1012897464","0.8","0.2","0.6","0.4","0.1009372764","0.1516426412","0.3020710819","0.1012897464","","","","","","","","","","","","76","L","3","","","159","main_expt"
"","bandit","239","934110","0.0-200.0-0.0","06244427","wem/bandit_either_2","A8028AFBBS29G","either","4","351","","","","","","","0","0","1","","0.1188035868","0.8","0.2","0.6","0.4","0.05118862797","0.1638698877","0.3404227007","0.1188035868","","","","","","","","","","","","76","L","3","","","160","main_expt"
"","bandit","240","936261","0.0-201.0-0.0","06244427","wem/bandit_either_2","A8028AFBBS29G","either","4","638","","","","","","","1","0","0","0.1606836622","","0.8","0.2","0.6","0.4","","","","","0.05265847637","0.1645359983","0.2876249865","0.1606836622","","","","","","","","76","L","3","","","161","main_expt"
"","bandit","241","938200","0.0-202.0-0.0","06244427","wem/bandit_either_2","A8028AFBBS29G","either","4","423","","","","","","","0","0","1","","0.1859884171","0.8","0.2","0.6","0.4","0.07938684611","0.2509918509","0.2401308511","0.1859884171","","","","","","","","","","","","76","L","3","","","162","main_expt"
"","bandit","242","940181","0.0-203.0-0.0","06244427","wem/bandit_either_2","A8028AFBBS29G","either","4","469","","","","","","","1","0","0","0.2528258464","","0.8","0.2","0.6","0.4","","","","","0.0970900163","0.1883685458","0.2486605046","0.2528258464","","","","","","","","76","L","3","","","163","main_expt"
"","bandit","243","942080","0.0-204.0-0.0","06244427","wem/bandit_either_2","A8028AFBBS29G","either","4","383","","","","","","","0","1","0","","0.2515292425","0.8","0.2","0.6","0.4","0.07401968201","0.2179532334","0.22675384","0.2515292425","","","","","","","","","","","","76","L","3","","","164","main_expt"
"","bandit","244","944032","0.0-205.0-0.0","06244427","wem/bandit_either_2","A8028AFBBS29G","either","4","438","","","","","","","0","0","1","","0.2068970429","0.8","0.2","0.6","0.4","0.06633104104","0.2143704678","0.2841151948","0.2068970429","","","","","","","","","","","","76","L","3","","","165","main_expt"
"","bandit","245","945959","0.0-206.0-0.0","06244427","wem/bandit_either_2","A8028AFBBS29G","either","4","413","","","","","","","0","0","1","0.1413778631","","0.8","0.2","0.6","0.4","","","","","0.05309652092","0.2175899085","0.2842980464","0.1413778631","","","","","","","","76","L","3","","","166","main_expt"
"","bandit","246","947857","0.0-207.0-0.0","06244427","wem/bandit_either_2","A8028AFBBS29G","either","4","381","","","","","","","0","0","1","0.1999497975","","0.8","0.2","0.6","0.4","","","","","0.07357446968","0.2137120923","0.3007590714","0.1999497975","","","","","","","","76","L","3","","","167","main_expt"
"","bandit","247","949727","0.0-208.0-0.0","06244427","wem/bandit_either_2","A8028AFBBS29G","either","4","355","","","","","","","0","0","1","0.2884936601","","0.8","0.2","0.6","0.4","","","","","0.1054325378","0.2331560811","0.2884936601","0.1696145944","","","","","","","","75","K","2","","","168","main_expt"
"","bandit","248","951614","0.0-209.0-0.0","06244427","wem/bandit_either_2","A8028AFBBS29G","either","4","374","","","","","","","0","0","1","","0.2367963754","0.8","0.2","0.6","0.4","0.08536867429","0.2367963754","0.2803439438","0.1338518967","","","","","","","","","","","","74","J","1","","","169","main_expt"
"","bandit","249","953455","0.0-210.0-0.0","06244427","wem/bandit_either_2","A8028AFBBS29G","either","4","326","","","","","","","0","0","1","0.1083432756","","0.8","0.2","0.6","0.4","","","","","0.1083432756","0.2378050175","0.3010437192","0.1307598277","","","","","","","","72","H","0","img/none_selected.jpg","","170","main_expt"
"","bandit","250","955512","0.0-211.0-0.0","06244427","wem/bandit_either_2","A8028AFBBS29G","either","4","543","","","","","","","0","0","1","","0.2253696972","0.8","0.2","0.6","0.4","0.09185370626","0.2253696972","0.3243802095","0.1200375331","","","","","","","","","","","","74","J","1","","","171","main_expt"
"","bandit","251","957503","0.0-212.0-0.0","06244427","wem/bandit_either_2","A8028AFBBS29G","either","4","476","","","","","","","0","0","1","0.3140094691","","0.8","0.2","0.6","0.4","","","","","0.09458096772","0.2903394368","0.3140094691","0.07514546963","","","","","","","","75","K","2","","","172","main_expt"
"","bandit","252","959349","0.0-213.0-0.0","06244427","wem/bandit_either_2","A8028AFBBS29G","either","4","335","","","","","","","0","0","1","","0.07704486673","0.8","0.2","0.6","0.4","0.1016296913","0.2384828248","0.2433770114","0.07704486673","","","","","","","","","","","","76","L","3","","","173","main_expt"
"","bandit","253","961534","0.0-214.0-0.0","06244427","wem/bandit_either_2","A8028AFBBS29G","either","4","671","","","","","","","0","0","1","0.117107939","","0.8","0.2","0.6","0.4","","","","","0.117107939","0.2823111034","0.2080779891","0.04061738922","","","","","","","","72","H","0","img/none_selected.jpg","","174","main_expt"
"","bandit","254","963598","0.0-215.0-0.0","06244427","wem/bandit_either_2","A8028AFBBS29G","either","4","550","","","","","","","1","0","0","0.1254773658","","0.8","0.2","0.6","0.4","","","","","0.1254773658","0.292147578","0.2211365803","0.02968316822","","","","","","","","72","H","0","img/none_selected.jpg","","175","main_expt"
"","bandit","255","965623","0.0-216.0-0.0","06244427","wem/bandit_either_2","A8028AFBBS29G","either","4","511","","","","","","","0","0","1","0.1518856622","","0.8","0.2","0.6","0.4","","","","","0.1518856622","0.2928295457","0.231280906","0.04419366322","","","","","","","","72","H","0","img/none_selected.jpg","","176","main_expt"
"","bandit","256","967616","0.0-217.0-0.0","06244427","wem/bandit_either_2","A8028AFBBS29G","either","4","477","","","","","","","0","0","1","0.1502483312","","0.8","0.2","0.6","0.4","","","","","0.1502483312","0.297241693","0.1689881391","0.04140429262","","","","","","","","72","H","0","img/none_selected.jpg","","177","main_expt"
"","bandit","257","969606","0.0-218.0-0.0","06244427","wem/bandit_either_2","A8028AFBBS29G","either","4","477","","","","","","","0","0","1","0.276241128","","0.8","0.2","0.6","0.4","","","","","0.2073149786","0.276241128","0.1699404395","0.06103489621","","","","","","","","74","J","1","","","178","main_expt"
"","bandit","258","971479","0.0-219.0-0.0","06244427","wem/bandit_either_2","A8028AFBBS29G","either","4","359","","","","","","","0","0","1","0.2405339857","","0.8","0.2","0.6","0.4","","","","","0.1928578162","0.2405339857","0.1571972967","0.053608248","","","","","","","","74","J","1","","","179","main_expt"
"","bandit","259","973422","0.0-220.0-0.0","06244427","wem/bandit_either_2","A8028AFBBS29G","either","4","429","","","","","","","0","0","1","0.1567782565","","0.8","0.2","0.6","0.4","","","","","0.1412953234","0.233428307","0.1567782565","0.06289379635","","","","","","","","75","K","2","","","180","main_expt"
"","bandit","260","975341","0.0-221.0-0.0","06244427","wem/bandit_either_2","A8028AFBBS29G","either","4","406","","","","","","","0","0","1","0.1492691696","","0.8","0.2","0.6","0.4","","","","","0.1258774719","0.1459310114","0.1492691696","0.07748386732","","","","","","","","75","K","2","","","181","main_expt"
"","bandit","261","977278","0.0-222.0-0.0","06244427","wem/bandit_either_2","A8028AFBBS29G","either","4","424","","","","","","","0","0","1","","0.096714051","0.8","0.2","0.6","0.4","0.1121960069","0.1796360657","0.1609613705","0.096714051","","","","","","","","","","","","76","L","3","","","182","main_expt"
"","bandit","262","979335","0.0-223.0-0.0","06244427","wem/bandit_either_2","A8028AFBBS29G","either","4","543","","","","","","","0","0","1","0.05351369794","","0.8","0.2","0.6","0.4","","","","","0.08335286121","0.1907874973","0.1982891881","0.05351369794","","","","","","","","76","L","3","","","183","main_expt"
"","bandit","263","981319","0.0-224.0-0.0","06244427","wem/bandit_either_2","A8028AFBBS29G","either","4","469","","","","","","","0","0","1","","0.1085923678","0.8","0.2","0.6","0.4","0.1085923678","0.1451627339","0.1703318442","0.08854511538","","","","","","","","","","","","72","H","0","img/none_selected.jpg","","184","main_expt"
"","bandit","264","983416","0.0-225.0-0.0","06244427","wem/bandit_either_2","A8028AFBBS29G","either","4","581","","","","","","","0","0","1","","0.1692531577","0.8","0.2","0.6","0.4","0.1113654269","0.1692531577","0.09566746086","0.136385666","","","","","","","","","","","","74","J","1","","","185","main_expt"
"","bandit","265","985470","0.0-226.0-0.0","06244427","wem/bandit_either_2","A8028AFBBS29G","either","4","541","","","","","","","0","0","1","","0.1254261761","0.8","0.2","0.6","0.4","0.1383531569","0.1885113298","0.1254261761","0.1848043888","","","","","","","","","","","","75","K","2","","","186","main_expt"
"","bandit","266","987438","0.0-227.0-0.0","06244427","wem/bandit_either_2","A8028AFBBS29G","either","4","455","","","","","","","1","0","0","0.1640989128","","0.8","0.2","0.6","0.4","","","","","0.1739713275","0.2088125345","0.1081798115","0.1640989128","","","","","","","","76","L","3","","","187","main_expt"
"","bandit","267","989342","0.0-228.0-0.0","06244427","wem/bandit_either_2","A8028AFBBS29G","either","4","390","","","","","","","0","0","1","0.1301402021","","0.8","0.2","0.6","0.4","","","","","0.1926366302","0.2228369986","0.08529062399","0.1301402021","","","","","","","","76","L","3","","","188","main_expt"
"","bandit","268","991279","0.0-229.0-0.0","06244427","wem/bandit_either_2","A8028AFBBS29G","either","4","423","","","","","","","0","1","0","","0.1980942663","0.8","0.2","0.6","0.4","0.2499935398","0.2567428292","0.07250281893","0.1980942663","","","","","","","","","","","","76","L","3","","","189","main_expt"
"","bandit","269","993185","0.0-230.0-0.0","06244427","wem/bandit_either_2","A8028AFBBS29G","either","4","389","","","","","","","1","0","0","0.1842725295","","0.8","0.2","0.6","0.4","","","","","0.2367317824","0.3177850294","0.07895395147","0.1842725295","","","","","","","","76","L","3","","","190","main_expt"
"","bandit","270","995071","0.0-231.0-0.0","06244427","wem/bandit_either_2","A8028AFBBS29G","either","4","372","","","","","","","0","0","1","","0.2087081259","0.8","0.2","0.6","0.4","0.2515026666","0.2876912335","0.06204701637","0.2087081259","","","","","","","","","","","","76","L","3","","","191","main_expt"
"","bandit","271","996958","0.0-232.0-0.0","06244427","wem/bandit_either_2","A8028AFBBS29G","either","4","372","","","","","","","0","0","1","0.1800110976","","0.8","0.2","0.6","0.4","","","","","0.2451916405","0.2383873749","0.064067899","0.1800110976","","","","","","","","76","L","3","","","192","main_expt"
"","bandit","272","998886","0.0-233.0-0.0","06244427","wem/bandit_either_2","A8028AFBBS29G","either","4","415","","","","","","","0","0","1","0.1519186298","","0.8","0.2","0.6","0.4","","","","","0.2353451433","0.24690957","0.1286650472","0.1519186298","","","","","","","","76","L","3","","","193","main_expt"
"","bandit","273","1000934","0.0-234.0-0.0","06244427","wem/bandit_either_2","A8028AFBBS29G","either","4","534","","","","","","","0","0","1","0.307075739","","0.8","0.2","0.6","0.4","","","","","0.307075739","0.2728455101","0.1746490116","0.1431656489","","","","","","","","72","H","0","img/none_selected.jpg","","194","main_expt"
"","bandit","274","1002862","0.0-235.0-0.0","06244427","wem/bandit_either_2","A8028AFBBS29G","either","4","416","","","","","","","0","0","1","0.3011001907","","0.8","0.2","0.6","0.4","","","","","0.3011001907","0.2421292151","0.129035247","0.1868251083","","","","","","","","72","H","0","img/none_selected.jpg","","195","main_expt"
"","bandit","275","1004799","0.0-236.0-0.0","06244427","wem/bandit_either_2","A8028AFBBS29G","either","4","422","","","","","","","0","0","1","","0.2598052724","0.8","0.2","0.6","0.4","0.2861216794","0.2598052724","0.09052040682","0.176624335","","","","","","","","","","","","74","J","1","","","196","main_expt"
"","bandit","276","1006701","0.0-237.0-0.0","06244427","wem/bandit_either_2","A8028AFBBS29G","either","4","390","","","","","","","0","0","1","","0.2540930088","0.8","0.2","0.6","0.4","0.2121549007","0.2540930088","0.08675464884","0.2383323772","","","","","","","","","","","","74","J","1","","","197","main_expt"
"","bandit","277","1008615","0.0-238.0-0.0","06244427","wem/bandit_either_2","A8028AFBBS29G","either","4","397","","","","","","","0","0","1","","0.09429549835","0.8","0.2","0.6","0.4","0.260340052","0.2460150375","0.09429549835","0.260618614","","","","","","","","","","","","75","K","2","","","198","main_expt"
"","bandit","278","1010551","0.0-239.0-0.0","06244427","wem/bandit_either_2","A8028AFBBS29G","either","4","422","","","","","","","0","0","1","0.09303778716","","0.8","0.2","0.6","0.4","","","","","0.3009562829","0.2217343644","0.09303778716","0.2935067364","","","","","","","","75","K","2","","","199","main_expt"
"","bandit","279","1012634","0.0-240.0-0.0","06244427","wem/bandit_either_2","A8028AFBBS29G","either","4","564","","","","","","","0","0","1","","0.3430896668","0.8","0.2","0.6","0.4","0.3430896668","0.2830302048","0.07354084322","0.362920627","","","","","","","","","","","","72","H","0","img/none_selected.jpg","","200","main_expt"
"","bandit","280","1014559","0.0-241.0-0.0","06244427","wem/bandit_either_2","A8028AFBBS29G","either","4","412","","","","","","","0","0","1","0.3175621279","","0.8","0.2","0.6","0.4","","","","","0.2973668079","0.3175621279","0.08115367452","0.3119044903","","","","","","","","74","J","1","","","201","main_expt"
"","bandit","281","1016248","0.0-242.0-0.0","06244427","wem/bandit_either_2","A8028AFBBS29G","either","4","173","","","","","","","1","0","0","0.3095695708","","0.8","0.2","0.6","0.4","","","","","0.3219337599","0.3049471546","0.0774842685","0.3095695708","","","","","","","","76","L","3","","","202","main_expt"
"","bandit","282","1018128","0.0-243.0-0.0","06244427","wem/bandit_either_2","A8028AFBBS29G","either","4","364","","","","","","","0","0","1","","0.3005459379","0.8","0.2","0.6","0.4","0.3229991028","0.2975042969","0.09704724367","0.3005459379","","","","","","","","","","","","76","L","3","","","203","main_expt"
"","bandit","283","1020031","0.0-244.0-0.0","06244427","wem/bandit_either_2","A8028AFBBS29G","either","4","389","","","","","","","0","0","1","","0.3116824409","0.8","0.2","0.6","0.4","0.3077995671","0.2268457719","0.1224111047","0.3116824409","","","","","","","","","","","","76","L","3","","","204","main_expt"
"","bandit","284","1021951","0.0-245.0-0.0","06244427","wem/bandit_either_2","A8028AFBBS29G","either","4","407","","","","","","","0","1","0","","0.3291635812","0.8","0.2","0.6","0.4","0.3070199156","0.2582085449","0.1627664319","0.3291635812","","","","","","","","","","","","76","L","3","","","205","main_expt"
"","bandit","285","1023949","0.0-246.0-0.0","06244427","wem/bandit_either_2","A8028AFBBS29G","either","4","484","","","","","","","0","0","1","","0.4008790519","0.8","0.2","0.6","0.4","0.3109683939","0.2841247045","0.1604236747","0.4008790519","","","","","","","","","","","","76","L","3","","","206","main_expt"
"","bandit","286","1025742","0.0-247.0-0.0","06244427","wem/bandit_either_2","A8028AFBBS29G","either","4","283","","","","","","","0","0","1","0.4202180382","","0.8","0.2","0.6","0.4","","","","","0.2845075958","0.3333225396","0.126388554","0.4202180382","","","","","","","","76","L","3","","","207","main_expt"
"","bandit","287","1027545","0.0-248.0-0.0","06244427","wem/bandit_either_2","A8028AFBBS29G","either","4","285","","","","","","","0","0","1","0.4168586074","","0.8","0.2","0.6","0.4","","","","","0.2419557814","0.290219871","0.1602309633","0.4168586074","","","","","","","","76","L","3","","","208","main_expt"
"","bandit","288","1029374","0.0-249.0-0.0","06244427","wem/bandit_either_2","A8028AFBBS29G","either","4","315","","","","","","","0","0","1","0.2009997365","","0.8","0.2","0.6","0.4","","","","","0.2449545816","0.3426384504","0.2009997365","0.3949328033","","","","","","","","75","K","2","","","209","main_expt"
"","bandit","289","1031131","0.0-250.0-0.0","06244427","wem/bandit_either_2","A8028AFBBS29G","either","4","238","","","","","","","0","0","1","","0.2932754766","0.8","0.2","0.6","0.4","0.2176860071","0.2932754766","0.1997114924","0.41782505","","","","","","","","","","","","74","J","1","","","210","main_expt"
"","bandit","290","1033039","0.0-251.0-0.0","06244427","wem/bandit_either_2","A8028AFBBS29G","either","4","394","","","","","","","0","0","1","0.2460847292","","0.8","0.2","0.6","0.4","","","","","0.2460847292","0.2522206247","0.2631807131","0.4377941382","","","","","","","","72","H","0","img/none_selected.jpg","","211","main_expt"
"","bandit","291","1035014","0.0-252.0-0.0","06244427","wem/bandit_either_2","A8028AFBBS29G","either","4","460","","","","","","","0","0","1","","0.2017704833","0.8","0.2","0.6","0.4","0.2017704833","0.2323705111","0.2008991105","0.4619006446","","","","","","","","","","","","72","H","0","img/none_selected.jpg","","212","main_expt"
"","bandit","292","1037048","0.0-253.0-0.0","06244427","wem/bandit_either_2","A8028AFBBS29G","either","4","518","","","","","","","0","1","0","","0.2815580385","0.8","0.2","0.6","0.4","0.1891715169","0.2815580385","0.1656487101","0.4508737721","","","","","","","","","","","","74","J","1","","","213","main_expt"
"","bandit","293","1038966","0.0-254.0-0.0","06244427","wem/bandit_either_2","A8028AFBBS29G","either","4","405","","","","","","","1","0","0","0.2955812139","","0.8","0.2","0.6","0.4","","","","","0.1819308411","0.2955812139","0.213788386","0.4639731149","","","","","","","","74","J","1","","","214","main_expt"
"","bandit","294","1041021","0.0-255.0-0.0","06244427","wem/bandit_either_2","A8028AFBBS29G","either","4","541","","","","","","","0","0","1","","0.2988647484","0.8","0.2","0.6","0.4","0.1406935411","0.2988647484","0.2206736926","0.4690757113","","","","","","","","","","","","74","J","1","","","215","main_expt"
"","bandit","295","1042982","0.0-256.0-0.0","06244427","wem/bandit_either_2","A8028AFBBS29G","either","4","445","","","","","","","0","1","0","","0.3361974059","0.8","0.2","0.6","0.4","0.206739756","0.3361974059","0.2270120675","0.4685680314","","","","","","","","","","","","74","J","1","","","216","main_expt"
"","bandit","296","1045007","0.0-257.0-0.0","06244427","wem/bandit_either_2","A8028AFBBS29G","either","4","510","","","","","","","0","0","1","","0.2764506131","0.8","0.2","0.6","0.4","0.178624692","0.2764506131","0.2561581829","0.4873952874","","","","","","","","","","","","74","J","1","","","217","main_expt"
"","bandit","297","1046878","0.0-258.0-0.0","06244427","wem/bandit_either_2","A8028AFBBS29G","either","4","356","","","","","","","0","1","0","","0.299893698","0.8","0.2","0.6","0.4","0.2021641755","0.299893698","0.2785758431","0.4790671899","","","","","","","","","","","","74","J","1","","","218","main_expt"
"","bandit","298","1048726","0.0-259.0-0.0","06244427","wem/bandit_either_2","A8028AFBBS29G","either","4","333","","","","","","","0","0","1","","0.3213687962","0.8","0.2","0.6","0.4","0.2076996705","0.3213687962","0.2707863597","0.4769795117","","","","","","","","","","","","74","J","1","","","219","main_expt"
"","bandit","299","1050870","0.0-260.0-0.0","06244427","wem/bandit_either_2","A8028AFBBS29G","either","4","630","","","","","","","0","0","1","","0.3782095139","0.8","0.2","0.6","0.4","0.2479045362","0.3782095139","0.2262269101","0.4746148145","","","","","","","","","","","","74","J","1","","","220","main_expt"
"","bandit","300","1052798","0.0-261.0-0.0","06244427","wem/bandit_either_2","A8028AFBBS29G","either","4","414","","","","","","","0","0","1","","0.3572699546","0.8","0.2","0.6","0.4","0.251163546","0.3572699546","0.2522421151","0.4789253058","","","","","","","","","","","","74","J","1","","","221","main_expt"
"","bandit","301","1054663","0.0-262.0-0.0","06244427","wem/bandit_either_2","A8028AFBBS29G","either","4","346","","","","","","","0","0","1","","0.2323100388","0.8","0.2","0.6","0.4","0.2653622565","0.332217079","0.2323100388","0.4765400837","","","","","","","","","","","","75","K","2","","","222","main_expt"
"","bandit","302","1056520","0.0-263.0-0.0","06244427","wem/bandit_either_2","A8028AFBBS29G","either","4","342","","","","","","","0","0","1","0.2013525365","","0.8","0.2","0.6","0.4","","","","","0.2034578964","0.3327789551","0.2013525365","0.4872993944","","","","","","","","75","K","2","","","223","main_expt"
"","bandit","303","1058478","0.0-264.0-0.0","06244427","wem/bandit_either_2","A8028AFBBS29G","either","4","443","","","","","","","0","0","1","0.1176985371","","0.8","0.2","0.6","0.4","","","","","0.1176985371","0.3720138676","0.2017363432","0.4864577786","","","","","","","","72","H","0","img/none_selected.jpg","","224","main_expt"
"","bandit","304","1060286","0.0-265.0-0.0","06244427","wem/bandit_either_2","A8028AFBBS29G","either","4","292","","","","","","","0","0","1","0.08531446518","","0.8","0.2","0.6","0.4","","","","","0.08531446518","0.4035982493","0.1608447522","0.4815865163","","","","","","","","72","H","0","img/none_selected.jpg","","225","main_expt"
"","bandit","305","1062144","0.0-266.0-0.0","06244427","wem/bandit_either_2","A8028AFBBS29G","either","4","341","","","","","","","1","0","0","0.4781941344","","0.8","0.2","0.6","0.4","","","","","0.0901010045","0.3538577565","0.2023183299","0.4781941344","","","","","","","","76","L","3","","","226","main_expt"
"","bandit","306","1064159","0.0-267.0-0.0","06244427","wem/bandit_either_2","A8028AFBBS29G","either","4","499","","","","","","","0","1","0","","0.4742279627","0.8","0.2","0.6","0.4","0.06499555022","0.4205879778","0.1555458008","0.4742279627","","","","","","","","","","","","76","L","3","","","227","main_expt"
"","bandit","307","1066294","0.0-268.0-0.0","06244427","wem/bandit_either_2","A8028AFBBS29G","either","4","620","","","","","","","0","1","0","","0.4597327255","0.8","0.2","0.6","0.4","0.06967502077","0.4082381823","0.1210896773","0.4597327255","","","","","","","","","","","","76","L","3","","","228","main_expt"
"","bandit","308","1068335","0.0-269.0-0.0","06244427","wem/bandit_either_2","A8028AFBBS29G","either","4","525","","","","","","","0","0","1","","0.4733003713","0.8","0.2","0.6","0.4","0.07642173418","0.4274963613","0.1206830913","0.4733003713","","","","","","","","","","","","76","L","3","","","229","main_expt"
"","bandit","309","1070222","0.0-270.0-0.0","06244427","wem/bandit_either_2","A8028AFBBS29G","either","4","368","","","","","","","1","0","0","0.4832022084","","0.8","0.2","0.6","0.4","","","","","0.04973788902","0.4362488765","0.1334008039","0.4832022084","","","","","","","","76","L","3","","","230","main_expt"
"","bandit","310","1072199","0.0-271.0-0.0","06244427","wem/bandit_either_2","A8028AFBBS29G","either","4","459","","","","","","","0","1","0","","0.4802630573","0.8","0.2","0.6","0.4","0.07419495466","0.4420629534","0.1048467088","0.4802630573","","","","","","","","","","","","76","L","3","","","231","main_expt"
"","bandit","311","1074278","0.0-272.0-0.0","06244427","wem/bandit_either_2","A8028AFBBS29G","either","4","564","","","","","","","1","0","0","0.4739318499","","0.8","0.2","0.6","0.4","","","","","0.08125260149","0.4287414635","0.1184002818","0.4739318499","","","","","","","","76","L","3","","","232","main_expt"
"","bandit","312","1076183","0.0-273.0-0.0","06244427","wem/bandit_either_2","A8028AFBBS29G","either","4","388","","","","","","","1","0","0","0.4709765286","","0.8","0.2","0.6","0.4","","","","","0.06057073796","0.4395511981","0.08533064469","0.4709765286","","","","","","","","76","L","3","","","233","main_expt"
"","bandit","313","1078118","0.0-274.0-0.0","06244427","wem/bandit_either_2","A8028AFBBS29G","either","4","419","","","","","","","0","0","1","","0.4658145356","0.8","0.2","0.6","0.4","0.1037411708","0.4479240545","0.1190123434","0.4658145356","","","","","","","","","","","","76","L","3","","","234","main_expt"
"","bandit","314","1080120","0.0-275.0-0.0","06244427","wem/bandit_either_2","A8028AFBBS29G","either","4","484","","","","","","","0","0","1","","0.4312508187","0.8","0.2","0.6","0.4","0.1267441937","0.4476644646","0.1392024459","0.4312508187","","","","","","","","","","","","76","L","3","","","235","main_expt"
"","bandit","315","1082053","0.0-276.0-0.0","06244427","wem/bandit_either_2","A8028AFBBS29G","either","4","422","","","","","","","0","0","1","","0.4323277229","0.8","0.2","0.6","0.4","0.1002206095","0.457106966","0.1076242464","0.4323277229","","","","","","","","","","","","76","L","3","","","236","main_expt"
"","bandit","316","1083968","0.0-277.0-0.0","06244427","wem/bandit_either_2","A8028AFBBS29G","either","4","396","","","","","","","0","0","1","0.1539911713","","0.8","0.2","0.6","0.4","","","","","0.08353940566","0.4097288684","0.1539911713","0.4517679415","","","","","","","","75","K","2","","","237","main_expt"
"","bandit","317","1085879","0.0-278.0-0.0","06244427","wem/bandit_either_2","A8028AFBBS29G","either","4","393","","","","","","","0","0","1","0.1833253983","","0.8","0.2","0.6","0.4","","","","","0.07847158511","0.4530646831","0.1833253983","0.4476427196","","","","","","","","75","K","2","","","238","main_expt"
"","bandit","318","1087783","0.0-279.0-0.0","06244427","wem/bandit_either_2","A8028AFBBS29G","either","4","385","","","","","","","1","0","0","0.1132310855","","0.8","0.2","0.6","0.4","","","","","0.1132310855","0.4532148127","0.185515968","0.4421551546","","","","","","","","72","H","0","img/none_selected.jpg","","239","main_expt"
"","bandit","319","1090006","0.0-280.0-0.0","06244427","wem/bandit_either_2","A8028AFBBS29G","either","4","706","","","","","","","0","0","1","0.130249024","","0.8","0.2","0.6","0.4","","","","","0.130249024","0.4456906816","0.2545144829","0.4205303603","","","","","","","","72","H","0","img/none_selected.jpg","","240","main_expt"
"","bandit","320","1091945","0.0-281.0-0.0","06244427","wem/bandit_either_2","A8028AFBBS29G","either","4","420","","","","","","","0","0","1","0.1356270161","","0.8","0.2","0.6","0.4","","","","","0.1356270161","0.4515134246","0.1902236802","0.4304808994","","","","","","","","72","H","0","img/none_selected.jpg","","241","main_expt"
"","bandit","321","1093878","0.0-282.0-0.0","06244427","wem/bandit_either_2","A8028AFBBS29G","either","4","418","","","","","","","0","0","1","0.1402569013","","0.8","0.2","0.6","0.4","","","","","0.1402569013","0.4640222466","0.2196571485","0.4318168925","","","","","","","","72","H","0","img/none_selected.jpg","","242","main_expt"
"","bandit","322","1095726","0.0-283.0-0.0","06244427","wem/bandit_either_2","A8028AFBBS29G","either","4","331","","","","","","","0","1","0","","0.4305348251","0.8","0.2","0.6","0.4","0.1851652895","0.4305348251","0.2691755858","0.4437639365","","","","","","","","","","","","74","J","1","","","243","main_expt"
"","bandit","323","1097656","0.0-284.0-0.0","06244427","wem/bandit_either_2","A8028AFBBS29G","either","4","412","","","","","","","0","1","0","","0.4444417595","0.8","0.2","0.6","0.4","0.1871667761","0.4444417595","0.2689580194","0.4444545885","","","","","","","","","","","","74","J","1","","","244","main_expt"
"","bandit","324","1099591","0.0-285.0-0.0","06244427","wem/bandit_either_2","A8028AFBBS29G","either","4","418","","","","","","","0","0","1","","0.4468105605","0.8","0.2","0.6","0.4","0.1881322931","0.4468105605","0.1935089033","0.445216333","","","","","","","","","","","","74","J","1","","","245","main_expt"
"","bandit","325","1101622","0.0-286.0-0.0","06244427","wem/bandit_either_2","A8028AFBBS29G","either","4","515","","","","","","","0","0","1","","0.4453418505","0.8","0.2","0.6","0.4","0.187853128","0.4453418505","0.1466547275","0.4767449203","","","","","","","","","","","","74","J","1","","","246","main_expt"
"","bandit","326","1103626","0.0-287.0-0.0","06244427","wem/bandit_either_2","A8028AFBBS29G","either","4","485","","","","","","","0","0","1","","0.4426138654","0.8","0.2","0.6","0.4","0.1952756904","0.4426138654","0.1275107348","0.4530054638","","","","","","","","","","","","74","J","1","","","247","main_expt"
"","bandit","327","1105326","0.0-288.0-0.0","06244427","wem/bandit_either_2","A8028AFBBS29G","either","4","184","","","","","","","0","0","1","0.107785627","","0.8","0.2","0.6","0.4","","","","","0.1722543521","0.464375056","0.107785627","0.4326938674","","","","","","","","75","K","2","","","248","main_expt"
