"consent","trial_type","trial_index","time_elapsed","internal_node_id","subjID","study","MID","cond","drift","rt","responses","key_press","expt_phase","like","value","connected","gems","bombs","no_reward","GemPrChosen","BombPrChosen","GainOverPainPr_0","GainOverPainPr_1","GainOverPainPr_2","GainOverPainPr_3","LosePr_0","LosePr_1","LosePr_2","LosePr_3","WinPr_0","WinPr_1","WinPr_2","WinPr_3","Q0","Q1","Q2","gender","age","ethnicity","target","respCharCode","respKey","respChoiceNum","respChoice","practice","trial_counter","trial_label"
"INL_behavioral_consent_30min_online.html","consent","0","13863","0.0-0.0","06502927","wem/bandit_either_2","A3FOKP72T5I4FR","either","7","","","","","","","","","","","","","","","","","","","","","","","","","","","","","","","","","","","","","",""
"","survey-text","1","21418","0.0-1.0","06502927","wem/bandit_either_2","A3FOKP72T5I4FR","either","7","6522","{""Q0"":""A3FOKP72T5I4FR""}","","","","","","","","","","","","","","","","","","","","","","","","","","","","","","","","","","","",""
"","text","2","35778","0.0-2.0","06502927","wem/bandit_either_2","A3FOKP72T5I4FR","either","7","13349","","32","","","","","","","","","","","","","","","","","","","","","","","","","","","","","","","","","","",""
"","text","3","86864","0.0-3.0","06502927","wem/bandit_either_2","A3FOKP72T5I4FR","either","7","51080","","32","","","","","","","","","","","","","","","","","","","","","","","","","","","","","","","","","","",""
"","text","4","122838","0.0-4.0","06502927","wem/bandit_either_2","A3FOKP72T5I4FR","either","7","35970","","32","","","","","","","","","","","","","","","","","","","","","","","","","","","","","","","","","","",""
"","text","5","137629","0.0-5.0","06502927","wem/bandit_either_2","A3FOKP72T5I4FR","either","7","14785","","32","","","","","","","","","","","","","","","","","","","","","","","","","","","","","","","","","","",""
"","text","6","149955","0.0-6.0","06502927","wem/bandit_either_2","A3FOKP72T5I4FR","either","7","12321","","32","","","","","","","","","","","","","","","","","","","","","","","","","","","","","","","","","","",""
"","text","7","157183","0.0-7.0","06502927","wem/bandit_either_2","A3FOKP72T5I4FR","either","7","7221","","32","","","","","","","","","","","","","","","","","","","","","","","","","","","","","","","","","","",""
"","text","8","161647","0.0-8.0","06502927","wem/bandit_either_2","A3FOKP72T5I4FR","either","7","4458","","32","","","","","","","","","","","","","","","","","","","","","","","","","","","","","","","","","","",""
"","identification","9","171847","0.0-9.0-0.0","06502927","wem/bandit_either_2","A3FOKP72T5I4FR","either","7","10064","","","","3","3","3","","","","","","","","","","","","","","","","","","","","","","","","the village of Zur","","","","","","",""
"","identification","10","177096","0.0-9.0-1.0","06502927","wem/bandit_either_2","A3FOKP72T5I4FR","either","7","4205","","","","3","3","3","","","","","","","","","","","","","","","","","","","","","","","","the village of Nyx","","","","","","",""
"","text","11","181800","0.0-10.0","06502927","wem/bandit_either_2","A3FOKP72T5I4FR","either","7","3697","","32","","","","","","","","","","","","","","","","","","","","","","","","","","","","","","","","","","",""
"","text","12","184475","0.0-11.0","06502927","wem/bandit_either_2","A3FOKP72T5I4FR","either","7","2671","","32","","","","","","","","","","","","","","","","","","","","","","","","","","","","","","","","","","",""
"","text","13","187173","0.0-12.0","06502927","wem/bandit_either_2","A3FOKP72T5I4FR","either","7","2693","","32","","","","","","","","","","","","","","","","","","","","","","","","","","","","","","","","","","",""
"","text","14","189998","0.0-13.0","06502927","wem/bandit_either_2","A3FOKP72T5I4FR","either","7","2819","","32","","","","","","","","","","","","","","","","","","","","","","","","","","","","","","","","","","",""
"","bandit","15","195705","0.0-14.0-0.0","06502927","wem/bandit_either_2","A3FOKP72T5I4FR","either","7","4111","","","","","","","0","0","1","0","0","","","","","0","","","","0","","","","","","","","","","","74","J","0","img/none_selected_demo.jpg","true","0",""
"","bandit","16","198839","0.0-15.0-0.0","06502927","wem/bandit_either_2","A3FOKP72T5I4FR","either","7","1610","","","","","","","0","0","1","0","0","","","","","0","","","","0","","","","","","","","","","","75","K","0","img/none_selected_demo.jpg","true","0",""
"","text","17","206686","0.0-16.0","06502927","wem/bandit_either_2","A3FOKP72T5I4FR","either","7","7838","","32","","","","","","","","","","","","","","","","","","","","","","","","","","","","","","","","","","",""
"","text","18","216502","0.0-17.0","06502927","wem/bandit_either_2","A3FOKP72T5I4FR","either","7","9810","","32","","","","","","","","","","","","","","","","","","","","","","","","","","","","","","","","","","",""
"","text","19","223477","0.0-18.0","06502927","wem/bandit_either_2","A3FOKP72T5I4FR","either","7","6970","","32","","","","","","","","","","","","","","","","","","","","","","","","","","","","","","","","","","",""
"","text","20","227123","0.0-19.0","06502927","wem/bandit_either_2","A3FOKP72T5I4FR","either","7","3641","","32","","","","","","","","","","","","","","","","","","","","","","","","","","","","","","","","","","",""
"","bandit","21","230150","0.0-20.0-0.0","06502927","wem/bandit_either_2","A3FOKP72T5I4FR","either","7","1503","","","","","","","1","0","0","0.8","","0.5","0.5","","","","","","","0.8","0.2","","","","","","","","","","74","J","0","img/none_selected_demo.jpg","true","0","80_20_practice"
"","bandit","22","232405","0.0-20.0-1.0","06502927","wem/bandit_either_2","A3FOKP72T5I4FR","either","7","732","","","","","","","0","1","0","","0.8","0.5","0.5","","","0.8","0.2","","","","","","","","","","","","","","74","J","0","img/none_selected_demo.jpg","true","0","80_20_practice"
"","bandit","23","234437","0.0-20.0-2.0","06502927","wem/bandit_either_2","A3FOKP72T5I4FR","either","7","507","","","","","","","1","0","0","0.2","","0.5","0.5","","","","","","","0.8","0.2","","","","","","","","","","75","K","1","","true","0","80_20_practice"
"","bandit","24","236520","0.0-20.0-3.0","06502927","wem/bandit_either_2","A3FOKP72T5I4FR","either","7","562","","","","","","","0","0","1","0.2","","0.5","0.5","","","","","","","0.8","0.2","","","","","","","","","","75","K","1","","true","0","80_20_practice"
"","bandit","25","238495","0.0-20.0-4.0","06502927","wem/bandit_either_2","A3FOKP72T5I4FR","either","7","452","","","","","","","0","1","0","","0.8","0.5","0.5","","","0.8","0.2","","","","","","","","","","","","","","74","J","0","img/none_selected_demo.jpg","true","0","80_20_practice"
"","bandit","26","240623","0.0-20.0-5.0","06502927","wem/bandit_either_2","A3FOKP72T5I4FR","either","7","604","","","","","","","0","0","1","","0.2","0.5","0.5","","","0.8","0.2","","","","","","","","","","","","","","75","K","1","","true","0","80_20_practice"
"","bandit","27","242860","0.0-20.0-6.0","06502927","wem/bandit_either_2","A3FOKP72T5I4FR","either","7","715","","","","","","","0","0","1","0.2","","0.5","0.5","","","","","","","0.8","0.2","","","","","","","","","","75","K","1","","true","0","80_20_practice"
"","bandit","28","244538","0.0-20.0-7.0","06502927","wem/bandit_either_2","A3FOKP72T5I4FR","either","7","155","","","","","","","1","0","0","0.8","","0.5","0.5","","","","","","","0.8","0.2","","","","","","","","","","74","J","0","img/none_selected_demo.jpg","true","0","80_20_practice"
"","bandit","29","246751","0.0-20.0-8.0","06502927","wem/bandit_either_2","A3FOKP72T5I4FR","either","7","686","","","","","","","0","1","0","","0.8","0.5","0.5","","","0.8","0.2","","","","","","","","","","","","","","74","J","0","img/none_selected_demo.jpg","true","0","80_20_practice"
"","bandit","30","248940","0.0-20.0-9.0","06502927","wem/bandit_either_2","A3FOKP72T5I4FR","either","7","668","","","","","","","0","1","0","","0.8","0.5","0.5","","","0.8","0.2","","","","","","","","","","","","","","74","J","0","img/none_selected_demo.jpg","true","0","80_20_practice"
"","bandit","31","251261","0.0-20.0-10.0","06502927","wem/bandit_either_2","A3FOKP72T5I4FR","either","7","808","","","","","","","0","0","1","","0.8","0.5","0.5","","","0.8","0.2","","","","","","","","","","","","","","74","J","0","img/none_selected_demo.jpg","true","0","80_20_practice"
"","bandit","32","253491","0.0-20.0-11.0","06502927","wem/bandit_either_2","A3FOKP72T5I4FR","either","7","697","","","","","","","0","0","1","0.2","","0.5","0.5","","","","","","","0.8","0.2","","","","","","","","","","75","K","1","","true","0","80_20_practice"
"","bandit","33","255340","0.0-20.0-12.0","06502927","wem/bandit_either_2","A3FOKP72T5I4FR","either","7","329","","","","","","","1","0","0","0.8","","0.5","0.5","","","","","","","0.8","0.2","","","","","","","","","","74","J","0","img/none_selected_demo.jpg","true","0","80_20_practice"
"","bandit","34","257597","0.0-20.0-13.0","06502927","wem/bandit_either_2","A3FOKP72T5I4FR","either","7","735","","","","","","","1","0","0","0.8","","0.5","0.5","","","","","","","0.8","0.2","","","","","","","","","","74","J","0","img/none_selected_demo.jpg","true","0","80_20_practice"
"","bandit","35","259468","0.0-20.0-14.0","06502927","wem/bandit_either_2","A3FOKP72T5I4FR","either","7","345","","","","","","","0","1","0","","0.8","0.5","0.5","","","0.8","0.2","","","","","","","","","","","","","","74","J","0","img/none_selected_demo.jpg","true","0","80_20_practice"
"","bandit","36","261345","0.0-20.0-15.0","06502927","wem/bandit_either_2","A3FOKP72T5I4FR","either","7","350","","","","","","","0","0","1","0.8","","0.5","0.5","","","","","","","0.8","0.2","","","","","","","","","","74","J","0","img/none_selected_demo.jpg","true","0","80_20_practice"
"","bandit","37","263398","0.0-20.0-16.0","06502927","wem/bandit_either_2","A3FOKP72T5I4FR","either","7","531","","","","","","","0","1","0","","0.8","0.5","0.5","","","0.8","0.2","","","","","","","","","","","","","","74","J","0","img/none_selected_demo.jpg","true","0","80_20_practice"
"","bandit","38","277905","0.0-20.0-17.0","06502927","wem/bandit_either_2","A3FOKP72T5I4FR","either","7","12983","","","","","","","1","0","0","0.8","","0.5","0.5","","","","","","","0.8","0.2","","","","","","","","","","74","J","0","img/none_selected_demo.jpg","true","0","80_20_practice"
"","bandit","39","280334","0.0-20.0-18.0","06502927","wem/bandit_either_2","A3FOKP72T5I4FR","either","7","907","","","","","","","1","0","0","0.8","","0.5","0.5","","","","","","","0.8","0.2","","","","","","","","","","74","J","0","img/none_selected_demo.jpg","true","0","80_20_practice"
"","bandit","40","282460","0.0-20.0-19.0","06502927","wem/bandit_either_2","A3FOKP72T5I4FR","either","7","603","","","","","","","1","0","0","0.8","","0.5","0.5","","","","","","","0.8","0.2","","","","","","","","","","74","J","0","img/none_selected_demo.jpg","true","0","80_20_practice"
"","text","41","289686","0.0-21.0","06502927","wem/bandit_either_2","A3FOKP72T5I4FR","either","7","7215","","32","","","","","","","","","","","","","","","","","","","","","","","","","","","","","","","","","","",""
"","bandit","42","291884","0.0-22.0-0.0","06502927","wem/bandit_either_2","A3FOKP72T5I4FR","either","7","676","","","","","","","1","0","0","1","0","","","","","0","1","","","1","0","","","","","","","","","","74","J","0","img/none_selected_demo.jpg","true","0",""
"","text","43","297060","0.0-23.0","06502927","wem/bandit_either_2","A3FOKP72T5I4FR","either","7","5168","","32","","","","","","","","","","","","","","","","","","","","","","","","","","","","","","","","","","",""
"","text","44","301229","0.0-24.0","06502927","wem/bandit_either_2","A3FOKP72T5I4FR","either","7","4164","","32","","","","","","","","","","","","","","","","","","","","","","","","","","","","","","","","","","",""
"","text","45","303491","0.0-25.0","06502927","wem/bandit_either_2","A3FOKP72T5I4FR","either","7","2254","","32","","","","","","","","","","","","","","","","","","","","","","","","","","","","","","","","","","",""
"","text","46","314453","0.0-26.0","06502927","wem/bandit_either_2","A3FOKP72T5I4FR","either","7","10955","","32","","","","","","","","","","","","","","","","","","","","","","","","","","","","","","","","","","",""
"","text","47","320759","0.0-27.0","06502927","wem/bandit_either_2","A3FOKP72T5I4FR","either","7","6298","","32","","","","","","","","","","","","","","","","","","","","","","","","","","","","","","","","","","",""
"","text","48","323902","0.0-28.0","06502927","wem/bandit_either_2","A3FOKP72T5I4FR","either","7","3130","","32","","","","","","","","","","","","","","","","","","","","","","","","","","","","","","","","","","",""
"","text","49","326706","0.0-29.0","06502927","wem/bandit_either_2","A3FOKP72T5I4FR","either","7","2797","","32","","","","","","","","","","","","","","","","","","","","","","","","","","","","","","","","","","",""
"","text","50","329596","0.0-30.0","06502927","wem/bandit_either_2","A3FOKP72T5I4FR","either","7","2884","","32","","","","","","","","","","","","","","","","","","","","","","","","","","","","","","","","","","",""
"","text","51","333332","0.0-31.0","06502927","wem/bandit_either_2","A3FOKP72T5I4FR","either","7","3729","","32","","","","","","","","","","","","","","","","","","","","","","","","","","","","","","","","","","",""
"","text","52","335300","0.0-32.0","06502927","wem/bandit_either_2","A3FOKP72T5I4FR","either","7","1961","","32","","","","","","","","","","","","","","","","","","","","","","","","","","","","","","","","","","",""
"","text","53","339060","0.0-33.0","06502927","wem/bandit_either_2","A3FOKP72T5I4FR","either","7","3753","","32","","","","","","","","","","","","","","","","","","","","","","","","","","","","","","","","","","",""
"","bandit","54","342390","0.0-34.0-0.0","06502927","wem/bandit_either_2","A3FOKP72T5I4FR","either","7","1809","","","","","","","1","0","0","0.8","","0.5","0.5","0.5","0.5","","","","","0.8","0.2","0.6","0.2","","","","","","","","72","H","0","img/none_selected.jpg","true","0","full_practice"
"","bandit","55","344426","0.0-34.0-1.0","06502927","wem/bandit_either_2","A3FOKP72T5I4FR","either","7","511","","","","","","","1","0","0","0.8","","0.5","0.5","0.5","0.5","","","","","0.8","0.2","0.6","0.2","","","","","","","","72","H","0","img/none_selected.jpg","true","0","full_practice"
"","bandit","56","346307","0.0-34.0-2.0","06502927","wem/bandit_either_2","A3FOKP72T5I4FR","either","7","354","","","","","","","0","1","0","","0.8","0.5","0.5","0.5","0.5","0.8","0.2","0.6","0.2","","","","","","","","","","","","72","H","0","img/none_selected.jpg","true","0","full_practice"
"","bandit","57","348174","0.0-34.0-3.0","06502927","wem/bandit_either_2","A3FOKP72T5I4FR","either","7","342","","","","","","","1","0","0","0.8","","0.5","0.5","0.5","0.5","","","","","0.8","0.2","0.6","0.2","","","","","","","","72","H","0","img/none_selected.jpg","true","0","full_practice"
"","bandit","58","350009","0.0-34.0-4.0","06502927","wem/bandit_either_2","A3FOKP72T5I4FR","either","7","308","","","","","","","0","1","0","","0.8","0.5","0.5","0.5","0.5","0.8","0.2","0.6","0.2","","","","","","","","","","","","72","H","0","img/none_selected.jpg","true","0","full_practice"
"","bandit","59","351866","0.0-34.0-5.0","06502927","wem/bandit_either_2","A3FOKP72T5I4FR","either","7","328","","","","","","","1","0","0","0.8","","0.5","0.5","0.5","0.5","","","","","0.8","0.2","0.6","0.2","","","","","","","","72","H","0","img/none_selected.jpg","true","0","full_practice"
"","bandit","60","353754","0.0-34.0-6.0","06502927","wem/bandit_either_2","A3FOKP72T5I4FR","either","7","360","","","","","","","0","0","1","","0.8","0.5","0.5","0.5","0.5","0.8","0.2","0.6","0.2","","","","","","","","","","","","72","H","0","img/none_selected.jpg","true","0","full_practice"
"","bandit","61","355584","0.0-34.0-7.0","06502927","wem/bandit_either_2","A3FOKP72T5I4FR","either","7","302","","","","","","","1","0","0","0.8","","0.5","0.5","0.5","0.5","","","","","0.8","0.2","0.6","0.2","","","","","","","","72","H","0","img/none_selected.jpg","true","0","full_practice"
"","bandit","62","357461","0.0-34.0-8.0","06502927","wem/bandit_either_2","A3FOKP72T5I4FR","either","7","350","","","","","","","0","0","1","","0.8","0.5","0.5","0.5","0.5","0.8","0.2","0.6","0.2","","","","","","","","","","","","72","H","0","img/none_selected.jpg","true","0","full_practice"
"","bandit","63","359389","0.0-34.0-9.0","06502927","wem/bandit_either_2","A3FOKP72T5I4FR","either","7","404","","","","","","","0","1","0","","0.8","0.5","0.5","0.5","0.5","0.8","0.2","0.6","0.2","","","","","","","","","","","","72","H","0","img/none_selected.jpg","true","0","full_practice"
"","bandit","64","361197","0.0-34.0-10.0","06502927","wem/bandit_either_2","A3FOKP72T5I4FR","either","7","284","","","","","","","1","0","0","0.8","","0.5","0.5","0.5","0.5","","","","","0.8","0.2","0.6","0.2","","","","","","","","72","H","0","img/none_selected.jpg","true","0","full_practice"
"","bandit","65","363054","0.0-34.0-11.0","06502927","wem/bandit_either_2","A3FOKP72T5I4FR","either","7","331","","","","","","","0","1","0","","0.8","0.5","0.5","0.5","0.5","0.8","0.2","0.6","0.2","","","","","","","","","","","","72","H","0","img/none_selected.jpg","true","0","full_practice"
"","bandit","66","365002","0.0-34.0-12.0","06502927","wem/bandit_either_2","A3FOKP72T5I4FR","either","7","425","","","","","","","0","0","1","0.8","","0.5","0.5","0.5","0.5","","","","","0.8","0.2","0.6","0.2","","","","","","","","72","H","0","img/none_selected.jpg","true","0","full_practice"
"","bandit","67","366886","0.0-34.0-13.0","06502927","wem/bandit_either_2","A3FOKP72T5I4FR","either","7","356","","","","","","","0","1","0","","0.8","0.5","0.5","0.5","0.5","0.8","0.2","0.6","0.2","","","","","","","","","","","","72","H","0","img/none_selected.jpg","true","0","full_practice"
"","bandit","68","368899","0.0-34.0-14.0","06502927","wem/bandit_either_2","A3FOKP72T5I4FR","either","7","489","","","","","","","0","1","0","","0.8","0.5","0.5","0.5","0.5","0.8","0.2","0.6","0.2","","","","","","","","","","","","72","H","0","img/none_selected.jpg","true","0","full_practice"
"","bandit","69","370678","0.0-34.0-15.0","06502927","wem/bandit_either_2","A3FOKP72T5I4FR","either","7","253","","","","","","","0","0","1","","0.8","0.5","0.5","0.5","0.5","0.8","0.2","0.6","0.2","","","","","","","","","","","","72","H","0","img/none_selected.jpg","true","0","full_practice"
"","bandit","70","372481","0.0-34.0-16.0","06502927","wem/bandit_either_2","A3FOKP72T5I4FR","either","7","277","","","","","","","0","0","1","0.8","","0.5","0.5","0.5","0.5","","","","","0.8","0.2","0.6","0.2","","","","","","","","72","H","0","img/none_selected.jpg","true","0","full_practice"
"","bandit","71","374292","0.0-34.0-17.0","06502927","wem/bandit_either_2","A3FOKP72T5I4FR","either","7","287","","","","","","","0","1","0","","0.8","0.5","0.5","0.5","0.5","0.8","0.2","0.6","0.2","","","","","","","","","","","","72","H","0","img/none_selected.jpg","true","0","full_practice"
"","bandit","72","376085","0.0-34.0-18.0","06502927","wem/bandit_either_2","A3FOKP72T5I4FR","either","7","266","","","","","","","1","0","0","0.8","","0.5","0.5","0.5","0.5","","","","","0.8","0.2","0.6","0.2","","","","","","","","72","H","0","img/none_selected.jpg","true","0","full_practice"
"","bandit","73","377905","0.0-34.0-19.0","06502927","wem/bandit_either_2","A3FOKP72T5I4FR","either","7","288","","","","","","","0","0","1","0.8","","0.5","0.5","0.5","0.5","","","","","0.8","0.2","0.6","0.2","","","","","","","","72","H","0","img/none_selected.jpg","true","0","full_practice"
"","text","74","381260","0.0-35.0","06502927","wem/bandit_either_2","A3FOKP72T5I4FR","either","7","3330","","32","","","","","","","","","","","","","","","","","","","","","","","","","","","","","","","","","","",""
"","text","75","391858","0.0-36.0","06502927","wem/bandit_either_2","A3FOKP72T5I4FR","either","7","9587","","32","","","","","","","","","","","","","","","","","","","","","","","","","","","","","","","","","","",""
"","text","76","398753","0.0-37.0","06502927","wem/bandit_either_2","A3FOKP72T5I4FR","either","7","6884","","32","","","","","","","","","","","","","","","","","","","","","","","","","","","","","","","","","","",""
"","text","77","403641","0.0-38.0","06502927","wem/bandit_either_2","A3FOKP72T5I4FR","either","7","4880","","32","","","","","","","","","","","","","","","","","","","","","","","","","","","","","","","","","","",""
"","text","78","408012","0.0-39.0","06502927","wem/bandit_either_2","A3FOKP72T5I4FR","either","7","4363","","32","","","","","","","","","","","","","","","","","","","","","","","","","","","","","","","","","","",""
"","text","79","411952","0.0-40.0","06502927","wem/bandit_either_2","A3FOKP72T5I4FR","either","7","3930","","32","","","","","","","","","","","","","","","","","","","","","","","","","","","","","","","","","","",""
"","bandit","80","416290","0.0-41.0-0.0","06502927","wem/bandit_either_2","A3FOKP72T5I4FR","either","7","2811","","","","","","","0","0","1","","0.01738065524","0.8","0.2","0.6","0.4","0.1480066451","0.01738065524","0.06530018083","0.1952616071","","","","","","","","","","","","74","J","1","","","1","main_expt"
"","bandit","81","418831","0.0-42.0-0.0","06502927","wem/bandit_either_2","A3FOKP72T5I4FR","either","7","1014","","","","","","","0","0","1","0.0196943787","","0.8","0.2","0.6","0.4","","","","","0.1053714073","0.0196943787","0.1011701763","0.1652234336","","","","","","","","74","J","1","","","2","main_expt"
"","bandit","82","421118","0.0-43.0-0.0","06502927","wem/bandit_either_2","A3FOKP72T5I4FR","either","7","760","","","","","","","0","0","1","0.1460078221","","0.8","0.2","0.6","0.4","","","","","0.1460078221","0.01678573497","0.09486719381","0.1347382479","","","","","","","","72","H","0","img/none_selected.jpg","","3","main_expt"
"","bandit","83","423358","0.0-44.0-0.0","06502927","wem/bandit_either_2","A3FOKP72T5I4FR","either","7","713","","","","","","","0","0","1","0.1866138214","","0.8","0.2","0.6","0.4","","","","","0.1866138214","0.02981965743","0.06705802814","0.1684625442","","","","","","","","72","H","0","img/none_selected.jpg","","4","main_expt"
"","bandit","84","425255","0.0-45.0-0.0","06502927","wem/bandit_either_2","A3FOKP72T5I4FR","either","7","372","","","","","","","0","0","1","0.0822298525","","0.8","0.2","0.6","0.4","","","","","0.2445348717","0.02600208211","0.0822298525","0.1792029032","","","","","","","","75","K","2","","","5","main_expt"
"","bandit","85","427382","0.0-46.0-0.0","06502927","wem/bandit_either_2","A3FOKP72T5I4FR","either","7","600","","","","","","","0","0","1","0.09162209411","","0.8","0.2","0.6","0.4","","","","","0.2546962146","0.02332436933","0.09162209411","0.2153873139","","","","","","","","75","K","2","","","6","main_expt"
"","bandit","86","429303","0.0-47.0-0.0","06502927","wem/bandit_either_2","A3FOKP72T5I4FR","either","7","391","","","","","","","0","0","1","","0.1757762721","0.8","0.2","0.6","0.4","0.2344841702","0.02864040813","0.1028820098","0.1757762721","","","","","","","","","","","","76","L","3","","","7","main_expt"
"","bandit","87","431209","0.0-48.0-0.0","06502927","wem/bandit_either_2","A3FOKP72T5I4FR","either","7","382","","","","","","","0","0","1","0.2241229746","","0.8","0.2","0.6","0.4","","","","","0.2473344203","0.02951264166","0.1532270122","0.2241229746","","","","","","","","76","L","3","","","8","main_expt"
"","bandit","88","433120","0.0-49.0-0.0","06502927","wem/bandit_either_2","A3FOKP72T5I4FR","either","7","382","","","","","","","0","0","1","","0.2131450397","0.8","0.2","0.6","0.4","0.2642160399","0.02997011939","0.2131450397","0.2199426203","","","","","","","","","","","","75","K","2","","","9","main_expt"
"","bandit","89","435002","0.0-50.0-0.0","06502927","wem/bandit_either_2","A3FOKP72T5I4FR","either","7","357","","","","","","","0","0","1","","0.02489651457","0.8","0.2","0.6","0.4","0.2104627424","0.02489651457","0.2985754635","0.1520686932","","","","","","","","","","","","74","J","1","","","10","main_expt"
"","bandit","90","436940","0.0-51.0-0.0","06502927","wem/bandit_either_2","A3FOKP72T5I4FR","either","7","412","","","","","","","0","0","1","0.219372878","","0.8","0.2","0.6","0.4","","","","","0.219372878","0.01651058827","0.2924640086","0.2013349999","","","","","","","","72","H","0","img/none_selected.jpg","","11","main_expt"
"","bandit","91","438768","0.0-52.0-0.0","06502927","wem/bandit_either_2","A3FOKP72T5I4FR","either","7","303","","","","","","","0","0","1","","0.02341729431","0.8","0.2","0.6","0.4","0.2105839871","0.02341729431","0.3264291113","0.2156800105","","","","","","","","","","","","74","J","1","","","12","main_expt"
"","bandit","92","440581","0.0-53.0-0.0","06502927","wem/bandit_either_2","A3FOKP72T5I4FR","either","7","291","","","","","","","0","0","1","","0.3254913314","0.8","0.2","0.6","0.4","0.2511698571","0.0257410372","0.3254913314","0.1833947696","","","","","","","","","","","","75","K","2","","","13","main_expt"
"","bandit","93","442442","0.0-54.0-0.0","06502927","wem/bandit_either_2","A3FOKP72T5I4FR","either","7","335","","","","","","","0","0","1","0.2158977649","","0.8","0.2","0.6","0.4","","","","","0.2158977649","0.02570014082","0.3428504842","0.243643366","","","","","","","","72","H","0","img/none_selected.jpg","","14","main_expt"
"","bandit","94","444560","0.0-55.0-0.0","06502927","wem/bandit_either_2","A3FOKP72T5I4FR","either","7","591","","","","","","","0","0","1","0.2265365198","","0.8","0.2","0.6","0.4","","","","","0.2762480727","0.04268316416","0.3244047679","0.2265365198","","","","","","","","76","L","3","","","15","main_expt"
"","bandit","95","446345","0.0-56.0-0.0","06502927","wem/bandit_either_2","A3FOKP72T5I4FR","either","7","259","","","","","","","0","0","1","0.2484951132","","0.8","0.2","0.6","0.4","","","","","0.3202890724","0.04667408308","0.3025313629","0.2484951132","","","","","","","","76","L","3","","","16","main_expt"
"","bandit","96","448199","0.0-57.0-0.0","06502927","wem/bandit_either_2","A3FOKP72T5I4FR","either","7","327","","","","","","","1","0","0","0.2570267238","","0.8","0.2","0.6","0.4","","","","","0.3680552247","0.0506688767","0.3291216938","0.2570267238","","","","","","","","76","L","3","","","17","main_expt"
"","bandit","97","450067","0.0-58.0-0.0","06502927","wem/bandit_either_2","A3FOKP72T5I4FR","either","7","336","","","","","","","0","0","1","","0.287418789","0.8","0.2","0.6","0.4","0.3968593921","0.02988526167","0.2987881532","0.287418789","","","","","","","","","","","","76","L","3","","","18","main_expt"
"","bandit","98","451686","0.0-59.0-0.0","06502927","wem/bandit_either_2","A3FOKP72T5I4FR","either","7","91","","","","","","","0","0","1","","0.2338710899","0.8","0.2","0.6","0.4","0.4192996399","0.03476350355","0.281207523","0.2338710899","","","","","","","","","","","","76","L","3","","","19","main_expt"
"","bandit","99","453627","0.0-60.0-0.0","06502927","wem/bandit_either_2","A3FOKP72T5I4FR","either","7","415","","","","","","","0","1","0","","0.2335293464","0.8","0.2","0.6","0.4","0.4362768361","0.0233687216","0.291129981","0.2335293464","","","","","","","","","","","","76","L","3","","","20","main_expt"
"","bandit","100","455667","0.0-61.0-0.0","06502927","wem/bandit_either_2","A3FOKP72T5I4FR","either","7","517","","","","","","","0","0","1","","0.2434826965","0.8","0.2","0.6","0.4","0.4599691003","0.01272547494","0.2729578326","0.2434826965","","","","","","","","","","","","76","L","3","","","21","main_expt"
"","bandit","101","457721","0.0-62.0-0.0","06502927","wem/bandit_either_2","A3FOKP72T5I4FR","either","7","529","","","","","","","0","0","1","","0.2702300591","0.8","0.2","0.6","0.4","0.44353765","0.01739491555","0.2805141014","0.2702300591","","","","","","","","","","","","76","L","3","","","22","main_expt"
"","bandit","102","459740","0.0-63.0-0.0","06502927","wem/bandit_either_2","A3FOKP72T5I4FR","either","7","492","","","","","","","1","0","0","0.2424740502","","0.8","0.2","0.6","0.4","","","","","0.4105594395","0.006692102231","0.3016389313","0.2424740502","","","","","","","","76","L","3","","","23","main_expt"
"","bandit","103","465842","0.0-64.0-0.0","06502927","wem/bandit_either_2","A3FOKP72T5I4FR","either","7","4577","","","","","","","0","0","1","","0.1754503809","0.8","0.2","0.6","0.4","0.4243351486","0.01209419849","0.2475621169","0.1754503809","","","","","","","","","","","","76","L","3","","","24","main_expt"
"","bandit","104","467705","0.0-65.0-0.0","06502927","wem/bandit_either_2","A3FOKP72T5I4FR","either","7","340","","","","","","","1","0","0","0.2023019753","","0.8","0.2","0.6","0.4","","","","","0.4172780312","0.009734580702","0.2607476102","0.2023019753","","","","","","","","76","L","3","","","25","main_expt"
"","bandit","105","469721","0.0-66.0-0.0","06502927","wem/bandit_either_2","A3FOKP72T5I4FR","either","7","490","","","","","","","1","0","0","0.1887270612","","0.8","0.2","0.6","0.4","","","","","0.3981062588","0.008596148908","0.292589008","0.1887270612","","","","","","","","76","L","3","","","26","main_expt"
"","bandit","106","471620","0.0-67.0-0.0","06502927","wem/bandit_either_2","A3FOKP72T5I4FR","either","7","370","","","","","","","0","0","1","0.2526986378","","0.8","0.2","0.6","0.4","","","","","0.3889188119","0.01380650739","0.2978950393","0.2526986378","","","","","","","","76","L","3","","","27","main_expt"
"","bandit","107","473479","0.0-68.0-0.0","06502927","wem/bandit_either_2","A3FOKP72T5I4FR","either","7","329","","","","","","","0","0","1","","0.2536033627","0.8","0.2","0.6","0.4","0.3699095679","0.01160852189","0.337392419","0.2536033627","","","","","","","","","","","","76","L","3","","","28","main_expt"
"","bandit","108","475568","0.0-69.0-0.0","06502927","wem/bandit_either_2","A3FOKP72T5I4FR","either","7","562","","","","","","","0","0","1","","0.258258936","0.8","0.2","0.6","0.4","0.4087832773","0.02858314752","0.3830759015","0.258258936","","","","","","","","","","","","76","L","3","","","29","main_expt"
"","bandit","109","477430","0.0-70.0-0.0","06502927","wem/bandit_either_2","A3FOKP72T5I4FR","either","7","323","","","","","","","0","1","0","","0.3152574144","0.8","0.2","0.6","0.4","0.4162513677","0.0265596094","0.3778881599","0.3152574144","","","","","","","","","","","","76","L","3","","","30","main_expt"
"","bandit","110","479352","0.0-71.0-0.0","06502927","wem/bandit_either_2","A3FOKP72T5I4FR","either","7","396","","","","","","","1","0","0","0.3508579725","","0.8","0.2","0.6","0.4","","","","","0.43337534","0.02828816112","0.3585458117","0.3508579725","","","","","","","","76","L","3","","","31","main_expt"
"","bandit","111","481358","0.0-72.0-0.0","06502927","wem/bandit_either_2","A3FOKP72T5I4FR","either","7","479","","","","","","","1","0","0","0.3902021543","","0.8","0.2","0.6","0.4","","","","","0.4399105216","0.03857304495","0.3511664436","0.3902021543","","","","","","","","76","L","3","","","32","main_expt"
"","bandit","112","483219","0.0-73.0-0.0","06502927","wem/bandit_either_2","A3FOKP72T5I4FR","either","7","330","","","","","","","0","1","0","","0.4112626521","0.8","0.2","0.6","0.4","0.3859623535","0.02642959278","0.3924960189","0.4112626521","","","","","","","","","","","","76","L","3","","","33","main_expt"
"","bandit","113","485177","0.0-74.0-0.0","06502927","wem/bandit_either_2","A3FOKP72T5I4FR","either","7","429","","","","","","","0","0","1","0.3912589523","","0.8","0.2","0.6","0.4","","","","","0.4231921331","0.06800028167","0.3713907517","0.3912589523","","","","","","","","76","L","3","","","34","main_expt"
"","bandit","114","487471","0.0-75.0-0.0","06502927","wem/bandit_either_2","A3FOKP72T5I4FR","either","7","761","","","","","","","0","1","0","","0.3663646496","0.8","0.2","0.6","0.4","0.3950458867","0.05710280771","0.3929004689","0.3663646496","","","","","","","","","","","","76","L","3","","","35","main_expt"
"","bandit","115","489570","0.0-76.0-0.0","06502927","wem/bandit_either_2","A3FOKP72T5I4FR","either","7","571","","","","","","","0","0","1","","0.3045225128","0.8","0.2","0.6","0.4","0.4005306787","0.07756943076","0.3820467604","0.3045225128","","","","","","","","","","","","76","L","3","","","36","main_expt"
"","bandit","116","491459","0.0-77.0-0.0","06502927","wem/bandit_either_2","A3FOKP72T5I4FR","either","7","361","","","","","","","0","0","1","","0.2806474599","0.8","0.2","0.6","0.4","0.3972735937","0.06074629621","0.3948022939","0.2806474599","","","","","","","","","","","","76","L","3","","","37","main_expt"
"","bandit","117","493349","0.0-78.0-0.0","06502927","wem/bandit_either_2","A3FOKP72T5I4FR","either","7","362","","","","","","","0","0","1","","0.3558759705","0.8","0.2","0.6","0.4","0.38339591","0.07063042774","0.3769579019","0.3558759705","","","","","","","","","","","","76","L","3","","","38","main_expt"
"","bandit","118","495523","0.0-79.0-0.0","06502927","wem/bandit_either_2","A3FOKP72T5I4FR","either","7","646","","","","","","","0","0","1","0.3194138052","","0.8","0.2","0.6","0.4","","","","","0.3906354184","0.06209293178","0.4030344636","0.3194138052","","","","","","","","76","L","3","","","39","main_expt"
"","bandit","119","497413","0.0-80.0-0.0","06502927","wem/bandit_either_2","A3FOKP72T5I4FR","either","7","356","","","","","","","0","0","1","0.3549086085","","0.8","0.2","0.6","0.4","","","","","0.3623676206","0.06952578958","0.3622335218","0.3549086085","","","","","","","","76","L","3","","","40","main_expt"
"","bandit","120","499184","0.0-81.0-0.0","06502927","wem/bandit_either_2","A3FOKP72T5I4FR","either","7","242","","","","","","","0","0","1","","0.3452113815","0.8","0.2","0.6","0.4","0.3873704927","0.1291245709","0.3911596719","0.3452113815","","","","","","","","","","","","76","L","3","","","41","main_expt"
"","bandit","121","501125","0.0-82.0-0.0","06502927","wem/bandit_either_2","A3FOKP72T5I4FR","either","7","408","","","","","","","0","0","1","0.3522960267","","0.8","0.2","0.6","0.4","","","","","0.359823116","0.1174523948","0.3921858285","0.3522960267","","","","","","","","76","L","3","","","42","main_expt"
"","bandit","122","502919","0.0-83.0-0.0","06502927","wem/bandit_either_2","A3FOKP72T5I4FR","either","7","265","","","","","","","1","0","0","0.3831213528","","0.8","0.2","0.6","0.4","","","","","0.3710191411","0.1201484523","0.3831213528","0.3093122096","","","","","","","","75","K","2","","","43","main_expt"
"","bandit","123","504807","0.0-84.0-0.0","06502927","wem/bandit_either_2","A3FOKP72T5I4FR","either","7","361","","","","","","","1","0","0","0.3518708159","","0.8","0.2","0.6","0.4","","","","","0.3874065465","0.09958360536","0.3518708159","0.3026159556","","","","","","","","75","K","2","","","44","main_expt"
"","bandit","124","506655","0.0-85.0-0.0","06502927","wem/bandit_either_2","A3FOKP72T5I4FR","either","7","320","","","","","","","0","0","1","0.3122870636","","0.8","0.2","0.6","0.4","","","","","0.3851533971","0.05173655998","0.3122870636","0.3336294247","","","","","","","","75","K","2","","","45","main_expt"
"","bandit","125","508558","0.0-86.0-0.0","06502927","wem/bandit_either_2","A3FOKP72T5I4FR","either","7","370","","","","","","","0","0","1","0.2635721956","","0.8","0.2","0.6","0.4","","","","","0.4055883719","0.05945041096","0.2635721956","0.3400222736","","","","","","","","75","K","2","","","46","main_expt"
"","bandit","126","510550","0.0-87.0-0.0","06502927","wem/bandit_either_2","A3FOKP72T5I4FR","either","7","461","","","","","","","0","0","1","0.2856785865","","0.8","0.2","0.6","0.4","","","","","0.3671593179","0.04375763727","0.2856785865","0.328707825","","","","","","","","75","K","2","","","47","main_expt"
"","bandit","127","512428","0.0-88.0-0.0","06502927","wem/bandit_either_2","A3FOKP72T5I4FR","either","7","349","","","","","","","0","0","1","0.2649087478","","0.8","0.2","0.6","0.4","","","","","0.3198203038","0.0666370861","0.2649087478","0.3307690822","","","","","","","","75","K","2","","","48","main_expt"
"","bandit","128","514274","0.0-89.0-0.0","06502927","wem/bandit_either_2","A3FOKP72T5I4FR","either","7","316","","","","","","","0","0","1","","0.2462979357","0.8","0.2","0.6","0.4","0.3111357295","0.08266213623","0.2462979357","0.3438067684","","","","","","","","","","","","75","K","2","","","49","main_expt"
"","bandit","129","516163","0.0-90.0-0.0","06502927","wem/bandit_either_2","A3FOKP72T5I4FR","either","7","355","","","","","","","1","0","0","0.2490076798","","0.8","0.2","0.6","0.4","","","","","0.3196682981","0.08795051988","0.2490076798","0.4037002216","","","","","","","","75","K","2","","","50","main_expt"
"","bandit","130","518022","0.0-91.0-0.0","06502927","wem/bandit_either_2","A3FOKP72T5I4FR","either","7","325","","","","","","","0","0","1","0.305209751","","0.8","0.2","0.6","0.4","","","","","0.3088596379","0.07533366945","0.305209751","0.3557518394","","","","","","","","75","K","2","","","51","main_expt"
"","bandit","131","519946","0.0-92.0-0.0","06502927","wem/bandit_either_2","A3FOKP72T5I4FR","either","7","394","","","","","","","0","0","1","0.3087204988","","0.8","0.2","0.6","0.4","","","","","0.3060924957","0.06506638851","0.3087204988","0.3254324358","","","","","","","","75","K","2","","","52","main_expt"
"","bandit","132","521788","0.0-93.0-0.0","06502927","wem/bandit_either_2","A3FOKP72T5I4FR","either","7","312","","","","","","","0","0","1","","0.2984188648","0.8","0.2","0.6","0.4","0.3229319808","0.06562792832","0.2984188648","0.2952150256","","","","","","","","","","","","75","K","2","","","53","main_expt"
"","bandit","133","523471","0.0-94.0-0.0","06502927","wem/bandit_either_2","A3FOKP72T5I4FR","either","7","153","","","","","","","1","0","0","0.3353917468","","0.8","0.2","0.6","0.4","","","","","0.3280138586","0.04630081711","0.3353917468","0.300320608","","","","","","","","75","K","2","","","54","main_expt"
"","bandit","134","525592","0.0-95.0-0.0","06502927","wem/bandit_either_2","A3FOKP72T5I4FR","either","7","591","","","","","","","0","0","1","0.3259144651","","0.8","0.2","0.6","0.4","","","","","0.2777260571","0.03868373719","0.3259144651","0.2985084879","","","","","","","","75","K","2","","","55","main_expt"
"","bandit","135","527597","0.0-96.0-0.0","06502927","wem/bandit_either_2","A3FOKP72T5I4FR","either","7","471","","","","","","","0","1","0","","0.3259049121","0.8","0.2","0.6","0.4","0.1791004868","0.06235362297","0.3259049121","0.2607009345","","","","","","","","","","","","75","K","2","","","56","main_expt"
"","bandit","136","529900","0.0-97.0-0.0","06502927","wem/bandit_either_2","A3FOKP72T5I4FR","either","7","773","","","","","","","1","0","0","0.3687904078","","0.8","0.2","0.6","0.4","","","","","0.2182265394","0.04639461243","0.3687904078","0.2565854794","","","","","","","","75","K","2","","","57","main_expt"
"","bandit","137","531859","0.0-98.0-0.0","06502927","wem/bandit_either_2","A3FOKP72T5I4FR","either","7","433","","","","","","","0","0","1","0.3422038875","","0.8","0.2","0.6","0.4","","","","","0.2970860181","0.08954448139","0.3422038875","0.319121847","","","","","","","","75","K","2","","","58","main_expt"
"","bandit","138","534151","0.0-99.0-0.0","06502927","wem/bandit_either_2","A3FOKP72T5I4FR","either","7","763","","","","","","","0","1","0","","0.3771421139","0.8","0.2","0.6","0.4","0.3249685468","0.07390342289","0.3771421139","0.3269923399","","","","","","","","","","","","75","K","2","","","59","main_expt"
"","bandit","139","536051","0.0-100.0-0.0","06502927","wem/bandit_either_2","A3FOKP72T5I4FR","either","7","368","","","","","","","0","0","1","0.3620124399","","0.8","0.2","0.6","0.4","","","","","0.2931470039","0.05801548519","0.3620124399","0.3150968823","","","","","","","","75","K","2","","","60","main_expt"
"","bandit","140","539668","0.0-101.0-0.0","06502927","wem/bandit_either_2","A3FOKP72T5I4FR","either","7","2087","","","","","","","1","0","0","0.3958116198","","0.8","0.2","0.6","0.4","","","","","0.2646536279","0.07333263924","0.3958116198","0.324539239","","","","","","","","75","K","2","","","61","main_expt"
"","bandit","141","542452","0.0-102.0-0.0","06502927","wem/bandit_either_2","A3FOKP72T5I4FR","either","7","1255","","","","","","","0","0","1","","0.3615218546","0.8","0.2","0.6","0.4","0.242461968","0.07563430262","0.3615218546","0.3066306166","","","","","","","","","","","","75","K","2","","","62","main_expt"
"","bandit","142","544539","0.0-103.0-0.0","06502927","wem/bandit_either_2","A3FOKP72T5I4FR","either","7","554","","","","","","","0","1","0","","0.3574266064","0.8","0.2","0.6","0.4","0.2206683029","0.06826526778","0.3574266064","0.3068900116","","","","","","","","","","","","75","K","2","","","63","main_expt"
"","bandit","143","547214","0.0-104.0-0.0","06502927","wem/bandit_either_2","A3FOKP72T5I4FR","either","7","1142","","","","","","","0","0","1","","0.3541915859","0.8","0.2","0.6","0.4","0.2288959862","0.1175271989","0.3541915859","0.2936494982","","","","","","","","","","","","75","K","2","","","64","main_expt"
"","bandit","144","549899","0.0-105.0-0.0","06502927","wem/bandit_either_2","A3FOKP72T5I4FR","either","7","1158","","","","","","","1","0","0","0.3339820985","","0.8","0.2","0.6","0.4","","","","","0.2346523549","0.1273865191","0.3339820985","0.290236101","","","","","","","","75","K","2","","","65","main_expt"
"","bandit","145","552476","0.0-106.0-0.0","06502927","wem/bandit_either_2","A3FOKP72T5I4FR","either","7","1042","","","","","","","1","0","0","0.3195467083","","0.8","0.2","0.6","0.4","","","","","0.1881688105","0.09075088943","0.3195467083","0.2512036594","","","","","","","","75","K","2","","","66","main_expt"
"","bandit","146","554779","0.0-107.0-0.0","06502927","wem/bandit_either_2","A3FOKP72T5I4FR","either","7","774","","","","","","","1","0","0","0.3477383846","","0.8","0.2","0.6","0.4","","","","","0.231043846","0.08077075725","0.3477383846","0.263747572","","","","","","","","75","K","2","","","67","main_expt"
"","bandit","147","556982","0.0-108.0-0.0","06502927","wem/bandit_either_2","A3FOKP72T5I4FR","either","7","672","","","","","","","0","0","1","","0.3365352069","0.8","0.2","0.6","0.4","0.2576664243","0.08810311296","0.3365352069","0.2892519303","","","","","","","","","","","","75","K","2","","","68","main_expt"
"","bandit","148","559536","0.0-109.0-0.0","06502927","wem/bandit_either_2","A3FOKP72T5I4FR","either","7","1018","","","","","","","1","0","0","0.3148812039","","0.8","0.2","0.6","0.4","","","","","0.2183283259","0.1260156682","0.3148812039","0.2383664846","","","","","","","","75","K","2","","","69","main_expt"
"","bandit","149","562365","0.0-110.0-0.0","06502927","wem/bandit_either_2","A3FOKP72T5I4FR","either","7","1298","","","","","","","0","0","1","","0.3154014692","0.8","0.2","0.6","0.4","0.2260484764","0.08773951932","0.3154014692","0.2497111545","","","","","","","","","","","","75","K","2","","","70","main_expt"
"","bandit","150","565352","0.0-111.0-0.0","06502927","wem/bandit_either_2","A3FOKP72T5I4FR","either","7","1454","","","","","","","0","0","1","0.219815459","","0.8","0.2","0.6","0.4","","","","","0.3196469567","0.1154304285","0.219815459","0.2095843002","","","","","","","","75","K","2","","","71","main_expt"
"","bandit","151","567437","0.0-112.0-0.0","06502927","wem/bandit_either_2","A3FOKP72T5I4FR","either","7","554","","","","","","","0","0","1","0.2623730272","","0.8","0.2","0.6","0.4","","","","","0.3644141189","0.10097247","0.2623730272","0.1972488467","","","","","","","","75","K","2","","","72","main_expt"
"","bandit","152","569288","0.0-113.0-0.0","06502927","wem/bandit_either_2","A3FOKP72T5I4FR","either","7","319","","","","","","","0","0","1","","0.2639805735","0.8","0.2","0.6","0.4","0.4081842109","0.0746930591","0.2639805735","0.15494396","","","","","","","","","","","","75","K","2","","","73","main_expt"
"","bandit","153","571155","0.0-114.0-0.0","06502927","wem/bandit_either_2","A3FOKP72T5I4FR","either","7","331","","","","","","","0","0","1","","0.1124392477","0.8","0.2","0.6","0.4","0.4506698749","0.1124392477","0.2770925356","0.1324790415","","","","","","","","","","","","74","J","1","","","74","main_expt"
"","bandit","154","573005","0.0-115.0-0.0","06502927","wem/bandit_either_2","A3FOKP72T5I4FR","either","7","316","","","","","","","0","0","1","","0.113494578","0.8","0.2","0.6","0.4","0.454520075","0.113494578","0.2796652475","0.179195356","","","","","","","","","","","","74","J","1","","","75","main_expt"
"","bandit","155","574965","0.0-116.0-0.0","06502927","wem/bandit_either_2","A3FOKP72T5I4FR","either","7","444","","","","","","","0","0","1","","0.1469344428","0.8","0.2","0.6","0.4","0.466199952","0.1469344428","0.3153427244","0.215808919","","","","","","","","","","","","74","J","1","","","76","main_expt"
"","bandit","156","576884","0.0-117.0-0.0","06502927","wem/bandit_either_2","A3FOKP72T5I4FR","either","7","389","","","","","","","0","0","1","","0.2152215887","0.8","0.2","0.6","0.4","0.4402141775","0.2152215887","0.3676911864","0.2312347408","","","","","","","","","","","","74","J","1","","","77","main_expt"
"","bandit","157","578592","0.0-118.0-0.0","06502927","wem/bandit_either_2","A3FOKP72T5I4FR","either","7","176","","","","","","","1","0","0","0.4525957793","","0.8","0.2","0.6","0.4","","","","","0.4525957793","0.2055177618","0.3434277392","0.2197025874","","","","","","","","72","H","0","img/none_selected.jpg","","78","main_expt"
"","bandit","158","580407","0.0-119.0-0.0","06502927","wem/bandit_either_2","A3FOKP72T5I4FR","either","7","281","","","","","","","0","0","1","0.4630799716","","0.8","0.2","0.6","0.4","","","","","0.4630799716","0.222262525","0.3758616161","0.2227420924","","","","","","","","72","H","0","img/none_selected.jpg","","79","main_expt"
"","bandit","159","582492","0.0-120.0-0.0","06502927","wem/bandit_either_2","A3FOKP72T5I4FR","either","7","557","","","","","","","0","0","1","0.423693353","","0.8","0.2","0.6","0.4","","","","","0.423693353","0.2700860438","0.3862393514","0.2283057493","","","","","","","","72","H","0","img/none_selected.jpg","","80","main_expt"
"","bandit","160","584431","0.0-121.0-0.0","06502927","wem/bandit_either_2","A3FOKP72T5I4FR","either","7","409","","","","","","","0","0","1","0.4319112677","","0.8","0.2","0.6","0.4","","","","","0.4319112677","0.2642688004","0.3593770893","0.2721525977","","","","","","","","72","H","0","img/none_selected.jpg","","81","main_expt"
"","bandit","161","587097","0.0-122.0-0.0","06502927","wem/bandit_either_2","A3FOKP72T5I4FR","either","7","1133","","","","","","","1","0","0","0.441827487","","0.8","0.2","0.6","0.4","","","","","0.441827487","0.2824164754","0.4035110645","0.2850237184","","","","","","","","72","H","0","img/none_selected.jpg","","82","main_expt"
"","bandit","162","589049","0.0-123.0-0.0","06502927","wem/bandit_either_2","A3FOKP72T5I4FR","either","7","420","","","","","","","0","0","1","0.4288861504","","0.8","0.2","0.6","0.4","","","","","0.4288861504","0.2819095575","0.3719627038","0.3236436683","","","","","","","","72","H","0","img/none_selected.jpg","","83","main_expt"
"","bandit","163","591206","0.0-124.0-0.0","06502927","wem/bandit_either_2","A3FOKP72T5I4FR","either","7","632","","","","","","","0","0","1","0.4350385517","","0.8","0.2","0.6","0.4","","","","","0.4350385517","0.2589745902","0.3349288927","0.3339638593","","","","","","","","72","H","0","img/none_selected.jpg","","84","main_expt"
"","bandit","164","593047","0.0-125.0-0.0","06502927","wem/bandit_either_2","A3FOKP72T5I4FR","either","7","319","","","","","","","0","0","1","","0.4255505645","0.8","0.2","0.6","0.4","0.4255505645","0.3626504113","0.3247899262","0.3795022601","","","","","","","","","","","","72","H","0","img/none_selected.jpg","","85","main_expt"
"","bandit","165","594873","0.0-126.0-0.0","06502927","wem/bandit_either_2","A3FOKP72T5I4FR","either","7","295","","","","","","","0","0","1","0.4330938692","","0.8","0.2","0.6","0.4","","","","","0.4330938692","0.3598915268","0.3443557019","0.3835523064","","","","","","","","72","H","0","img/none_selected.jpg","","86","main_expt"
"","bandit","166","596762","0.0-127.0-0.0","06502927","wem/bandit_either_2","A3FOKP72T5I4FR","either","7","358","","","","","","","0","0","1","0.4548398529","","0.8","0.2","0.6","0.4","","","","","0.4548398529","0.3433052933","0.3648776167","0.3772514457","","","","","","","","72","H","0","img/none_selected.jpg","","87","main_expt"
"","bandit","167","598590","0.0-128.0-0.0","06502927","wem/bandit_either_2","A3FOKP72T5I4FR","either","7","308","","","","","","","0","0","1","0.4493124031","","0.8","0.2","0.6","0.4","","","","","0.4493124031","0.4022938878","0.3609631839","0.3766830519","","","","","","","","72","H","0","img/none_selected.jpg","","88","main_expt"
"","bandit","168","600442","0.0-129.0-0.0","06502927","wem/bandit_either_2","A3FOKP72T5I4FR","either","7","322","","","","","","","0","0","1","0.4161110063","","0.8","0.2","0.6","0.4","","","","","0.4161110063","0.4141493151","0.3636167192","0.3537755119","","","","","","","","72","H","0","img/none_selected.jpg","","89","main_expt"
"","bandit","169","602325","0.0-130.0-0.0","06502927","wem/bandit_either_2","A3FOKP72T5I4FR","either","7","360","","","","","","","0","1","0","","0.4136124289","0.8","0.2","0.6","0.4","0.405260856","0.4136124289","0.3563441379","0.3014761449","","","","","","","","","","","","74","J","1","","","90","main_expt"
"","bandit","170","604188","0.0-131.0-0.0","06502927","wem/bandit_either_2","A3FOKP72T5I4FR","either","7","330","","","","","","","0","0","1","","0.4184852842","0.8","0.2","0.6","0.4","0.3827048226","0.4184852842","0.3389138503","0.2694038268","","","","","","","","","","","","74","J","1","","","91","main_expt"
"","bandit","171","606671","0.0-132.0-0.0","06502927","wem/bandit_either_2","A3FOKP72T5I4FR","either","7","952","","","","","","","0","0","1","","0.4456808576","0.8","0.2","0.6","0.4","0.3552182969","0.4456808576","0.3263360165","0.2651536323","","","","","","","","","","","","74","J","1","","","92","main_expt"
"","bandit","172","608566","0.0-133.0-0.0","06502927","wem/bandit_either_2","A3FOKP72T5I4FR","either","7","357","","","","","","","1","0","0","0.4355219805","","0.8","0.2","0.6","0.4","","","","","0.3286897504","0.4355219805","0.2844131911","0.1997208586","","","","","","","","74","J","1","","","93","main_expt"
"","bandit","173","610741","0.0-134.0-0.0","06502927","wem/bandit_either_2","A3FOKP72T5I4FR","either","7","644","","","","","","","0","1","0","","0.4609821192","0.8","0.2","0.6","0.4","0.3422490236","0.4609821192","0.2978465223","0.2442555344","","","","","","","","","","","","74","J","1","","","94","main_expt"
"","bandit","174","612747","0.0-135.0-0.0","06502927","wem/bandit_either_2","A3FOKP72T5I4FR","either","7","473","","","","","","","0","0","1","","0.4419374505","0.8","0.2","0.6","0.4","0.3160161054","0.4419374505","0.2638723705","0.2638839348","","","","","","","","","","","","74","J","1","","","95","main_expt"
"","bandit","175","614765","0.0-136.0-0.0","06502927","wem/bandit_either_2","A3FOKP72T5I4FR","either","7","487","","","","","","","0","1","0","","0.39438674","0.8","0.2","0.6","0.4","0.2945538732","0.39438674","0.2276010735","0.2265245807","","","","","","","","","","","","74","J","1","","","96","main_expt"
"","bandit","176","616655","0.0-137.0-0.0","06502927","wem/bandit_either_2","A3FOKP72T5I4FR","either","7","351","","","","","","","0","0","1","","0.3617668419","0.8","0.2","0.6","0.4","0.393563827","0.3617668419","0.2045446072","0.1969189177","","","","","","","","","","","","74","J","1","","","97","main_expt"
"","bandit","177","618761","0.0-138.0-0.0","06502927","wem/bandit_either_2","A3FOKP72T5I4FR","either","7","569","","","","","","","0","0","1","0.3737913853","","0.8","0.2","0.6","0.4","","","","","0.4046254927","0.3737913853","0.2436418828","0.1761144245","","","","","","","","74","J","1","","","98","main_expt"
"","bandit","178","620642","0.0-139.0-0.0","06502927","wem/bandit_either_2","A3FOKP72T5I4FR","either","7","350","","","","","","","0","0","1","","0.4221129479","0.8","0.2","0.6","0.4","0.3659012549","0.4221129479","0.2473144087","0.1211630765","","","","","","","","","","","","74","J","1","","","99","main_expt"
"","bandit","179","622568","0.0-140.0-0.0","06502927","wem/bandit_either_2","A3FOKP72T5I4FR","either","7","396","","","","","","","0","0","1","0.3857893684","","0.8","0.2","0.6","0.4","","","","","0.400368336","0.3857893684","0.2707360286","0.1257326749","","","","","","","","74","J","1","","","100","main_expt"
"","bandit","180","624730","0.0-141.0-0.0","06502927","wem/bandit_either_2","A3FOKP72T5I4FR","either","7","628","","","","","","","0","0","1","","0.3635527264","0.8","0.2","0.6","0.4","0.4367931528","0.3635527264","0.3250409822","0.09975532208","","","","","","","","","","","","74","J","1","","","101","main_expt"
"","bandit","181","626879","0.0-142.0-0.0","06502927","wem/bandit_either_2","A3FOKP72T5I4FR","either","7","613","","","","","","","0","1","0","","0.3738375489","0.8","0.2","0.6","0.4","0.4371155326","0.3738375489","0.3088580598","0.1127414424","","","","","","","","","","","","74","J","1","","","102","main_expt"
"","bandit","182","628900","0.0-143.0-0.0","06502927","wem/bandit_either_2","A3FOKP72T5I4FR","either","7","492","","","","","","","0","0","1","","0.3860163181","0.8","0.2","0.6","0.4","0.388648264","0.3860163181","0.2901001995","0.1232600734","","","","","","","","","","","","74","J","1","","","103","main_expt"
"","bandit","183","630918","0.0-144.0-0.0","06502927","wem/bandit_either_2","A3FOKP72T5I4FR","either","7","483","","","","","","","0","0","1","","0.390692362","0.8","0.2","0.6","0.4","0.3718469433","0.390692362","0.309645936","0.08156843846","","","","","","","","","","","","74","J","1","","","104","main_expt"
"","bandit","184","632900","0.0-145.0-0.0","06502927","wem/bandit_either_2","A3FOKP72T5I4FR","either","7","451","","","","","","","0","0","1","","0.4139082553","0.8","0.2","0.6","0.4","0.3920304628","0.4139082553","0.3386062745","0.08245659199","","","","","","","","","","","","74","J","1","","","105","main_expt"
"","bandit","185","634848","0.0-146.0-0.0","06502927","wem/bandit_either_2","A3FOKP72T5I4FR","either","7","413","","","","","","","0","0","1","","0.3295275825","0.8","0.2","0.6","0.4","0.3733497125","0.3295275825","0.3827539061","0.1276639339","","","","","","","","","","","","74","J","1","","","106","main_expt"
"","bandit","186","636704","0.0-147.0-0.0","06502927","wem/bandit_either_2","A3FOKP72T5I4FR","either","7","325","","","","","","","0","0","1","","0.3401355396","0.8","0.2","0.6","0.4","0.3878439861","0.3499712774","0.3401355396","0.1812689745","","","","","","","","","","","","75","K","2","","","107","main_expt"
"","bandit","187","638769","0.0-148.0-0.0","06502927","wem/bandit_either_2","A3FOKP72T5I4FR","either","7","535","","","","","","","0","0","1","","0.3258039352","0.8","0.2","0.6","0.4","0.3529013302","0.2666891207","0.3258039352","0.2187982558","","","","","","","","","","","","75","K","2","","","108","main_expt"
"","bandit","188","640679","0.0-149.0-0.0","06502927","wem/bandit_either_2","A3FOKP72T5I4FR","either","7","377","","","","","","","0","1","0","","0.374919859","0.8","0.2","0.6","0.4","0.3457683734","0.2575067634","0.374919859","0.2201216928","","","","","","","","","","","","75","K","2","","","109","main_expt"
"","bandit","189","642907","0.0-150.0-0.0","06502927","wem/bandit_either_2","A3FOKP72T5I4FR","either","7","693","","","","","","","1","0","0","0.3656186065","","0.8","0.2","0.6","0.4","","","","","0.3316873257","0.2664913793","0.3656186065","0.1789817232","","","","","","","","75","K","2","","","110","main_expt"
"","bandit","190","645831","0.0-151.0-0.0","06502927","wem/bandit_either_2","A3FOKP72T5I4FR","either","7","1391","","","","","","","0","0","1","0.3649701027","","0.8","0.2","0.6","0.4","","","","","0.3434945318","0.2233446911","0.3649701027","0.2404947452","","","","","","","","75","K","2","","","111","main_expt"
"","bandit","191","648381","0.0-152.0-0.0","06502927","wem/bandit_either_2","A3FOKP72T5I4FR","either","7","1017","","","","","","","0","0","1","0.3371716456","","0.8","0.2","0.6","0.4","","","","","0.2729480053","0.2170082082","0.3371716456","0.2959558532","","","","","","","","75","K","2","","","112","main_expt"
"","bandit","192","650567","0.0-153.0-0.0","06502927","wem/bandit_either_2","A3FOKP72T5I4FR","either","7","653","","","","","","","0","0","1","","0.2587224119","0.8","0.2","0.6","0.4","0.2579672073","0.1912277411","0.2587224119","0.2966985553","","","","","","","","","","","","75","K","2","","","113","main_expt"
"","bandit","193","652502","0.0-154.0-0.0","06502927","wem/bandit_either_2","A3FOKP72T5I4FR","either","7","402","","","","","","","0","0","1","0.2384324947","","0.8","0.2","0.6","0.4","","","","","0.24654084","0.1691995451","0.2384324947","0.3289730608","","","","","","","","75","K","2","","","114","main_expt"
"","bandit","194","655211","0.0-155.0-0.0","06502927","wem/bandit_either_2","A3FOKP72T5I4FR","either","7","1175","","","","","","","0","0","1","0.2705755989","","0.8","0.2","0.6","0.4","","","","","0.246649757","0.1263730162","0.2705755989","0.2783705844","","","","","","","","75","K","2","","","115","main_expt"
"","bandit","195","656905","0.0-156.0-0.0","06502927","wem/bandit_either_2","A3FOKP72T5I4FR","either","7","158","","","","","","","0","0","1","","0.2666822","0.8","0.2","0.6","0.4","0.2190482835","0.1130092975","0.2666822","0.2990421824","","","","","","","","","","","","75","K","2","","","116","main_expt"
"","bandit","196","658588","0.0-157.0-0.0","06502927","wem/bandit_either_2","A3FOKP72T5I4FR","either","7","148","","","","","","","0","0","1","0.3214730448","","0.8","0.2","0.6","0.4","","","","","0.1860086181","0.1317362661","0.2664749026","0.3214730448","","","","","","","","76","L","3","","","117","main_expt"
"","bandit","197","660465","0.0-158.0-0.0","06502927","wem/bandit_either_2","A3FOKP72T5I4FR","either","7","341","","","","","","","0","1","0","","0.3996160597","0.8","0.2","0.6","0.4","0.1765749983","0.08460291254","0.285497096","0.3996160597","","","","","","","","","","","","76","L","3","","","118","main_expt"
"","bandit","198","662698","0.0-159.0-0.0","06502927","wem/bandit_either_2","A3FOKP72T5I4FR","either","7","699","","","","","","","0","0","1","0.4143362638","","0.8","0.2","0.6","0.4","","","","","0.1840588368","0.09168363065","0.3004427434","0.4143362638","","","","","","","","76","L","3","","","119","main_expt"
"","bandit","199","664672","0.0-160.0-0.0","06502927","wem/bandit_either_2","A3FOKP72T5I4FR","either","7","440","","","","","","","1","0","0","0.372340151","","0.8","0.2","0.6","0.4","","","","","0.1988357929","0.06729372802","0.2419855731","0.372340151","","","","","","","","76","L","3","","","120","main_expt"
"","bandit","200","667183","0.0-161.0-0.0","06502927","wem/bandit_either_2","A3FOKP72T5I4FR","either","7","975","","","","","","","0","0","1","","0.3910424524","0.8","0.2","0.6","0.4","0.2315674","0.08346408207","0.3054132847","0.3910424524","","","","","","","","","","","","76","L","3","","","121","main_expt"
"","bandit","201","669462","0.0-162.0-0.0","06502927","wem/bandit_either_2","A3FOKP72T5I4FR","either","7","741","","","","","","","0","0","1","0.3813410711","","0.8","0.2","0.6","0.4","","","","","0.2041322171","0.05632743158","0.2473202095","0.3813410711","","","","","","","","76","L","3","","","122","main_expt"
"","bandit","202","671488","0.0-163.0-0.0","06502927","wem/bandit_either_2","A3FOKP72T5I4FR","either","7","493","","","","","","","0","1","0","","0.4247291795","0.8","0.2","0.6","0.4","0.1945268209","0.05516745574","0.2909195989","0.4247291795","","","","","","","","","","","","76","L","3","","","123","main_expt"
"","bandit","203","674130","0.0-164.0-0.0","06502927","wem/bandit_either_2","A3FOKP72T5I4FR","either","7","1108","","","","","","","0","1","0","","0.4311179713","0.8","0.2","0.6","0.4","0.2206749142","0.05528311039","0.3493750294","0.4311179713","","","","","","","","","","","","76","L","3","","","124","main_expt"
"","bandit","204","676235","0.0-165.0-0.0","06502927","wem/bandit_either_2","A3FOKP72T5I4FR","either","7","571","","","","","","","0","0","1","","0.4085782939","0.8","0.2","0.6","0.4","0.212012295","0.07149807259","0.3883668019","0.4085782939","","","","","","","","","","","","76","L","3","","","125","main_expt"
"","bandit","205","678109","0.0-166.0-0.0","06502927","wem/bandit_either_2","A3FOKP72T5I4FR","either","7","339","","","","","","","0","1","0","","0.4110861309","0.8","0.2","0.6","0.4","0.1656684785","0.1137803622","0.3888129637","0.4110861309","","","","","","","","","","","","76","L","3","","","126","main_expt"
"","bandit","206","680166","0.0-167.0-0.0","06502927","wem/bandit_either_2","A3FOKP72T5I4FR","either","7","524","","","","","","","0","1","0","","0.4214671818","0.8","0.2","0.6","0.4","0.1685301808","0.1003054442","0.3659195129","0.4214671818","","","","","","","","","","","","76","L","3","","","127","main_expt"
"","bandit","207","682135","0.0-168.0-0.0","06502927","wem/bandit_either_2","A3FOKP72T5I4FR","either","7","434","","","","","","","0","1","0","","0.36889317","0.8","0.2","0.6","0.4","0.1703551811","0.1378169536","0.3689954399","0.36889317","","","","","","","","","","","","76","L","3","","","128","main_expt"
"","bandit","208","684368","0.0-169.0-0.0","06502927","wem/bandit_either_2","A3FOKP72T5I4FR","either","7","698","","","","","","","0","1","0","","0.3840267129","0.8","0.2","0.6","0.4","0.1624753709","0.1333081235","0.3600340942","0.3840267129","","","","","","","","","","","","76","L","3","","","129","main_expt"
"","bandit","209","687541","0.0-170.0-0.0","06502927","wem/bandit_either_2","A3FOKP72T5I4FR","either","7","1638","","","","","","","1","0","0","0.3809677701","","0.8","0.2","0.6","0.4","","","","","0.2335662737","0.1682212827","0.3580797835","0.3809677701","","","","","","","","76","L","3","","","130","main_expt"
"","bandit","210","689407","0.0-171.0-0.0","06502927","wem/bandit_either_2","A3FOKP72T5I4FR","either","7","331","","","","","","","0","0","1","","0.3681933818","0.8","0.2","0.6","0.4","0.240441026","0.2193829955","0.3785893338","0.3681933818","","","","","","","","","","","","76","L","3","","","131","main_expt"
"","bandit","211","691468","0.0-172.0-0.0","06502927","wem/bandit_either_2","A3FOKP72T5I4FR","either","7","525","","","","","","","0","0","1","0.3664045944","","0.8","0.2","0.6","0.4","","","","","0.2266699971","0.2693349046","0.3764735404","0.3664045944","","","","","","","","76","L","3","","","132","main_expt"
"","bandit","212","693415","0.0-173.0-0.0","06502927","wem/bandit_either_2","A3FOKP72T5I4FR","either","7","412","","","","","","","0","0","1","0.4046437197","","0.8","0.2","0.6","0.4","","","","","0.1994193025","0.2576546077","0.3433534211","0.4046437197","","","","","","","","76","L","3","","","133","main_expt"
"","bandit","213","695760","0.0-174.0-0.0","06502927","wem/bandit_either_2","A3FOKP72T5I4FR","either","7","808","","","","","","","0","1","0","","0.364490756","0.8","0.2","0.6","0.4","0.1891464922","0.2412372273","0.3606247271","0.364490756","","","","","","","","","","","","76","L","3","","","134","main_expt"
"","bandit","214","698628","0.0-175.0-0.0","06502927","wem/bandit_either_2","A3FOKP72T5I4FR","either","7","1333","","","","","","","0","0","1","0.311914316","","0.8","0.2","0.6","0.4","","","","","0.1614798668","0.2198641054","0.3268624306","0.311914316","","","","","","","","76","L","3","","","135","main_expt"
"","bandit","215","701084","0.0-176.0-0.0","06502927","wem/bandit_either_2","A3FOKP72T5I4FR","either","7","923","","","","","","","0","0","1","","0.2653901568","0.8","0.2","0.6","0.4","0.1880386222","0.2504132697","0.2854606769","0.2653901568","","","","","","","","","","","","76","L","3","","","136","main_expt"
"","bandit","216","702985","0.0-177.0-0.0","06502927","wem/bandit_either_2","A3FOKP72T5I4FR","either","7","365","","","","","","","1","0","0","0.2413295316","","0.8","0.2","0.6","0.4","","","","","0.1961818793","0.1912230989","0.3311747399","0.2413295316","","","","","","","","76","L","3","","","137","main_expt"
"","bandit","217","705333","0.0-178.0-0.0","06502927","wem/bandit_either_2","A3FOKP72T5I4FR","either","7","813","","","","","","","0","0","1","0.2060295423","","0.8","0.2","0.6","0.4","","","","","0.2857678963","0.1576256809","0.2570785188","0.2060295423","","","","","","","","76","L","3","","","138","main_expt"
"","bandit","218","708496","0.0-179.0-0.0","06502927","wem/bandit_either_2","A3FOKP72T5I4FR","either","7","1624","","","","","","","0","0","1","0.1809645164","","0.8","0.2","0.6","0.4","","","","","0.3449131854","0.1019788138","0.2858060749","0.1809645164","","","","","","","","76","L","3","","","139","main_expt"
"","bandit","219","710479","0.0-180.0-0.0","06502927","wem/bandit_either_2","A3FOKP72T5I4FR","either","7","445","","","","","","","0","0","1","","0.1843216893","0.8","0.2","0.6","0.4","0.2537716732","0.07754087054","0.2975559752","0.1843216893","","","","","","","","","","","","76","L","3","","","140","main_expt"
"","bandit","220","712986","0.0-181.0-0.0","06502927","wem/bandit_either_2","A3FOKP72T5I4FR","either","7","972","","","","","","","0","0","1","","0.1651876155","0.8","0.2","0.6","0.4","0.2858111263","0.09489610577","0.2802168405","0.1651876155","","","","","","","","","","","","76","L","3","","","141","main_expt"
"","bandit","221","715116","0.0-182.0-0.0","06502927","wem/bandit_either_2","A3FOKP72T5I4FR","either","7","594","","","","","","","0","0","1","","0.1536427928","0.8","0.2","0.6","0.4","0.303049367","0.09601428546","0.2231986748","0.1536427928","","","","","","","","","","","","76","L","3","","","142","main_expt"
"","bandit","222","717521","0.0-183.0-0.0","06502927","wem/bandit_either_2","A3FOKP72T5I4FR","either","7","869","","","","","","","0","1","0","","0.1546140226","0.8","0.2","0.6","0.4","0.2969419413","0.08301142993","0.2032880393","0.1546140226","","","","","","","","","","","","76","L","3","","","143","main_expt"
"","bandit","223","719271","0.0-184.0-0.0","06502927","wem/bandit_either_2","A3FOKP72T5I4FR","either","7","212","","","","","","","0","0","1","","0.1746031107","0.8","0.2","0.6","0.4","0.3128690494","0.09599686985","0.1967741464","0.1746031107","","","","","","","","","","","","76","L","3","","","144","main_expt"
"","bandit","224","720982","0.0-185.0-0.0","06502927","wem/bandit_either_2","A3FOKP72T5I4FR","either","7","174","","","","","","","0","0","1","0.2283154954","","0.8","0.2","0.6","0.4","","","","","0.2991796355","0.07499383622","0.2283154954","0.2021387556","","","","","","","","75","K","2","","","145","main_expt"
"","bandit","225","722919","0.0-186.0-0.0","06502927","wem/bandit_either_2","A3FOKP72T5I4FR","either","7","395","","","","","","","0","0","1","0.2118700154","","0.8","0.2","0.6","0.4","","","","","0.3163763193","0.09566861","0.2118700154","0.2504344391","","","","","","","","75","K","2","","","146","main_expt"
"","bandit","226","724509","0.0-187.0-0.0","06502927","wem/bandit_either_2","A3FOKP72T5I4FR","either","7","55","","","","","","","0","1","0","","0.210437557","0.8","0.2","0.6","0.4","0.3198025905","0.08578591382","0.210437557","0.2437718569","","","","","","","","","","","","75","K","2","","","147","main_expt"
"","bandit","227","726443","0.0-188.0-0.0","06502927","wem/bandit_either_2","A3FOKP72T5I4FR","either","7","399","","","","","","","0","0","1","0.2370661354","","0.8","0.2","0.6","0.4","","","","","0.2588245921","0.1147887709","0.2370661354","0.2446677265","","","","","","","","75","K","2","","","148","main_expt"
"","bandit","228","729331","0.0-189.0-0.0","06502927","wem/bandit_either_2","A3FOKP72T5I4FR","either","7","1351","","","","","","","0","0","1","","0.2430363771","0.8","0.2","0.6","0.4","0.248712437","0.1378203382","0.2430363771","0.2911002833","","","","","","","","","","","","75","K","2","","","149","main_expt"
"","bandit","229","731557","0.0-190.0-0.0","06502927","wem/bandit_either_2","A3FOKP72T5I4FR","either","7","687","","","","","","","0","0","1","0.2242182381","","0.8","0.2","0.6","0.4","","","","","0.179144869","0.1414499273","0.2242182381","0.3529655025","","","","","","","","75","K","2","","","150","main_expt"
"","bandit","230","733099","0.0-191.0-0.0","06502927","wem/bandit_either_2","A3FOKP72T5I4FR","either","7","5","","","","","","","1","0","0","0.1997145133","","0.8","0.2","0.6","0.4","","","","","0.1545669956","0.07852348772","0.1997145133","0.3885741111","","","","","","","","75","K","2","","","151","main_expt"
"","bandit","231","735872","0.0-192.0-0.0","06502927","wem/bandit_either_2","A3FOKP72T5I4FR","either","7","1238","","","","","","","0","0","1","","0.08485793113","0.8","0.2","0.6","0.4","0.1651714415","0.08485793113","0.2195927633","0.3690499696","","","","","","","","","","","","74","J","1","","","152","main_expt"
"","bandit","232","737647","0.0-193.0-0.0","06502927","wem/bandit_either_2","A3FOKP72T5I4FR","either","7","234","","","","","","","0","0","1","","0.1083789561","0.8","0.2","0.6","0.4","0.2396245514","0.1083789561","0.2121816628","0.3710492515","","","","","","","","","","","","74","J","1","","","153","main_expt"
"","bandit","233","739436","0.0-194.0-0.0","06502927","wem/bandit_either_2","A3FOKP72T5I4FR","either","7","252","","","","","","","0","1","0","","0.109098481","0.8","0.2","0.6","0.4","0.2085838567","0.109098481","0.1830588608","0.3483335413","","","","","","","","","","","","74","J","1","","","154","main_expt"
"","bandit","234","741264","0.0-195.0-0.0","06502927","wem/bandit_either_2","A3FOKP72T5I4FR","either","7","290","","","","","","","0","1","0","","0.1758262092","0.8","0.2","0.6","0.4","0.1864274254","0.1758262092","0.2031423662","0.3343760247","","","","","","","","","","","","74","J","1","","","155","main_expt"
"","bandit","235","743068","0.0-196.0-0.0","06502927","wem/bandit_either_2","A3FOKP72T5I4FR","either","7","273","","","","","","","0","0","1","","0.2046597001","0.8","0.2","0.6","0.4","0.1750870897","0.2046597001","0.2022731065","0.3742013553","","","","","","","","","","","","74","J","1","","","156","main_expt"
"","bandit","236","744907","0.0-197.0-0.0","06502927","wem/bandit_either_2","A3FOKP72T5I4FR","either","7","303","","","","","","","0","0","1","0.1774751899","","0.8","0.2","0.6","0.4","","","","","0.1321985386","0.1774751899","0.1826661219","0.3620366094","","","","","","","","74","J","1","","","157","main_expt"
"","bandit","237","746839","0.0-198.0-0.0","06502927","wem/bandit_either_2","A3FOKP72T5I4FR","either","7","396","","","","","","","0","0","1","","0.1612033886","0.8","0.2","0.6","0.4","0.1341899746","0.1612033886","0.1658993888","0.3671714071","","","","","","","","","","","","74","J","1","","","158","main_expt"
"","bandit","238","748716","0.0-199.0-0.0","06502927","wem/bandit_either_2","A3FOKP72T5I4FR","either","7","340","","","","","","","0","0","1","","0.1586838935","0.8","0.2","0.6","0.4","0.1567784951","0.1586838935","0.1620079643","0.4015988616","","","","","","","","","","","","74","J","1","","","159","main_expt"
"","bandit","239","750858","0.0-200.0-0.0","06502927","wem/bandit_either_2","A3FOKP72T5I4FR","either","7","606","","","","","","","0","0","1","","0.2159944071","0.8","0.2","0.6","0.4","0.1615549635","0.2159944071","0.2453635642","0.4004877553","","","","","","","","","","","","74","J","1","","","160","main_expt"
"","bandit","240","753166","0.0-201.0-0.0","06502927","wem/bandit_either_2","A3FOKP72T5I4FR","either","7","772","","","","","","","0","0","1","","0.2105769377","0.8","0.2","0.6","0.4","0.1854631015","0.2105769377","0.2456373749","0.4095849454","","","","","","","","","","","","74","J","1","","","161","main_expt"
"","bandit","241","755529","0.0-202.0-0.0","06502927","wem/bandit_either_2","A3FOKP72T5I4FR","either","7","826","","","","","","","0","0","1","","0.2006925765","0.8","0.2","0.6","0.4","0.21229469","0.2006925765","0.2460125232","0.3978002783","","","","","","","","","","","","74","J","1","","","162","main_expt"
"","bandit","242","757432","0.0-203.0-0.0","06502927","wem/bandit_either_2","A3FOKP72T5I4FR","either","7","365","","","","","","","0","0","1","","0.2365124807","0.8","0.2","0.6","0.4","0.162194177","0.2365124807","0.2013568893","0.4180552148","","","","","","","","","","","","74","J","1","","","163","main_expt"
"","bandit","243","759283","0.0-204.0-0.0","06502927","wem/bandit_either_2","A3FOKP72T5I4FR","either","7","316","","","","","","","0","0","1","","0.1535707797","0.8","0.2","0.6","0.4","0.1535707797","0.2157370886","0.1933595846","0.4407560021","","","","","","","","","","","","72","H","0","img/none_selected.jpg","","164","main_expt"
"","bandit","244","761055","0.0-205.0-0.0","06502927","wem/bandit_either_2","A3FOKP72T5I4FR","either","7","232","","","","","","","0","0","1","0.2315934193","","0.8","0.2","0.6","0.4","","","","","0.2315934193","0.2166787898","0.167552211","0.4582960521","","","","","","","","72","H","0","img/none_selected.jpg","","165","main_expt"
"","bandit","245","763350","0.0-206.0-0.0","06502927","wem/bandit_either_2","A3FOKP72T5I4FR","either","7","760","","","","","","","1","0","0","0.2579087381","","0.8","0.2","0.6","0.4","","","","","0.2579087381","0.1846262972","0.1311237951","0.4337500892","","","","","","","","72","H","0","img/none_selected.jpg","","166","main_expt"
"","bandit","246","765225","0.0-207.0-0.0","06502927","wem/bandit_either_2","A3FOKP72T5I4FR","either","7","337","","","","","","","0","0","1","0.2496457694","","0.8","0.2","0.6","0.4","","","","","0.2496457694","0.1888750078","0.1714029316","0.4537582576","","","","","","","","72","H","0","img/none_selected.jpg","","167","main_expt"
"","bandit","247","767368","0.0-208.0-0.0","06502927","wem/bandit_either_2","A3FOKP72T5I4FR","either","7","605","","","","","","","0","0","1","0.234558796","","0.8","0.2","0.6","0.4","","","","","0.234558796","0.2315683769","0.1494402723","0.4473485534","","","","","","","","72","H","0","img/none_selected.jpg","","168","main_expt"
"","bandit","248","769725","0.0-209.0-0.0","06502927","wem/bandit_either_2","A3FOKP72T5I4FR","either","7","817","","","","","","","0","0","1","","0.2458600006","0.8","0.2","0.6","0.4","0.2458600006","0.2018123945","0.1819888556","0.4471591033","","","","","","","","","","","","72","H","0","img/none_selected.jpg","","169","main_expt"
"","bandit","249","772986","0.0-210.0-0.0","06502927","wem/bandit_either_2","A3FOKP72T5I4FR","either","7","1724","","","","","","","0","0","1","0.2214583157","","0.8","0.2","0.6","0.4","","","","","0.2214583157","0.139238222","0.2329206984","0.4581839475","","","","","","","","72","H","0","img/none_selected.jpg","","170","main_expt"
"","bandit","250","774807","0.0-211.0-0.0","06502927","wem/bandit_either_2","A3FOKP72T5I4FR","either","7","276","","","","","","","0","0","1","0.296208115","","0.8","0.2","0.6","0.4","","","","","0.296208115","0.1466511374","0.2000607923","0.4674995421","","","","","","","","72","H","0","img/none_selected.jpg","","171","main_expt"
"","bandit","251","777003","0.0-212.0-0.0","06502927","wem/bandit_either_2","A3FOKP72T5I4FR","either","7","658","","","","","","","0","0","1","","0.4455620345","0.8","0.2","0.6","0.4","0.3062379281","0.1348290388","0.2342957318","0.4455620345","","","","","","","","","","","","76","L","3","","","172","main_expt"
"","bandit","252","778832","0.0-213.0-0.0","06502927","wem/bandit_either_2","A3FOKP72T5I4FR","either","7","287","","","","","","","1","0","0","0.4471610379","","0.8","0.2","0.6","0.4","","","","","0.2498067723","0.1521691919","0.2189308077","0.4471610379","","","","","","","","76","L","3","","","173","main_expt"
"","bandit","253","780744","0.0-214.0-0.0","06502927","wem/bandit_either_2","A3FOKP72T5I4FR","either","7","371","","","","","","","0","0","1","","0.4496576915","0.8","0.2","0.6","0.4","0.1803522277","0.2191935525","0.2373932689","0.4496576915","","","","","","","","","","","","76","L","3","","","174","main_expt"
"","bandit","254","782452","0.0-215.0-0.0","06502927","wem/bandit_either_2","A3FOKP72T5I4FR","either","7","169","","","","","","","0","0","1","","0.4715297358","0.8","0.2","0.6","0.4","0.2014319342","0.219961305","0.2160264752","0.4715297358","","","","","","","","","","","","76","L","3","","","175","main_expt"
"","bandit","255","784722","0.0-216.0-0.0","06502927","wem/bandit_either_2","A3FOKP72T5I4FR","either","7","730","","","","","","","1","0","0","0.477956151","","0.8","0.2","0.6","0.4","","","","","0.2122003168","0.1882485239","0.1990604306","0.477956151","","","","","","","","76","L","3","","","176","main_expt"
"","bandit","256","786605","0.0-217.0-0.0","06502927","wem/bandit_either_2","A3FOKP72T5I4FR","either","7","344","","","","","","","0","0","1","","0.4563721206","0.8","0.2","0.6","0.4","0.2629069455","0.1644902553","0.1729978196","0.4563721206","","","","","","","","","","","","76","L","3","","","177","main_expt"
"","bandit","257","788500","0.0-218.0-0.0","06502927","wem/bandit_either_2","A3FOKP72T5I4FR","either","7","356","","","","","","","1","0","0","0.4409869931","","0.8","0.2","0.6","0.4","","","","","0.2336104206","0.1713669852","0.1633080779","0.4409869931","","","","","","","","76","L","3","","","178","main_expt"
"","bandit","258","790382","0.0-219.0-0.0","06502927","wem/bandit_either_2","A3FOKP72T5I4FR","either","7","344","","","","","","","0","1","0","","0.4243126063","0.8","0.2","0.6","0.4","0.1887504226","0.2263400462","0.1243251356","0.4243126063","","","","","","","","","","","","76","L","3","","","179","main_expt"
"","bandit","259","792248","0.0-220.0-0.0","06502927","wem/bandit_either_2","A3FOKP72T5I4FR","either","7","328","","","","","","","0","0","1","","0.4312830743","0.8","0.2","0.6","0.4","0.138376641","0.2036870175","0.1150149055","0.4312830743","","","","","","","","","","","","76","L","3","","","180","main_expt"
"","bandit","260","794171","0.0-221.0-0.0","06502927","wem/bandit_either_2","A3FOKP72T5I4FR","either","7","383","","","","","","","1","0","0","0.4433127893","","0.8","0.2","0.6","0.4","","","","","0.1883992559","0.1934599198","0.1407924877","0.4433127893","","","","","","","","76","L","3","","","181","main_expt"
"","bandit","261","796126","0.0-222.0-0.0","06502927","wem/bandit_either_2","A3FOKP72T5I4FR","either","7","416","","","","","","","0","0","1","","0.440136403","0.8","0.2","0.6","0.4","0.128889003","0.2424515525","0.09672650852","0.440136403","","","","","","","","","","","","76","L","3","","","182","main_expt"
"","bandit","262","798611","0.0-223.0-0.0","06502927","wem/bandit_either_2","A3FOKP72T5I4FR","either","7","947","","","","","","","0","0","1","0.4347693449","","0.8","0.2","0.6","0.4","","","","","0.1748769843","0.1961777535","0.09888002855","0.4347693449","","","","","","","","76","L","3","","","183","main_expt"
"","bandit","263","800710","0.0-224.0-0.0","06502927","wem/bandit_either_2","A3FOKP72T5I4FR","either","7","560","","","","","","","0","0","1","0.4277130926","","0.8","0.2","0.6","0.4","","","","","0.1945994373","0.1489283113","0.07200145298","0.4277130926","","","","","","","","76","L","3","","","184","main_expt"
"","bandit","264","802573","0.0-225.0-0.0","06502927","wem/bandit_either_2","A3FOKP72T5I4FR","either","7","323","","","","","","","0","0","1","0.3956248437","","0.8","0.2","0.6","0.4","","","","","0.1644748654","0.1499965078","0.09476413333","0.3956248437","","","","","","","","76","L","3","","","185","main_expt"
"","bandit","265","804485","0.0-226.0-0.0","06502927","wem/bandit_either_2","A3FOKP72T5I4FR","either","7","374","","","","","","","0","1","0","","0.3748928266","0.8","0.2","0.6","0.4","0.1504635592","0.2169832988","0.06556422103","0.3748928266","","","","","","","","","","","","76","L","3","","","186","main_expt"
"","bandit","266","806372","0.0-227.0-0.0","06502927","wem/bandit_either_2","A3FOKP72T5I4FR","either","7","346","","","","","","","1","0","0","0.3848139325","","0.8","0.2","0.6","0.4","","","","","0.1760039214","0.2655186329","0.08901149072","0.3848139325","","","","","","","","76","L","3","","","187","main_expt"
"","bandit","267","808209","0.0-228.0-0.0","06502927","wem/bandit_either_2","A3FOKP72T5I4FR","either","7","297","","","","","","","0","1","0","","0.3990176401","0.8","0.2","0.6","0.4","0.1203267588","0.2738785118","0.09471428588","0.3990176401","","","","","","","","","","","","76","L","3","","","188","main_expt"
"","bandit","268","810232","0.0-229.0-0.0","06502927","wem/bandit_either_2","A3FOKP72T5I4FR","either","7","483","","","","","","","0","0","1","","0.3581396838","0.8","0.2","0.6","0.4","0.1171540391","0.3041874674","0.05118235823","0.3581396838","","","","","","","","","","","","76","L","3","","","189","main_expt"
"","bandit","269","812135","0.0-230.0-0.0","06502927","wem/bandit_either_2","A3FOKP72T5I4FR","either","7","366","","","","","","","0","1","0","","0.2882972244","0.8","0.2","0.6","0.4","0.1535230761","0.3229453735","0.05788318751","0.2882972244","","","","","","","","","","","","76","L","3","","","190","main_expt"
"","bandit","270","813981","0.0-231.0-0.0","06502927","wem/bandit_either_2","A3FOKP72T5I4FR","either","7","306","","","","","","","0","0","1","0.3145326233","","0.8","0.2","0.6","0.4","","","","","0.1372750947","0.3818249757","0.08736915481","0.3145326233","","","","","","","","76","L","3","","","191","main_expt"
"","bandit","271","816430","0.0-232.0-0.0","06502927","wem/bandit_either_2","A3FOKP72T5I4FR","either","7","907","","","","","","","1","0","0","0.3270603702","","0.8","0.2","0.6","0.4","","","","","0.1047771501","0.4157726243","0.08251019118","0.3270603702","","","","","","","","76","L","3","","","192","main_expt"
"","bandit","272","818369","0.0-233.0-0.0","06502927","wem/bandit_either_2","A3FOKP72T5I4FR","either","7","400","","","","","","","0","0","1","","0.3604030797","0.8","0.2","0.6","0.4","0.1100845432","0.4611608212","0.06897628064","0.3604030797","","","","","","","","","","","","76","L","3","","","193","main_expt"
"","bandit","273","820588","0.0-234.0-0.0","06502927","wem/bandit_either_2","A3FOKP72T5I4FR","either","7","680","","","","","","","1","0","0","0.357423186","","0.8","0.2","0.6","0.4","","","","","0.1468163818","0.4508818777","0.06801266305","0.357423186","","","","","","","","76","L","3","","","194","main_expt"
"","bandit","274","822427","0.0-235.0-0.0","06502927","wem/bandit_either_2","A3FOKP72T5I4FR","either","7","299","","","","","","","0","0","1","0.3697779856","","0.8","0.2","0.6","0.4","","","","","0.1495594621","0.4278921451","0.09923709358","0.3697779856","","","","","","","","76","L","3","","","195","main_expt"
"","bandit","275","824467","0.0-236.0-0.0","06502927","wem/bandit_either_2","A3FOKP72T5I4FR","either","7","501","","","","","","","0","0","1","","0.3617177512","0.8","0.2","0.6","0.4","0.2263220537","0.4256293003","0.1103063831","0.3617177512","","","","","","","","","","","","76","L","3","","","196","main_expt"
"","bandit","276","826477","0.0-237.0-0.0","06502927","wem/bandit_either_2","A3FOKP72T5I4FR","either","7","468","","","","","","","0","0","1","0.3775990084","","0.8","0.2","0.6","0.4","","","","","0.2204718804","0.4476975038","0.07377144043","0.3775990084","","","","","","","","76","L","3","","","197","main_expt"
"","bandit","277","828684","0.0-238.0-0.0","06502927","wem/bandit_either_2","A3FOKP72T5I4FR","either","7","667","","","","","","","1","0","0","0.4144042571","","0.8","0.2","0.6","0.4","","","","","0.2401118457","0.4434357272","0.08863448313","0.4144042571","","","","","","","","76","L","3","","","198","main_expt"
"","bandit","278","830699","0.0-239.0-0.0","06502927","wem/bandit_either_2","A3FOKP72T5I4FR","either","7","475","","","","","","","1","0","0","0.4081775392","","0.8","0.2","0.6","0.4","","","","","0.2673724497","0.4245114622","0.1082179128","0.4081775392","","","","","","","","76","L","3","","","199","main_expt"
"","bandit","279","832939","0.0-240.0-0.0","06502927","wem/bandit_either_2","A3FOKP72T5I4FR","either","7","695","","","","","","","1","0","0","0.4166156547","","0.8","0.2","0.6","0.4","","","","","0.3125307902","0.4087100315","0.09350688576","0.4166156547","","","","","","","","76","L","3","","","200","main_expt"
"","bandit","280","835186","0.0-241.0-0.0","06502927","wem/bandit_either_2","A3FOKP72T5I4FR","either","7","709","","","","","","","0","1","0","","0.4306537176","0.8","0.2","0.6","0.4","0.2914574258","0.4361521275","0.1036625099","0.4306537176","","","","","","","","","","","","76","L","3","","","201","main_expt"
"","bandit","281","837331","0.0-242.0-0.0","06502927","wem/bandit_either_2","A3FOKP72T5I4FR","either","7","607","","","","","","","0","0","1","0.449382563","","0.8","0.2","0.6","0.4","","","","","0.2550600684","0.3332596158","0.1216733889","0.449382563","","","","","","","","76","L","3","","","202","main_expt"
"","bandit","282","839318","0.0-243.0-0.0","06502927","wem/bandit_either_2","A3FOKP72T5I4FR","either","7","448","","","","","","","0","0","1","0.4506576586","","0.8","0.2","0.6","0.4","","","","","0.2769745997","0.3581848779","0.120655788","0.4506576586","","","","","","","","76","L","3","","","203","main_expt"
"","bandit","283","841160","0.0-244.0-0.0","06502927","wem/bandit_either_2","A3FOKP72T5I4FR","either","7","301","","","","","","","0","1","0","","0.454839243","0.8","0.2","0.6","0.4","0.2752990059","0.3597133043","0.1082970726","0.454839243","","","","","","","","","","","","76","L","3","","","204","main_expt"
"","bandit","284","843035","0.0-245.0-0.0","06502927","wem/bandit_either_2","A3FOKP72T5I4FR","either","7","337","","","","","","","1","0","0","0.4512889682","","0.8","0.2","0.6","0.4","","","","","0.2901512169","0.3630183988","0.09143681274","0.4512889682","","","","","","","","76","L","3","","","205","main_expt"
"","bandit","285","845309","0.0-246.0-0.0","06502927","wem/bandit_either_2","A3FOKP72T5I4FR","either","7","730","","","","","","","0","0","1","0.4591490044","","0.8","0.2","0.6","0.4","","","","","0.2823763913","0.3737494834","0.08377413986","0.4591490044","","","","","","","","76","L","3","","","206","main_expt"
"","bandit","286","847386","0.0-247.0-0.0","06502927","wem/bandit_either_2","A3FOKP72T5I4FR","either","7","538","","","","","","","0","0","1","","0.4650593633","0.8","0.2","0.6","0.4","0.2708062506","0.3668784438","0.1585073664","0.4650593633","","","","","","","","","","","","76","L","3","","","207","main_expt"
"","bandit","287","849169","0.0-248.0-0.0","06502927","wem/bandit_either_2","A3FOKP72T5I4FR","either","7","241","","","","","","","0","1","0","","0.4641513068","0.8","0.2","0.6","0.4","0.2641553663","0.4045351895","0.162299901","0.4641513068","","","","","","","","","","","","76","L","3","","","208","main_expt"
"","bandit","288","851000","0.0-249.0-0.0","06502927","wem/bandit_either_2","A3FOKP72T5I4FR","either","7","295","","","","","","","0","0","1","","0.4567807332","0.8","0.2","0.6","0.4","0.2704675845","0.4402386934","0.1542266077","0.4567807332","","","","","","","","","","","","76","L","3","","","209","main_expt"
"","bandit","289","852998","0.0-250.0-0.0","06502927","wem/bandit_either_2","A3FOKP72T5I4FR","either","7","458","","","","","","","1","0","0","0.428253188","","0.8","0.2","0.6","0.4","","","","","0.3420868926","0.4483623408","0.1890415559","0.428253188","","","","","","","","76","L","3","","","210","main_expt"
"","bandit","290","855974","0.0-251.0-0.0","06502927","wem/bandit_either_2","A3FOKP72T5I4FR","either","7","1437","","","","","","","0","0","1","0.410271385","","0.8","0.2","0.6","0.4","","","","","0.3069688952","0.4471415093","0.1818133019","0.410271385","","","","","","","","76","L","3","","","211","main_expt"
"","bandit","291","858258","0.0-252.0-0.0","06502927","wem/bandit_either_2","A3FOKP72T5I4FR","either","7","743","","","","","","","0","0","1","","0.4065587724","0.8","0.2","0.6","0.4","0.3005379093","0.4374655127","0.1782747956","0.4065587724","","","","","","","","","","","","76","L","3","","","212","main_expt"
"","bandit","292","860072","0.0-253.0-0.0","06502927","wem/bandit_either_2","A3FOKP72T5I4FR","either","7","277","","","","","","","0","0","1","","0.4007116542","0.8","0.2","0.6","0.4","0.213882915","0.4381457257","0.1935195711","0.4007116542","","","","","","","","","","","","76","L","3","","","213","main_expt"
"","bandit","293","861676","0.0-254.0-0.0","06502927","wem/bandit_either_2","A3FOKP72T5I4FR","either","7","61","","","","","","","0","0","1","","0.2421176173","0.8","0.2","0.6","0.4","0.2138557204","0.4643769008","0.2421176173","0.4246209323","","","","","","","","","","","","75","K","2","","","214","main_expt"
"","bandit","294","863480","0.0-255.0-0.0","06502927","wem/bandit_either_2","A3FOKP72T5I4FR","either","7","271","","","","","","","0","1","0","","0.2629876012","0.8","0.2","0.6","0.4","0.2142566612","0.4328812357","0.2629876012","0.3993057066","","","","","","","","","","","","75","K","2","","","215","main_expt"
"","bandit","295","865322","0.0-256.0-0.0","06502927","wem/bandit_either_2","A3FOKP72T5I4FR","either","7","300","","","","","","","0","1","0","","0.2977714141","0.8","0.2","0.6","0.4","0.1900351118","0.4064507999","0.2977714141","0.3987772474","","","","","","","","","","","","75","K","2","","","216","main_expt"
"","bandit","296","867188","0.0-257.0-0.0","06502927","wem/bandit_either_2","A3FOKP72T5I4FR","either","7","322","","","","","","","1","0","0","0.3017601552","","0.8","0.2","0.6","0.4","","","","","0.2185169477","0.4197961641","0.3017601552","0.4101433534","","","","","","","","75","K","2","","","217","main_expt"
"","bandit","297","868975","0.0-258.0-0.0","06502927","wem/bandit_either_2","A3FOKP72T5I4FR","either","7","247","","","","","","","0","1","0","","0.2888566207","0.8","0.2","0.6","0.4","0.2240895604","0.4167397569","0.2888566207","0.4448029092","","","","","","","","","","","","75","K","2","","","218","main_expt"
"","bandit","298","870762","0.0-259.0-0.0","06502927","wem/bandit_either_2","A3FOKP72T5I4FR","either","7","237","","","","","","","0","0","1","0.2844008008","","0.8","0.2","0.6","0.4","","","","","0.1990808675","0.4250944588","0.2844008008","0.4454766299","","","","","","","","75","K","2","","","219","main_expt"
"","bandit","299","872588","0.0-260.0-0.0","06502927","wem/bandit_either_2","A3FOKP72T5I4FR","either","7","288","","","","","","","0","0","1","","0.2225062479","0.8","0.2","0.6","0.4","0.266602996","0.4173336587","0.2225062479","0.4610997771","","","","","","","","","","","","75","K","2","","","220","main_expt"
"","bandit","300","874629","0.0-261.0-0.0","06502927","wem/bandit_either_2","A3FOKP72T5I4FR","either","7","499","","","","","","","0","0","1","","0.2409900116","0.8","0.2","0.6","0.4","0.2443661227","0.3944711005","0.2409900116","0.4642289789","","","","","","","","","","","","75","K","2","","","221","main_expt"
"","bandit","301","876466","0.0-262.0-0.0","06502927","wem/bandit_either_2","A3FOKP72T5I4FR","either","7","295","","","","","","","1","0","0","0.1989678636","","0.8","0.2","0.6","0.4","","","","","0.2205922116","0.3619306912","0.1989678636","0.4641270597","","","","","","","","75","K","2","","","222","main_expt"
"","bandit","302","878474","0.0-263.0-0.0","06502927","wem/bandit_either_2","A3FOKP72T5I4FR","either","7","471","","","","","","","0","0","1","0.1902867071","","0.8","0.2","0.6","0.4","","","","","0.1861223506","0.4117842179","0.1902867071","0.4697433819","","","","","","","","75","K","2","","","223","main_expt"
"","bandit","303","880330","0.0-264.0-0.0","06502927","wem/bandit_either_2","A3FOKP72T5I4FR","either","7","316","","","","","","","0","0","1","0.2076415522","","0.8","0.2","0.6","0.4","","","","","0.1668884863","0.3965092367","0.2076415522","0.460898083","","","","","","","","75","K","2","","","224","main_expt"
"","bandit","304","882213","0.0-265.0-0.0","06502927","wem/bandit_either_2","A3FOKP72T5I4FR","either","7","343","","","","","","","0","0","1","","0.2393469174","0.8","0.2","0.6","0.4","0.1481472712","0.4084477862","0.2393469174","0.4394890665","","","","","","","","","","","","75","K","2","","","225","main_expt"
"","bandit","305","884098","0.0-266.0-0.0","06502927","wem/bandit_either_2","A3FOKP72T5I4FR","either","7","341","","","","","","","0","0","1","0.2425440376","","0.8","0.2","0.6","0.4","","","","","0.1140846591","0.4104601526","0.2425440376","0.4520955237","","","","","","","","75","K","2","","","226","main_expt"
"","bandit","306","885886","0.0-267.0-0.0","06502927","wem/bandit_either_2","A3FOKP72T5I4FR","either","7","247","","","","","","","0","0","1","0.2365603363","","0.8","0.2","0.6","0.4","","","","","0.1074218354","0.3899733519","0.2365603363","0.4324220164","","","","","","","","75","K","2","","","227","main_expt"
"","bandit","307","887878","0.0-268.0-0.0","06502927","wem/bandit_either_2","A3FOKP72T5I4FR","either","7","453","","","","","","","0","1","0","","0.3796730737","0.8","0.2","0.6","0.4","0.08065165665","0.3796730737","0.2127958296","0.4220482421","","","","","","","","","","","","74","J","1","","","228","main_expt"
"","bandit","308","889812","0.0-269.0-0.0","06502927","wem/bandit_either_2","A3FOKP72T5I4FR","either","7","393","","","","","","","0","0","1","","0.4046866514","0.8","0.2","0.6","0.4","0.07774059362","0.4046866514","0.2207861463","0.3885749154","","","","","","","","","","","","74","J","1","","","229","main_expt"
"","bandit","309","891790","0.0-270.0-0.0","06502927","wem/bandit_either_2","A3FOKP72T5I4FR","either","7","437","","","","","","","1","0","0","0.3988793555","","0.8","0.2","0.6","0.4","","","","","0.1109483114","0.3988793555","0.2589226453","0.4023755806","","","","","","","","74","J","1","","","230","main_expt"
"","bandit","310","893683","0.0-271.0-0.0","06502927","wem/bandit_either_2","A3FOKP72T5I4FR","either","7","353","","","","","","","0","1","0","","0.3981898202","0.8","0.2","0.6","0.4","0.05902300203","0.3981898202","0.2956158432","0.3768725222","","","","","","","","","","","","74","J","1","","","231","main_expt"
"","bandit","311","895672","0.0-272.0-0.0","06502927","wem/bandit_either_2","A3FOKP72T5I4FR","either","7","450","","","","","","","0","0","1","","0.4411941832","0.8","0.2","0.6","0.4","0.06675855664","0.4411941832","0.3202484073","0.3619917427","","","","","","","","","","","","74","J","1","","","232","main_expt"
"","bandit","312","898086","0.0-273.0-0.0","06502927","wem/bandit_either_2","A3FOKP72T5I4FR","either","7","877","","","","","","","0","0","1","","0.42967461","0.8","0.2","0.6","0.4","0.06703699679","0.42967461","0.2933644042","0.3833578816","","","","","","","","","","","","74","J","1","","","233","main_expt"
"","bandit","313","900118","0.0-274.0-0.0","06502927","wem/bandit_either_2","A3FOKP72T5I4FR","either","7","491","","","","","","","0","0","1","0.4242798354","","0.8","0.2","0.6","0.4","","","","","0.05331023031","0.4242798354","0.3106154811","0.3552131768","","","","","","","","74","J","1","","","234","main_expt"
"","bandit","314","902487","0.0-275.0-0.0","06502927","wem/bandit_either_2","A3FOKP72T5I4FR","either","7","825","","","","","","","1","0","0","0.4617388459","","0.8","0.2","0.6","0.4","","","","","0.05187545802","0.4617388459","0.3158990995","0.3135084543","","","","","","","","74","J","1","","","235","main_expt"
"","bandit","315","904511","0.0-276.0-0.0","06502927","wem/bandit_either_2","A3FOKP72T5I4FR","either","7","482","","","","","","","1","0","0","0.4619510484","","0.8","0.2","0.6","0.4","","","","","0.06939909985","0.4619510484","0.3036927748","0.244945467","","","","","","","","74","J","1","","","236","main_expt"
"","bandit","316","906782","0.0-277.0-0.0","06502927","wem/bandit_either_2","A3FOKP72T5I4FR","either","7","730","","","","","","","1","0","0","0.4482398789","","0.8","0.2","0.6","0.4","","","","","0.1210409879","0.4482398789","0.3491021326","0.1823839079","","","","","","","","74","J","1","","","237","main_expt"
"","bandit","317","908684","0.0-278.0-0.0","06502927","wem/bandit_either_2","A3FOKP72T5I4FR","either","7","356","","","","","","","0","0","1","","0.4193969143","0.8","0.2","0.6","0.4","0.1147840357","0.4193969143","0.3939254097","0.1685050226","","","","","","","","","","","","74","J","1","","","238","main_expt"
"","bandit","318","910928","0.0-279.0-0.0","06502927","wem/bandit_either_2","A3FOKP72T5I4FR","either","7","702","","","","","","","0","0","1","","0.4203848948","0.8","0.2","0.6","0.4","0.1006463842","0.4203848948","0.379108978","0.1606472637","","","","","","","","","","","","74","J","1","","","239","main_expt"
"","bandit","319","913131","0.0-280.0-0.0","06502927","wem/bandit_either_2","A3FOKP72T5I4FR","either","7","662","","","","","","","0","0","1","","0.4489383263","0.8","0.2","0.6","0.4","0.1008771133","0.4489383263","0.3876209848","0.1512795466","","","","","","","","","","","","74","J","1","","","240","main_expt"
"","bandit","320","915036","0.0-281.0-0.0","06502927","wem/bandit_either_2","A3FOKP72T5I4FR","either","7","357","","","","","","","0","0","1","","0.4636195567","0.8","0.2","0.6","0.4","0.09981833296","0.4636195567","0.3839625774","0.1916219391","","","","","","","","","","","","74","J","1","","","241","main_expt"
"","bandit","321","917159","0.0-282.0-0.0","06502927","wem/bandit_either_2","A3FOKP72T5I4FR","either","7","580","","","","","","","0","1","0","","0.4575307695","0.8","0.2","0.6","0.4","0.1171772993","0.4575307695","0.3477958629","0.1641013935","","","","","","","","","","","","74","J","1","","","242","main_expt"
"","bandit","322","919070","0.0-283.0-0.0","06502927","wem/bandit_either_2","A3FOKP72T5I4FR","either","7","365","","","","","","","0","1","0","","0.4449554393","0.8","0.2","0.6","0.4","0.1239984651","0.4449554393","0.3500658948","0.2064320789","","","","","","","","","","","","74","J","1","","","243","main_expt"
"","bandit","323","921006","0.0-284.0-0.0","06502927","wem/bandit_either_2","A3FOKP72T5I4FR","either","7","397","","","","","","","0","0","1","","0.4525763452","0.8","0.2","0.6","0.4","0.1126152289","0.4525763452","0.3452717574","0.2205496082","","","","","","","","","","","","74","J","1","","","244","main_expt"
"","bandit","324","923434","0.0-285.0-0.0","06502927","wem/bandit_either_2","A3FOKP72T5I4FR","either","7","884","","","","","","","0","1","0","","0.4753838692","0.8","0.2","0.6","0.4","0.1524829061","0.4753838692","0.3162288444","0.214276823","","","","","","","","","","","","74","J","1","","","245","main_expt"
"","bandit","325","925402","0.0-286.0-0.0","06502927","wem/bandit_either_2","A3FOKP72T5I4FR","either","7","424","","","","","","","1","0","0","0.4623654582","","0.8","0.2","0.6","0.4","","","","","0.1921750243","0.4623654582","0.2894596967","0.2084567316","","","","","","","","74","J","1","","","246","main_expt"
"","bandit","326","927269","0.0-287.0-0.0","06502927","wem/bandit_either_2","A3FOKP72T5I4FR","either","7","327","","","","","","","1","0","0","0.4331165165","","0.8","0.2","0.6","0.4","","","","","0.1931065189","0.4331165165","0.2642296388","0.2232303491","","","","","","","","74","J","1","","","247","main_expt"
"","bandit","327","929140","0.0-288.0-0.0","06502927","wem/bandit_either_2","A3FOKP72T5I4FR","either","7","329","","","","","","","0","1","0","","0.4401602984","0.8","0.2","0.6","0.4","0.2189994516","0.4401602984","0.2534255255","0.2541796534","","","","","","","","","","","","74","J","1","","","248","main_expt"
"","bandit","328","930949","0.0-289.0-0.0","06502927","wem/bandit_either_2","A3FOKP72T5I4FR","either","7","267","","","","","","","0","0","1","","0.430892824","0.8","0.2","0.6","0.4","0.1989243371","0.430892824","0.2252980971","0.232462199","","","","","","","","","","","","74","J","1","","","249","main_expt"
