"consent","trial_type","trial_index","time_elapsed","internal_node_id","subjID","study","MID","cond","drift","rt","responses","key_press","expt_phase","like","value","connected","gems","bombs","no_reward","GemPrChosen","BombPrChosen","GainOverPainPr_0","GainOverPainPr_1","GainOverPainPr_2","GainOverPainPr_3","LosePr_0","LosePr_1","LosePr_2","LosePr_3","WinPr_0","WinPr_1","WinPr_2","WinPr_3","Q0","Q1","Q2","gender","age","ethnicity","target","respCharCode","respKey","respChoiceNum","respChoice","practice","trial_counter","trial_label"
"INL_behavioral_consent_30min_online.html","consent","0","24263","0.0-0.0","07368596","wem/bandit_either_2","A25YG9M911WA3T","either","3","","","","","","","","","","","","","","","","","","","","","","","","","","","","","","","","","","","","","",""
"","survey-text","1","28361","0.0-1.0","07368596","wem/bandit_either_2","A25YG9M911WA3T","either","3","3092","{""Q0"":""A25YG9M911WA3T""}","","","","","","","","","","","","","","","","","","","","","","","","","","","","","","","","","","","",""
"","text","2","37058","0.0-2.0","07368596","wem/bandit_either_2","A25YG9M911WA3T","either","3","7693","","32","","","","","","","","","","","","","","","","","","","","","","","","","","","","","","","","","","",""
"","text","3","50580","0.0-3.0","07368596","wem/bandit_either_2","A25YG9M911WA3T","either","3","13521","","32","","","","","","","","","","","","","","","","","","","","","","","","","","","","","","","","","","",""
"","text","4","75694","0.0-4.0","07368596","wem/bandit_either_2","A25YG9M911WA3T","either","3","25111","","32","","","","","","","","","","","","","","","","","","","","","","","","","","","","","","","","","","",""
"","text","5","89057","0.0-5.0","07368596","wem/bandit_either_2","A25YG9M911WA3T","either","3","13362","","32","","","","","","","","","","","","","","","","","","","","","","","","","","","","","","","","","","",""
"","text","6","111898","0.0-6.0","07368596","wem/bandit_either_2","A25YG9M911WA3T","either","3","22839","","32","","","","","","","","","","","","","","","","","","","","","","","","","","","","","","","","","","",""
"","text","7","120585","0.0-7.0","07368596","wem/bandit_either_2","A25YG9M911WA3T","either","3","8686","","32","","","","","","","","","","","","","","","","","","","","","","","","","","","","","","","","","","",""
"","text","8","127873","0.0-8.0","07368596","wem/bandit_either_2","A25YG9M911WA3T","either","3","7286","","32","","","","","","","","","","","","","","","","","","","","","","","","","","","","","","","","","","",""
"","identification","9","137148","0.0-9.0-0.0","07368596","wem/bandit_either_2","A25YG9M911WA3T","either","3","9265","","","","6","6","6","","","","","","","","","","","","","","","","","","","","","","","","the village of Zur","","","","","","",""
"","identification","10","142787","0.0-9.0-1.0","07368596","wem/bandit_either_2","A25YG9M911WA3T","either","3","4626","","","","0","0","0","","","","","","","","","","","","","","","","","","","","","","","","the village of Nyx","","","","","","",""
"","text","11","148664","0.0-10.0","07368596","wem/bandit_either_2","A25YG9M911WA3T","either","3","4873","","32","","","","","","","","","","","","","","","","","","","","","","","","","","","","","","","","","","",""
"","text","12","151945","0.0-11.0","07368596","wem/bandit_either_2","A25YG9M911WA3T","either","3","3280","","32","","","","","","","","","","","","","","","","","","","","","","","","","","","","","","","","","","",""
"","text","13","155087","0.0-12.0","07368596","wem/bandit_either_2","A25YG9M911WA3T","either","3","3142","","32","","","","","","","","","","","","","","","","","","","","","","","","","","","","","","","","","","",""
"","text","14","160256","0.0-13.0","07368596","wem/bandit_either_2","A25YG9M911WA3T","either","3","5167","","32","","","","","","","","","","","","","","","","","","","","","","","","","","","","","","","","","","",""
"","bandit","15","166620","0.0-14.0-0.0","07368596","wem/bandit_either_2","A25YG9M911WA3T","either","3","4854","","","","","","","0","0","1","0","0","","","","","0","","","","0","","","","","","","","","","","74","J","0","img/none_selected_demo.jpg","true","0",""
"","bandit","16","169798","0.0-15.0-0.0","07368596","wem/bandit_either_2","A25YG9M911WA3T","either","3","1670","","","","","","","0","0","1","0","0","","","","","0","","","","0","","","","","","","","","","","75","K","0","img/none_selected_demo.jpg","true","0",""
"","text","17","179920","0.0-16.0","07368596","wem/bandit_either_2","A25YG9M911WA3T","either","3","10120","","32","","","","","","","","","","","","","","","","","","","","","","","","","","","","","","","","","","",""
"","text","18","191242","0.0-17.0","07368596","wem/bandit_either_2","A25YG9M911WA3T","either","3","11319","","32","","","","","","","","","","","","","","","","","","","","","","","","","","","","","","","","","","",""
"","text","19","197497","0.0-18.0","07368596","wem/bandit_either_2","A25YG9M911WA3T","either","3","6253","","32","","","","","","","","","","","","","","","","","","","","","","","","","","","","","","","","","","",""
"","text","20","201369","0.0-19.0","07368596","wem/bandit_either_2","A25YG9M911WA3T","either","3","3869","","32","","","","","","","","","","","","","","","","","","","","","","","","","","","","","","","","","","",""
"","bandit","21","204375","0.0-20.0-0.0","07368596","wem/bandit_either_2","A25YG9M911WA3T","either","3","1500","","","","","","","0","0","1","","0.8","0.5","0.5","","","0.8","0.2","","","","","","","","","","","","","","74","J","0","img/none_selected_demo.jpg","true","0","80_20_practice"
"","bandit","22","206672","0.0-20.0-1.0","07368596","wem/bandit_either_2","A25YG9M911WA3T","either","3","788","","","","","","","0","0","1","","0.2","0.5","0.5","","","0.8","0.2","","","","","","","","","","","","","","75","K","1","","true","0","80_20_practice"
"","bandit","23","208336","0.0-20.0-2.0","07368596","wem/bandit_either_2","A25YG9M911WA3T","either","3","156","","","","","","","0","1","0","","0.8","0.5","0.5","","","0.8","0.2","","","","","","","","","","","","","","74","J","0","img/none_selected_demo.jpg","true","0","80_20_practice"
"","bandit","24","210410","0.0-20.0-3.0","07368596","wem/bandit_either_2","A25YG9M911WA3T","either","3","563","","","","","","","1","0","0","0.8","","0.5","0.5","","","","","","","0.8","0.2","","","","","","","","","","74","J","0","img/none_selected_demo.jpg","true","0","80_20_practice"
"","bandit","25","212312","0.0-20.0-4.0","07368596","wem/bandit_either_2","A25YG9M911WA3T","either","3","392","","","","","","","0","1","0","","0.8","0.5","0.5","","","0.8","0.2","","","","","","","","","","","","","","74","J","0","img/none_selected_demo.jpg","true","0","80_20_practice"
"","bandit","26","214202","0.0-20.0-5.0","07368596","wem/bandit_either_2","A25YG9M911WA3T","either","3","383","","","","","","","0","1","0","","0.8","0.5","0.5","","","0.8","0.2","","","","","","","","","","","","","","74","J","0","img/none_selected_demo.jpg","true","0","80_20_practice"
"","bandit","27","216072","0.0-20.0-6.0","07368596","wem/bandit_either_2","A25YG9M911WA3T","either","3","363","","","","","","","1","0","0","0.8","","0.5","0.5","","","","","","","0.8","0.2","","","","","","","","","","74","J","0","img/none_selected_demo.jpg","true","0","80_20_practice"
"","bandit","28","217888","0.0-20.0-7.0","07368596","wem/bandit_either_2","A25YG9M911WA3T","either","3","310","","","","","","","0","0","1","0.8","","0.5","0.5","","","","","","","0.8","0.2","","","","","","","","","","74","J","0","img/none_selected_demo.jpg","true","0","80_20_practice"
"","bandit","29","219745","0.0-20.0-8.0","07368596","wem/bandit_either_2","A25YG9M911WA3T","either","3","348","","","","","","","1","0","0","0.8","","0.5","0.5","","","","","","","0.8","0.2","","","","","","","","","","74","J","0","img/none_selected_demo.jpg","true","0","80_20_practice"
"","bandit","30","221560","0.0-20.0-9.0","07368596","wem/bandit_either_2","A25YG9M911WA3T","either","3","309","","","","","","","1","0","0","0.8","","0.5","0.5","","","","","","","0.8","0.2","","","","","","","","","","74","J","0","img/none_selected_demo.jpg","true","0","80_20_practice"
"","bandit","31","223121","0.0-20.0-10.0","07368596","wem/bandit_either_2","A25YG9M911WA3T","either","3","54","","","","","","","1","0","0","0.8","","0.5","0.5","","","","","","","0.8","0.2","","","","","","","","","","74","J","0","img/none_selected_demo.jpg","true","0","80_20_practice"
"","bandit","32","224833","0.0-20.0-11.0","07368596","wem/bandit_either_2","A25YG9M911WA3T","either","3","205","","","","","","","0","1","0","","0.8","0.5","0.5","","","0.8","0.2","","","","","","","","","","","","","","74","J","0","img/none_selected_demo.jpg","true","0","80_20_practice"
"","bandit","33","226385","0.0-20.0-12.0","07368596","wem/bandit_either_2","A25YG9M911WA3T","either","3","46","","","","","","","0","0","1","0.8","","0.5","0.5","","","","","","","0.8","0.2","","","","","","","","","","74","J","0","img/none_selected_demo.jpg","true","0","80_20_practice"
"","bandit","34","228448","0.0-20.0-13.0","07368596","wem/bandit_either_2","A25YG9M911WA3T","either","3","552","","","","","","","0","1","0","","0.8","0.5","0.5","","","0.8","0.2","","","","","","","","","","","","","","74","J","0","img/none_selected_demo.jpg","true","0","80_20_practice"
"","bandit","35","230105","0.0-20.0-14.0","07368596","wem/bandit_either_2","A25YG9M911WA3T","either","3","149","","","","","","","0","1","0","","0.8","0.5","0.5","","","0.8","0.2","","","","","","","","","","","","","","74","J","0","img/none_selected_demo.jpg","true","0","80_20_practice"
"","bandit","36","231656","0.0-20.0-15.0","07368596","wem/bandit_either_2","A25YG9M911WA3T","either","3","43","","","","","","","1","0","0","0.8","","0.5","0.5","","","","","","","0.8","0.2","","","","","","","","","","74","J","0","img/none_selected_demo.jpg","true","0","80_20_practice"
"","bandit","37","233864","0.0-20.0-16.0","07368596","wem/bandit_either_2","A25YG9M911WA3T","either","3","702","","","","","","","1","0","0","0.8","","0.5","0.5","","","","","","","0.8","0.2","","","","","","","","","","74","J","0","img/none_selected_demo.jpg","true","0","80_20_practice"
"","bandit","38","236929","0.0-20.0-17.0","07368596","wem/bandit_either_2","A25YG9M911WA3T","either","3","1555","","","","","","","1","0","0","0.8","","0.5","0.5","","","","","","","0.8","0.2","","","","","","","","","","74","J","0","img/none_selected_demo.jpg","true","0","80_20_practice"
"","bandit","39","239567","0.0-20.0-18.0","07368596","wem/bandit_either_2","A25YG9M911WA3T","either","3","1131","","","","","","","1","0","0","0.8","","0.5","0.5","","","","","","","0.8","0.2","","","","","","","","","","74","J","0","img/none_selected_demo.jpg","true","0","80_20_practice"
"","bandit","40","241875","0.0-20.0-19.0","07368596","wem/bandit_either_2","A25YG9M911WA3T","either","3","800","","","","","","","0","0","1","0.2","","0.5","0.5","","","","","","","0.8","0.2","","","","","","","","","","75","K","1","","true","0","80_20_practice"
"","text","41","245899","0.0-21.0","07368596","wem/bandit_either_2","A25YG9M911WA3T","either","3","4021","","32","","","","","","","","","","","","","","","","","","","","","","","","","","","","","","","","","","",""
"","bandit","42","248168","0.0-22.0-0.0","07368596","wem/bandit_either_2","A25YG9M911WA3T","either","3","759","","","","","","","1","0","0","1","0","","","","","0","1","","","1","0","","","","","","","","","","74","J","0","img/none_selected_demo.jpg","true","0",""
"","text","43","253993","0.0-23.0","07368596","wem/bandit_either_2","A25YG9M911WA3T","either","3","5823","","32","","","","","","","","","","","","","","","","","","","","","","","","","","","","","","","","","","",""
"","text","44","274904","0.0-24.0","07368596","wem/bandit_either_2","A25YG9M911WA3T","either","3","20909","","32","","","","","","","","","","","","","","","","","","","","","","","","","","","","","","","","","","",""
"","text","45","279791","0.0-25.0","07368596","wem/bandit_either_2","A25YG9M911WA3T","either","3","4886","","32","","","","","","","","","","","","","","","","","","","","","","","","","","","","","","","","","","",""
"","text","46","284839","0.0-26.0","07368596","wem/bandit_either_2","A25YG9M911WA3T","either","3","5046","","32","","","","","","","","","","","","","","","","","","","","","","","","","","","","","","","","","","",""
"","text","47","296330","0.0-27.0","07368596","wem/bandit_either_2","A25YG9M911WA3T","either","3","11489","","32","","","","","","","","","","","","","","","","","","","","","","","","","","","","","","","","","","",""
"","text","48","335535","0.0-28.0","07368596","wem/bandit_either_2","A25YG9M911WA3T","either","3","39202","","32","","","","","","","","","","","","","","","","","","","","","","","","","","","","","","","","","","",""
"","text","49","340623","0.0-29.0","07368596","wem/bandit_either_2","A25YG9M911WA3T","either","3","5086","","32","","","","","","","","","","","","","","","","","","","","","","","","","","","","","","","","","","",""
"","text","50","344679","0.0-30.0","07368596","wem/bandit_either_2","A25YG9M911WA3T","either","3","4054","","32","","","","","","","","","","","","","","","","","","","","","","","","","","","","","","","","","","",""
"","text","51","350456","0.0-31.0","07368596","wem/bandit_either_2","A25YG9M911WA3T","either","3","5775","","32","","","","","","","","","","","","","","","","","","","","","","","","","","","","","","","","","","",""
"","text","52","352807","0.0-32.0","07368596","wem/bandit_either_2","A25YG9M911WA3T","either","3","2349","","32","","","","","","","","","","","","","","","","","","","","","","","","","","","","","","","","","","",""
"","text","53","367152","0.0-33.0","07368596","wem/bandit_either_2","A25YG9M911WA3T","either","3","14343","","32","","","","","","","","","","","","","","","","","","","","","","","","","","","","","","","","","","",""
"","bandit","54","370401","0.0-34.0-0.0","07368596","wem/bandit_either_2","A25YG9M911WA3T","either","3","1737","","","","","","","1","0","0","0.8","","0.5","0.5","0.5","0.5","","","","","0.8","0.2","0.6","0.2","","","","","","","","72","H","0","img/none_selected.jpg","true","0","full_practice"
"","bandit","55","372270","0.0-34.0-1.0","07368596","wem/bandit_either_2","A25YG9M911WA3T","either","3","363","","","","","","","0","0","1","0.8","","0.5","0.5","0.5","0.5","","","","","0.8","0.2","0.6","0.2","","","","","","","","72","H","0","img/none_selected.jpg","true","0","full_practice"
"","bandit","56","374311","0.0-34.0-2.0","07368596","wem/bandit_either_2","A25YG9M911WA3T","either","3","532","","","","","","","0","0","1","0.8","","0.5","0.5","0.5","0.5","","","","","0.8","0.2","0.6","0.2","","","","","","","","72","H","0","img/none_selected.jpg","true","0","full_practice"
"","bandit","57","376041","0.0-34.0-3.0","07368596","wem/bandit_either_2","A25YG9M911WA3T","either","3","218","","","","","","","0","0","1","","0.8","0.5","0.5","0.5","0.5","0.8","0.2","0.6","0.2","","","","","","","","","","","","72","H","0","img/none_selected.jpg","true","0","full_practice"
"","bandit","58","378384","0.0-34.0-4.0","07368596","wem/bandit_either_2","A25YG9M911WA3T","either","3","832","","","","","","","0","0","1","","0.2","0.5","0.5","0.5","0.5","0.8","0.2","0.6","0.2","","","","","","","","","","","","74","J","1","","true","0","full_practice"
"","bandit","59","379992","0.0-34.0-5.0","07368596","wem/bandit_either_2","A25YG9M911WA3T","either","3","96","","","","","","","0","0","1","0.2","","0.5","0.5","0.5","0.5","","","","","0.8","0.2","0.6","0.2","","","","","","","","74","J","1","","true","0","full_practice"
"","bandit","60","381920","0.0-34.0-6.0","07368596","wem/bandit_either_2","A25YG9M911WA3T","either","3","414","","","","","","","0","0","1","","0.6","0.5","0.5","0.5","0.5","0.8","0.2","0.6","0.2","","","","","","","","","","","","75","K","2","","true","0","full_practice"
"","bandit","61","383840","0.0-34.0-7.0","07368596","wem/bandit_either_2","A25YG9M911WA3T","either","3","406","","","","","","","0","0","1","0.6","","0.5","0.5","0.5","0.5","","","","","0.8","0.2","0.6","0.2","","","","","","","","75","K","2","","true","0","full_practice"
"","bandit","62","386967","0.0-34.0-8.0","07368596","wem/bandit_either_2","A25YG9M911WA3T","either","3","1618","","","","","","","0","1","0","","0.2","0.5","0.5","0.5","0.5","0.8","0.2","0.6","0.2","","","","","","","","","","","","76","L","3","","true","0","full_practice"
"","bandit","63","388841","0.0-34.0-9.0","07368596","wem/bandit_either_2","A25YG9M911WA3T","either","3","367","","","","","","","0","0","1","0.2","","0.5","0.5","0.5","0.5","","","","","0.8","0.2","0.6","0.2","","","","","","","","76","L","3","","true","0","full_practice"
"","bandit","64","391642","0.0-34.0-10.0","07368596","wem/bandit_either_2","A25YG9M911WA3T","either","3","1287","","","","","","","0","0","1","0.2","","0.5","0.5","0.5","0.5","","","","","0.8","0.2","0.6","0.2","","","","","","","","76","L","3","","true","0","full_practice"
"","bandit","65","393376","0.0-34.0-11.0","07368596","wem/bandit_either_2","A25YG9M911WA3T","either","3","224","","","","","","","0","0","1","","0.6","0.5","0.5","0.5","0.5","0.8","0.2","0.6","0.2","","","","","","","","","","","","75","K","2","","true","0","full_practice"
"","bandit","66","395265","0.0-34.0-12.0","07368596","wem/bandit_either_2","A25YG9M911WA3T","either","3","377","","","","","","","1","0","0","0.2","","0.5","0.5","0.5","0.5","","","","","0.8","0.2","0.6","0.2","","","","","","","","76","L","3","","true","0","full_practice"
"","bandit","67","397247","0.0-34.0-13.0","07368596","wem/bandit_either_2","A25YG9M911WA3T","either","3","472","","","","","","","0","0","1","0.2","","0.5","0.5","0.5","0.5","","","","","0.8","0.2","0.6","0.2","","","","","","","","76","L","3","","true","0","full_practice"
"","bandit","68","399008","0.0-34.0-14.0","07368596","wem/bandit_either_2","A25YG9M911WA3T","either","3","254","","","","","","","1","0","0","0.2","","0.5","0.5","0.5","0.5","","","","","0.8","0.2","0.6","0.2","","","","","","","","76","L","3","","true","0","full_practice"
"","bandit","69","400727","0.0-34.0-15.0","07368596","wem/bandit_either_2","A25YG9M911WA3T","either","3","214","","","","","","","0","0","1","","0.2","0.5","0.5","0.5","0.5","0.8","0.2","0.6","0.2","","","","","","","","","","","","76","L","3","","true","0","full_practice"
"","bandit","70","402738","0.0-34.0-16.0","07368596","wem/bandit_either_2","A25YG9M911WA3T","either","3","502","","","","","","","0","1","0","","0.2","0.5","0.5","0.5","0.5","0.8","0.2","0.6","0.2","","","","","","","","","","","","76","L","3","","true","0","full_practice"
"","bandit","71","404625","0.0-34.0-17.0","07368596","wem/bandit_either_2","A25YG9M911WA3T","either","3","379","","","","","","","0","0","1","","0.2","0.5","0.5","0.5","0.5","0.8","0.2","0.6","0.2","","","","","","","","","","","","76","L","3","","true","0","full_practice"
"","bandit","72","406465","0.0-34.0-18.0","07368596","wem/bandit_either_2","A25YG9M911WA3T","either","3","327","","","","","","","0","0","1","0.2","","0.5","0.5","0.5","0.5","","","","","0.8","0.2","0.6","0.2","","","","","","","","76","L","3","","true","0","full_practice"
"","bandit","73","408145","0.0-34.0-19.0","07368596","wem/bandit_either_2","A25YG9M911WA3T","either","3","169","","","","","","","0","0","1","","0.2","0.5","0.5","0.5","0.5","0.8","0.2","0.6","0.2","","","","","","","","","","","","76","L","3","","true","0","full_practice"
"","text","74","411593","0.0-35.0","07368596","wem/bandit_either_2","A25YG9M911WA3T","either","3","3443","","32","","","","","","","","","","","","","","","","","","","","","","","","","","","","","","","","","","",""
"","text","75","425068","0.0-36.0","07368596","wem/bandit_either_2","A25YG9M911WA3T","either","3","12467","","32","","","","","","","","","","","","","","","","","","","","","","","","","","","","","","","","","","",""
"","text","76","435323","0.0-37.0","07368596","wem/bandit_either_2","A25YG9M911WA3T","either","3","10248","","32","","","","","","","","","","","","","","","","","","","","","","","","","","","","","","","","","","",""
"","text","77","441010","0.0-38.0","07368596","wem/bandit_either_2","A25YG9M911WA3T","either","3","5681","","32","","","","","","","","","","","","","","","","","","","","","","","","","","","","","","","","","","",""
"","text","78","448267","0.0-39.0","07368596","wem/bandit_either_2","A25YG9M911WA3T","either","3","7251","","32","","","","","","","","","","","","","","","","","","","","","","","","","","","","","","","","","","",""
"","text","79","453626","0.0-40.0","07368596","wem/bandit_either_2","A25YG9M911WA3T","either","3","5353","","32","","","","","","","","","","","","","","","","","","","","","","","","","","","","","","","","","","",""
"","bandit","80","459718","0.0-41.0-0.0","07368596","wem/bandit_either_2","A25YG9M911WA3T","either","3","4582","","","","","","","0","0","1","0.07685641067","","0.4","0.6","0.2","0.8","","","","","0.1426046982","0.07685641067","0.1646489015","0.4870892339","","","","","","","","74","J","1","","","1","main_expt"
"","bandit","81","461770","0.0-42.0-0.0","07368596","wem/bandit_either_2","A25YG9M911WA3T","either","3","544","","","","","","","0","0","1","0.08388143876","","0.4","0.6","0.2","0.8","","","","","0.1597004976","0.08388143876","0.2180431119","0.4875162112","","","","","","","","74","J","1","","","2","main_expt"
"","bandit","82","464704","0.0-43.0-0.0","07368596","wem/bandit_either_2","A25YG9M911WA3T","either","3","1422","","","","","","","0","0","1","","0.06528774038","0.4","0.6","0.2","0.8","0.1381850853","0.06528774038","0.2294217256","0.4909945117","","","","","","","","","","","","74","J","1","","","3","main_expt"
"","bandit","83","467264","0.0-44.0-0.0","07368596","wem/bandit_either_2","A25YG9M911WA3T","either","3","1054","","","","","","","0","0","1","0.1787932262","","0.4","0.6","0.2","0.8","","","","","0.1787932262","0.07987899881","0.2162119515","0.482579304","","","","","","","","72","H","0","img/none_selected.jpg","","4","main_expt"
"","bandit","84","469528","0.0-45.0-0.0","07368596","wem/bandit_either_2","A25YG9M911WA3T","either","3","758","","","","","","","0","0","1","0.1795032464","","0.4","0.6","0.2","0.8","","","","","0.1795032464","0.0432391811","0.2246316054","0.4887913002","","","","","","","","72","H","0","img/none_selected.jpg","","5","main_expt"
"","bandit","85","482847","0.0-46.0-0.0","07368596","wem/bandit_either_2","A25YG9M911WA3T","either","3","11805","","","","","","","0","0","1","0.4887860333","","0.4","0.6","0.2","0.8","","","","","0.164375756","0.03467601655","0.2061018479","0.4887860333","","","","","","","","76","L","3","","","6","main_expt"
"","bandit","86","484802","0.0-47.0-0.0","07368596","wem/bandit_either_2","A25YG9M911WA3T","either","3","447","","","","","","","0","0","1","0.4901971563","","0.4","0.6","0.2","0.8","","","","","0.204957223","0.05033951668","0.1795347326","0.4901971563","","","","","","","","76","L","3","","","7","main_expt"
"","bandit","87","486464","0.0-48.0-0.0","07368596","wem/bandit_either_2","A25YG9M911WA3T","either","3","152","","","","","","","1","0","0","0.1290452752","","0.4","0.6","0.2","0.8","","","","","0.2162036531","0.07676355645","0.1290452752","0.4862230721","","","","","","","","75","K","2","","","8","main_expt"
"","bandit","88","488392","0.0-49.0-0.0","07368596","wem/bandit_either_2","A25YG9M911WA3T","either","3","417","","","","","","","0","0","1","","0.1559184374","0.4","0.6","0.2","0.8","0.2167418122","0.08620859221","0.1559184374","0.4759730645","","","","","","","","","","","","75","K","2","","","9","main_expt"
"","bandit","89","490274","0.0-50.0-0.0","07368596","wem/bandit_either_2","A25YG9M911WA3T","either","3","366","","","","","","","0","0","1","","0.1381514788","0.4","0.6","0.2","0.8","0.1607923637","0.1103839657","0.1381514788","0.4560980466","","","","","","","","","","","","75","K","2","","","10","main_expt"
"","bandit","90","492147","0.0-51.0-0.0","07368596","wem/bandit_either_2","A25YG9M911WA3T","either","3","358","","","","","","","0","0","1","0.1271140015","","0.4","0.6","0.2","0.8","","","","","0.1386410957","0.1334948588","0.1271140015","0.4775116046","","","","","","","","75","K","2","","","11","main_expt"
"","bandit","91","494008","0.0-52.0-0.0","07368596","wem/bandit_either_2","A25YG9M911WA3T","either","3","355","","","","","","","1","0","0","0.4705073552","","0.4","0.6","0.2","0.8","","","","","0.1718380738","0.1535602519","0.1854664659","0.4705073552","","","","","","","","76","L","3","","","12","main_expt"
"","bandit","92","495881","0.0-53.0-0.0","07368596","wem/bandit_either_2","A25YG9M911WA3T","either","3","362","","","","","","","0","0","1","","0.4851887342","0.4","0.6","0.2","0.8","0.1686303413","0.127854239","0.1869952656","0.4851887342","","","","","","","","","","","","76","L","3","","","13","main_expt"
"","bandit","93","497883","0.0-54.0-0.0","07368596","wem/bandit_either_2","A25YG9M911WA3T","either","3","493","","","","","","","0","0","1","","0.4731273917","0.4","0.6","0.2","0.8","0.1460019496","0.1507911491","0.2035171393","0.4731273917","","","","","","","","","","","","76","L","3","","","14","main_expt"
"","bandit","94","499567","0.0-55.0-0.0","07368596","wem/bandit_either_2","A25YG9M911WA3T","either","3","174","","","","","","","1","0","0","0.1741212098","","0.4","0.6","0.2","0.8","","","","","0.1667614464","0.1741212098","0.2800299461","0.4585867004","","","","","","","","74","J","1","","","15","main_expt"
"","bandit","95","501712","0.0-56.0-0.0","07368596","wem/bandit_either_2","A25YG9M911WA3T","either","3","634","","","","","","","0","0","1","","0.1918308831","0.4","0.6","0.2","0.8","0.1973644546","0.1918308831","0.2725454461","0.4366533258","","","","","","","","","","","","74","J","1","","","16","main_expt"
"","bandit","96","503584","0.0-57.0-0.0","07368596","wem/bandit_either_2","A25YG9M911WA3T","either","3","366","","","","","","","0","0","1","0.1950212473","","0.4","0.6","0.2","0.8","","","","","0.1873415792","0.1950212473","0.1570621471","0.4405228744","","","","","","","","74","J","1","","","17","main_expt"
"","bandit","97","505120","0.0-58.0-0.0","07368596","wem/bandit_either_2","A25YG9M911WA3T","either","3","24","","","","","","","0","0","1","0.1875860444","","0.4","0.6","0.2","0.8","","","","","0.1875860444","0.2094813194","0.1968188506","0.4678551263","","","","","","","","72","H","0","img/none_selected.jpg","","18","main_expt"
"","bandit","98","506976","0.0-59.0-0.0","07368596","wem/bandit_either_2","A25YG9M911WA3T","either","3","350","","","","","","","1","0","0","0.2628959394","","0.4","0.6","0.2","0.8","","","","","0.1988439388","0.2628959394","0.2439518204","0.466140525","","","","","","","","74","J","1","","","19","main_expt"
"","bandit","99","509239","0.0-60.0-0.0","07368596","wem/bandit_either_2","A25YG9M911WA3T","either","3","757","","","","","","","0","0","1","","0.2116504525","0.4","0.6","0.2","0.8","0.1813993393","0.2116504525","0.2806117898","0.4094087999","","","","","","","","","","","","74","J","1","","","20","main_expt"
"","bandit","100","511143","0.0-61.0-0.0","07368596","wem/bandit_either_2","A25YG9M911WA3T","either","3","390","","","","","","","0","0","1","","0.1904426465","0.4","0.6","0.2","0.8","0.2012004452","0.1904426465","0.2658005831","0.4386974508","","","","","","","","","","","","74","J","1","","","21","main_expt"
"","bandit","101","513002","0.0-62.0-0.0","07368596","wem/bandit_either_2","A25YG9M911WA3T","either","3","345","","","","","","","0","0","1","0.4505723784","","0.4","0.6","0.2","0.8","","","","","0.1958646163","0.1581796968","0.2774390086","0.4505723784","","","","","","","","76","L","3","","","22","main_expt"
"","bandit","102","514865","0.0-63.0-0.0","07368596","wem/bandit_either_2","A25YG9M911WA3T","either","3","353","","","","","","","1","0","0","0.4568000239","","0.4","0.6","0.2","0.8","","","","","0.2626819079","0.2039009352","0.2795917474","0.4568000239","","","","","","","","76","L","3","","","23","main_expt"
"","bandit","103","516734","0.0-64.0-0.0","07368596","wem/bandit_either_2","A25YG9M911WA3T","either","3","363","","","","","","","1","0","0","0.4518339256","","0.4","0.6","0.2","0.8","","","","","0.2906682881","0.228339491","0.2981059477","0.4518339256","","","","","","","","76","L","3","","","24","main_expt"
"","bandit","104","518601","0.0-65.0-0.0","07368596","wem/bandit_either_2","A25YG9M911WA3T","either","3","358","","","","","","","0","0","1","","0.4120159309","0.4","0.6","0.2","0.8","0.3270173502","0.2602465224","0.3272059922","0.4120159309","","","","","","","","","","","","76","L","3","","","25","main_expt"
"","bandit","105","520445","0.0-66.0-0.0","07368596","wem/bandit_either_2","A25YG9M911WA3T","either","3","330","","","","","","","0","0","1","","0.4134154185","0.4","0.6","0.2","0.8","0.2951289915","0.1939420306","0.3369826645","0.4134154185","","","","","","","","","","","","76","L","3","","","26","main_expt"
"","bandit","106","522272","0.0-67.0-0.0","07368596","wem/bandit_either_2","A25YG9M911WA3T","either","3","313","","","","","","","0","0","1","","0.2531212506","0.4","0.6","0.2","0.8","0.3520126272","0.2387331149","0.2531212506","0.4031068294","","","","","","","","","","","","75","K","2","","","27","main_expt"
"","bandit","107","524150","0.0-68.0-0.0","07368596","wem/bandit_either_2","A25YG9M911WA3T","either","3","366","","","","","","","1","0","0","0.4305883772","","0.4","0.6","0.2","0.8","","","","","0.3369287003","0.2183458617","0.2170461037","0.4305883772","","","","","","","","76","L","3","","","28","main_expt"
"","bandit","108","526087","0.0-69.0-0.0","07368596","wem/bandit_either_2","A25YG9M911WA3T","either","3","430","","","","","","","0","0","1","0.4383329838","","0.4","0.6","0.2","0.8","","","","","0.3591799128","0.2151501268","0.2346211465","0.4383329838","","","","","","","","76","L","3","","","29","main_expt"
"","bandit","109","528014","0.0-70.0-0.0","07368596","wem/bandit_either_2","A25YG9M911WA3T","either","3","420","","","","","","","0","0","1","","0.4233276099","0.4","0.6","0.2","0.8","0.3324285477","0.2267233056","0.2450860663","0.4233276099","","","","","","","","","","","","76","L","3","","","30","main_expt"
"","bandit","110","529886","0.0-71.0-0.0","07368596","wem/bandit_either_2","A25YG9M911WA3T","either","3","362","","","","","","","1","0","0","0.4016185005","","0.4","0.6","0.2","0.8","","","","","0.327032362","0.2663701676","0.2141169407","0.4016185005","","","","","","","","76","L","3","","","31","main_expt"
"","bandit","111","531784","0.0-72.0-0.0","07368596","wem/bandit_either_2","A25YG9M911WA3T","either","3","384","","","","","","","0","0","1","0.4134940178","","0.4","0.6","0.2","0.8","","","","","0.3230905041","0.275969473","0.2347854155","0.4134940178","","","","","","","","76","L","3","","","32","main_expt"
"","bandit","112","533660","0.0-73.0-0.0","07368596","wem/bandit_either_2","A25YG9M911WA3T","either","3","363","","","","","","","1","0","0","0.4331174495","","0.4","0.6","0.2","0.8","","","","","0.2969008969","0.3365270118","0.246596708","0.4331174495","","","","","","","","76","L","3","","","33","main_expt"
"","bandit","113","535489","0.0-74.0-0.0","07368596","wem/bandit_either_2","A25YG9M911WA3T","either","3","319","","","","","","","1","0","0","0.4454497031","","0.4","0.6","0.2","0.8","","","","","0.2536392951","0.2916301021","0.1914370393","0.4454497031","","","","","","","","76","L","3","","","34","main_expt"
"","bandit","114","537359","0.0-75.0-0.0","07368596","wem/bandit_either_2","A25YG9M911WA3T","either","3","353","","","","","","","0","0","1","0.4419706984","","0.4","0.6","0.2","0.8","","","","","0.2336030597","0.3236538836","0.1408207185","0.4419706984","","","","","","","","76","L","3","","","35","main_expt"
"","bandit","115","540302","0.0-76.0-0.0","07368596","wem/bandit_either_2","A25YG9M911WA3T","either","3","1431","","","","","","","0","0","1","0.4205940312","","0.4","0.6","0.2","0.8","","","","","0.3110392291","0.3317439785","0.09539735145","0.4205940312","","","","","","","","76","L","3","","","36","main_expt"
"","bandit","116","542207","0.0-77.0-0.0","07368596","wem/bandit_either_2","A25YG9M911WA3T","either","3","392","","","","","","","1","0","0","0.4227305347","","0.4","0.6","0.2","0.8","","","","","0.3354302382","0.3620900841","0.08867332122","0.4227305347","","","","","","","","76","L","3","","","37","main_expt"
"","bandit","117","543965","0.0-78.0-0.0","07368596","wem/bandit_either_2","A25YG9M911WA3T","either","3","246","","","","","","","0","0","1","","0.3904174821","0.4","0.6","0.2","0.8","0.3359947902","0.3649119955","0.0804097964","0.3904174821","","","","","","","","","","","","76","L","3","","","38","main_expt"
"","bandit","118","545621","0.0-79.0-0.0","07368596","wem/bandit_either_2","A25YG9M911WA3T","either","3","149","","","","","","","0","0","1","0.3704092514","","0.4","0.6","0.2","0.8","","","","","0.3719467902","0.3993258453","0.1092906338","0.3704092514","","","","","","","","76","L","3","","","39","main_expt"
"","bandit","119","547336","0.0-80.0-0.0","07368596","wem/bandit_either_2","A25YG9M911WA3T","either","3","204","","","","","","","0","0","1","","0.3250394812","0.4","0.6","0.2","0.8","0.37180955","0.43145226","0.08771014895","0.3250394812","","","","","","","","","","","","76","L","3","","","40","main_expt"
"","bandit","120","549096","0.0-81.0-0.0","07368596","wem/bandit_either_2","A25YG9M911WA3T","either","3","247","","","","","","","0","1","0","","0.3633775572","0.4","0.6","0.2","0.8","0.3972707938","0.3925837484","0.1065106481","0.3633775572","","","","","","","","","","","","76","L","3","","","41","main_expt"
"","bandit","121","550946","0.0-82.0-0.0","07368596","wem/bandit_either_2","A25YG9M911WA3T","either","3","340","","","","","","","0","0","1","0.3708570881","","0.4","0.6","0.2","0.8","","","","","0.3981555674","0.4020613291","0.0926848955","0.3708570881","","","","","","","","76","L","3","","","42","main_expt"
"","bandit","122","553233","0.0-83.0-0.0","07368596","wem/bandit_either_2","A25YG9M911WA3T","either","3","780","","","","","","","0","0","1","","0.09213729174","0.4","0.6","0.2","0.8","0.3698022864","0.4199094288","0.09213729174","0.3852030547","","","","","","","","","","","","75","K","2","","","43","main_expt"
"","bandit","123","555103","0.0-84.0-0.0","07368596","wem/bandit_either_2","A25YG9M911WA3T","either","3","360","","","","","","","0","0","1","0.4362917367","","0.4","0.6","0.2","0.8","","","","","0.3278340923","0.4362917367","0.0950319608","0.3653477133","","","","","","","","74","J","1","","","44","main_expt"
"","bandit","124","556991","0.0-85.0-0.0","07368596","wem/bandit_either_2","A25YG9M911WA3T","either","3","379","","","","","","","0","0","1","","0.07917944011","0.4","0.6","0.2","0.8","0.4004869948","0.4310393502","0.07917944011","0.3423722135","","","","","","","","","","","","75","K","2","","","45","main_expt"
"","bandit","125","558799","0.0-86.0-0.0","07368596","wem/bandit_either_2","A25YG9M911WA3T","either","3","301","","","","","","","0","0","1","0.2713785315","","0.4","0.6","0.2","0.8","","","","","0.4389658195","0.4301719659","0.08528552535","0.2713785315","","","","","","","","76","L","3","","","46","main_expt"
"","bandit","126","560400","0.0-87.0-0.0","07368596","wem/bandit_either_2","A25YG9M911WA3T","either","3","91","","","","","","","0","0","1","","0.4274268526","0.4","0.6","0.2","0.8","0.4294918489","0.4274268526","0.08303267599","0.2675382036","","","","","","","","","","","","74","J","1","","","47","main_expt"
"","bandit","127","562343","0.0-88.0-0.0","07368596","wem/bandit_either_2","A25YG9M911WA3T","either","3","429","","","","","","","1","0","0","0.3948346084","","0.4","0.6","0.2","0.8","","","","","0.3948346084","0.4559220927","0.1183490009","0.3006553151","","","","","","","","72","H","0","img/none_selected.jpg","","48","main_expt"
"","bandit","128","564191","0.0-89.0-0.0","07368596","wem/bandit_either_2","A25YG9M911WA3T","either","3","335","","","","","","","0","1","0","","0.4226663974","0.4","0.6","0.2","0.8","0.4226663974","0.4362936898","0.09831357925","0.2865645246","","","","","","","","","","","","72","H","0","img/none_selected.jpg","","49","main_expt"
"","bandit","129","566069","0.0-90.0-0.0","07368596","wem/bandit_either_2","A25YG9M911WA3T","either","3","366","","","","","","","0","0","1","0.3943232949","","0.4","0.6","0.2","0.8","","","","","0.3943232949","0.4001593617","0.0896163698","0.2842330123","","","","","","","","72","H","0","img/none_selected.jpg","","50","main_expt"
"","bandit","130","567943","0.0-91.0-0.0","07368596","wem/bandit_either_2","A25YG9M911WA3T","either","3","367","","","","","","","0","0","1","","0.3911898034","0.4","0.6","0.2","0.8","0.3911898034","0.3737598101","0.08239790895","0.2933637591","","","","","","","","","","","","72","H","0","img/none_selected.jpg","","51","main_expt"
"","bandit","131","569767","0.0-92.0-0.0","07368596","wem/bandit_either_2","A25YG9M911WA3T","either","3","311","","","","","","","1","0","0","0.3897106723","","0.4","0.6","0.2","0.8","","","","","0.3897106723","0.3490564905","0.06509061927","0.2802127762","","","","","","","","72","H","0","img/none_selected.jpg","","52","main_expt"
"","bandit","132","571552","0.0-93.0-0.0","07368596","wem/bandit_either_2","A25YG9M911WA3T","either","3","276","","","","","","","1","0","0","0.3977919118","","0.4","0.6","0.2","0.8","","","","","0.3977919118","0.3606416198","0.05503049918","0.2567133084","","","","","","","","72","H","0","img/none_selected.jpg","","53","main_expt"
"","bandit","133","573393","0.0-94.0-0.0","07368596","wem/bandit_either_2","A25YG9M911WA3T","either","3","325","","","","","","","0","0","1","","0.3803623479","0.4","0.6","0.2","0.8","0.3803623479","0.3920172378","0.06606451817","0.304436262","","","","","","","","","","","","72","H","0","img/none_selected.jpg","","54","main_expt"
"","bandit","134","575249","0.0-95.0-0.0","07368596","wem/bandit_either_2","A25YG9M911WA3T","either","3","339","","","","","","","0","0","1","0.3898030924","","0.4","0.6","0.2","0.8","","","","","0.3898030924","0.3841867886","0.0812436444","0.3050376594","","","","","","","","72","H","0","img/none_selected.jpg","","55","main_expt"
"","bandit","135","577088","0.0-96.0-0.0","07368596","wem/bandit_either_2","A25YG9M911WA3T","either","3","331","","","","","","","1","0","0","0.4332266089","","0.4","0.6","0.2","0.8","","","","","0.4332266089","0.3752679739","0.05752214818","0.2874076515","","","","","","","","72","H","0","img/none_selected.jpg","","56","main_expt"
"","bandit","136","578951","0.0-97.0-0.0","07368596","wem/bandit_either_2","A25YG9M911WA3T","either","3","350","","","","","","","1","0","0","0.4598680415","","0.4","0.6","0.2","0.8","","","","","0.4598680415","0.3595388075","0.05957573693","0.2633226407","","","","","","","","72","H","0","img/none_selected.jpg","","57","main_expt"
"","bandit","137","580848","0.0-98.0-0.0","07368596","wem/bandit_either_2","A25YG9M911WA3T","either","3","388","","","","","","","0","0","1","","0.4510058242","0.4","0.6","0.2","0.8","0.4510058242","0.2926617498","0.08347810371","0.282557186","","","","","","","","","","","","72","H","0","img/none_selected.jpg","","58","main_expt"
"","bandit","138","582662","0.0-99.0-0.0","07368596","wem/bandit_either_2","A25YG9M911WA3T","either","3","304","","","","","","","0","1","0","","0.4587464736","0.4","0.6","0.2","0.8","0.4587464736","0.2854140482","0.1166757522","0.2675679041","","","","","","","","","","","","72","H","0","img/none_selected.jpg","","59","main_expt"
"","bandit","139","584502","0.0-100.0-0.0","07368596","wem/bandit_either_2","A25YG9M911WA3T","either","3","329","","","","","","","1","0","0","0.4534111386","","0.4","0.6","0.2","0.8","","","","","0.4534111386","0.2767785787","0.1223048521","0.2654645802","","","","","","","","72","H","0","img/none_selected.jpg","","60","main_expt"
"","bandit","140","586343","0.0-101.0-0.0","07368596","wem/bandit_either_2","A25YG9M911WA3T","either","3","332","","","","","","","0","0","1","0.4581751116","","0.4","0.6","0.2","0.8","","","","","0.4581751116","0.3110110239","0.1341525672","0.2326588137","","","","","","","","72","H","0","img/none_selected.jpg","","61","main_expt"
"","bandit","141","588190","0.0-102.0-0.0","07368596","wem/bandit_either_2","A25YG9M911WA3T","either","3","335","","","","","","","0","1","0","","0.4447189615","0.4","0.6","0.2","0.8","0.4447189615","0.2739379344","0.1748443247","0.2430345153","","","","","","","","","","","","72","H","0","img/none_selected.jpg","","62","main_expt"
"","bandit","142","590073","0.0-103.0-0.0","07368596","wem/bandit_either_2","A25YG9M911WA3T","either","3","373","","","","","","","0","0","1","0.4351057758","","0.4","0.6","0.2","0.8","","","","","0.4351057758","0.2518438402","0.1872250423","0.2682261916","","","","","","","","72","H","0","img/none_selected.jpg","","63","main_expt"
"","bandit","143","591831","0.0-104.0-0.0","07368596","wem/bandit_either_2","A25YG9M911WA3T","either","3","246","","","","","","","0","0","1","","0.4559228662","0.4","0.6","0.2","0.8","0.4559228662","0.216118181","0.1592276408","0.3136585585","","","","","","","","","","","","72","H","0","img/none_selected.jpg","","64","main_expt"
"","bandit","144","593391","0.0-105.0-0.0","07368596","wem/bandit_either_2","A25YG9M911WA3T","either","3","52","","","","","","","0","0","1","0.1961712117","","0.4","0.6","0.2","0.8","","","","","0.4526438492","0.1961712117","0.1881419285","0.3208042698","","","","","","","","74","J","1","","","65","main_expt"
"","bandit","145","595112","0.0-106.0-0.0","07368596","wem/bandit_either_2","A25YG9M911WA3T","either","3","213","","","","","","","0","0","1","","0.1821057022","0.4","0.6","0.2","0.8","0.4604690516","0.1821057022","0.2075830042","0.3550213758","","","","","","","","","","","","74","J","1","","","66","main_expt"
"","bandit","146","596703","0.0-107.0-0.0","07368596","wem/bandit_either_2","A25YG9M911WA3T","either","3","84","","","","","","","0","0","1","","0.4479534522","0.4","0.6","0.2","0.8","0.4479534522","0.2221692745","0.210321401","0.2883445083","","","","","","","","","","","","72","H","0","img/none_selected.jpg","","67","main_expt"
"","bandit","147","598213","0.0-108.0-0.0","07368596","wem/bandit_either_2","A25YG9M911WA3T","either","3","1","","","","","","","0","0","1","","0.1740681144","0.4","0.6","0.2","0.8","0.4420076102","0.2385328342","0.1740681144","0.2492112051","","","","","","","","","","","","75","K","2","","","68","main_expt"
"","bandit","148","600118","0.0-109.0-0.0","07368596","wem/bandit_either_2","A25YG9M911WA3T","either","3","391","","","","","","","0","0","1","0.1495678232","","0.4","0.6","0.2","0.8","","","","","0.3840886122","0.2693988132","0.1495678232","0.1725364023","","","","","","","","75","K","2","","","69","main_expt"
"","bandit","149","602025","0.0-110.0-0.0","07368596","wem/bandit_either_2","A25YG9M911WA3T","either","3","389","","","","","","","1","0","0","0.2081322216","","0.4","0.6","0.2","0.8","","","","","0.3764426572","0.2633889128","0.1594524764","0.2081322216","","","","","","","","76","L","3","","","70","main_expt"
"","bandit","150","603854","0.0-111.0-0.0","07368596","wem/bandit_either_2","A25YG9M911WA3T","either","3","316","","","","","","","0","0","1","","0.2222096595","0.4","0.6","0.2","0.8","0.3925575972","0.2881785301","0.1308665948","0.2222096595","","","","","","","","","","","","76","L","3","","","71","main_expt"
"","bandit","151","605681","0.0-112.0-0.0","07368596","wem/bandit_either_2","A25YG9M911WA3T","either","3","316","","","","","","","0","0","1","","0.2276413934","0.4","0.6","0.2","0.8","0.4055717031","0.3496752211","0.1413665491","0.2276413934","","","","","","","","","","","","76","L","3","","","72","main_expt"
"","bandit","152","607544","0.0-113.0-0.0","07368596","wem/bandit_either_2","A25YG9M911WA3T","either","3","352","","","","","","","0","0","1","0.202726327","","0.4","0.6","0.2","0.8","","","","","0.4313753627","0.3662649551","0.1562096843","0.202726327","","","","","","","","76","L","3","","","73","main_expt"
"","bandit","153","610040","0.0-114.0-0.0","07368596","wem/bandit_either_2","A25YG9M911WA3T","either","3","979","","","","","","","0","0","1","0.4294283137","","0.4","0.6","0.2","0.8","","","","","0.4294283137","0.3318597218","0.1601549975","0.2465356434","","","","","","","","72","H","0","img/none_selected.jpg","","74","main_expt"
"","bandit","154","611878","0.0-115.0-0.0","07368596","wem/bandit_either_2","A25YG9M911WA3T","either","3","329","","","","","","","1","0","0","0.4114775526","","0.4","0.6","0.2","0.8","","","","","0.4114775526","0.3129946244","0.1962365409","0.2780880013","","","","","","","","72","H","0","img/none_selected.jpg","","75","main_expt"
"","bandit","155","613736","0.0-116.0-0.0","07368596","wem/bandit_either_2","A25YG9M911WA3T","either","3","350","","","","","","","0","1","0","","0.4038916894","0.4","0.6","0.2","0.8","0.4038916894","0.3299880354","0.2315068675","0.230570622","","","","","","","","","","","","72","H","0","img/none_selected.jpg","","76","main_expt"
"","bandit","156","615567","0.0-117.0-0.0","07368596","wem/bandit_either_2","A25YG9M911WA3T","either","3","324","","","","","","","0","0","1","0.4028298088","","0.4","0.6","0.2","0.8","","","","","0.4028298088","0.2704336052","0.1749603823","0.1747897532","","","","","","","","72","H","0","img/none_selected.jpg","","77","main_expt"
"","bandit","157","617457","0.0-118.0-0.0","07368596","wem/bandit_either_2","A25YG9M911WA3T","either","3","378","","","","","","","0","1","0","","0.4004321452","0.4","0.6","0.2","0.8","0.4004321452","0.2489008917","0.2091975686","0.2009150394","","","","","","","","","","","","72","H","0","img/none_selected.jpg","","78","main_expt"
"","bandit","158","619314","0.0-119.0-0.0","07368596","wem/bandit_either_2","A25YG9M911WA3T","either","3","338","","","","","","","0","0","1","","0.3909827091","0.4","0.6","0.2","0.8","0.3909827091","0.2182462247","0.2699334682","0.2090883318","","","","","","","","","","","","72","H","0","img/none_selected.jpg","","79","main_expt"
"","bandit","159","621184","0.0-120.0-0.0","07368596","wem/bandit_either_2","A25YG9M911WA3T","either","3","352","","","","","","","0","0","1","","0.4289339141","0.4","0.6","0.2","0.8","0.4289339141","0.1591694045","0.2712134299","0.215522018","","","","","","","","","","","","72","H","0","img/none_selected.jpg","","80","main_expt"
"","bandit","160","622927","0.0-121.0-0.0","07368596","wem/bandit_either_2","A25YG9M911WA3T","either","3","232","","","","","","","0","0","1","","0.4256341571","0.4","0.6","0.2","0.8","0.4256341571","0.1661146317","0.2563236188","0.2655955182","","","","","","","","","","","","72","H","0","img/none_selected.jpg","","81","main_expt"
"","bandit","161","624670","0.0-122.0-0.0","07368596","wem/bandit_either_2","A25YG9M911WA3T","either","3","234","","","","","","","0","0","1","0.2249160828","","0.4","0.6","0.2","0.8","","","","","0.4153375647","0.2249160828","0.2474856626","0.2642342948","","","","","","","","74","J","1","","","82","main_expt"
"","bandit","162","626554","0.0-123.0-0.0","07368596","wem/bandit_either_2","A25YG9M911WA3T","either","3","374","","","","","","","0","0","1","0.2194800234","","0.4","0.6","0.2","0.8","","","","","0.4239102097","0.2194800234","0.2338037125","0.2615040017","","","","","","","","74","J","1","","","83","main_expt"
"","bandit","163","628416","0.0-124.0-0.0","07368596","wem/bandit_either_2","A25YG9M911WA3T","either","3","347","","","","","","","0","0","1","","0.2929655049","0.4","0.6","0.2","0.8","0.4021041833","0.2020024956","0.2929655049","0.3136368113","","","","","","","","","","","","75","K","2","","","84","main_expt"
"","bandit","164","630255","0.0-125.0-0.0","07368596","wem/bandit_either_2","A25YG9M911WA3T","either","3","332","","","","","","","0","0","1","0.2433538552","","0.4","0.6","0.2","0.8","","","","","0.4322374594","0.1639230135","0.2755572306","0.2433538552","","","","","","","","76","L","3","","","85","main_expt"
"","bandit","165","632000","0.0-126.0-0.0","07368596","wem/bandit_either_2","A25YG9M911WA3T","either","3","234","","","","","","","0","0","1","0.2706615249","","0.4","0.6","0.2","0.8","","","","","0.4247618508","0.1423092638","0.2706615249","0.2583740773","","","","","","","","75","K","2","","","86","main_expt"
"","bandit","166","633808","0.0-127.0-0.0","07368596","wem/bandit_either_2","A25YG9M911WA3T","either","3","300","","","","","","","0","1","0","","0.2656778135","0.4","0.6","0.2","0.8","0.4130492334","0.1623313408","0.3259805539","0.2656778135","","","","","","","","","","","","76","L","3","","","87","main_expt"
"","bandit","167","635672","0.0-128.0-0.0","07368596","wem/bandit_either_2","A25YG9M911WA3T","either","3","352","","","","","","","0","0","1","0.2565525481","","0.4","0.6","0.2","0.8","","","","","0.3883747858","0.1459946163","0.3471137027","0.2565525481","","","","","","","","76","L","3","","","88","main_expt"
"","bandit","168","637552","0.0-129.0-0.0","07368596","wem/bandit_either_2","A25YG9M911WA3T","either","3","362","","","","","","","0","0","1","","0.2471999074","0.4","0.6","0.2","0.8","0.3950807547","0.1684807643","0.3715311126","0.2471999074","","","","","","","","","","","","76","L","3","","","89","main_expt"
"","bandit","169","639127","0.0-130.0-0.0","07368596","wem/bandit_either_2","A25YG9M911WA3T","either","3","68","","","","","","","0","0","1","0.420982679","","0.4","0.6","0.2","0.8","","","","","0.420982679","0.1937692241","0.3571728809","0.2204199549","","","","","","","","72","H","0","img/none_selected.jpg","","90","main_expt"
"","bandit","170","641231","0.0-131.0-0.0","07368596","wem/bandit_either_2","A25YG9M911WA3T","either","3","588","","","","","","","0","0","1","0.4012606491","","0.4","0.6","0.2","0.8","","","","","0.4012606491","0.1670397906","0.3348642023","0.2013548925","","","","","","","","72","H","0","img/none_selected.jpg","","91","main_expt"
"","bandit","171","642991","0.0-132.0-0.0","07368596","wem/bandit_either_2","A25YG9M911WA3T","either","3","242","","","","","","","0","0","1","","0.1936095216","0.4","0.6","0.2","0.8","0.3950870333","0.1936095216","0.3551195155","0.174921714","","","","","","","","","","","","74","J","1","","","92","main_expt"
"","bandit","172","644889","0.0-133.0-0.0","07368596","wem/bandit_either_2","A25YG9M911WA3T","either","3","387","","","","","","","0","0","1","","0.3494458231","0.4","0.6","0.2","0.8","0.3797372222","0.2399824117","0.3494458231","0.1972058505","","","","","","","","","","","","75","K","2","","","93","main_expt"
"","bandit","173","646648","0.0-134.0-0.0","07368596","wem/bandit_either_2","A25YG9M911WA3T","either","3","249","","","","","","","1","0","0","0.2144007407","","0.4","0.6","0.2","0.8","","","","","0.3346339076","0.242536602","0.3759818745","0.2144007407","","","","","","","","76","L","3","","","94","main_expt"
"","bandit","174","648497","0.0-135.0-0.0","07368596","wem/bandit_either_2","A25YG9M911WA3T","either","3","340","","","","","","","1","0","0","0.2025691914","","0.4","0.6","0.2","0.8","","","","","0.3433005441","0.3081296623","0.3467088588","0.2025691914","","","","","","","","76","L","3","","","95","main_expt"
"","bandit","175","650409","0.0-136.0-0.0","07368596","wem/bandit_either_2","A25YG9M911WA3T","either","3","390","","","","","","","0","0","1","0.1750118246","","0.4","0.6","0.2","0.8","","","","","0.2900415689","0.371766452","0.3520186383","0.1750118246","","","","","","","","76","L","3","","","96","main_expt"
"","bandit","176","652230","0.0-137.0-0.0","07368596","wem/bandit_either_2","A25YG9M911WA3T","either","3","303","","","","","","","0","0","1","","0.2433812568","0.4","0.6","0.2","0.8","0.3136050561","0.3737721809","0.342216001","0.2433812568","","","","","","","","","","","","76","L","3","","","97","main_expt"
"","bandit","177","654087","0.0-138.0-0.0","07368596","wem/bandit_either_2","A25YG9M911WA3T","either","3","345","","","","","","","0","0","1","0.1834100281","","0.4","0.6","0.2","0.8","","","","","0.3236610102","0.3662625892","0.3775958225","0.1834100281","","","","","","","","76","L","3","","","98","main_expt"
"","bandit","178","656168","0.0-139.0-0.0","07368596","wem/bandit_either_2","A25YG9M911WA3T","either","3","572","","","","","","","0","0","1","0.3116662608","","0.4","0.6","0.2","0.8","","","","","0.3116662608","0.3912879072","0.3490624926","0.146161558","","","","","","","","72","H","0","img/none_selected.jpg","","99","main_expt"
"","bandit","179","657945","0.0-140.0-0.0","07368596","wem/bandit_either_2","A25YG9M911WA3T","either","3","260","","","","","","","0","0","1","","0.3806420769","0.4","0.6","0.2","0.8","0.3806420769","0.3916888764","0.3418910903","0.1186266926","","","","","","","","","","","","72","H","0","img/none_selected.jpg","","100","main_expt"
"","bandit","180","660071","0.0-141.0-0.0","07368596","wem/bandit_either_2","A25YG9M911WA3T","either","3","608","","","","","","","0","0","1","0.3803758031","","0.4","0.6","0.2","0.8","","","","","0.3825052475","0.3803758031","0.3544055354","0.1467879228","","","","","","","","74","J","1","","","101","main_expt"
"","bandit","181","661848","0.0-142.0-0.0","07368596","wem/bandit_either_2","A25YG9M911WA3T","either","3","259","","","","","","","0","1","0","","0.3685266224","0.4","0.6","0.2","0.8","0.3799327693","0.3685266224","0.3580864163","0.1336514036","","","","","","","","","","","","74","J","1","","","102","main_expt"
"","bandit","182","663688","0.0-143.0-0.0","07368596","wem/bandit_either_2","A25YG9M911WA3T","either","3","321","","","","","","","0","0","1","","0.3754978655","0.4","0.6","0.2","0.8","0.3502018886","0.3754978655","0.336528594","0.1325092095","","","","","","","","","","","","74","J","1","","","103","main_expt"
"","bandit","183","665536","0.0-144.0-0.0","07368596","wem/bandit_either_2","A25YG9M911WA3T","either","3","335","","","","","","","0","0","1","0.4033056484","","0.4","0.6","0.2","0.8","","","","","0.3443431466","0.4033056484","0.3190078166","0.1162839287","","","","","","","","74","J","1","","","104","main_expt"
"","bandit","184","667238","0.0-145.0-0.0","07368596","wem/bandit_either_2","A25YG9M911WA3T","either","3","186","","","","","","","1","0","0","0.3617388181","","0.4","0.6","0.2","0.8","","","","","0.3551378046","0.3617388181","0.3100940773","0.115620258","","","","","","","","74","J","1","","","105","main_expt"
"","bandit","185","669064","0.0-146.0-0.0","07368596","wem/bandit_either_2","A25YG9M911WA3T","either","3","308","","","","","","","0","0","1","0.3656875331","","0.4","0.6","0.2","0.8","","","","","0.3177956882","0.3656875331","0.2964842485","0.1102569517","","","","","","","","74","J","1","","","106","main_expt"
"","bandit","186","670879","0.0-147.0-0.0","07368596","wem/bandit_either_2","A25YG9M911WA3T","either","3","297","","","","","","","1","0","0","0.3478183852","","0.4","0.6","0.2","0.8","","","","","0.3463124521","0.3478183852","0.3224579283","0.110599846","","","","","","","","74","J","1","","","107","main_expt"
"","bandit","187","672615","0.0-148.0-0.0","07368596","wem/bandit_either_2","A25YG9M911WA3T","either","3","227","","","","","","","1","0","0","0.3715517583","","0.4","0.6","0.2","0.8","","","","","0.330790185","0.3715517583","0.3365568187","0.1647947233","","","","","","","","74","J","1","","","108","main_expt"
"","bandit","188","674416","0.0-149.0-0.0","07368596","wem/bandit_either_2","A25YG9M911WA3T","either","3","285","","","","","","","0","1","0","","0.3713851569","0.4","0.6","0.2","0.8","0.3259779601","0.3713851569","0.3200824859","0.146095753","","","","","","","","","","","","74","J","1","","","109","main_expt"
"","bandit","189","676238","0.0-150.0-0.0","07368596","wem/bandit_either_2","A25YG9M911WA3T","either","3","311","","","","","","","0","0","1","0.3401672382","","0.4","0.6","0.2","0.8","","","","","0.3169053314","0.3401672382","0.3179471713","0.1691954855","","","","","","","","74","J","1","","","110","main_expt"
"","bandit","190","677991","0.0-151.0-0.0","07368596","wem/bandit_either_2","A25YG9M911WA3T","either","3","241","","","","","","","0","0","1","0.3242328008","","0.4","0.6","0.2","0.8","","","","","0.342138516","0.3242328008","0.3168158386","0.1690298198","","","","","","","","74","J","1","","","111","main_expt"
"","bandit","191","679718","0.0-152.0-0.0","07368596","wem/bandit_either_2","A25YG9M911WA3T","either","3","209","","","","","","","0","0","1","","0.2991119965","0.4","0.6","0.2","0.8","0.3597886873","0.2991119965","0.3551606626","0.2196992501","","","","","","","","","","","","74","J","1","","","112","main_expt"
"","bandit","192","681399","0.0-153.0-0.0","07368596","wem/bandit_either_2","A25YG9M911WA3T","either","3","170","","","","","","","1","0","0","0.3615444015","","0.4","0.6","0.2","0.8","","","","","0.3580549124","0.3364281798","0.3615444015","0.2723467559","","","","","","","","75","K","2","","","113","main_expt"
"","bandit","193","683271","0.0-154.0-0.0","07368596","wem/bandit_either_2","A25YG9M911WA3T","either","3","350","","","","","","","0","0","1","","0.4043222556","0.4","0.6","0.2","0.8","0.3556181037","0.3495122724","0.4043222556","0.2470985199","","","","","","","","","","","","75","K","2","","","114","main_expt"
"","bandit","194","685136","0.0-155.0-0.0","07368596","wem/bandit_either_2","A25YG9M911WA3T","either","3","348","","","","","","","0","1","0","","0.4179696435","0.4","0.6","0.2","0.8","0.3489042174","0.324938203","0.4179696435","0.2482590513","","","","","","","","","","","","75","K","2","","","115","main_expt"
"","bandit","195","686968","0.0-156.0-0.0","07368596","wem/bandit_either_2","A25YG9M911WA3T","either","3","320","","","","","","","0","0","1","","0.4324393975","0.4","0.6","0.2","0.8","0.3466245191","0.3227512736","0.4324393975","0.1992012358","","","","","","","","","","","","75","K","2","","","116","main_expt"
"","bandit","196","688767","0.0-157.0-0.0","07368596","wem/bandit_either_2","A25YG9M911WA3T","either","3","291","","","","","","","1","0","0","0.4290779421","","0.4","0.6","0.2","0.8","","","","","0.3581754781","0.2585209305","0.4290779421","0.216355905","","","","","","","","75","K","2","","","117","main_expt"
"","bandit","197","690520","0.0-158.0-0.0","07368596","wem/bandit_either_2","A25YG9M911WA3T","either","3","241","","","","","","","0","1","0","","0.4459264202","0.4","0.6","0.2","0.8","0.283939031","0.2817260076","0.4459264202","0.1715453935","","","","","","","","","","","","75","K","2","","","118","main_expt"
"","bandit","198","692086","0.0-159.0-0.0","07368596","wem/bandit_either_2","A25YG9M911WA3T","either","3","46","","","","","","","0","0","1","","0.436995295","0.4","0.6","0.2","0.8","0.2992634423","0.328214026","0.436995295","0.1843456939","","","","","","","","","","","","75","K","2","","","119","main_expt"
"","bandit","199","693711","0.0-160.0-0.0","07368596","wem/bandit_either_2","A25YG9M911WA3T","either","3","117","","","","","","","1","0","0","0.4151314625","","0.4","0.6","0.2","0.8","","","","","0.1878150733","0.3355603121","0.4151314625","0.1848061615","","","","","","","","75","K","2","","","120","main_expt"
"","bandit","200","695504","0.0-161.0-0.0","07368596","wem/bandit_either_2","A25YG9M911WA3T","either","3","281","","","","","","","0","0","1","","0.4384064527","0.4","0.6","0.2","0.8","0.1447458933","0.3829587724","0.4384064527","0.1679578636","","","","","","","","","","","","75","K","2","","","121","main_expt"
"","bandit","201","697247","0.0-162.0-0.0","07368596","wem/bandit_either_2","A25YG9M911WA3T","either","3","225","","","","","","","0","1","0","","0.4417589501","0.4","0.6","0.2","0.8","0.1176060398","0.3995678287","0.4417589501","0.197295971","","","","","","","","","","","","75","K","2","","","122","main_expt"
"","bandit","202","699159","0.0-163.0-0.0","07368596","wem/bandit_either_2","A25YG9M911WA3T","either","3","392","","","","","","","0","0","1","","0.4017154396","0.4","0.6","0.2","0.8","0.1097677055","0.3656739583","0.4017154396","0.2184653352","","","","","","","","","","","","75","K","2","","","123","main_expt"
"","bandit","203","701041","0.0-164.0-0.0","07368596","wem/bandit_either_2","A25YG9M911WA3T","either","3","367","","","","","","","0","0","1","","0.3619070526","0.4","0.6","0.2","0.8","0.08048168986","0.3862549257","0.3619070526","0.2147868977","","","","","","","","","","","","75","K","2","","","124","main_expt"
"","bandit","204","703025","0.0-165.0-0.0","07368596","wem/bandit_either_2","A25YG9M911WA3T","either","3","475","","","","","","","0","0","1","0.07842900555","","0.4","0.6","0.2","0.8","","","","","0.07842900555","0.3593796239","0.3567490645","0.1667936559","","","","","","","","72","H","0","img/none_selected.jpg","","125","main_expt"
"","bandit","205","704752","0.0-166.0-0.0","07368596","wem/bandit_either_2","A25YG9M911WA3T","either","3","217","","","","","","","0","0","1","","0.08318363027","0.4","0.6","0.2","0.8","0.08318363027","0.3413194209","0.3558473019","0.1453295256","","","","","","","","","","","","72","H","0","img/none_selected.jpg","","126","main_expt"
"","bandit","206","706504","0.0-167.0-0.0","07368596","wem/bandit_either_2","A25YG9M911WA3T","either","3","237","","","","","","","0","0","1","","0.3369929262","0.4","0.6","0.2","0.8","0.06812438963","0.3369929262","0.3543069734","0.1635755653","","","","","","","","","","","","74","J","1","","","127","main_expt"
"","bandit","207","708248","0.0-168.0-0.0","07368596","wem/bandit_either_2","A25YG9M911WA3T","either","3","231","","","","","","","0","1","0","","0.2922989636","0.4","0.6","0.2","0.8","0.08303766286","0.2922989636","0.3328374851","0.1872639566","","","","","","","","","","","","74","J","1","","","128","main_expt"
"","bandit","208","710015","0.0-169.0-0.0","07368596","wem/bandit_either_2","A25YG9M911WA3T","either","3","247","","","","","","","0","1","0","","0.3095146075","0.4","0.6","0.2","0.8","0.09047360051","0.3095146075","0.3238683282","0.2032718864","","","","","","","","","","","","74","J","1","","","129","main_expt"
"","bandit","209","711813","0.0-170.0-0.0","07368596","wem/bandit_either_2","A25YG9M911WA3T","either","3","287","","","","","","","0","0","1","0.3068425872","","0.4","0.6","0.2","0.8","","","","","0.131542256","0.3068425872","0.2750329062","0.2025864764","","","","","","","","74","J","1","","","130","main_expt"
"","bandit","210","713671","0.0-171.0-0.0","07368596","wem/bandit_either_2","A25YG9M911WA3T","either","3","351","","","","","","","1","0","0","0.3112504131","","0.4","0.6","0.2","0.8","","","","","0.1492019489","0.3112504131","0.2751886228","0.2158584071","","","","","","","","74","J","1","","","131","main_expt"
"","bandit","211","715503","0.0-172.0-0.0","07368596","wem/bandit_either_2","A25YG9M911WA3T","either","3","316","","","","","","","0","0","1","0.3595653039","","0.4","0.6","0.2","0.8","","","","","0.1571188116","0.3595653039","0.2729729886","0.2105840197","","","","","","","","74","J","1","","","132","main_expt"
"","bandit","212","717167","0.0-173.0-0.0","07368596","wem/bandit_either_2","A25YG9M911WA3T","either","3","153","","","","","","","0","0","1","0.3873527377","","0.4","0.6","0.2","0.8","","","","","0.2021073832","0.3873527377","0.3248088544","0.2328486735","","","","","","","","74","J","1","","","133","main_expt"
"","bandit","213","719104","0.0-174.0-0.0","07368596","wem/bandit_either_2","A25YG9M911WA3T","either","3","417","","","","","","","0","0","1","","0.2589092944","0.4","0.6","0.2","0.8","0.2693148074","0.3973884711","0.3596446835","0.2589092944","","","","","","","","","","","","76","L","3","","","134","main_expt"
"","bandit","214","720815","0.0-175.0-0.0","07368596","wem/bandit_either_2","A25YG9M911WA3T","either","3","189","","","","","","","0","0","1","0.2637326353","","0.4","0.6","0.2","0.8","","","","","0.2625780805","0.4080523157","0.318377279","0.2637326353","","","","","","","","76","L","3","","","135","main_expt"
"","bandit","215","722688","0.0-176.0-0.0","07368596","wem/bandit_either_2","A25YG9M911WA3T","either","3","357","","","","","","","0","0","1","","0.3160887017","0.4","0.6","0.2","0.8","0.2981707722","0.4176503084","0.3160887017","0.2718680576","","","","","","","","","","","","75","K","2","","","136","main_expt"
"","bandit","216","724344","0.0-177.0-0.0","07368596","wem/bandit_either_2","A25YG9M911WA3T","either","3","148","","","","","","","0","0","1","","0.2883225013","0.4","0.6","0.2","0.8","0.3148158286","0.3859803947","0.2883225013","0.2919957672","","","","","","","","","","","","75","K","2","","","137","main_expt"
"","bandit","217","726231","0.0-178.0-0.0","07368596","wem/bandit_either_2","A25YG9M911WA3T","either","3","374","","","","","","","1","0","0","0.3111523267","","0.4","0.6","0.2","0.8","","","","","0.3111523267","0.358492916","0.3009152141","0.3193993407","","","","","","","","72","H","0","img/none_selected.jpg","","138","main_expt"
"","bandit","218","728120","0.0-179.0-0.0","07368596","wem/bandit_either_2","A25YG9M911WA3T","either","3","369","","","","","","","0","0","1","","0.3034593298","0.4","0.6","0.2","0.8","0.3034593298","0.3608756281","0.293720077","0.3404434035","","","","","","","","","","","","72","H","0","img/none_selected.jpg","","139","main_expt"
"","bandit","219","730014","0.0-180.0-0.0","07368596","wem/bandit_either_2","A25YG9M911WA3T","either","3","376","","","","","","","0","0","1","0.2507495005","","0.4","0.6","0.2","0.8","","","","","0.2507495005","0.3421836092","0.286059761","0.3278052243","","","","","","","","72","H","0","img/none_selected.jpg","","140","main_expt"
"","bandit","220","731990","0.0-181.0-0.0","07368596","wem/bandit_either_2","A25YG9M911WA3T","either","3","463","","","","","","","0","1","0","","0.3737340371","0.4","0.6","0.2","0.8","0.2220694513","0.3737340371","0.2931724706","0.3038906839","","","","","","","","","","","","74","J","1","","","141","main_expt"
"","bandit","221","733774","0.0-182.0-0.0","07368596","wem/bandit_either_2","A25YG9M911WA3T","either","3","272","","","","","","","0","1","0","","0.3461121542","0.4","0.6","0.2","0.8","0.2119249064","0.3461121542","0.2182180164","0.2924195757","","","","","","","","","","","","74","J","1","","","142","main_expt"
"","bandit","222","735634","0.0-183.0-0.0","07368596","wem/bandit_either_2","A25YG9M911WA3T","either","3","349","","","","","","","1","0","0","0.3305931074","","0.4","0.6","0.2","0.8","","","","","0.2665135591","0.3305931074","0.2015475508","0.2816149275","","","","","","","","74","J","1","","","143","main_expt"
"","bandit","223","737503","0.0-184.0-0.0","07368596","wem/bandit_either_2","A25YG9M911WA3T","either","3","348","","","","","","","0","1","0","","0.3561039987","0.4","0.6","0.2","0.8","0.2854155153","0.3561039987","0.2074070562","0.2355525614","","","","","","","","","","","","74","J","1","","","144","main_expt"
"","bandit","224","739342","0.0-185.0-0.0","07368596","wem/bandit_either_2","A25YG9M911WA3T","either","3","319","","","","","","","1","0","0","0.3648023512","","0.4","0.6","0.2","0.8","","","","","0.2521048148","0.3648023512","0.1415368311","0.2185662272","","","","","","","","74","J","1","","","145","main_expt"
"","bandit","225","741169","0.0-186.0-0.0","07368596","wem/bandit_either_2","A25YG9M911WA3T","either","3","315","","","","","","","0","0","1","0.3450315","","0.4","0.6","0.2","0.8","","","","","0.2321266643","0.3450315","0.1549520657","0.2209315791","","","","","","","","74","J","1","","","146","main_expt"
"","bandit","226","743070","0.0-187.0-0.0","07368596","wem/bandit_either_2","A25YG9M911WA3T","either","3","382","","","","","","","0","0","1","0.2720321141","","0.4","0.6","0.2","0.8","","","","","0.3159383216","0.2720321141","0.1469310363","0.2889766311","","","","","","","","74","J","1","","","147","main_expt"
"","bandit","227","744888","0.0-188.0-0.0","07368596","wem/bandit_either_2","A25YG9M911WA3T","either","3","308","","","","","","","0","0","1","","0.1332828417","0.4","0.6","0.2","0.8","0.2673485129","0.2598972664","0.1332828417","0.2859466156","","","","","","","","","","","","75","K","2","","","148","main_expt"
"","bandit","228","746784","0.0-189.0-0.0","07368596","wem/bandit_either_2","A25YG9M911WA3T","either","3","387","","","","","","","0","0","1","","0.1102010463","0.4","0.6","0.2","0.8","0.3348600541","0.2343157719","0.1102010463","0.2588478233","","","","","","","","","","","","75","K","2","","","149","main_expt"
"","bandit","229","748655","0.0-190.0-0.0","07368596","wem/bandit_either_2","A25YG9M911WA3T","either","3","360","","","","","","","0","0","1","","0.2451363599","0.4","0.6","0.2","0.8","0.3659656834","0.2451363599","0.1356103494","0.2224653457","","","","","","","","","","","","74","J","1","","","150","main_expt"
"","bandit","230","750263","0.0-191.0-0.0","07368596","wem/bandit_either_2","A25YG9M911WA3T","either","3","89","","","","","","","1","0","0","0.36397653","","0.4","0.6","0.2","0.8","","","","","0.36397653","0.2053737132","0.1621229287","0.2387237716","","","","","","","","72","H","0","img/none_selected.jpg","","151","main_expt"
"","bandit","231","752095","0.0-192.0-0.0","07368596","wem/bandit_either_2","A25YG9M911WA3T","either","3","312","","","","","","","0","0","1","","0.3710672623","0.4","0.6","0.2","0.8","0.3710672623","0.2396242378","0.1412745606","0.2519133504","","","","","","","","","","","","72","H","0","img/none_selected.jpg","","152","main_expt"
"","bandit","232","753850","0.0-193.0-0.0","07368596","wem/bandit_either_2","A25YG9M911WA3T","either","3","241","","","","","","","0","0","1","","0.3828607765","0.4","0.6","0.2","0.8","0.3828607765","0.2923277395","0.1707580034","0.3078499427","","","","","","","","","","","","72","H","0","img/none_selected.jpg","","153","main_expt"
"","bandit","233","755766","0.0-194.0-0.0","07368596","wem/bandit_either_2","A25YG9M911WA3T","either","3","397","","","","","","","0","0","1","0.3166515581","","0.4","0.6","0.2","0.8","","","","","0.3526468527","0.3166515581","0.1717455462","0.3283820497","","","","","","","","74","J","1","","","154","main_expt"
"","bandit","234","757496","0.0-195.0-0.0","07368596","wem/bandit_either_2","A25YG9M911WA3T","either","3","220","","","","","","","0","1","0","","0.3865981945","0.4","0.6","0.2","0.8","0.3865981945","0.3194616596","0.1785539081","0.3303057687","","","","","","","","","","","","72","H","0","img/none_selected.jpg","","155","main_expt"
"","bandit","235","759343","0.0-196.0-0.0","07368596","wem/bandit_either_2","A25YG9M911WA3T","either","3","325","","","","","","","1","0","0","0.4328422877","","0.4","0.6","0.2","0.8","","","","","0.4328422877","0.3767011333","0.2175815231","0.3178912443","","","","","","","","72","H","0","img/none_selected.jpg","","156","main_expt"
"","bandit","236","761191","0.0-197.0-0.0","07368596","wem/bandit_either_2","A25YG9M911WA3T","either","3","330","","","","","","","0","0","1","0.4224906378","","0.4","0.6","0.2","0.8","","","","","0.4224906378","0.3853144204","0.216674397","0.3236874272","","","","","","","","72","H","0","img/none_selected.jpg","","157","main_expt"
"","bandit","237","762935","0.0-198.0-0.0","07368596","wem/bandit_either_2","A25YG9M911WA3T","either","3","223","","","","","","","0","0","1","","0.4428847078","0.4","0.6","0.2","0.8","0.4428847078","0.3519128793","0.2184316938","0.3731337511","","","","","","","","","","","","72","H","0","img/none_selected.jpg","","158","main_expt"
"","bandit","238","764645","0.0-199.0-0.0","07368596","wem/bandit_either_2","A25YG9M911WA3T","either","3","202","","","","","","","1","0","0","0.3758107074","","0.4","0.6","0.2","0.8","","","","","0.4498083842","0.3255157266","0.2603966468","0.3758107074","","","","","","","","76","L","3","","","159","main_expt"
"","bandit","239","766381","0.0-200.0-0.0","07368596","wem/bandit_either_2","A25YG9M911WA3T","either","3","218","","","","","","","0","0","1","0.3494215766","","0.4","0.6","0.2","0.8","","","","","0.4319550234","0.379238532","0.2242017374","0.3494215766","","","","","","","","76","L","3","","","160","main_expt"
"","bandit","240","768191","0.0-201.0-0.0","07368596","wem/bandit_either_2","A25YG9M911WA3T","either","3","301","","","","","","","0","0","1","0.3327111917","","0.4","0.6","0.2","0.8","","","","","0.4417514389","0.3776335756","0.2014027125","0.3327111917","","","","","","","","76","L","3","","","161","main_expt"
"","bandit","241","769992","0.0-202.0-0.0","07368596","wem/bandit_either_2","A25YG9M911WA3T","either","3","278","","","","","","","0","0","1","","0.2038621466","0.4","0.6","0.2","0.8","0.4081293495","0.2955751891","0.2038621466","0.3171011618","","","","","","","","","","","","75","K","2","","","162","main_expt"
"","bandit","242","771613","0.0-203.0-0.0","07368596","wem/bandit_either_2","A25YG9M911WA3T","either","3","114","","","","","","","0","1","0","","0.1238136799","0.4","0.6","0.2","0.8","0.4265776113","0.30851492","0.1238136799","0.364183239","","","","","","","","","","","","75","K","2","","","163","main_expt"
"","bandit","243","773279","0.0-204.0-0.0","07368596","wem/bandit_either_2","A25YG9M911WA3T","either","3","151","","","","","","","0","0","1","","0.1104941302","0.4","0.6","0.2","0.8","0.427472809","0.3074756362","0.1104941302","0.3917374524","","","","","","","","","","","","75","K","2","","","164","main_expt"
"","bandit","244","774945","0.0-205.0-0.0","07368596","wem/bandit_either_2","A25YG9M911WA3T","either","3","150","","","","","","","0","0","1","","0.1099358877","0.4","0.6","0.2","0.8","0.4016343469","0.2743039079","0.1099358877","0.3629360172","","","","","","","","","","","","75","K","2","","","165","main_expt"
"","bandit","245","776799","0.0-206.0-0.0","07368596","wem/bandit_either_2","A25YG9M911WA3T","either","3","342","","","","","","","0","0","1","0.2900226329","","0.4","0.6","0.2","0.8","","","","","0.3578169927","0.2900226329","0.08082918558","0.3697042915","","","","","","","","74","J","1","","","166","main_expt"
"","bandit","246","778520","0.0-207.0-0.0","07368596","wem/bandit_either_2","A25YG9M911WA3T","either","3","197","","","","","","","0","0","1","0.3444017494","","0.4","0.6","0.2","0.8","","","","","0.3346076013","0.3444017494","0.08539074978","0.3626443337","","","","","","","","74","J","1","","","167","main_expt"
"","bandit","247","780064","0.0-208.0-0.0","07368596","wem/bandit_either_2","A25YG9M911WA3T","either","3","23","","","","","","","1","0","0","0.36326211","","0.4","0.6","0.2","0.8","","","","","0.36326211","0.3934904689","0.1307687804","0.3488380128","","","","","","","","72","H","0","img/none_selected.jpg","","168","main_expt"
"","bandit","248","781711","0.0-209.0-0.0","07368596","wem/bandit_either_2","A25YG9M911WA3T","either","3","128","","","","","","","0","0","1","","0.3389060657","0.4","0.6","0.2","0.8","0.3389060657","0.3712778229","0.09435724838","0.3338465455","","","","","","","","","","","","72","H","0","img/none_selected.jpg","","169","main_expt"
"","bandit","249","783397","0.0-210.0-0.0","07368596","wem/bandit_either_2","A25YG9M911WA3T","either","3","176","","","","","","","0","0","1","0.3820287301","","0.4","0.6","0.2","0.8","","","","","0.3820287301","0.3348119161","0.09371103674","0.3675902536","","","","","","","","72","H","0","img/none_selected.jpg","","170","main_expt"
"","bandit","250","785329","0.0-211.0-0.0","07368596","wem/bandit_either_2","A25YG9M911WA3T","either","3","418","","","","","","","0","0","1","0.3697689907","","0.4","0.6","0.2","0.8","","","","","0.3738350687","0.3697689907","0.0912992704","0.3663425941","","","","","","","","74","J","1","","","171","main_expt"
"","bandit","251","787023","0.0-212.0-0.0","07368596","wem/bandit_either_2","A25YG9M911WA3T","either","3","173","","","","","","","0","0","1","","0.1053216192","0.4","0.6","0.2","0.8","0.3449486646","0.3438364448","0.1053216192","0.3571019768","","","","","","","","","","","","75","K","2","","","172","main_expt"
"","bandit","252","788745","0.0-213.0-0.0","07368596","wem/bandit_either_2","A25YG9M911WA3T","either","3","212","","","","","","","0","0","1","0.383943734","","0.4","0.6","0.2","0.8","","","","","0.3754463001","0.4064517123","0.1119971747","0.383943734","","","","","","","","76","L","3","","","173","main_expt"
"","bandit","253","790384","0.0-214.0-0.0","07368596","wem/bandit_either_2","A25YG9M911WA3T","either","3","126","","","","","","","0","0","1","0.1049574405","","0.4","0.6","0.2","0.8","","","","","0.3983783957","0.4266345201","0.1049574405","0.378453819","","","","","","","","75","K","2","","","174","main_expt"
"","bandit","254","792079","0.0-215.0-0.0","07368596","wem/bandit_either_2","A25YG9M911WA3T","either","3","173","","","","","","","0","0","1","0.4413212306","","0.4","0.6","0.2","0.8","","","","","0.4176958341","0.4413212306","0.07351671593","0.3577460836","","","","","","","","74","J","1","","","175","main_expt"
"","bandit","255","793813","0.0-216.0-0.0","07368596","wem/bandit_either_2","A25YG9M911WA3T","either","3","213","","","","","","","0","1","0","","0.4336280271","0.4","0.6","0.2","0.8","0.4336280271","0.438548454","0.06097876817","0.3346789668","","","","","","","","","","","","72","H","0","img/none_selected.jpg","","176","main_expt"
"","bandit","256","795503","0.0-217.0-0.0","07368596","wem/bandit_either_2","A25YG9M911WA3T","either","3","181","","","","","","","0","1","0","","0.3863917124","0.4","0.6","0.2","0.8","0.3863917124","0.4350726265","0.05873143133","0.3720341948","","","","","","","","","","","","72","H","0","img/none_selected.jpg","","177","main_expt"
"","bandit","257","797231","0.0-218.0-0.0","07368596","wem/bandit_either_2","A25YG9M911WA3T","either","3","215","","","","","","","0","0","1","","0.3826512014","0.4","0.6","0.2","0.8","0.3826512014","0.4029859975","0.07829718294","0.4243236705","","","","","","","","","","","","72","H","0","img/none_selected.jpg","","178","main_expt"
"","bandit","258","798959","0.0-219.0-0.0","07368596","wem/bandit_either_2","A25YG9M911WA3T","either","3","209","","","","","","","0","0","1","","0.3681046487","0.4","0.6","0.2","0.8","0.3681046487","0.3738585124","0.05868413977","0.4396564102","","","","","","","","","","","","72","H","0","img/none_selected.jpg","","179","main_expt"
"","bandit","259","800601","0.0-220.0-0.0","07368596","wem/bandit_either_2","A25YG9M911WA3T","either","3","127","","","","","","","0","1","0","","0.3884150149","0.4","0.6","0.2","0.8","0.374340785","0.3884150149","0.04540529238","0.4501825932","","","","","","","","","","","","74","J","1","","","180","main_expt"
"","bandit","260","802328","0.0-221.0-0.0","07368596","wem/bandit_either_2","A25YG9M911WA3T","either","3","206","","","","","","","0","0","1","","0.3977335033","0.4","0.6","0.2","0.8","0.3844034803","0.3977335033","0.04810206047","0.4527537228","","","","","","","","","","","","74","J","1","","","181","main_expt"
"","bandit","261","804118","0.0-222.0-0.0","07368596","wem/bandit_either_2","A25YG9M911WA3T","either","3","265","","","","","","","0","0","1","","0.4194204302","0.4","0.6","0.2","0.8","0.3569363444","0.4194204302","0.0564969073","0.4733821952","","","","","","","","","","","","74","J","1","","","182","main_expt"
"","bandit","262","805735","0.0-223.0-0.0","07368596","wem/bandit_either_2","A25YG9M911WA3T","either","3","93","","","","","","","0","0","1","0.4741352064","","0.4","0.6","0.2","0.8","","","","","0.3930074682","0.4050300101","0.06674959941","0.4741352064","","","","","","","","76","L","3","","","183","main_expt"
"","bandit","263","807521","0.0-224.0-0.0","07368596","wem/bandit_either_2","A25YG9M911WA3T","either","3","273","","","","","","","0","0","1","0.4835015011","","0.4","0.6","0.2","0.8","","","","","0.4105724965","0.4272992256","0.05730522946","0.4835015011","","","","","","","","76","L","3","","","184","main_expt"
"","bandit","264","809272","0.0-225.0-0.0","07368596","wem/bandit_either_2","A25YG9M911WA3T","either","3","227","","","","","","","0","0","1","","0.0759668512","0.4","0.6","0.2","0.8","0.4230276401","0.4213026748","0.0759668512","0.4907566516","","","","","","","","","","","","75","K","2","","","185","main_expt"
"","bandit","265","810943","0.0-226.0-0.0","07368596","wem/bandit_either_2","A25YG9M911WA3T","either","3","153","","","","","","","1","0","0","0.4243078066","","0.4","0.6","0.2","0.8","","","","","0.4243078066","0.3729626057","0.0736669194","0.4777100538","","","","","","","","72","H","0","img/none_selected.jpg","","186","main_expt"
"","bandit","266","812719","0.0-227.0-0.0","07368596","wem/bandit_either_2","A25YG9M911WA3T","either","3","267","","","","","","","0","0","1","","0.419104652","0.4","0.6","0.2","0.8","0.419104652","0.4022080601","0.1020870739","0.4751658893","","","","","","","","","","","","72","H","0","img/none_selected.jpg","","187","main_expt"
"","bandit","267","814485","0.0-228.0-0.0","07368596","wem/bandit_either_2","A25YG9M911WA3T","either","3","251","","","","","","","0","0","1","","0.3917910895","0.4","0.6","0.2","0.8","0.3917910895","0.4218987807","0.110066606","0.4711403756","","","","","","","","","","","","72","H","0","img/none_selected.jpg","","188","main_expt"
"","bandit","268","816025","0.0-229.0-0.0","07368596","wem/bandit_either_2","A25YG9M911WA3T","either","3","12","","","","","","","0","1","0","","0.3696037293","0.4","0.6","0.2","0.8","0.3696037293","0.4284519853","0.1616324423","0.4848283219","","","","","","","","","","","","72","H","0","img/none_selected.jpg","","189","main_expt"
"","bandit","269","817726","0.0-230.0-0.0","07368596","wem/bandit_either_2","A25YG9M911WA3T","either","3","183","","","","","","","0","0","1","","0.3722688899","0.4","0.6","0.2","0.8","0.3722688899","0.4104863902","0.1401199573","0.4906713727","","","","","","","","","","","","72","H","0","img/none_selected.jpg","","190","main_expt"
"","bandit","270","819238","0.0-231.0-0.0","07368596","wem/bandit_either_2","A25YG9M911WA3T","either","3","1","","","","","","","0","0","1","","0.3956575009","0.4","0.6","0.2","0.8","0.3956575009","0.4071825693","0.1782786715","0.4944082075","","","","","","","","","","","","72","H","0","img/none_selected.jpg","","191","main_expt"
"","bandit","271","820800","0.0-232.0-0.0","07368596","wem/bandit_either_2","A25YG9M911WA3T","either","3","41","","","","","","","0","0","1","0.3843500594","","0.4","0.6","0.2","0.8","","","","","0.3843500594","0.4172763132","0.203517815","0.4922337742","","","","","","","","72","H","0","img/none_selected.jpg","","192","main_expt"
"","bandit","272","822752","0.0-233.0-0.0","07368596","wem/bandit_either_2","A25YG9M911WA3T","either","3","443","","","","","","","0","1","0","","0.3801723293","0.4","0.6","0.2","0.8","0.3801723293","0.3965334946","0.172030281","0.4887356563","","","","","","","","","","","","72","H","0","img/none_selected.jpg","","193","main_expt"
"","bandit","273","824592","0.0-234.0-0.0","07368596","wem/bandit_either_2","A25YG9M911WA3T","either","3","326","","","","","","","0","0","1","0.3871645121","","0.4","0.6","0.2","0.8","","","","","0.3871645121","0.383316574","0.1813301739","0.4850955297","","","","","","","","72","H","0","img/none_selected.jpg","","194","main_expt"
"","bandit","274","826566","0.0-235.0-0.0","07368596","wem/bandit_either_2","A25YG9M911WA3T","either","3","451","","","","","","","1","0","0","0.3965345796","","0.4","0.6","0.2","0.8","","","","","0.3633903175","0.3965345796","0.2284295163","0.4848341758","","","","","","","","74","J","1","","","195","main_expt"
"","bandit","275","828287","0.0-236.0-0.0","07368596","wem/bandit_either_2","A25YG9M911WA3T","either","3","198","","","","","","","0","0","1","0.3978469093","","0.4","0.6","0.2","0.8","","","","","0.3811675741","0.3978469093","0.2501246714","0.490049139","","","","","","","","74","J","1","","","196","main_expt"
"","bandit","276","830174","0.0-237.0-0.0","07368596","wem/bandit_either_2","A25YG9M911WA3T","either","3","362","","","","","","","0","1","0","","0.3172926233","0.4","0.6","0.2","0.8","0.3487868089","0.3172926233","0.3150809007","0.4912643012","","","","","","","","","","","","74","J","1","","","197","main_expt"
"","bandit","277","831937","0.0-238.0-0.0","07368596","wem/bandit_either_2","A25YG9M911WA3T","either","3","247","","","","","","","0","1","0","","0.3113170709","0.4","0.6","0.2","0.8","0.2986771554","0.3113170709","0.3442077965","0.4793615714","","","","","","","","","","","","74","J","1","","","198","main_expt"
"","bandit","278","833758","0.0-239.0-0.0","07368596","wem/bandit_either_2","A25YG9M911WA3T","either","3","300","","","","","","","0","0","1","0.3066116159","","0.4","0.6","0.2","0.8","","","","","0.3481418533","0.3066116159","0.3675051223","0.4661622676","","","","","","","","74","J","1","","","199","main_expt"
"","bandit","279","835501","0.0-240.0-0.0","07368596","wem/bandit_either_2","A25YG9M911WA3T","either","3","234","","","","","","","0","0","1","0.2521122026","","0.4","0.6","0.2","0.8","","","","","0.353319573","0.2521122026","0.3044821291","0.4479238565","","","","","","","","74","J","1","","","200","main_expt"
"","bandit","280","837305","0.0-241.0-0.0","07368596","wem/bandit_either_2","A25YG9M911WA3T","either","3","276","","","","","","","0","1","0","","0.2679963248","0.4","0.6","0.2","0.8","0.3676338631","0.2679963248","0.3013824411","0.4429166455","","","","","","","","","","","","74","J","1","","","201","main_expt"
"","bandit","281","839136","0.0-242.0-0.0","07368596","wem/bandit_either_2","A25YG9M911WA3T","either","3","307","","","","","","","0","0","1","0.2076546236","","0.4","0.6","0.2","0.8","","","","","0.311657493","0.2076546236","0.3001954661","0.442820363","","","","","","","","74","J","1","","","202","main_expt"
"","bandit","282","840839","0.0-243.0-0.0","07368596","wem/bandit_either_2","A25YG9M911WA3T","either","3","185","","","","","","","0","0","1","","0.1881707852","0.4","0.6","0.2","0.8","0.3364041998","0.1881707852","0.3189156814","0.4539008368","","","","","","","","","","","","74","J","1","","","203","main_expt"
"","bandit","283","842680","0.0-244.0-0.0","07368596","wem/bandit_either_2","A25YG9M911WA3T","either","3","319","","","","","","","1","0","0","0.2057853427","","0.4","0.6","0.2","0.8","","","","","0.3148670147","0.2057853427","0.3162062407","0.4163307037","","","","","","","","74","J","1","","","204","main_expt"
"","bandit","284","844502","0.0-245.0-0.0","07368596","wem/bandit_either_2","A25YG9M911WA3T","either","3","312","","","","","","","1","0","0","0.2564451259","","0.4","0.6","0.2","0.8","","","","","0.3293187519","0.2564451259","0.347278619","0.4045388199","","","","","","","","74","J","1","","","205","main_expt"
"","bandit","285","846278","0.0-246.0-0.0","07368596","wem/bandit_either_2","A25YG9M911WA3T","either","3","260","","","","","","","0","0","1","0.3082896296","","0.4","0.6","0.2","0.8","","","","","0.2705077244","0.3082896296","0.2970129147","0.4083422121","","","","","","","","74","J","1","","","206","main_expt"
"","bandit","286","847949","0.0-247.0-0.0","07368596","wem/bandit_either_2","A25YG9M911WA3T","either","3","153","","","","","","","0","0","1","0.3235103938","","0.4","0.6","0.2","0.8","","","","","0.3083591011","0.3235103938","0.3331481178","0.4033585138","","","","","","","","74","J","1","","","207","main_expt"
"","bandit","287","849623","0.0-248.0-0.0","07368596","wem/bandit_either_2","A25YG9M911WA3T","either","3","159","","","","","","","0","0","1","0.3563539536","","0.4","0.6","0.2","0.8","","","","","0.2489273718","0.3563539536","0.3195917859","0.3753320851","","","","","","","","74","J","1","","","208","main_expt"
"","bandit","288","851783","0.0-249.0-0.0","07368596","wem/bandit_either_2","A25YG9M911WA3T","either","3","637","","","","","","","0","0","1","","0.3642345195","0.4","0.6","0.2","0.8","0.2224321457","0.3821305916","0.3642345195","0.3864970555","","","","","","","","","","","","75","K","2","","","209","main_expt"
"","bandit","289","853486","0.0-250.0-0.0","07368596","wem/bandit_either_2","A25YG9M911WA3T","either","3","189","","","","","","","0","1","0","","0.3518797164","0.4","0.6","0.2","0.8","0.2184729634","0.4067483812","0.3518797164","0.3894881908","","","","","","","","","","","","75","K","2","","","210","main_expt"
"","bandit","290","855227","0.0-251.0-0.0","07368596","wem/bandit_either_2","A25YG9M911WA3T","either","3","222","","","","","","","1","0","0","0.3781537602","","0.4","0.6","0.2","0.8","","","","","0.2178464352","0.376825818","0.3781537602","0.4052823736","","","","","","","","75","K","2","","","211","main_expt"
"","bandit","291","857079","0.0-252.0-0.0","07368596","wem/bandit_either_2","A25YG9M911WA3T","either","3","336","","","","","","","0","0","1","","0.3773353051","0.4","0.6","0.2","0.8","0.1644702768","0.3481764155","0.3773353051","0.3783189977","","","","","","","","","","","","75","K","2","","","212","main_expt"
"","bandit","292","858822","0.0-253.0-0.0","07368596","wem/bandit_either_2","A25YG9M911WA3T","either","3","220","","","","","","","0","0","1","","0.3448860985","0.4","0.6","0.2","0.8","0.1271660564","0.3239198888","0.3448860985","0.3804187243","","","","","","","","","","","","75","K","2","","","213","main_expt"
"","bandit","293","860640","0.0-254.0-0.0","07368596","wem/bandit_either_2","A25YG9M911WA3T","either","3","307","","","","","","","0","0","1","","0.3622000499","0.4","0.6","0.2","0.8","0.1368129038","0.3592643085","0.3622000499","0.3964056757","","","","","","","","","","","","75","K","2","","","214","main_expt"
"","bandit","294","862169","0.0-255.0-0.0","07368596","wem/bandit_either_2","A25YG9M911WA3T","either","3","3","","","","","","","0","1","0","","0.3482739819","0.4","0.6","0.2","0.8","0.07615368859","0.3482739819","0.3408682726","0.3939862607","","","","","","","","","","","","74","J","1","","","215","main_expt"
"","bandit","295","863862","0.0-256.0-0.0","07368596","wem/bandit_either_2","A25YG9M911WA3T","either","3","176","","","","","","","0","0","1","","0.2972527025","0.4","0.6","0.2","0.8","0.07711559412","0.2972527025","0.328819006","0.4062496234","","","","","","","","","","","","74","J","1","","","216","main_expt"
"","bandit","296","865583","0.0-257.0-0.0","07368596","wem/bandit_either_2","A25YG9M911WA3T","either","3","208","","","","","","","0","0","1","","0.2850944341","0.4","0.6","0.2","0.8","0.07728173513","0.2850944341","0.3229374792","0.3440498305","","","","","","","","","","","","74","J","1","","","217","main_expt"
"","bandit","297","867279","0.0-258.0-0.0","07368596","wem/bandit_either_2","A25YG9M911WA3T","either","3","173","","","","","","","1","0","0","0.3198020565","","0.4","0.6","0.2","0.8","","","","","0.07919919155","0.2483413171","0.3616220652","0.3198020565","","","","","","","","76","L","3","","","218","main_expt"
"","bandit","298","868977","0.0-259.0-0.0","07368596","wem/bandit_either_2","A25YG9M911WA3T","either","3","168","","","","","","","1","0","0","0.3078290176","","0.4","0.6","0.2","0.8","","","","","0.1270410367","0.2680513607","0.3591176528","0.3078290176","","","","","","","","76","L","3","","","219","main_expt"
"","bandit","299","870709","0.0-260.0-0.0","07368596","wem/bandit_either_2","A25YG9M911WA3T","either","3","225","","","","","","","0","0","1","0.2961895162","","0.4","0.6","0.2","0.8","","","","","0.1117499599","0.304668496","0.2758994579","0.2961895162","","","","","","","","76","L","3","","","220","main_expt"
"","bandit","300","872525","0.0-261.0-0.0","07368596","wem/bandit_either_2","A25YG9M911WA3T","either","3","304","","","","","","","0","0","1","0.2658603678","","0.4","0.6","0.2","0.8","","","","","0.1186324211","0.2773284289","0.3119987931","0.2658603678","","","","","","","","76","L","3","","","221","main_expt"
"","bandit","301","874287","0.0-262.0-0.0","07368596","wem/bandit_either_2","A25YG9M911WA3T","either","3","243","","","","","","","0","0","1","","0.274695037","0.4","0.6","0.2","0.8","0.1141050397","0.2152506718","0.3106374463","0.274695037","","","","","","","","","","","","76","L","3","","","222","main_expt"
"","bandit","302","875927","0.0-263.0-0.0","07368596","wem/bandit_either_2","A25YG9M911WA3T","either","3","118","","","","","","","0","0","1","0.2210940289","","0.4","0.6","0.2","0.8","","","","","0.1007228699","0.2445797097","0.3131570504","0.2210940289","","","","","","","","76","L","3","","","223","main_expt"
"","bandit","303","877982","0.0-264.0-0.0","07368596","wem/bandit_either_2","A25YG9M911WA3T","either","3","532","","","","","","","0","0","1","0.1380584308","","0.4","0.6","0.2","0.8","","","","","0.1380584308","0.2559263424","0.3025994915","0.1843933297","","","","","","","","72","H","0","img/none_selected.jpg","","224","main_expt"
"","bandit","304","879671","0.0-265.0-0.0","07368596","wem/bandit_either_2","A25YG9M911WA3T","either","3","168","","","","","","","0","0","1","0.1393521225","","0.4","0.6","0.2","0.8","","","","","0.1393521225","0.2702522324","0.2994132709","0.212211923","","","","","","","","72","H","0","img/none_selected.jpg","","225","main_expt"
"","bandit","305","881366","0.0-266.0-0.0","07368596","wem/bandit_either_2","A25YG9M911WA3T","either","3","178","","","","","","","0","0","1","","0.2646860425","0.4","0.6","0.2","0.8","0.2094269877","0.2646860425","0.2866794375","0.2315036379","","","","","","","","","","","","74","J","1","","","226","main_expt"
"","bandit","306","882940","0.0-267.0-0.0","07368596","wem/bandit_either_2","A25YG9M911WA3T","either","3","53","","","","","","","1","0","0","0.269556559","","0.4","0.6","0.2","0.8","","","","","0.2959232149","0.269556559","0.2299222882","0.2646353212","","","","","","","","74","J","1","","","227","main_expt"
"","bandit","307","884654","0.0-268.0-0.0","07368596","wem/bandit_either_2","A25YG9M911WA3T","either","3","206","","","","","","","0","0","1","0.2498152532","","0.4","0.6","0.2","0.8","","","","","0.374355758","0.2498152532","0.2991813551","0.2443517867","","","","","","","","74","J","1","","","228","main_expt"
"","bandit","308","886391","0.0-269.0-0.0","07368596","wem/bandit_either_2","A25YG9M911WA3T","either","3","225","","","","","","","0","0","1","0.2495566458","","0.4","0.6","0.2","0.8","","","","","0.3876740502","0.2495566458","0.3295538921","0.2569692975","","","","","","","","74","J","1","","","229","main_expt"
"","bandit","309","888159","0.0-270.0-0.0","07368596","wem/bandit_either_2","A25YG9M911WA3T","either","3","242","","","","","","","0","0","1","","0.2713593359","0.4","0.6","0.2","0.8","0.3341674595","0.2134382902","0.2713593359","0.2490290172","","","","","","","","","","","","75","K","2","","","230","main_expt"
"","bandit","310","889942","0.0-271.0-0.0","07368596","wem/bandit_either_2","A25YG9M911WA3T","either","3","270","","","","","","","0","0","1","","0.2746975787","0.4","0.6","0.2","0.8","0.3558281537","0.2099205747","0.2746975787","0.2368643707","","","","","","","","","","","","75","K","2","","","231","main_expt"
"","bandit","311","891591","0.0-272.0-0.0","07368596","wem/bandit_either_2","A25YG9M911WA3T","either","3","136","","","","","","","0","0","1","","0.3293076861","0.4","0.6","0.2","0.8","0.3293076861","0.1598609145","0.2817934899","0.2857324616","","","","","","","","","","","","72","H","0","img/none_selected.jpg","","232","main_expt"
"","bandit","312","893359","0.0-273.0-0.0","07368596","wem/bandit_either_2","A25YG9M911WA3T","either","3","258","","","","","","","0","0","1","0.1472569172","","0.4","0.6","0.2","0.8","","","","","0.3271309306","0.1472569172","0.3139736629","0.226619475","","","","","","","","74","J","1","","","233","main_expt"
"","bandit","313","895214","0.0-274.0-0.0","07368596","wem/bandit_either_2","A25YG9M911WA3T","either","3","338","","","","","","","0","0","1","","0.2448251662","0.4","0.6","0.2","0.8","0.3510228885","0.1123375355","0.3332560948","0.2448251662","","","","","","","","","","","","76","L","3","","","234","main_expt"
"","bandit","314","896791","0.0-275.0-0.0","07368596","wem/bandit_either_2","A25YG9M911WA3T","either","3","56","","","","","","","1","0","0","0.2996798263","","0.4","0.6","0.2","0.8","","","","","0.3346663699","0.1562424728","0.3475281657","0.2996798263","","","","","","","","76","L","3","","","235","main_expt"
"","bandit","315","898622","0.0-276.0-0.0","07368596","wem/bandit_either_2","A25YG9M911WA3T","either","3","306","","","","","","","1","0","0","0.3220329496","","0.4","0.6","0.2","0.8","","","","","0.332043614","0.1623269298","0.3170984437","0.3220329496","","","","","","","","76","L","3","","","236","main_expt"
"","bandit","316","900311","0.0-277.0-0.0","07368596","wem/bandit_either_2","A25YG9M911WA3T","either","3","164","","","","","","","1","0","0","0.3672390457","","0.4","0.6","0.2","0.8","","","","","0.2780661838","0.1362759337","0.3611259067","0.3672390457","","","","","","","","76","L","3","","","237","main_expt"
"","bandit","317","901929","0.0-278.0-0.0","07368596","wem/bandit_either_2","A25YG9M911WA3T","either","3","90","","","","","","","1","0","0","0.3702030288","","0.4","0.6","0.2","0.8","","","","","0.3071002506","0.1282223372","0.3449339383","0.3702030288","","","","","","","","76","L","3","","","238","main_expt"
"","bandit","318","903534","0.0-279.0-0.0","07368596","wem/bandit_either_2","A25YG9M911WA3T","either","3","80","","","","","","","0","0","1","0.3486367063","","0.4","0.6","0.2","0.8","","","","","0.3101279526","0.08262393641","0.3006984684","0.3486367063","","","","","","","","76","L","3","","","239","main_expt"
"","bandit","319","905145","0.0-280.0-0.0","07368596","wem/bandit_either_2","A25YG9M911WA3T","either","3","89","","","","","","","0","0","1","0.3422639114","","0.4","0.6","0.2","0.8","","","","","0.3071576631","0.09366491666","0.3355390738","0.3422639114","","","","","","","","76","L","3","","","240","main_expt"
"","bandit","320","906671","0.0-281.0-0.0","07368596","wem/bandit_either_2","A25YG9M911WA3T","either","3","0","","","","","","","0","0","1","0.3703795114","","0.4","0.6","0.2","0.8","","","","","0.3213727252","0.09778426954","0.3513118525","0.3703795114","","","","","","","","76","L","3","","","241","main_expt"
"","bandit","321","908190","0.0-282.0-0.0","07368596","wem/bandit_either_2","A25YG9M911WA3T","either","3","10","","","","","","","0","0","1","0.3362310887","","0.4","0.6","0.2","0.8","","","","","0.3303042821","0.0684580113","0.2871404103","0.3362310887","","","","","","","","76","L","3","","","242","main_expt"
"","bandit","322","909815","0.0-283.0-0.0","07368596","wem/bandit_either_2","A25YG9M911WA3T","either","3","96","","","","","","","0","0","1","0.386578507","","0.4","0.6","0.2","0.8","","","","","0.386578507","0.05756719403","0.2582353252","0.3855302341","","","","","","","","72","H","0","img/none_selected.jpg","","243","main_expt"
"","bandit","323","911392","0.0-284.0-0.0","07368596","wem/bandit_either_2","A25YG9M911WA3T","either","3","58","","","","","","","0","1","0","","0.3582196724","0.4","0.6","0.2","0.8","0.3582196724","0.07954378931","0.2108553612","0.3504604058","","","","","","","","","","","","72","H","0","img/none_selected.jpg","","244","main_expt"
"","bandit","324","913110","0.0-285.0-0.0","07368596","wem/bandit_either_2","A25YG9M911WA3T","either","3","195","","","","","","","0","0","1","","0.3626170977","0.4","0.6","0.2","0.8","0.3626170977","0.07668718344","0.190308294","0.3586275713","","","","","","","","","","","","72","H","0","img/none_selected.jpg","","245","main_expt"
"","bandit","325","914781","0.0-286.0-0.0","07368596","wem/bandit_either_2","A25YG9M911WA3T","either","3","162","","","","","","","0","0","1","","0.2778980274","0.4","0.6","0.2","0.8","0.2778980274","0.08627194322","0.2079876503","0.3202710015","","","","","","","","","","","","72","H","0","img/none_selected.jpg","","246","main_expt"
"","bandit","326","916308","0.0-287.0-0.0","07368596","wem/bandit_either_2","A25YG9M911WA3T","either","3","19","","","","","","","0","0","1","0.2053262284","","0.4","0.6","0.2","0.8","","","","","0.2864864277","0.1009858539","0.2053262284","0.2874587678","","","","","","","","75","K","2","","","247","main_expt"
