"consent","trial_type","trial_index","time_elapsed","internal_node_id","subjID","study","MID","cond","drift","rt","responses","key_press","expt_phase","like","value","connected","gems","bombs","no_reward","GemPrChosen","BombPrChosen","GainOverPainPr_0","GainOverPainPr_1","GainOverPainPr_2","GainOverPainPr_3","LosePr_0","LosePr_1","LosePr_2","LosePr_3","WinPr_0","WinPr_1","WinPr_2","WinPr_3","Q0","Q1","Q2","gender","age","ethnicity","target","respCharCode","respKey","respChoiceNum","respChoice","practice","trial_counter","trial_label"
"INL_behavioral_consent_30min_online.html","consent","0","16132","0.0-0.0","07690975","wem/bandit_either_2","A1FYTTGF0QACU9","either","4","","","","","","","","","","","","","","","","","","","","","","","","","","","","","","","","","","","","","",""
"","survey-text","1","25735","0.0-1.0","07690975","wem/bandit_either_2","A1FYTTGF0QACU9","either","4","8562","{""Q0"":""A1FYTTGF0QACU9""}","","","","","","","","","","","","","","","","","","","","","","","","","","","","","","","","","","","",""
"","text","2","45139","0.0-2.0","07690975","wem/bandit_either_2","A1FYTTGF0QACU9","either","4","18388","","32","","","","","","","","","","","","","","","","","","","","","","","","","","","","","","","","","","",""
"","text","3","69492","0.0-3.0","07690975","wem/bandit_either_2","A1FYTTGF0QACU9","either","4","24340","","32","","","","","","","","","","","","","","","","","","","","","","","","","","","","","","","","","","",""
"","text","4","101958","0.0-4.0","07690975","wem/bandit_either_2","A1FYTTGF0QACU9","either","4","32455","","32","","","","","","","","","","","","","","","","","","","","","","","","","","","","","","","","","","",""
"","text","5","149937","0.0-5.0","07690975","wem/bandit_either_2","A1FYTTGF0QACU9","either","4","47973","","32","","","","","","","","","","","","","","","","","","","","","","","","","","","","","","","","","","",""
"","text","6","211321","0.0-6.0","07690975","wem/bandit_either_2","A1FYTTGF0QACU9","either","4","61379","","32","","","","","","","","","","","","","","","","","","","","","","","","","","","","","","","","","","",""
"","text","7","222457","0.0-7.0","07690975","wem/bandit_either_2","A1FYTTGF0QACU9","either","4","11131","","32","","","","","","","","","","","","","","","","","","","","","","","","","","","","","","","","","","",""
"","text","8","231182","0.0-8.0","07690975","wem/bandit_either_2","A1FYTTGF0QACU9","either","4","8721","","32","","","","","","","","","","","","","","","","","","","","","","","","","","","","","","","","","","",""
"","identification","9","248407","0.0-9.0-0.0","07690975","wem/bandit_either_2","A1FYTTGF0QACU9","either","4","17183","","","","6","6","6","","","","","","","","","","","","","","","","","","","","","","","","the village of Zur","","","","","","",""
"","identification","10","259287","0.0-9.0-1.0","07690975","wem/bandit_either_2","A1FYTTGF0QACU9","either","4","9825","","","","0","0","0","","","","","","","","","","","","","","","","","","","","","","","","the village of Nyx","","","","","","",""
"","text","11","281816","0.0-10.0","07690975","wem/bandit_either_2","A1FYTTGF0QACU9","either","4","21508","","32","","","","","","","","","","","","","","","","","","","","","","","","","","","","","","","","","","",""
"","text","12","287795","0.0-11.0","07690975","wem/bandit_either_2","A1FYTTGF0QACU9","either","4","5973","","32","","","","","","","","","","","","","","","","","","","","","","","","","","","","","","","","","","",""
"","text","13","293624","0.0-12.0","07690975","wem/bandit_either_2","A1FYTTGF0QACU9","either","4","5821","","32","","","","","","","","","","","","","","","","","","","","","","","","","","","","","","","","","","",""
"","text","14","301552","0.0-13.0","07690975","wem/bandit_either_2","A1FYTTGF0QACU9","either","4","7920","","32","","","","","","","","","","","","","","","","","","","","","","","","","","","","","","","","","","",""
"","bandit","15","305075","0.0-14.0-0.0","07690975","wem/bandit_either_2","A1FYTTGF0QACU9","either","4","1976","","","","","","","0","0","1","0","0","","","","","0","","","","0","","","","","","","","","","","74","J","0","img/none_selected_demo.jpg","true","0",""
"","bandit","16","308359","0.0-15.0-0.0","07690975","wem/bandit_either_2","A1FYTTGF0QACU9","either","4","1313","","","","","","","0","0","1","0","0","","","","","0","","","","0","","","","","","","","","","","75","K","0","img/none_selected_demo.jpg","true","0",""
"","text","17","322880","0.0-16.0","07690975","wem/bandit_either_2","A1FYTTGF0QACU9","either","4","14515","","32","","","","","","","","","","","","","","","","","","","","","","","","","","","","","","","","","","",""
"","text","18","343840","0.0-17.0","07690975","wem/bandit_either_2","A1FYTTGF0QACU9","either","4","20947","","32","","","","","","","","","","","","","","","","","","","","","","","","","","","","","","","","","","",""
"","text","19","356929","0.0-18.0","07690975","wem/bandit_either_2","A1FYTTGF0QACU9","either","4","13083","","32","","","","","","","","","","","","","","","","","","","","","","","","","","","","","","","","","","",""
"","text","20","364432","0.0-19.0","07690975","wem/bandit_either_2","A1FYTTGF0QACU9","either","4","7494","","32","","","","","","","","","","","","","","","","","","","","","","","","","","","","","","","","","","",""
"","bandit","21","367132","0.0-20.0-0.0","07690975","wem/bandit_either_2","A1FYTTGF0QACU9","either","4","1149","","","","","","","0","1","0","","0.8","0.5","0.5","","","0.8","0.2","","","","","","","","","","","","","","74","J","0","img/none_selected_demo.jpg","true","0","80_20_practice"
"","bandit","22","369691","0.0-20.0-1.0","07690975","wem/bandit_either_2","A1FYTTGF0QACU9","either","4","985","","","","","","","0","0","1","","0.2","0.5","0.5","","","0.8","0.2","","","","","","","","","","","","","","75","K","1","","true","0","80_20_practice"
"","bandit","23","372332","0.0-20.0-2.0","07690975","wem/bandit_either_2","A1FYTTGF0QACU9","either","4","1114","","","","","","","0","1","0","","0.8","0.5","0.5","","","0.8","0.2","","","","","","","","","","","","","","74","J","0","img/none_selected_demo.jpg","true","0","80_20_practice"
"","bandit","24","374341","0.0-20.0-3.0","07690975","wem/bandit_either_2","A1FYTTGF0QACU9","either","4","474","","","","","","","0","0","1","","0.2","0.5","0.5","","","0.8","0.2","","","","","","","","","","","","","","75","K","1","","true","0","80_20_practice"
"","bandit","25","376584","0.0-20.0-4.0","07690975","wem/bandit_either_2","A1FYTTGF0QACU9","either","4","718","","","","","","","0","1","0","","0.8","0.5","0.5","","","0.8","0.2","","","","","","","","","","","","","","74","J","0","img/none_selected_demo.jpg","true","0","80_20_practice"
"","bandit","26","378670","0.0-20.0-5.0","07690975","wem/bandit_either_2","A1FYTTGF0QACU9","either","4","539","","","","","","","0","0","1","0.2","","0.5","0.5","","","","","","","0.8","0.2","","","","","","","","","","75","K","1","","true","0","80_20_practice"
"","bandit","27","382569","0.0-20.0-6.0","07690975","wem/bandit_either_2","A1FYTTGF0QACU9","either","4","2370","","","","","","","0","0","1","","0.2","0.5","0.5","","","0.8","0.2","","","","","","","","","","","","","","75","K","1","","true","0","80_20_practice"
"","bandit","28","384549","0.0-20.0-7.0","07690975","wem/bandit_either_2","A1FYTTGF0QACU9","either","4","448","","","","","","","1","0","0","0.8","","0.5","0.5","","","","","","","0.8","0.2","","","","","","","","","","74","J","0","img/none_selected_demo.jpg","true","0","80_20_practice"
"","bandit","29","387181","0.0-20.0-8.0","07690975","wem/bandit_either_2","A1FYTTGF0QACU9","either","4","1097","","","","","","","0","1","0","","0.8","0.5","0.5","","","0.8","0.2","","","","","","","","","","","","","","74","J","0","img/none_selected_demo.jpg","true","0","80_20_practice"
"","bandit","30","389114","0.0-20.0-9.0","07690975","wem/bandit_either_2","A1FYTTGF0QACU9","either","4","397","","","","","","","0","0","1","0.2","","0.5","0.5","","","","","","","0.8","0.2","","","","","","","","","","75","K","1","","true","0","80_20_practice"
"","bandit","31","391316","0.0-20.0-10.0","07690975","wem/bandit_either_2","A1FYTTGF0QACU9","either","4","657","","","","","","","0","0","1","","0.2","0.5","0.5","","","0.8","0.2","","","","","","","","","","","","","","75","K","1","","true","0","80_20_practice"
"","bandit","32","393427","0.0-20.0-11.0","07690975","wem/bandit_either_2","A1FYTTGF0QACU9","either","4","576","","","","","","","0","0","1","0.2","","0.5","0.5","","","","","","","0.8","0.2","","","","","","","","","","75","K","1","","true","0","80_20_practice"
"","bandit","33","394982","0.0-20.0-12.0","07690975","wem/bandit_either_2","A1FYTTGF0QACU9","either","4","16","","","","","","","0","0","1","","0.8","0.5","0.5","","","0.8","0.2","","","","","","","","","","","","","","74","J","0","img/none_selected_demo.jpg","true","0","80_20_practice"
"","bandit","34","397970","0.0-20.0-13.0","07690975","wem/bandit_either_2","A1FYTTGF0QACU9","either","4","1466","","","","","","","1","0","0","0.8","","0.5","0.5","","","","","","","0.8","0.2","","","","","","","","","","74","J","0","img/none_selected_demo.jpg","true","0","80_20_practice"
"","bandit","35","400344","0.0-20.0-14.0","07690975","wem/bandit_either_2","A1FYTTGF0QACU9","either","4","820","","","","","","","0","0","1","0.8","","0.5","0.5","","","","","","","0.8","0.2","","","","","","","","","","74","J","0","img/none_selected_demo.jpg","true","0","80_20_practice"
"","bandit","36","402408","0.0-20.0-15.0","07690975","wem/bandit_either_2","A1FYTTGF0QACU9","either","4","533","","","","","","","0","0","1","0.2","","0.5","0.5","","","","","","","0.8","0.2","","","","","","","","","","75","K","1","","true","0","80_20_practice"
"","bandit","37","404469","0.0-20.0-16.0","07690975","wem/bandit_either_2","A1FYTTGF0QACU9","either","4","519","","","","","","","0","0","1","0.2","","0.5","0.5","","","","","","","0.8","0.2","","","","","","","","","","75","K","1","","true","0","80_20_practice"
"","bandit","38","406206","0.0-20.0-17.0","07690975","wem/bandit_either_2","A1FYTTGF0QACU9","either","4","197","","","","","","","0","0","1","","0.8","0.5","0.5","","","0.8","0.2","","","","","","","","","","","","","","74","J","0","img/none_selected_demo.jpg","true","0","80_20_practice"
"","bandit","39","408139","0.0-20.0-18.0","07690975","wem/bandit_either_2","A1FYTTGF0QACU9","either","4","406","","","","","","","1","0","0","0.8","","0.5","0.5","","","","","","","0.8","0.2","","","","","","","","","","74","J","0","img/none_selected_demo.jpg","true","0","80_20_practice"
"","bandit","40","410069","0.0-20.0-19.0","07690975","wem/bandit_either_2","A1FYTTGF0QACU9","either","4","400","","","","","","","0","0","1","0.8","","0.5","0.5","","","","","","","0.8","0.2","","","","","","","","","","74","J","0","img/none_selected_demo.jpg","true","0","80_20_practice"
"","text","41","419003","0.0-21.0","07690975","wem/bandit_either_2","A1FYTTGF0QACU9","either","4","8922","","32","","","","","","","","","","","","","","","","","","","","","","","","","","","","","","","","","","",""
"","bandit","42","421387","0.0-22.0-0.0","07690975","wem/bandit_either_2","A1FYTTGF0QACU9","either","4","854","","","","","","","1","0","0","1","0","","","","","0","1","","","1","0","","","","","","","","","","74","J","0","img/none_selected_demo.jpg","true","0",""
"","text","43","432789","0.0-23.0","07690975","wem/bandit_either_2","A1FYTTGF0QACU9","either","4","11388","","32","","","","","","","","","","","","","","","","","","","","","","","","","","","","","","","","","","",""
"","text","44","438879","0.0-24.0","07690975","wem/bandit_either_2","A1FYTTGF0QACU9","either","4","6078","","32","","","","","","","","","","","","","","","","","","","","","","","","","","","","","","","","","","",""
"","text","45","445395","0.0-25.0","07690975","wem/bandit_either_2","A1FYTTGF0QACU9","either","4","6498","","32","","","","","","","","","","","","","","","","","","","","","","","","","","","","","","","","","","",""
"","text","46","451457","0.0-26.0","07690975","wem/bandit_either_2","A1FYTTGF0QACU9","either","4","6052","","32","","","","","","","","","","","","","","","","","","","","","","","","","","","","","","","","","","",""
"","text","47","465883","0.0-27.0","07690975","wem/bandit_either_2","A1FYTTGF0QACU9","either","4","14421","","32","","","","","","","","","","","","","","","","","","","","","","","","","","","","","","","","","","",""
"","text","48","473887","0.0-28.0","07690975","wem/bandit_either_2","A1FYTTGF0QACU9","either","4","7999","","32","","","","","","","","","","","","","","","","","","","","","","","","","","","","","","","","","","",""
"","text","49","481763","0.0-29.0","07690975","wem/bandit_either_2","A1FYTTGF0QACU9","either","4","7869","","32","","","","","","","","","","","","","","","","","","","","","","","","","","","","","","","","","","",""
"","text","50","487417","0.0-30.0","07690975","wem/bandit_either_2","A1FYTTGF0QACU9","either","4","5648","","32","","","","","","","","","","","","","","","","","","","","","","","","","","","","","","","","","","",""
"","text","51","495906","0.0-31.0","07690975","wem/bandit_either_2","A1FYTTGF0QACU9","either","4","8483","","32","","","","","","","","","","","","","","","","","","","","","","","","","","","","","","","","","","",""
"","text","52","498554","0.0-32.0","07690975","wem/bandit_either_2","A1FYTTGF0QACU9","either","4","2631","","32","","","","","","","","","","","","","","","","","","","","","","","","","","","","","","","","","","",""
"","text","53","500878","0.0-33.0","07690975","wem/bandit_either_2","A1FYTTGF0QACU9","either","4","2309","","32","","","","","","","","","","","","","","","","","","","","","","","","","","","","","","","","","","",""
"","bandit","54","503452","0.0-34.0-0.0","07690975","wem/bandit_either_2","A1FYTTGF0QACU9","either","4","1042","","","","","","","1","0","0","0.8","","0.5","0.5","0.5","0.5","","","","","0.8","0.2","0.6","0.2","","","","","","","","72","H","0","img/none_selected.jpg","true","0","full_practice"
"","bandit","55","506440","0.0-34.0-1.0","07690975","wem/bandit_either_2","A1FYTTGF0QACU9","either","4","1443","","","","","","","0","0","1","","0.2","0.5","0.5","0.5","0.5","0.8","0.2","0.6","0.2","","","","","","","","","","","","74","J","1","","true","0","full_practice"
"","bandit","56","508345","0.0-34.0-2.0","07690975","wem/bandit_either_2","A1FYTTGF0QACU9","either","4","388","","","","","","","0","0","1","","0.6","0.5","0.5","0.5","0.5","0.8","0.2","0.6","0.2","","","","","","","","","","","","75","K","2","","true","0","full_practice"
"","bandit","57","510291","0.0-34.0-3.0","07690975","wem/bandit_either_2","A1FYTTGF0QACU9","either","4","404","","","","","","","0","0","1","0.2","","0.5","0.5","0.5","0.5","","","","","0.8","0.2","0.6","0.2","","","","","","","","76","L","3","","true","0","full_practice"
"","bandit","58","512222","0.0-34.0-4.0","07690975","wem/bandit_either_2","A1FYTTGF0QACU9","either","4","403","","","","","","","0","1","0","","0.8","0.5","0.5","0.5","0.5","0.8","0.2","0.6","0.2","","","","","","","","","","","","72","H","0","img/none_selected.jpg","true","0","full_practice"
"","bandit","59","514491","0.0-34.0-5.0","07690975","wem/bandit_either_2","A1FYTTGF0QACU9","either","4","731","","","","","","","0","0","1","","0.2","0.5","0.5","0.5","0.5","0.8","0.2","0.6","0.2","","","","","","","","","","","","74","J","1","","true","0","full_practice"
"","bandit","60","516424","0.0-34.0-6.0","07690975","wem/bandit_either_2","A1FYTTGF0QACU9","either","4","389","","","","","","","0","0","1","","0.6","0.5","0.5","0.5","0.5","0.8","0.2","0.6","0.2","","","","","","","","","","","","75","K","2","","true","0","full_practice"
"","bandit","61","518391","0.0-34.0-7.0","07690975","wem/bandit_either_2","A1FYTTGF0QACU9","either","4","435","","","","","","","0","0","1","0.2","","0.5","0.5","0.5","0.5","","","","","0.8","0.2","0.6","0.2","","","","","","","","76","L","3","","true","0","full_practice"
"","bandit","62","520548","0.0-34.0-8.0","07690975","wem/bandit_either_2","A1FYTTGF0QACU9","either","4","615","","","","","","","0","1","0","","0.8","0.5","0.5","0.5","0.5","0.8","0.2","0.6","0.2","","","","","","","","","","","","72","H","0","img/none_selected.jpg","true","0","full_practice"
"","bandit","63","522819","0.0-34.0-9.0","07690975","wem/bandit_either_2","A1FYTTGF0QACU9","either","4","738","","","","","","","0","0","1","0.2","","0.5","0.5","0.5","0.5","","","","","0.8","0.2","0.6","0.2","","","","","","","","74","J","1","","true","0","full_practice"
"","bandit","64","525063","0.0-34.0-10.0","07690975","wem/bandit_either_2","A1FYTTGF0QACU9","either","4","716","","","","","","","1","0","0","0.6","","0.5","0.5","0.5","0.5","","","","","0.8","0.2","0.6","0.2","","","","","","","","75","K","2","","true","0","full_practice"
"","bandit","65","527014","0.0-34.0-11.0","07690975","wem/bandit_either_2","A1FYTTGF0QACU9","either","4","427","","","","","","","0","0","1","0.2","","0.5","0.5","0.5","0.5","","","","","0.8","0.2","0.6","0.2","","","","","","","","76","L","3","","true","0","full_practice"
"","bandit","66","529043","0.0-34.0-12.0","07690975","wem/bandit_either_2","A1FYTTGF0QACU9","either","4","493","","","","","","","0","0","1","","0.8","0.5","0.5","0.5","0.5","0.8","0.2","0.6","0.2","","","","","","","","","","","","72","H","0","img/none_selected.jpg","true","0","full_practice"
"","bandit","67","531295","0.0-34.0-13.0","07690975","wem/bandit_either_2","A1FYTTGF0QACU9","either","4","713","","","","","","","0","0","1","","0.2","0.5","0.5","0.5","0.5","0.8","0.2","0.6","0.2","","","","","","","","","","","","74","J","1","","true","0","full_practice"
"","bandit","68","533193","0.0-34.0-14.0","07690975","wem/bandit_either_2","A1FYTTGF0QACU9","either","4","366","","","","","","","0","1","0","","0.6","0.5","0.5","0.5","0.5","0.8","0.2","0.6","0.2","","","","","","","","","","","","75","K","2","","true","0","full_practice"
"","bandit","69","535281","0.0-34.0-15.0","07690975","wem/bandit_either_2","A1FYTTGF0QACU9","either","4","547","","","","","","","0","0","1","","0.2","0.5","0.5","0.5","0.5","0.8","0.2","0.6","0.2","","","","","","","","","","","","76","L","3","","true","0","full_practice"
"","bandit","70","537454","0.0-34.0-16.0","07690975","wem/bandit_either_2","A1FYTTGF0QACU9","either","4","623","","","","","","","0","1","0","","0.8","0.5","0.5","0.5","0.5","0.8","0.2","0.6","0.2","","","","","","","","","","","","72","H","0","img/none_selected.jpg","true","0","full_practice"
"","bandit","71","539390","0.0-34.0-17.0","07690975","wem/bandit_either_2","A1FYTTGF0QACU9","either","4","401","","","","","","","0","0","1","","0.2","0.5","0.5","0.5","0.5","0.8","0.2","0.6","0.2","","","","","","","","","","","","74","J","1","","true","0","full_practice"
"","bandit","72","542384","0.0-34.0-18.0","07690975","wem/bandit_either_2","A1FYTTGF0QACU9","either","4","1467","","","","","","","0","0","1","0.6","","0.5","0.5","0.5","0.5","","","","","0.8","0.2","0.6","0.2","","","","","","","","75","K","2","","true","0","full_practice"
"","bandit","73","544352","0.0-34.0-19.0","07690975","wem/bandit_either_2","A1FYTTGF0QACU9","either","4","416","","","","","","","0","1","0","","0.2","0.5","0.5","0.5","0.5","0.8","0.2","0.6","0.2","","","","","","","","","","","","76","L","3","","true","0","full_practice"
"","text","74","549446","0.0-35.0","07690975","wem/bandit_either_2","A1FYTTGF0QACU9","either","4","5077","","32","","","","","","","","","","","","","","","","","","","","","","","","","","","","","","","","","","",""
"","text","75","572280","0.0-36.0","07690975","wem/bandit_either_2","A1FYTTGF0QACU9","either","4","21819","","32","","","","","","","","","","","","","","","","","","","","","","","","","","","","","","","","","","",""
"","text","76","582584","0.0-37.0","07690975","wem/bandit_either_2","A1FYTTGF0QACU9","either","4","10293","","32","","","","","","","","","","","","","","","","","","","","","","","","","","","","","","","","","","",""
"","text","77","588767","0.0-38.0","07690975","wem/bandit_either_2","A1FYTTGF0QACU9","either","4","6175","","32","","","","","","","","","","","","","","","","","","","","","","","","","","","","","","","","","","",""
"","text","78","599108","0.0-39.0","07690975","wem/bandit_either_2","A1FYTTGF0QACU9","either","4","10329","","32","","","","","","","","","","","","","","","","","","","","","","","","","","","","","","","","","","",""
"","text","79","609200","0.0-40.0","07690975","wem/bandit_either_2","A1FYTTGF0QACU9","either","4","10084","","32","","","","","","","","","","","","","","","","","","","","","","","","","","","","","","","","","","",""
"","bandit","80","613418","0.0-41.0-0.0","07690975","wem/bandit_either_2","A1FYTTGF0QACU9","either","4","2683","","","","","","","0","1","0","","0.3525715257","0.2","0.8","0.6","0.4","0.2771551185","0.3242650943","0.3525715257","0.3894728165","","","","","","","","","","","","75","K","2","","","1","main_expt"
"","bandit","81","617183","0.0-42.0-0.0","07690975","wem/bandit_either_2","A1FYTTGF0QACU9","either","4","2231","","","","","","","0","0","1","","0.390153736","0.2","0.8","0.6","0.4","0.3030893157","0.3296228245","0.390153736","0.363660736","","","","","","","","","","","","75","K","2","","","2","main_expt"
"","bandit","82","620536","0.0-43.0-0.0","07690975","wem/bandit_either_2","A1FYTTGF0QACU9","either","4","1804","","","","","","","0","0","1","","0.3211059343","0.2","0.8","0.6","0.4","0.3211059343","0.3102780753","0.3725447061","0.3842171554","","","","","","","","","","","","72","H","0","img/none_selected.jpg","","3","main_expt"
"","bandit","83","623426","0.0-44.0-0.0","07690975","wem/bandit_either_2","A1FYTTGF0QACU9","either","4","1347","","","","","","","0","0","1","0.2749892112","","0.2","0.8","0.6","0.4","","","","","0.2804386453","0.2749892112","0.3431524481","0.3831963053","","","","","","","","74","J","1","","","4","main_expt"
"","bandit","84","625533","0.0-45.0-0.0","07690975","wem/bandit_either_2","A1FYTTGF0QACU9","either","4","566","","","","","","","0","1","0","","0.4056596471","0.2","0.8","0.6","0.4","0.2609559086","0.3037824898","0.3448007793","0.4056596471","","","","","","","","","","","","76","L","3","","","5","main_expt"
"","bandit","85","628356","0.0-46.0-0.0","07690975","wem/bandit_either_2","A1FYTTGF0QACU9","either","4","1277","","","","","","","0","0","1","0.4409946319","","0.2","0.8","0.6","0.4","","","","","0.2259287768","0.3217417103","0.3980888019","0.4409946319","","","","","","","","76","L","3","","","6","main_expt"
"","bandit","86","630452","0.0-47.0-0.0","07690975","wem/bandit_either_2","A1FYTTGF0QACU9","either","4","558","","","","","","","0","1","0","","0.3693121862","0.2","0.8","0.6","0.4","0.2433618728","0.3018715163","0.3693121862","0.3821747998","","","","","","","","","","","","75","K","2","","","7","main_expt"
"","bandit","87","633262","0.0-48.0-0.0","07690975","wem/bandit_either_2","A1FYTTGF0QACU9","either","4","1279","","","","","","","0","0","1","0.2933697555","","0.2","0.8","0.6","0.4","","","","","0.2025356769","0.3643645816","0.2933697555","0.3841844813","","","","","","","","75","K","2","","","8","main_expt"
"","bandit","88","635397","0.0-49.0-0.0","07690975","wem/bandit_either_2","A1FYTTGF0QACU9","either","4","599","","","","","","","0","0","1","0.3412237964","","0.2","0.8","0.6","0.4","","","","","0.1441028094","0.3418610374","0.3036212831","0.3412237964","","","","","","","","76","L","3","","","9","main_expt"
"","bandit","89","637469","0.0-50.0-0.0","07690975","wem/bandit_either_2","A1FYTTGF0QACU9","either","4","547","","","","","","","0","1","0","","0.308020301","0.2","0.8","0.6","0.4","0.1736005971","0.3190157878","0.308020301","0.3256420777","","","","","","","","","","","","75","K","2","","","10","main_expt"
"","bandit","90","640282","0.0-51.0-0.0","07690975","wem/bandit_either_2","A1FYTTGF0QACU9","either","4","1257","","","","","","","0","0","1","0.3065973113","","0.2","0.8","0.6","0.4","","","","","0.1836365694","0.2998731478","0.3065973113","0.3514007431","","","","","","","","75","K","2","","","11","main_expt"
"","bandit","91","642635","0.0-52.0-0.0","07690975","wem/bandit_either_2","A1FYTTGF0QACU9","either","4","813","","","","","","","0","1","0","","0.3271859636","0.2","0.8","0.6","0.4","0.2143869662","0.2942822571","0.3271859636","0.3722032088","","","","","","","","","","","","75","K","2","","","12","main_expt"
"","bandit","92","645206","0.0-53.0-0.0","07690975","wem/bandit_either_2","A1FYTTGF0QACU9","either","4","1036","","","","","","","0","0","1","0.2761076709","","0.2","0.8","0.6","0.4","","","","","0.1637139448","0.3009212619","0.2761076709","0.3681707299","","","","","","","","75","K","2","","","13","main_expt"
"","bandit","93","647381","0.0-54.0-0.0","07690975","wem/bandit_either_2","A1FYTTGF0QACU9","either","4","653","","","","","","","0","1","0","","0.3528222564","0.2","0.8","0.6","0.4","0.1488535162","0.3227424667","0.2311164494","0.3528222564","","","","","","","","","","","","76","L","3","","","14","main_expt"
"","bandit","94","650573","0.0-55.0-0.0","07690975","wem/bandit_either_2","A1FYTTGF0QACU9","either","4","1662","","","","","","","0","1","0","","0.3738838661","0.2","0.8","0.6","0.4","0.1332411271","0.3547546862","0.2905977425","0.3738838661","","","","","","","","","","","","76","L","3","","","15","main_expt"
"","bandit","95","653513","0.0-56.0-0.0","07690975","wem/bandit_either_2","A1FYTTGF0QACU9","either","4","1375","","","","","","","0","0","1","0.3385239332","","0.2","0.8","0.6","0.4","","","","","0.09882415698","0.3241157583","0.2924554969","0.3385239332","","","","","","","","76","L","3","","","16","main_expt"
"","bandit","96","655775","0.0-57.0-0.0","07690975","wem/bandit_either_2","A1FYTTGF0QACU9","either","4","724","","","","","","","1","0","0","0.3114836302","","0.2","0.8","0.6","0.4","","","","","0.1069157009","0.3363410386","0.3114836302","0.3111355138","","","","","","","","75","K","2","","","17","main_expt"
"","bandit","97","658688","0.0-58.0-0.0","07690975","wem/bandit_either_2","A1FYTTGF0QACU9","either","4","1375","","","","","","","0","0","1","0.3215333475","","0.2","0.8","0.6","0.4","","","","","0.134958137","0.3880947854","0.3215333475","0.3487767647","","","","","","","","75","K","2","","","18","main_expt"
"","bandit","98","660714","0.0-59.0-0.0","07690975","wem/bandit_either_2","A1FYTTGF0QACU9","either","4","488","","","","","","","0","0","1","","0.3010303499","0.2","0.8","0.6","0.4","0.1230418706","0.4116912081","0.2733398822","0.3010303499","","","","","","","","","","","","76","L","3","","","19","main_expt"
"","bandit","99","662659","0.0-60.0-0.0","07690975","wem/bandit_either_2","A1FYTTGF0QACU9","either","4","408","","","","","","","0","0","1","0.3973894305","","0.2","0.8","0.6","0.4","","","","","0.09866604889","0.3973894305","0.2351410235","0.2907203997","","","","","","","","74","J","1","","","20","main_expt"
"","bandit","100","664644","0.0-61.0-0.0","07690975","wem/bandit_either_2","A1FYTTGF0QACU9","either","4","427","","","","","","","0","0","1","","0.1021222834","0.2","0.8","0.6","0.4","0.1021222834","0.369037109","0.2257810982","0.3088108907","","","","","","","","","","","","72","H","0","img/none_selected.jpg","","21","main_expt"
"","bandit","101","666726","0.0-62.0-0.0","07690975","wem/bandit_either_2","A1FYTTGF0QACU9","either","4","563","","","","","","","0","0","1","","0.2221856846","0.2","0.8","0.6","0.4","0.1234138809","0.4179468344","0.2221856846","0.349202701","","","","","","","","","","","","75","K","2","","","22","main_expt"
"","bandit","102","668715","0.0-63.0-0.0","07690975","wem/bandit_either_2","A1FYTTGF0QACU9","either","4","459","","","","","","","0","0","1","0.3785068464","","0.2","0.8","0.6","0.4","","","","","0.1030640584","0.4276062926","0.2127124712","0.3785068464","","","","","","","","76","L","3","","","23","main_expt"
"","bandit","103","670856","0.0-64.0-0.0","07690975","wem/bandit_either_2","A1FYTTGF0QACU9","either","4","590","","","","","","","0","0","1","0.1882566648","","0.2","0.8","0.6","0.4","","","","","0.1261035851","0.4078122208","0.1882566648","0.4012919653","","","","","","","","75","K","2","","","24","main_expt"
"","bandit","104","672731","0.0-65.0-0.0","07690975","wem/bandit_either_2","A1FYTTGF0QACU9","either","4","333","","","","","","","0","0","1","","0.3950411191","0.2","0.8","0.6","0.4","0.1796705612","0.3950411191","0.1273223766","0.400899794","","","","","","","","","","","","74","J","1","","","25","main_expt"
"","bandit","105","674642","0.0-66.0-0.0","07690975","wem/bandit_either_2","A1FYTTGF0QACU9","either","4","380","","","","","","","0","1","0","","0.2414651519","0.2","0.8","0.6","0.4","0.2414651519","0.4322303329","0.15747458","0.4126274585","","","","","","","","","","","","72","H","0","img/none_selected.jpg","","26","main_expt"
"","bandit","106","676890","0.0-67.0-0.0","07690975","wem/bandit_either_2","A1FYTTGF0QACU9","either","4","714","","","","","","","0","0","1","","0.2005374927","0.2","0.8","0.6","0.4","0.2005374927","0.4353643722","0.1442684908","0.3992263875","","","","","","","","","","","","72","H","0","img/none_selected.jpg","","27","main_expt"
"","bandit","107","678923","0.0-68.0-0.0","07690975","wem/bandit_either_2","A1FYTTGF0QACU9","either","4","488","","","","","","","0","1","0","","0.3197257227","0.2","0.8","0.6","0.4","0.3197257227","0.4464017809","0.2255404594","0.3846584236","","","","","","","","","","","","72","H","0","img/none_selected.jpg","","28","main_expt"
"","bandit","108","681255","0.0-69.0-0.0","07690975","wem/bandit_either_2","A1FYTTGF0QACU9","either","4","791","","","","","","","0","0","1","","0.3141869899","0.2","0.8","0.6","0.4","0.3141869899","0.4417109462","0.2730951691","0.3561298134","","","","","","","","","","","","72","H","0","img/none_selected.jpg","","29","main_expt"
"","bandit","109","683202","0.0-70.0-0.0","07690975","wem/bandit_either_2","A1FYTTGF0QACU9","either","4","410","","","","","","","0","0","1","0.4065908859","","0.2","0.8","0.6","0.4","","","","","0.3445991012","0.4065908859","0.2890412698","0.3101363315","","","","","","","","74","J","1","","","30","main_expt"
"","bandit","110","685072","0.0-71.0-0.0","07690975","wem/bandit_either_2","A1FYTTGF0QACU9","either","4","327","","","","","","","0","0","1","","0.3456655029","0.2","0.8","0.6","0.4","0.3456655029","0.3954582793","0.3309226042","0.3322219809","","","","","","","","","","","","72","H","0","img/none_selected.jpg","","31","main_expt"
"","bandit","111","686946","0.0-72.0-0.0","07690975","wem/bandit_either_2","A1FYTTGF0QACU9","either","4","331","","","","","","","0","0","1","0.3519301717","","0.2","0.8","0.6","0.4","","","","","0.3826172224","0.3716723047","0.3519301717","0.3516269472","","","","","","","","75","K","2","","","32","main_expt"
"","bandit","112","688748","0.0-73.0-0.0","07690975","wem/bandit_either_2","A1FYTTGF0QACU9","either","4","261","","","","","","","0","0","1","","0.3852085553","0.2","0.8","0.6","0.4","0.3804083149","0.3799724366","0.3414953842","0.3852085553","","","","","","","","","","","","76","L","3","","","33","main_expt"
"","bandit","113","690730","0.0-74.0-0.0","07690975","wem/bandit_either_2","A1FYTTGF0QACU9","either","4","456","","","","","","","0","0","1","","0.3808178469","0.2","0.8","0.6","0.4","0.3808178469","0.409480615","0.2938412915","0.4196644934","","","","","","","","","","","","72","H","0","img/none_selected.jpg","","34","main_expt"
"","bandit","114","692907","0.0-75.0-0.0","07690975","wem/bandit_either_2","A1FYTTGF0QACU9","either","4","629","","","","","","","0","1","0","","0.376129724","0.2","0.8","0.6","0.4","0.376129724","0.3869649509","0.2256616696","0.420891004","","","","","","","","","","","","72","H","0","img/none_selected.jpg","","35","main_expt"
"","bandit","115","695169","0.0-76.0-0.0","07690975","wem/bandit_either_2","A1FYTTGF0QACU9","either","4","717","","","","","","","0","1","0","","0.4027809904","0.2","0.8","0.6","0.4","0.4027809904","0.3045389962","0.2525957923","0.3808881167","","","","","","","","","","","","72","H","0","img/none_selected.jpg","","36","main_expt"
"","bandit","116","697653","0.0-77.0-0.0","07690975","wem/bandit_either_2","A1FYTTGF0QACU9","either","4","924","","","","","","","0","0","1","","0.3715556026","0.2","0.8","0.6","0.4","0.3715556026","0.2954217214","0.2333373749","0.3634360393","","","","","","","","","","","","72","H","0","img/none_selected.jpg","","37","main_expt"
"","bandit","117","700241","0.0-78.0-0.0","07690975","wem/bandit_either_2","A1FYTTGF0QACU9","either","4","1050","","","","","","","1","0","0","0.2749906923","","0.2","0.8","0.6","0.4","","","","","0.354842885","0.2749906923","0.2126884676","0.3432691328","","","","","","","","74","J","1","","","38","main_expt"
"","bandit","118","702732","0.0-79.0-0.0","07690975","wem/bandit_either_2","A1FYTTGF0QACU9","either","4","959","","","","","","","0","0","1","0.2911873598","","0.2","0.8","0.6","0.4","","","","","0.3066825603","0.2911873598","0.212498526","0.3113322025","","","","","","","","74","J","1","","","39","main_expt"
"","bandit","119","704715","0.0-80.0-0.0","07690975","wem/bandit_either_2","A1FYTTGF0QACU9","either","4","445","","","","","","","0","1","0","","0.3208648015","0.2","0.8","0.6","0.4","0.3208648015","0.3066149412","0.2031275136","0.3298138996","","","","","","","","","","","","72","H","0","img/none_selected.jpg","","40","main_expt"
"","bandit","120","707312","0.0-81.0-0.0","07690975","wem/bandit_either_2","A1FYTTGF0QACU9","either","4","1064","","","","","","","0","0","1","","0.2774570704","0.2","0.8","0.6","0.4","0.2774570704","0.2612722093","0.2409224204","0.3590557929","","","","","","","","","","","","72","H","0","img/none_selected.jpg","","41","main_expt"
"","bandit","121","709461","0.0-82.0-0.0","07690975","wem/bandit_either_2","A1FYTTGF0QACU9","either","4","609","","","","","","","0","0","1","0.2579482203","","0.2","0.8","0.6","0.4","","","","","0.3092882543","0.2579482203","0.2166695961","0.3455434044","","","","","","","","74","J","1","","","42","main_expt"
"","bandit","122","711638","0.0-83.0-0.0","07690975","wem/bandit_either_2","A1FYTTGF0QACU9","either","4","608","","","","","","","1","0","0","0.3161251671","","0.2","0.8","0.6","0.4","","","","","0.3161251671","0.2232302517","0.2314197793","0.4020043176","","","","","","","","72","H","0","img/none_selected.jpg","","43","main_expt"
"","bandit","123","715466","0.0-84.0-0.0","07690975","wem/bandit_either_2","A1FYTTGF0QACU9","either","4","2295","","","","","","","0","0","1","","0.3032549762","0.2","0.8","0.6","0.4","0.3032549762","0.2435669349","0.1889371852","0.4088695108","","","","","","","","","","","","72","H","0","img/none_selected.jpg","","44","main_expt"
"","bandit","124","718000","0.0-85.0-0.0","07690975","wem/bandit_either_2","A1FYTTGF0QACU9","either","4","1007","","","","","","","0","0","1","0.1885724617","","0.2","0.8","0.6","0.4","","","","","0.3012359134","0.1885724617","0.2152104473","0.3914045207","","","","","","","","74","J","1","","","45","main_expt"
"","bandit","125","720407","0.0-86.0-0.0","07690975","wem/bandit_either_2","A1FYTTGF0QACU9","either","4","885","","","","","","","0","0","1","","0.2994346937","0.2","0.8","0.6","0.4","0.2994346937","0.104230756","0.2260726972","0.3682142312","","","","","","","","","","","","72","H","0","img/none_selected.jpg","","46","main_expt"
"","bandit","126","728579","0.0-87.0-0.0","07690975","wem/bandit_either_2","A1FYTTGF0QACU9","either","4","6626","","","","","","","0","0","1","","0.3169549043","0.2","0.8","0.6","0.4","0.3169549043","0.09013225529","0.2330399618","0.3462276735","","","","","","","","","","","","72","H","0","img/none_selected.jpg","","47","main_expt"
"","bandit","127","731163","0.0-88.0-0.0","07690975","wem/bandit_either_2","A1FYTTGF0QACU9","either","4","1029","","","","","","","0","0","1","","0.1066227192","0.2","0.8","0.6","0.4","0.3137179834","0.1066227192","0.2769685944","0.3501405617","","","","","","","","","","","","74","J","1","","","48","main_expt"
"","bandit","128","733075","0.0-89.0-0.0","07690975","wem/bandit_either_2","A1FYTTGF0QACU9","either","4","390","","","","","","","0","0","1","","0.2954986192","0.2","0.8","0.6","0.4","0.3026837323","0.1273062614","0.2954986192","0.3607669766","","","","","","","","","","","","75","K","2","","","49","main_expt"
"","bandit","129","734873","0.0-90.0-0.0","07690975","wem/bandit_either_2","A1FYTTGF0QACU9","either","4","250","","","","","","","0","1","0","","0.3776327681","0.2","0.8","0.6","0.4","0.2690248343","0.08158159543","0.2730110453","0.3776327681","","","","","","","","","","","","76","L","3","","","50","main_expt"
"","bandit","130","737106","0.0-91.0-0.0","07690975","wem/bandit_either_2","A1FYTTGF0QACU9","either","4","704","","","","","","","0","1","0","","0.3922012959","0.2","0.8","0.6","0.4","0.2407215714","0.08035098666","0.2672659715","0.3922012959","","","","","","","","","","","","76","L","3","","","51","main_expt"
"","bandit","131","739445","0.0-92.0-0.0","07690975","wem/bandit_either_2","A1FYTTGF0QACU9","either","4","800","","","","","","","1","0","0","0.3532085343","","0.2","0.8","0.6","0.4","","","","","0.2758158767","0.1007468434","0.2552972095","0.3532085343","","","","","","","","76","L","3","","","52","main_expt"
"","bandit","132","741620","0.0-93.0-0.0","07690975","wem/bandit_either_2","A1FYTTGF0QACU9","either","4","617","","","","","","","0","1","0","","0.3597378762","0.2","0.8","0.6","0.4","0.2661511239","0.1479770317","0.1954439593","0.3597378762","","","","","","","","","","","","76","L","3","","","53","main_expt"
"","bandit","133","743697","0.0-94.0-0.0","07690975","wem/bandit_either_2","A1FYTTGF0QACU9","either","4","546","","","","","","","0","0","1","","0.3553644404","0.2","0.8","0.6","0.4","0.250303373","0.1450389045","0.1250298759","0.3553644404","","","","","","","","","","","","76","L","3","","","54","main_expt"
"","bandit","134","745939","0.0-95.0-0.0","07690975","wem/bandit_either_2","A1FYTTGF0QACU9","either","4","711","","","","","","","0","1","0","","0.1850572083","0.2","0.8","0.6","0.4","0.1850572083","0.1678096349","0.1224949652","0.3427354451","","","","","","","","","","","","72","H","0","img/none_selected.jpg","","55","main_expt"
"","bandit","135","748324","0.0-96.0-0.0","07690975","wem/bandit_either_2","A1FYTTGF0QACU9","either","4","839","","","","","","","0","0","1","","0.2410157884","0.2","0.8","0.6","0.4","0.2410157884","0.1748395718","0.1312048923","0.3158877586","","","","","","","","","","","","72","H","0","img/none_selected.jpg","","56","main_expt"
"","bandit","136","750564","0.0-97.0-0.0","07690975","wem/bandit_either_2","A1FYTTGF0QACU9","either","4","699","","","","","","","0","0","1","0.3224611445","","0.2","0.8","0.6","0.4","","","","","0.2657224069","0.146986137","0.14452077","0.3224611445","","","","","","","","76","L","3","","","57","main_expt"
"","bandit","137","752604","0.0-98.0-0.0","07690975","wem/bandit_either_2","A1FYTTGF0QACU9","either","4","490","","","","","","","0","0","1","","0.2361308133","0.2","0.8","0.6","0.4","0.2361308133","0.1316135006","0.1198415177","0.3378672788","","","","","","","","","","","","72","H","0","img/none_selected.jpg","","58","main_expt"
"","bandit","138","754561","0.0-99.0-0.0","07690975","wem/bandit_either_2","A1FYTTGF0QACU9","either","4","419","","","","","","","1","0","0","0.3438075972","","0.2","0.8","0.6","0.4","","","","","0.2078360154","0.1776120447","0.1674914914","0.3438075972","","","","","","","","76","L","3","","","59","main_expt"
"","bandit","139","757568","0.0-100.0-0.0","07690975","wem/bandit_either_2","A1FYTTGF0QACU9","either","4","1459","","","","","","","0","0","1","0.2950987239","","0.2","0.8","0.6","0.4","","","","","0.2256957235","0.2034864675","0.147959707","0.2950987239","","","","","","","","76","L","3","","","60","main_expt"
"","bandit","140","759666","0.0-101.0-0.0","07690975","wem/bandit_either_2","A1FYTTGF0QACU9","either","4","527","","","","","","","0","0","1","","0.2713547376","0.2","0.8","0.6","0.4","0.2713547376","0.1325668513","0.1217284172","0.2939622289","","","","","","","","","","","","72","H","0","img/none_selected.jpg","","61","main_expt"
"","bandit","141","761670","0.0-102.0-0.0","07690975","wem/bandit_either_2","A1FYTTGF0QACU9","either","4","464","","","","","","","0","0","1","","0.2907096119","0.2","0.8","0.6","0.4","0.2800078023","0.125492747","0.1392905859","0.2907096119","","","","","","","","","","","","76","L","3","","","62","main_expt"
"","bandit","142","763664","0.0-103.0-0.0","07690975","wem/bandit_either_2","A1FYTTGF0QACU9","either","4","462","","","","","","","0","0","1","0.1081989139","","0.2","0.8","0.6","0.4","","","","","0.362183352","0.1081989139","0.1953314019","0.2696382907","","","","","","","","74","J","1","","","63","main_expt"
"","bandit","143","765534","0.0-104.0-0.0","07690975","wem/bandit_either_2","A1FYTTGF0QACU9","either","4","318","","","","","","","0","0","1","","0.2618523415","0.2","0.8","0.6","0.4","0.3354395381","0.09104284411","0.2618523415","0.2496415039","","","","","","","","","","","","75","K","2","","","64","main_expt"
"","bandit","144","768002","0.0-105.0-0.0","07690975","wem/bandit_either_2","A1FYTTGF0QACU9","either","4","929","","","","","","","0","0","1","","0.2893845237","0.2","0.8","0.6","0.4","0.2893845237","0.1264903162","0.2686672798","0.2364994079","","","","","","","","","","","","72","H","0","img/none_selected.jpg","","65","main_expt"
"","bandit","145","769995","0.0-106.0-0.0","07690975","wem/bandit_either_2","A1FYTTGF0QACU9","either","4","455","","","","","","","0","0","1","","0.2541683514","0.2","0.8","0.6","0.4","0.2355717356","0.1665937301","0.2451656397","0.2541683514","","","","","","","","","","","","76","L","3","","","66","main_expt"
"","bandit","146","772234","0.0-107.0-0.0","07690975","wem/bandit_either_2","A1FYTTGF0QACU9","either","4","707","","","","","","","0","0","1","","0.2848755716","0.2","0.8","0.6","0.4","0.2848755716","0.1740025863","0.2445320338","0.2985471382","","","","","","","","","","","","72","H","0","img/none_selected.jpg","","67","main_expt"
"","bandit","147","774163","0.0-108.0-0.0","07690975","wem/bandit_either_2","A1FYTTGF0QACU9","either","4","402","","","","","","","0","0","1","0.2300011382","","0.2","0.8","0.6","0.4","","","","","0.3341158043","0.2300011382","0.2261158315","0.3391290389","","","","","","","","74","J","1","","","68","main_expt"
"","bandit","148","776286","0.0-109.0-0.0","07690975","wem/bandit_either_2","A1FYTTGF0QACU9","either","4","587","","","","","","","0","0","1","0.1627286519","","0.2","0.8","0.6","0.4","","","","","0.3253412689","0.1768594062","0.1627286519","0.3114764975","","","","","","","","75","K","2","","","69","main_expt"
"","bandit","149","778359","0.0-110.0-0.0","07690975","wem/bandit_either_2","A1FYTTGF0QACU9","either","4","480","","","","","","","0","0","1","0.3056328376","","0.2","0.8","0.6","0.4","","","","","0.3280915152","0.1906145184","0.1301009224","0.3056328376","","","","","","","","76","L","3","","","70","main_expt"
"","bandit","150","780002","0.0-111.0-0.0","07690975","wem/bandit_either_2","A1FYTTGF0QACU9","either","4","97","","","","","","","0","0","1","","0.3772643828","0.2","0.8","0.6","0.4","0.3772643828","0.1451664327","0.1356707761","0.3445325487","","","","","","","","","","","","72","H","0","img/none_selected.jpg","","71","main_expt"
"","bandit","151","782193","0.0-112.0-0.0","07690975","wem/bandit_either_2","A1FYTTGF0QACU9","either","4","635","","","","","","","0","0","1","","0.4074174212","0.2","0.8","0.6","0.4","0.4074174212","0.1091447996","0.1045412551","0.364612409","","","","","","","","","","","","72","H","0","img/none_selected.jpg","","72","main_expt"
"","bandit","152","784156","0.0-113.0-0.0","07690975","wem/bandit_either_2","A1FYTTGF0QACU9","either","4","436","","","","","","","0","0","1","","0.4454774056","0.2","0.8","0.6","0.4","0.3736299767","0.1248737042","0.0867882282","0.4454774056","","","","","","","","","","","","76","L","3","","","73","main_expt"
"","bandit","153","786184","0.0-114.0-0.0","07690975","wem/bandit_either_2","A1FYTTGF0QACU9","either","4","503","","","","","","","0","1","0","","0.4492830973","0.2","0.8","0.6","0.4","0.383211712","0.1073746888","0.1018359722","0.4492830973","","","","","","","","","","","","76","L","3","","","74","main_expt"
"","bandit","154","788394","0.0-115.0-0.0","07690975","wem/bandit_either_2","A1FYTTGF0QACU9","either","4","662","","","","","","","0","1","0","","0.449321966","0.2","0.8","0.6","0.4","0.3681962321","0.1051395745","0.09443707336","0.449321966","","","","","","","","","","","","76","L","3","","","75","main_expt"
"","bandit","155","790481","0.0-116.0-0.0","07690975","wem/bandit_either_2","A1FYTTGF0QACU9","either","4","555","","","","","","","0","1","0","","0.4299726132","0.2","0.8","0.6","0.4","0.3574328021","0.09171451076","0.08768691443","0.4299726132","","","","","","","","","","","","76","L","3","","","76","main_expt"
"","bandit","156","792616","0.0-117.0-0.0","07690975","wem/bandit_either_2","A1FYTTGF0QACU9","either","4","595","","","","","","","0","0","1","","0.4349340462","0.2","0.8","0.6","0.4","0.4041720962","0.1256070833","0.07744448812","0.4349340462","","","","","","","","","","","","76","L","3","","","77","main_expt"
"","bandit","157","794624","0.0-118.0-0.0","07690975","wem/bandit_either_2","A1FYTTGF0QACU9","either","4","464","","","","","","","0","0","1","","0.05712631425","0.2","0.8","0.6","0.4","0.4000946746","0.1398604905","0.05712631425","0.4112950215","","","","","","","","","","","","75","K","2","","","78","main_expt"
"","bandit","158","796274","0.0-119.0-0.0","07690975","wem/bandit_either_2","A1FYTTGF0QACU9","either","4","99","","","","","","","0","0","1","0.1303191282","","0.2","0.8","0.6","0.4","","","","","0.425248604","0.1303191282","0.03981704588","0.4123046053","","","","","","","","74","J","1","","","79","main_expt"
"","bandit","159","798417","0.0-120.0-0.0","07690975","wem/bandit_either_2","A1FYTTGF0QACU9","either","4","603","","","","","","","0","1","0","","0.4263383456","0.2","0.8","0.6","0.4","0.4263383456","0.1491340647","0.02961196177","0.4345430878","","","","","","","","","","","","72","H","0","img/none_selected.jpg","","80","main_expt"
"","bandit","160","800524","0.0-121.0-0.0","07690975","wem/bandit_either_2","A1FYTTGF0QACU9","either","4","566","","","","","","","0","0","1","","0.4377411966","0.2","0.8","0.6","0.4","0.4377411966","0.1484119081","0.0408206899","0.4255274095","","","","","","","","","","","","72","H","0","img/none_selected.jpg","","81","main_expt"
"","bandit","161","802532","0.0-122.0-0.0","07690975","wem/bandit_either_2","A1FYTTGF0QACU9","either","4","479","","","","","","","0","0","1","","0.4263216968","0.2","0.8","0.6","0.4","0.4263216968","0.135460029","0.03491361241","0.4266934287","","","","","","","","","","","","72","H","0","img/none_selected.jpg","","82","main_expt"
"","bandit","162","804581","0.0-123.0-0.0","07690975","wem/bandit_either_2","A1FYTTGF0QACU9","either","4","522","","","","","","","0","0","1","","0.4321646522","0.2","0.8","0.6","0.4","0.4536492548","0.09497461961","0.01881925386","0.4321646522","","","","","","","","","","","","76","L","3","","","83","main_expt"
"","bandit","163","806561","0.0-124.0-0.0","07690975","wem/bandit_either_2","A1FYTTGF0QACU9","either","4","440","","","","","","","0","0","1","","0.43129245","0.2","0.8","0.6","0.4","0.4344769981","0.0956585677","0.03441768066","0.43129245","","","","","","","","","","","","76","L","3","","","84","main_expt"
"","bandit","164","808724","0.0-125.0-0.0","07690975","wem/bandit_either_2","A1FYTTGF0QACU9","either","4","552","","","","","","","0","0","1","","0.4307495417","0.2","0.8","0.6","0.4","0.4167097255","0.08427930603","0.04015732792","0.4307495417","","","","","","","","","","","","76","L","3","","","85","main_expt"
"","bandit","165","810702","0.0-126.0-0.0","07690975","wem/bandit_either_2","A1FYTTGF0QACU9","either","4","449","","","","","","","0","0","1","","0.4215971904","0.2","0.8","0.6","0.4","0.4215971904","0.09540141202","0.0462821445","0.4327415212","","","","","","","","","","","","72","H","0","img/none_selected.jpg","","86","main_expt"
"","bandit","166","812865","0.0-127.0-0.0","07690975","wem/bandit_either_2","A1FYTTGF0QACU9","either","4","609","","","","","","","0","0","1","","0.3962725568","0.2","0.8","0.6","0.4","0.3962725568","0.06504543429","0.07236867375","0.4507305815","","","","","","","","","","","","72","H","0","img/none_selected.jpg","","87","main_expt"
"","bandit","167","814932","0.0-128.0-0.0","07690975","wem/bandit_either_2","A1FYTTGF0QACU9","either","4","512","","","","","","","0","0","1","","0.4571393315","0.2","0.8","0.6","0.4","0.4038430626","0.05894337134","0.1132918069","0.4571393315","","","","","","","","","","","","76","L","3","","","88","main_expt"
"","bandit","168","817229","0.0-129.0-0.0","07690975","wem/bandit_either_2","A1FYTTGF0QACU9","either","4","755","","","","","","","0","0","1","0.06803635399","","0.2","0.8","0.6","0.4","","","","","0.4247877058","0.06803635399","0.1466354559","0.4639779763","","","","","","","","74","J","1","","","89","main_expt"
"","bandit","169","819251","0.0-130.0-0.0","07690975","wem/bandit_either_2","A1FYTTGF0QACU9","either","4","493","","","","","","","0","0","1","0.1746819083","","0.2","0.8","0.6","0.4","","","","","0.4196700557","0.09657856289","0.1746819083","0.4620017245","","","","","","","","75","K","2","","","90","main_expt"
"","bandit","170","820828","0.0-131.0-0.0","07690975","wem/bandit_either_2","A1FYTTGF0QACU9","either","4","33","","","","","","","0","0","1","","0.4492963398","0.2","0.8","0.6","0.4","0.401758082","0.08522031428","0.1864657318","0.4492963398","","","","","","","","","","","","76","L","3","","","91","main_expt"
"","bandit","171","822877","0.0-132.0-0.0","07690975","wem/bandit_either_2","A1FYTTGF0QACU9","either","4","491","","","","","","","0","0","1","","0.462009279","0.2","0.8","0.6","0.4","0.3422099147","0.07078380504","0.2124622091","0.462009279","","","","","","","","","","","","76","L","3","","","92","main_expt"
"","bandit","172","824986","0.0-133.0-0.0","07690975","wem/bandit_either_2","A1FYTTGF0QACU9","either","4","572","","","","","","","0","0","1","","0.3279059742","0.2","0.8","0.6","0.4","0.3279059742","0.0564278809","0.245786276","0.4363090379","","","","","","","","","","","","72","H","0","img/none_selected.jpg","","93","main_expt"
"","bandit","173","827115","0.0-134.0-0.0","07690975","wem/bandit_either_2","A1FYTTGF0QACU9","either","4","599","","","","","","","0","1","0","","0.3155724737","0.2","0.8","0.6","0.4","0.3155724737","0.06067733924","0.2316759231","0.4457519602","","","","","","","","","","","","72","H","0","img/none_selected.jpg","","94","main_expt"
"","bandit","174","829183","0.0-135.0-0.0","07690975","wem/bandit_either_2","A1FYTTGF0QACU9","either","4","519","","","","","","","0","0","1","","0.3519625041","0.2","0.8","0.6","0.4","0.3519625041","0.08632751489","0.2231756969","0.4231248902","","","","","","","","","","","","72","H","0","img/none_selected.jpg","","95","main_expt"
"","bandit","175","831184","0.0-136.0-0.0","07690975","wem/bandit_either_2","A1FYTTGF0QACU9","either","4","460","","","","","","","0","0","1","","0.4210676831","0.2","0.8","0.6","0.4","0.3661455107","0.08481729553","0.1957128212","0.4210676831","","","","","","","","","","","","76","L","3","","","96","main_expt"
"","bandit","176","833420","0.0-137.0-0.0","07690975","wem/bandit_either_2","A1FYTTGF0QACU9","either","4","697","","","","","","","0","0","1","0.08386440452","","0.2","0.8","0.6","0.4","","","","","0.3558031673","0.08386440452","0.1638116915","0.4022895305","","","","","","","","74","J","1","","","97","main_expt"
"","bandit","177","835406","0.0-138.0-0.0","07690975","wem/bandit_either_2","A1FYTTGF0QACU9","either","4","450","","","","","","","0","0","1","","0.1405816365","0.2","0.8","0.6","0.4","0.3558230887","0.0940701929","0.1405816365","0.4187351015","","","","","","","","","","","","75","K","2","","","98","main_expt"
"","bandit","178","837303","0.0-139.0-0.0","07690975","wem/bandit_either_2","A1FYTTGF0QACU9","either","4","336","","","","","","","0","0","1","0.3981340028","","0.2","0.8","0.6","0.4","","","","","0.3064708089","0.1285058524","0.1435678602","0.3981340028","","","","","","","","76","L","3","","","99","main_expt"
"","bandit","179","839584","0.0-140.0-0.0","07690975","wem/bandit_either_2","A1FYTTGF0QACU9","either","4","749","","","","","","","0","1","0","","0.3520446815","0.2","0.8","0.6","0.4","0.352498313","0.065882019","0.1478754355","0.3520446815","","","","","","","","","","","","76","L","3","","","100","main_expt"
"","bandit","180","841793","0.0-141.0-0.0","07690975","wem/bandit_either_2","A1FYTTGF0QACU9","either","4","624","","","","","","","0","0","1","0.3715523215","","0.2","0.8","0.6","0.4","","","","","0.3511810171","0.05692140794","0.1532559328","0.3715523215","","","","","","","","76","L","3","","","101","main_expt"
"","bandit","181","843902","0.0-142.0-0.0","07690975","wem/bandit_either_2","A1FYTTGF0QACU9","either","4","554","","","","","","","1","0","0","0.3966955113","","0.2","0.8","0.6","0.4","","","","","0.3246867477","0.04322280369","0.15857411","0.3966955113","","","","","","","","76","L","3","","","102","main_expt"
"","bandit","182","845904","0.0-143.0-0.0","07690975","wem/bandit_either_2","A1FYTTGF0QACU9","either","4","417","","","","","","","0","0","1","0.3865714765","","0.2","0.8","0.6","0.4","","","","","0.2827689756","0.05121437093","0.1552377357","0.3865714765","","","","","","","","76","L","3","","","103","main_expt"
"","bandit","183","847990","0.0-144.0-0.0","07690975","wem/bandit_either_2","A1FYTTGF0QACU9","either","4","521","","","","","","","0","0","1","","0.3440646931","0.2","0.8","0.6","0.4","0.3307995119","0.06548077564","0.1584193753","0.3440646931","","","","","","","","","","","","76","L","3","","","104","main_expt"
"","bandit","184","850173","0.0-145.0-0.0","07690975","wem/bandit_either_2","A1FYTTGF0QACU9","either","4","636","","","","","","","0","1","0","","0.330981063","0.2","0.8","0.6","0.4","0.3078297571","0.07577357845","0.192058402","0.330981063","","","","","","","","","","","","76","L","3","","","105","main_expt"
"","bandit","185","853434","0.0-146.0-0.0","07690975","wem/bandit_either_2","A1FYTTGF0QACU9","either","4","1724","","","","","","","0","1","0","","0.3317280627","0.2","0.8","0.6","0.4","0.3202685942","0.09041352565","0.1562344916","0.3317280627","","","","","","","","","","","","76","L","3","","","106","main_expt"
"","bandit","186","855658","0.0-147.0-0.0","07690975","wem/bandit_either_2","A1FYTTGF0QACU9","either","4","695","","","","","","","0","1","0","","0.2760665195","0.2","0.8","0.6","0.4","0.3163418234","0.1184921167","0.1493116313","0.2760665195","","","","","","","","","","","","76","L","3","","","107","main_expt"
"","bandit","187","857922","0.0-148.0-0.0","07690975","wem/bandit_either_2","A1FYTTGF0QACU9","either","4","711","","","","","","","1","0","0","0.2826301941","","0.2","0.8","0.6","0.4","","","","","0.3425943818","0.1057615429","0.1357435498","0.2826301941","","","","","","","","76","L","3","","","108","main_expt"
"","bandit","188","859982","0.0-149.0-0.0","07690975","wem/bandit_either_2","A1FYTTGF0QACU9","either","4","519","","","","","","","0","0","1","0.318117281","","0.2","0.8","0.6","0.4","","","","","0.2852030557","0.1464484126","0.1164074326","0.318117281","","","","","","","","76","L","3","","","109","main_expt"
"","bandit","189","862899","0.0-150.0-0.0","07690975","wem/bandit_either_2","A1FYTTGF0QACU9","either","4","1355","","","","","","","0","0","1","","0.3358587519","0.2","0.8","0.6","0.4","0.3392406975","0.1641354829","0.1444451916","0.3358587519","","","","","","","","","","","","76","L","3","","","110","main_expt"
"","bandit","190","866313","0.0-151.0-0.0","07690975","wem/bandit_either_2","A1FYTTGF0QACU9","either","4","1883","","","","","","","0","0","1","","0.3023411017","0.2","0.8","0.6","0.4","0.3023411017","0.1386891192","0.09905323685","0.3031660534","","","","","","","","","","","","72","H","0","img/none_selected.jpg","","111","main_expt"
"","bandit","191","868548","0.0-152.0-0.0","07690975","wem/bandit_either_2","A1FYTTGF0QACU9","either","4","678","","","","","","","0","0","1","","0.2773548355","0.2","0.8","0.6","0.4","0.296849772","0.1847512065","0.09652445584","0.2773548355","","","","","","","","","","","","76","L","3","","","112","main_expt"
"","bandit","192","870624","0.0-153.0-0.0","07690975","wem/bandit_either_2","A1FYTTGF0QACU9","either","4","538","","","","","","","0","0","1","","0.2370758425","0.2","0.8","0.6","0.4","0.2673419259","0.1304555333","0.09961189632","0.2370758425","","","","","","","","","","","","76","L","3","","","113","main_expt"
"","bandit","193","872668","0.0-154.0-0.0","07690975","wem/bandit_either_2","A1FYTTGF0QACU9","either","4","495","","","","","","","0","0","1","","0.1821928837","0.2","0.8","0.6","0.4","0.2670531803","0.1770102637","0.1036139638","0.1821928837","","","","","","","","","","","","76","L","3","","","114","main_expt"
"","bandit","194","874731","0.0-155.0-0.0","07690975","wem/bandit_either_2","A1FYTTGF0QACU9","either","4","540","","","","","","","0","1","0","","0.2825009356","0.2","0.8","0.6","0.4","0.2825009356","0.1564651975","0.0968506792","0.1315453283","","","","","","","","","","","","72","H","0","img/none_selected.jpg","","115","main_expt"
"","bandit","195","877052","0.0-156.0-0.0","07690975","wem/bandit_either_2","A1FYTTGF0QACU9","either","4","771","","","","","","","0","0","1","","0.3237719372","0.2","0.8","0.6","0.4","0.3237719372","0.1665702367","0.08782875681","0.1102777544","","","","","","","","","","","","72","H","0","img/none_selected.jpg","","116","main_expt"
"","bandit","196","879009","0.0-157.0-0.0","07690975","wem/bandit_either_2","A1FYTTGF0QACU9","either","4","411","","","","","","","0","0","1","0.1530687496","","0.2","0.8","0.6","0.4","","","","","0.3154846423","0.1530687496","0.06031800864","0.1101610351","","","","","","","","74","J","1","","","117","main_expt"
"","bandit","197","880671","0.0-158.0-0.0","07690975","wem/bandit_either_2","A1FYTTGF0QACU9","either","4","131","","","","","","","0","0","1","0.05633053331","","0.2","0.8","0.6","0.4","","","","","0.2584508078","0.1674206906","0.05633053331","0.122460482","","","","","","","","75","K","2","","","118","main_expt"
"","bandit","198","882526","0.0-159.0-0.0","07690975","wem/bandit_either_2","A1FYTTGF0QACU9","either","4","300","","","","","","","0","0","1","0.1451868924","","0.2","0.8","0.6","0.4","","","","","0.2141905193","0.1990215448","0.07530514027","0.1451868924","","","","","","","","76","L","3","","","119","main_expt"
"","bandit","199","884428","0.0-160.0-0.0","07690975","wem/bandit_either_2","A1FYTTGF0QACU9","either","4","347","","","","","","","0","0","1","","0.09092593383","0.2","0.8","0.6","0.4","0.2341954374","0.2208640619","0.09639595661","0.09092593383","","","","","","","","","","","","76","L","3","","","120","main_expt"
"","bandit","200","886336","0.0-161.0-0.0","07690975","wem/bandit_either_2","A1FYTTGF0QACU9","either","4","375","","","","","","","1","0","0","0.1886372651","","0.2","0.8","0.6","0.4","","","","","0.1886372651","0.2602917539","0.1421799471","0.1080456108","","","","","","","","72","H","0","img/none_selected.jpg","","121","main_expt"
"","bandit","201","888340","0.0-162.0-0.0","07690975","wem/bandit_either_2","A1FYTTGF0QACU9","either","4","471","","","","","","","0","0","1","","0.1597592322","0.2","0.8","0.6","0.4","0.1597592322","0.2512498235","0.1624760489","0.1169053248","","","","","","","","","","","","72","H","0","img/none_selected.jpg","","122","main_expt"
"","bandit","202","890258","0.0-163.0-0.0","07690975","wem/bandit_either_2","A1FYTTGF0QACU9","either","4","376","","","","","","","0","0","1","","0.1895266442","0.2","0.8","0.6","0.4","0.1895266442","0.2266242761","0.1640214383","0.1571594809","","","","","","","","","","","","72","H","0","img/none_selected.jpg","","123","main_expt"
"","bandit","203","892263","0.0-164.0-0.0","07690975","wem/bandit_either_2","A1FYTTGF0QACU9","either","4","452","","","","","","","0","0","1","","0.2042850732","0.2","0.8","0.6","0.4","0.2042850732","0.2373824638","0.2014340991","0.2231804049","","","","","","","","","","","","72","H","0","img/none_selected.jpg","","124","main_expt"
"","bandit","204","894094","0.0-165.0-0.0","07690975","wem/bandit_either_2","A1FYTTGF0QACU9","either","4","261","","","","","","","1","0","0","0.2232794356","","0.2","0.8","0.6","0.4","","","","","0.1812515389","0.2538727107","0.2229229076","0.2232794356","","","","","","","","76","L","3","","","125","main_expt"
"","bandit","205","896237","0.0-166.0-0.0","07690975","wem/bandit_either_2","A1FYTTGF0QACU9","either","4","594","","","","","","","0","0","1","0.2316903634","","0.2","0.8","0.6","0.4","","","","","0.1694736183","0.290219491","0.2324712723","0.2316903634","","","","","","","","76","L","3","","","126","main_expt"
"","bandit","206","898219","0.0-167.0-0.0","07690975","wem/bandit_either_2","A1FYTTGF0QACU9","either","4","431","","","","","","","0","0","1","","0.2337524142","0.2","0.8","0.6","0.4","0.1624528765","0.2542505169","0.2628391623","0.2337524142","","","","","","","","","","","","76","L","3","","","127","main_expt"
"","bandit","207","900118","0.0-168.0-0.0","07690975","wem/bandit_either_2","A1FYTTGF0QACU9","either","4","369","","","","","","","0","1","0","","0.2198210178","0.2","0.8","0.6","0.4","0.1632982916","0.2582316027","0.2654356302","0.2198210178","","","","","","","","","","","","76","L","3","","","128","main_expt"
"","bandit","208","902050","0.0-169.0-0.0","07690975","wem/bandit_either_2","A1FYTTGF0QACU9","either","4","388","","","","","","","0","0","1","0.2280168395","","0.2","0.8","0.6","0.4","","","","","0.2264598068","0.3267566011","0.2070569149","0.2280168395","","","","","","","","76","L","3","","","129","main_expt"
"","bandit","209","904019","0.0-170.0-0.0","07690975","wem/bandit_either_2","A1FYTTGF0QACU9","either","4","437","","","","","","","0","0","1","","0.243895296","0.2","0.8","0.6","0.4","0.202760285","0.3323271388","0.2579182239","0.243895296","","","","","","","","","","","","76","L","3","","","130","main_expt"
"","bandit","210","905958","0.0-171.0-0.0","07690975","wem/bandit_either_2","A1FYTTGF0QACU9","either","4","376","","","","","","","1","0","0","0.1585094705","","0.2","0.8","0.6","0.4","","","","","0.1585094705","0.2666668646","0.2329110821","0.2164454501","","","","","","","","72","H","0","img/none_selected.jpg","","131","main_expt"
"","bandit","211","907979","0.0-172.0-0.0","07690975","wem/bandit_either_2","A1FYTTGF0QACU9","either","4","468","","","","","","","0","0","1","","0.1304261544","0.2","0.8","0.6","0.4","0.1304261544","0.2359119393","0.2400232435","0.200468731","","","","","","","","","","","","72","H","0","img/none_selected.jpg","","132","main_expt"
"","bandit","212","909998","0.0-173.0-0.0","07690975","wem/bandit_either_2","A1FYTTGF0QACU9","either","4","464","","","","","","","0","0","1","","0.09339990826","0.2","0.8","0.6","0.4","0.09339990826","0.2540740643","0.2084798617","0.2038597077","","","","","","","","","","","","72","H","0","img/none_selected.jpg","","133","main_expt"
"","bandit","213","911924","0.0-174.0-0.0","07690975","wem/bandit_either_2","A1FYTTGF0QACU9","either","4","370","","","","","","","0","0","1","","0.2263269307","0.2","0.8","0.6","0.4","0.08524612959","0.2414927735","0.2034544","0.2263269307","","","","","","","","","","","","76","L","3","","","134","main_expt"
"","bandit","214","913820","0.0-175.0-0.0","07690975","wem/bandit_either_2","A1FYTTGF0QACU9","either","4","365","","","","","","","0","0","1","","0.0622033461","0.2","0.8","0.6","0.4","0.0622033461","0.2632369982","0.2088958693","0.2686469146","","","","","","","","","","","","72","H","0","img/none_selected.jpg","","135","main_expt"
"","bandit","215","915834","0.0-176.0-0.0","07690975","wem/bandit_either_2","A1FYTTGF0QACU9","either","4","447","","","","","","","0","0","1","","0.05632890875","0.2","0.8","0.6","0.4","0.05632890875","0.3032623762","0.2573758916","0.3170393738","","","","","","","","","","","","72","H","0","img/none_selected.jpg","","136","main_expt"
"","bandit","216","917774","0.0-177.0-0.0","07690975","wem/bandit_either_2","A1FYTTGF0QACU9","either","4","414","","","","","","","0","1","0","","0.338962466","0.2","0.8","0.6","0.4","0.06052980877","0.2984046037","0.2467438462","0.338962466","","","","","","","","","","","","76","L","3","","","137","main_expt"
"","bandit","217","919910","0.0-178.0-0.0","07690975","wem/bandit_either_2","A1FYTTGF0QACU9","either","4","579","","","","","","","0","0","1","","0.3586643031","0.2","0.8","0.6","0.4","0.1038497792","0.3110629865","0.2221944767","0.3586643031","","","","","","","","","","","","76","L","3","","","138","main_expt"
"","bandit","218","921745","0.0-179.0-0.0","07690975","wem/bandit_either_2","A1FYTTGF0QACU9","either","4","297","","","","","","","0","1","0","","0.3430902759","0.2","0.8","0.6","0.4","0.08561062373","0.3048373826","0.2750517365","0.3430902759","","","","","","","","","","","","76","L","3","","","139","main_expt"
"","bandit","219","923905","0.0-180.0-0.0","07690975","wem/bandit_either_2","A1FYTTGF0QACU9","either","4","591","","","","","","","1","0","0","0.3777112835","","0.2","0.8","0.6","0.4","","","","","0.08025295029","0.3163642845","0.277474309","0.3777112835","","","","","","","","76","L","3","","","140","main_expt"
"","bandit","220","925980","0.0-181.0-0.0","07690975","wem/bandit_either_2","A1FYTTGF0QACU9","either","4","499","","","","","","","0","0","1","","0.4276051364","0.2","0.8","0.6","0.4","0.09309891757","0.2213861514","0.2932007391","0.4276051364","","","","","","","","","","","","76","L","3","","","141","main_expt"
"","bandit","221","928117","0.0-182.0-0.0","07690975","wem/bandit_either_2","A1FYTTGF0QACU9","either","4","598","","","","","","","0","0","1","0.4312347149","","0.2","0.8","0.6","0.4","","","","","0.1107976638","0.2492613222","0.3001807938","0.4312347149","","","","","","","","76","L","3","","","142","main_expt"
"","bandit","222","930131","0.0-183.0-0.0","07690975","wem/bandit_either_2","A1FYTTGF0QACU9","either","4","455","","","","","","","0","1","0","","0.386657586","0.2","0.8","0.6","0.4","0.09575525052","0.2645663874","0.3640878437","0.386657586","","","","","","","","","","","","76","L","3","","","143","main_expt"
"","bandit","223","932294","0.0-184.0-0.0","07690975","wem/bandit_either_2","A1FYTTGF0QACU9","either","4","605","","","","","","","0","0","1","","0.3409851627","0.2","0.8","0.6","0.4","0.07222794989","0.2928215939","0.2706796495","0.3409851627","","","","","","","","","","","","76","L","3","","","144","main_expt"
"","bandit","224","934278","0.0-185.0-0.0","07690975","wem/bandit_either_2","A1FYTTGF0QACU9","either","4","442","","","","","","","0","1","0","","0.3538709708","0.2","0.8","0.6","0.4","0.03203798906","0.3178979655","0.2359726437","0.3538709708","","","","","","","","","","","","76","L","3","","","145","main_expt"
"","bandit","225","936350","0.0-186.0-0.0","07690975","wem/bandit_either_2","A1FYTTGF0QACU9","either","4","515","","","","","","","0","0","1","","0.2745956728","0.2","0.8","0.6","0.4","0.03073079809","0.2850957273","0.2200332621","0.2745956728","","","","","","","","","","","","76","L","3","","","146","main_expt"
"","bandit","226","938376","0.0-187.0-0.0","07690975","wem/bandit_either_2","A1FYTTGF0QACU9","either","4","496","","","","","","","0","0","1","","0.2375793476","0.2","0.8","0.6","0.4","0.05105424151","0.2483519338","0.1957794229","0.2375793476","","","","","","","","","","","","76","L","3","","","147","main_expt"
"","bandit","227","940738","0.0-188.0-0.0","07690975","wem/bandit_either_2","A1FYTTGF0QACU9","either","4","783","","","","","","","0","0","1","0.04045355104","","0.2","0.8","0.6","0.4","","","","","0.04045355104","0.2309770791","0.1790722045","0.2954602587","","","","","","","","72","H","0","img/none_selected.jpg","","148","main_expt"
"","bandit","228","942866","0.0-189.0-0.0","07690975","wem/bandit_either_2","A1FYTTGF0QACU9","either","4","590","","","","","","","0","0","1","","0.3435099865","0.2","0.8","0.6","0.4","0.06416506337","0.1759049641","0.2189150546","0.3435099865","","","","","","","","","","","","76","L","3","","","149","main_expt"
"","bandit","229","945238","0.0-190.0-0.0","07690975","wem/bandit_either_2","A1FYTTGF0QACU9","either","4","819","","","","","","","0","0","1","0.1910702346","","0.2","0.8","0.6","0.4","","","","","0.07819388902","0.1910702346","0.2119229637","0.268900415","","","","","","","","74","J","1","","","150","main_expt"
"","bandit","230","947209","0.0-191.0-0.0","07690975","wem/bandit_either_2","A1FYTTGF0QACU9","either","4","419","","","","","","","0","0","1","0.2472398003","","0.2","0.8","0.6","0.4","","","","","0.1186979887","0.1799178466","0.2472398003","0.2326488896","","","","","","","","75","K","2","","","151","main_expt"
"","bandit","231","949165","0.0-192.0-0.0","07690975","wem/bandit_either_2","A1FYTTGF0QACU9","either","4","422","","","","","","","0","0","1","","0.2768057641","0.2","0.8","0.6","0.4","0.1084773402","0.1826140084","0.2148428051","0.2768057641","","","","","","","","","","","","76","L","3","","","152","main_expt"
"","bandit","232","951161","0.0-193.0-0.0","07690975","wem/bandit_either_2","A1FYTTGF0QACU9","either","4","443","","","","","","","0","0","1","","0.1314289417","0.2","0.8","0.6","0.4","0.1314289417","0.147924298","0.1598057249","0.2997660112","","","","","","","","","","","","72","H","0","img/none_selected.jpg","","153","main_expt"
"","bandit","233","953212","0.0-194.0-0.0","07690975","wem/bandit_either_2","A1FYTTGF0QACU9","either","4","516","","","","","","","0","0","1","","0.3196464983","0.2","0.8","0.6","0.4","0.1354051011","0.1388357139","0.1489099923","0.3196464983","","","","","","","","","","","","76","L","3","","","154","main_expt"
"","bandit","234","954934","0.0-195.0-0.0","07690975","wem/bandit_either_2","A1FYTTGF0QACU9","either","4","170","","","","","","","0","0","1","0.1502541116","","0.2","0.8","0.6","0.4","","","","","0.1085215933","0.1658398244","0.1502541116","0.3141654429","","","","","","","","75","K","2","","","155","main_expt"
"","bandit","235","958000","0.0-196.0-0.0","07690975","wem/bandit_either_2","A1FYTTGF0QACU9","either","4","1526","","","","","","","0","0","1","0.1104921729","","0.2","0.8","0.6","0.4","","","","","0.1383379057","0.1104921729","0.1605084188","0.2667217688","","","","","","","","74","J","1","","","156","main_expt"
"","bandit","236","960107","0.0-197.0-0.0","07690975","wem/bandit_either_2","A1FYTTGF0QACU9","either","4","560","","","","","","","0","0","1","","0.1428990181","0.2","0.8","0.6","0.4","0.1428990181","0.09530810267","0.1684101418","0.2867075714","","","","","","","","","","","","72","H","0","img/none_selected.jpg","","157","main_expt"
"","bandit","237","962140","0.0-198.0-0.0","07690975","wem/bandit_either_2","A1FYTTGF0QACU9","either","4","477","","","","","","","0","0","1","","0.2788639118","0.2","0.8","0.6","0.4","0.07455979893","0.1211627972","0.1807688322","0.2788639118","","","","","","","","","","","","76","L","3","","","158","main_expt"
"","bandit","238","964144","0.0-199.0-0.0","07690975","wem/bandit_either_2","A1FYTTGF0QACU9","either","4","444","","","","","","","0","0","1","0.3020710819","","0.2","0.8","0.6","0.4","","","","","0.1009372764","0.1012897464","0.1516426412","0.3020710819","","","","","","","","76","L","3","","","159","main_expt"
"","bandit","239","966114","0.0-200.0-0.0","07690975","wem/bandit_either_2","A1FYTTGF0QACU9","either","4","398","","","","","","","0","1","0","","0.1638698877","0.2","0.8","0.6","0.4","0.05118862797","0.1188035868","0.1638698877","0.3404227007","","","","","","","","","","","","75","K","2","","","160","main_expt"
"","bandit","240","968223","0.0-201.0-0.0","07690975","wem/bandit_either_2","A1FYTTGF0QACU9","either","4","534","","","","","","","0","0","1","0.1645359983","","0.2","0.8","0.6","0.4","","","","","0.05265847637","0.1606836622","0.1645359983","0.2876249865","","","","","","","","75","K","2","","","161","main_expt"
"","bandit","241","970044","0.0-202.0-0.0","07690975","wem/bandit_either_2","A1FYTTGF0QACU9","either","4","268","","","","","","","0","0","1","","0.2509918509","0.2","0.8","0.6","0.4","0.07938684611","0.1859884171","0.2509918509","0.2401308511","","","","","","","","","","","","75","K","2","","","162","main_expt"
"","bandit","242","971973","0.0-203.0-0.0","07690975","wem/bandit_either_2","A1FYTTGF0QACU9","either","4","388","","","","","","","0","1","0","","0.2528258464","0.2","0.8","0.6","0.4","0.0970900163","0.2528258464","0.1883685458","0.2486605046","","","","","","","","","","","","74","J","1","","","163","main_expt"
"","bandit","243","974072","0.0-204.0-0.0","07690975","wem/bandit_either_2","A1FYTTGF0QACU9","either","4","540","","","","","","","0","0","1","0.2515292425","","0.2","0.8","0.6","0.4","","","","","0.07401968201","0.2515292425","0.2179532334","0.22675384","","","","","","","","74","J","1","","","164","main_expt"
"","bandit","244","976027","0.0-205.0-0.0","07690975","wem/bandit_either_2","A1FYTTGF0QACU9","either","4","395","","","","","","","1","0","0","0.2068970429","","0.2","0.8","0.6","0.4","","","","","0.06633104104","0.2068970429","0.2143704678","0.2841151948","","","","","","","","74","J","1","","","165","main_expt"
"","bandit","245","978193","0.0-206.0-0.0","07690975","wem/bandit_either_2","A1FYTTGF0QACU9","either","4","623","","","","","","","0","0","1","0.1413778631","","0.2","0.8","0.6","0.4","","","","","0.05309652092","0.1413778631","0.2175899085","0.2842980464","","","","","","","","74","J","1","","","166","main_expt"
"","bandit","246","980073","0.0-207.0-0.0","07690975","wem/bandit_either_2","A1FYTTGF0QACU9","either","4","323","","","","","","","0","0","1","","0.1999497975","0.2","0.8","0.6","0.4","0.07357446968","0.1999497975","0.2137120923","0.3007590714","","","","","","","","","","","","74","J","1","","","167","main_expt"
"","bandit","247","982065","0.0-208.0-0.0","07690975","wem/bandit_either_2","A1FYTTGF0QACU9","either","4","456","","","","","","","0","1","0","","0.2331560811","0.2","0.8","0.6","0.4","0.1054325378","0.1696145944","0.2331560811","0.2884936601","","","","","","","","","","","","75","K","2","","","168","main_expt"
"","bandit","248","984103","0.0-209.0-0.0","07690975","wem/bandit_either_2","A1FYTTGF0QACU9","either","4","476","","","","","","","0","0","1","","0.2367963754","0.2","0.8","0.6","0.4","0.08536867429","0.1338518967","0.2367963754","0.2803439438","","","","","","","","","","","","75","K","2","","","169","main_expt"
"","bandit","249","986024","0.0-210.0-0.0","07690975","wem/bandit_either_2","A1FYTTGF0QACU9","either","4","350","","","","","","","0","0","1","","0.2378050175","0.2","0.8","0.6","0.4","0.1083432756","0.1307598277","0.2378050175","0.3010437192","","","","","","","","","","","","75","K","2","","","170","main_expt"
"","bandit","250","987869","0.0-211.0-0.0","07690975","wem/bandit_either_2","A1FYTTGF0QACU9","either","4","311","","","","","","","0","0","1","0.1200375331","","0.2","0.8","0.6","0.4","","","","","0.09185370626","0.1200375331","0.2253696972","0.3243802095","","","","","","","","74","J","1","","","171","main_expt"
"","bandit","251","989759","0.0-212.0-0.0","07690975","wem/bandit_either_2","A1FYTTGF0QACU9","either","4","346","","","","","","","0","0","1","0.2903394368","","0.2","0.8","0.6","0.4","","","","","0.09458096772","0.07514546963","0.2903394368","0.3140094691","","","","","","","","75","K","2","","","172","main_expt"
"","bandit","252","991791","0.0-213.0-0.0","07690975","wem/bandit_either_2","A1FYTTGF0QACU9","either","4","474","","","","","","","0","0","1","0.07704486673","","0.2","0.8","0.6","0.4","","","","","0.1016296913","0.07704486673","0.2384828248","0.2433770114","","","","","","","","74","J","1","","","173","main_expt"
"","bandit","253","993609","0.0-214.0-0.0","07690975","wem/bandit_either_2","A1FYTTGF0QACU9","either","4","267","","","","","","","1","0","0","0.2823111034","","0.2","0.8","0.6","0.4","","","","","0.117107939","0.04061738922","0.2823111034","0.2080779891","","","","","","","","75","K","2","","","174","main_expt"
"","bandit","254","995546","0.0-215.0-0.0","07690975","wem/bandit_either_2","A1FYTTGF0QACU9","either","4","381","","","","","","","0","1","0","","0.292147578","0.2","0.8","0.6","0.4","0.1254773658","0.02968316822","0.292147578","0.2211365803","","","","","","","","","","","","75","K","2","","","175","main_expt"
"","bandit","255","997559","0.0-216.0-0.0","07690975","wem/bandit_either_2","A1FYTTGF0QACU9","either","4","472","","","","","","","0","0","1","","0.2928295457","0.2","0.8","0.6","0.4","0.1518856622","0.04419366322","0.2928295457","0.231280906","","","","","","","","","","","","75","K","2","","","176","main_expt"
"","bandit","256","999460","0.0-217.0-0.0","07690975","wem/bandit_either_2","A1FYTTGF0QACU9","either","4","330","","","","","","","0","0","1","","0.297241693","0.2","0.8","0.6","0.4","0.1502483312","0.04140429262","0.297241693","0.1689881391","","","","","","","","","","","","75","K","2","","","177","main_expt"
"","bandit","257","1001437","0.0-218.0-0.0","07690975","wem/bandit_either_2","A1FYTTGF0QACU9","either","4","429","","","","","","","1","0","0","0.276241128","","0.2","0.8","0.6","0.4","","","","","0.2073149786","0.06103489621","0.276241128","0.1699404395","","","","","","","","75","K","2","","","178","main_expt"
"","bandit","258","1003414","0.0-219.0-0.0","07690975","wem/bandit_either_2","A1FYTTGF0QACU9","either","4","428","","","","","","","0","1","0","","0.2405339857","0.2","0.8","0.6","0.4","0.1928578162","0.053608248","0.2405339857","0.1571972967","","","","","","","","","","","","75","K","2","","","179","main_expt"
"","bandit","259","1005370","0.0-220.0-0.0","07690975","wem/bandit_either_2","A1FYTTGF0QACU9","either","4","392","","","","","","","0","0","1","0.233428307","","0.2","0.8","0.6","0.4","","","","","0.1412953234","0.06289379635","0.233428307","0.1567782565","","","","","","","","75","K","2","","","180","main_expt"
"","bandit","260","1007253","0.0-221.0-0.0","07690975","wem/bandit_either_2","A1FYTTGF0QACU9","either","4","332","","","","","","","0","0","1","0.1459310114","","0.2","0.8","0.6","0.4","","","","","0.1258774719","0.07748386732","0.1459310114","0.1492691696","","","","","","","","75","K","2","","","181","main_expt"
"","bandit","261","1009075","0.0-222.0-0.0","07690975","wem/bandit_either_2","A1FYTTGF0QACU9","either","4","287","","","","","","","0","0","1","0.096714051","","0.2","0.8","0.6","0.4","","","","","0.1121960069","0.096714051","0.1796360657","0.1609613705","","","","","","","","74","J","1","","","182","main_expt"
"","bandit","262","1010716","0.0-223.0-0.0","07690975","wem/bandit_either_2","A1FYTTGF0QACU9","either","4","81","","","","","","","0","0","1","0.1907874973","","0.2","0.8","0.6","0.4","","","","","0.08335286121","0.05351369794","0.1907874973","0.1982891881","","","","","","","","75","K","2","","","183","main_expt"
"","bandit","263","1013679","0.0-224.0-0.0","07690975","wem/bandit_either_2","A1FYTTGF0QACU9","either","4","1428","","","","","","","0","1","0","","0.1703318442","0.2","0.8","0.6","0.4","0.1085923678","0.08854511538","0.1451627339","0.1703318442","","","","","","","","","","","","76","L","3","","","184","main_expt"
"","bandit","264","1015728","0.0-225.0-0.0","07690975","wem/bandit_either_2","A1FYTTGF0QACU9","either","4","461","","","","","","","0","0","1","","0.09566746086","0.2","0.8","0.6","0.4","0.1113654269","0.136385666","0.1692531577","0.09566746086","","","","","","","","","","","","76","L","3","","","185","main_expt"
"","bandit","265","1017287","0.0-226.0-0.0","07690975","wem/bandit_either_2","A1FYTTGF0QACU9","either","4","8","","","","","","","0","0","1","","0.1885113298","0.2","0.8","0.6","0.4","0.1383531569","0.1848043888","0.1885113298","0.1254261761","","","","","","","","","","","","75","K","2","","","186","main_expt"
"","bandit","266","1019229","0.0-227.0-0.0","07690975","wem/bandit_either_2","A1FYTTGF0QACU9","either","4","397","","","","","","","0","0","1","0.1640989128","","0.2","0.8","0.6","0.4","","","","","0.1739713275","0.1640989128","0.2088125345","0.1081798115","","","","","","","","74","J","1","","","187","main_expt"
"","bandit","267","1021270","0.0-228.0-0.0","07690975","wem/bandit_either_2","A1FYTTGF0QACU9","either","4","509","","","","","","","0","0","1","","0.1926366302","0.2","0.8","0.6","0.4","0.1926366302","0.1301402021","0.2228369986","0.08529062399","","","","","","","","","","","","72","H","0","img/none_selected.jpg","","188","main_expt"
"","bandit","268","1023715","0.0-229.0-0.0","07690975","wem/bandit_either_2","A1FYTTGF0QACU9","either","4","891","","","","","","","0","0","1","0.07250281893","","0.2","0.8","0.6","0.4","","","","","0.2499935398","0.1980942663","0.2567428292","0.07250281893","","","","","","","","76","L","3","","","189","main_expt"
"","bandit","269","1025688","0.0-230.0-0.0","07690975","wem/bandit_either_2","A1FYTTGF0QACU9","either","4","435","","","","","","","0","0","1","","0.3177850294","0.2","0.8","0.6","0.4","0.2367317824","0.1842725295","0.3177850294","0.07895395147","","","","","","","","","","","","75","K","2","","","190","main_expt"
"","bandit","270","1028344","0.0-231.0-0.0","07690975","wem/bandit_either_2","A1FYTTGF0QACU9","either","4","351","","","","","","","0","0","1","","0.2876912335","0.2","0.8","0.6","0.4","0.2515026666","0.2087081259","0.2876912335","0.06204701637","","","","","","","","","","","","75","K","2","","","191","main_expt"
"","bandit","271","1030405","0.0-232.0-0.0","07690975","wem/bandit_either_2","A1FYTTGF0QACU9","either","4","516","","","","","","","0","0","1","0.1800110976","","0.2","0.8","0.6","0.4","","","","","0.2451916405","0.1800110976","0.2383873749","0.064067899","","","","","","","","74","J","1","","","192","main_expt"
"","bandit","272","1033118","0.0-233.0-0.0","07690975","wem/bandit_either_2","A1FYTTGF0QACU9","either","4","1134","","","","","","","0","0","1","","0.1286650472","0.2","0.8","0.6","0.4","0.2353451433","0.1519186298","0.24690957","0.1286650472","","","","","","","","","","","","76","L","3","","","193","main_expt"
"","bandit","273","1035226","0.0-234.0-0.0","07690975","wem/bandit_either_2","A1FYTTGF0QACU9","either","4","557","","","","","","","1","0","0","0.1746490116","","0.2","0.8","0.6","0.4","","","","","0.307075739","0.1431656489","0.2728455101","0.1746490116","","","","","","","","76","L","3","","","194","main_expt"
"","bandit","274","1037349","0.0-235.0-0.0","07690975","wem/bandit_either_2","A1FYTTGF0QACU9","either","4","583","","","","","","","0","0","1","0.129035247","","0.2","0.8","0.6","0.4","","","","","0.3011001907","0.1868251083","0.2421292151","0.129035247","","","","","","","","76","L","3","","","195","main_expt"
"","bandit","275","1039358","0.0-236.0-0.0","07690975","wem/bandit_either_2","A1FYTTGF0QACU9","either","4","480","","","","","","","0","0","1","0.09052040682","","0.2","0.8","0.6","0.4","","","","","0.2861216794","0.176624335","0.2598052724","0.09052040682","","","","","","","","76","L","3","","","196","main_expt"
"","bandit","276","1041158","0.0-237.0-0.0","07690975","wem/bandit_either_2","A1FYTTGF0QACU9","either","4","252","","","","","","","0","0","1","0.2540930088","","0.2","0.8","0.6","0.4","","","","","0.2121549007","0.2383323772","0.2540930088","0.08675464884","","","","","","","","75","K","2","","","197","main_expt"
"","bandit","277","1043040","0.0-238.0-0.0","07690975","wem/bandit_either_2","A1FYTTGF0QACU9","either","4","324","","","","","","","1","0","0","0.260618614","","0.2","0.8","0.6","0.4","","","","","0.260340052","0.260618614","0.2460150375","0.09429549835","","","","","","","","74","J","1","","","198","main_expt"
"","bandit","278","1045003","0.0-239.0-0.0","07690975","wem/bandit_either_2","A1FYTTGF0QACU9","either","4","411","","","","","","","1","0","0","0.2935067364","","0.2","0.8","0.6","0.4","","","","","0.3009562829","0.2935067364","0.2217343644","0.09303778716","","","","","","","","74","J","1","","","199","main_expt"
"","bandit","279","1046958","0.0-240.0-0.0","07690975","wem/bandit_either_2","A1FYTTGF0QACU9","either","4","425","","","","","","","1","0","0","0.362920627","","0.2","0.8","0.6","0.4","","","","","0.3430896668","0.362920627","0.2830302048","0.07354084322","","","","","","","","74","J","1","","","200","main_expt"
"","bandit","280","1048844","0.0-241.0-0.0","07690975","wem/bandit_either_2","A1FYTTGF0QACU9","either","4","309","","","","","","","0","0","1","0.3119044903","","0.2","0.8","0.6","0.4","","","","","0.2973668079","0.3119044903","0.3175621279","0.08115367452","","","","","","","","74","J","1","","","201","main_expt"
"","bandit","281","1050714","0.0-242.0-0.0","07690975","wem/bandit_either_2","A1FYTTGF0QACU9","either","4","340","","","","","","","1","0","0","0.3049471546","","0.2","0.8","0.6","0.4","","","","","0.3219337599","0.3095695708","0.3049471546","0.0774842685","","","","","","","","75","K","2","","","202","main_expt"
"","bandit","282","1052686","0.0-243.0-0.0","07690975","wem/bandit_either_2","A1FYTTGF0QACU9","either","4","417","","","","","","","0","0","1","0.2975042969","","0.2","0.8","0.6","0.4","","","","","0.3229991028","0.3005459379","0.2975042969","0.09704724367","","","","","","","","75","K","2","","","203","main_expt"
"","bandit","283","1054565","0.0-244.0-0.0","07690975","wem/bandit_either_2","A1FYTTGF0QACU9","either","4","343","","","","","","","1","0","0","0.3116824409","","0.2","0.8","0.6","0.4","","","","","0.3077995671","0.3116824409","0.2268457719","0.1224111047","","","","","","","","74","J","1","","","204","main_expt"
"","bandit","284","1056533","0.0-245.0-0.0","07690975","wem/bandit_either_2","A1FYTTGF0QACU9","either","4","405","","","","","","","0","1","0","","0.3291635812","0.2","0.8","0.6","0.4","0.3070199156","0.3291635812","0.2582085449","0.1627664319","","","","","","","","","","","","74","J","1","","","205","main_expt"
"","bandit","285","1058443","0.0-246.0-0.0","07690975","wem/bandit_either_2","A1FYTTGF0QACU9","either","4","338","","","","","","","0","0","1","0.4008790519","","0.2","0.8","0.6","0.4","","","","","0.3109683939","0.4008790519","0.2841247045","0.1604236747","","","","","","","","74","J","1","","","206","main_expt"
"","bandit","286","1060298","0.0-247.0-0.0","07690975","wem/bandit_either_2","A1FYTTGF0QACU9","either","4","298","","","","","","","0","0","1","0.4202180382","","0.2","0.8","0.6","0.4","","","","","0.2845075958","0.4202180382","0.3333225396","0.126388554","","","","","","","","74","J","1","","","207","main_expt"
"","bandit","287","1062116","0.0-248.0-0.0","07690975","wem/bandit_either_2","A1FYTTGF0QACU9","either","4","240","","","","","","","0","0","1","0.290219871","","0.2","0.8","0.6","0.4","","","","","0.2419557814","0.4168586074","0.290219871","0.1602309633","","","","","","","","75","K","2","","","208","main_expt"
"","bandit","288","1064384","0.0-249.0-0.0","07690975","wem/bandit_either_2","A1FYTTGF0QACU9","either","4","731","","","","","","","0","0","1","","0.3949328033","0.2","0.8","0.6","0.4","0.2449545816","0.3949328033","0.3426384504","0.2009997365","","","","","","","","","","","","74","J","1","","","209","main_expt"
"","bandit","289","1066307","0.0-250.0-0.0","07690975","wem/bandit_either_2","A1FYTTGF0QACU9","either","4","372","","","","","","","0","1","0","","0.41782505","0.2","0.8","0.6","0.4","0.2176860071","0.41782505","0.2932754766","0.1997114924","","","","","","","","","","","","74","J","1","","","210","main_expt"
"","bandit","290","1068362","0.0-251.0-0.0","07690975","wem/bandit_either_2","A1FYTTGF0QACU9","either","4","526","","","","","","","1","0","0","0.4377941382","","0.2","0.8","0.6","0.4","","","","","0.2460847292","0.4377941382","0.2522206247","0.2631807131","","","","","","","","74","J","1","","","211","main_expt"
"","bandit","291","1070187","0.0-252.0-0.0","07690975","wem/bandit_either_2","A1FYTTGF0QACU9","either","4","286","","","","","","","0","0","1","0.4619006446","","0.2","0.8","0.6","0.4","","","","","0.2017704833","0.4619006446","0.2323705111","0.2008991105","","","","","","","","74","J","1","","","212","main_expt"
"","bandit","292","1072062","0.0-253.0-0.0","07690975","wem/bandit_either_2","A1FYTTGF0QACU9","either","4","336","","","","","","","0","0","1","0.4508737721","","0.2","0.8","0.6","0.4","","","","","0.1891715169","0.4508737721","0.2815580385","0.1656487101","","","","","","","","74","J","1","","","213","main_expt"
"","bandit","293","1073978","0.0-254.0-0.0","07690975","wem/bandit_either_2","A1FYTTGF0QACU9","either","4","365","","","","","","","0","0","1","","0.2955812139","0.2","0.8","0.6","0.4","0.1819308411","0.4639731149","0.2955812139","0.213788386","","","","","","","","","","","","75","K","2","","","214","main_expt"
"","bandit","294","1075578","0.0-255.0-0.0","07690975","wem/bandit_either_2","A1FYTTGF0QACU9","either","4","65","","","","","","","0","0","1","0.4690757113","","0.2","0.8","0.6","0.4","","","","","0.1406935411","0.4690757113","0.2988647484","0.2206736926","","","","","","","","74","J","1","","","215","main_expt"
"","bandit","295","1077462","0.0-256.0-0.0","07690975","wem/bandit_either_2","A1FYTTGF0QACU9","either","4","302","","","","","","","0","0","1","0.4685680314","","0.2","0.8","0.6","0.4","","","","","0.206739756","0.4685680314","0.3361974059","0.2270120675","","","","","","","","74","J","1","","","216","main_expt"
"","bandit","296","1079088","0.0-257.0-0.0","07690975","wem/bandit_either_2","A1FYTTGF0QACU9","either","4","57","","","","","","","0","0","1","0.4873952874","","0.2","0.8","0.6","0.4","","","","","0.178624692","0.4873952874","0.2764506131","0.2561581829","","","","","","","","74","J","1","","","217","main_expt"
"","bandit","297","1081303","0.0-258.0-0.0","07690975","wem/bandit_either_2","A1FYTTGF0QACU9","either","4","672","","","","","","","0","0","1","","0.299893698","0.2","0.8","0.6","0.4","0.2021641755","0.4790671899","0.299893698","0.2785758431","","","","","","","","","","","","75","K","2","","","218","main_expt"
"","bandit","298","1083376","0.0-259.0-0.0","07690975","wem/bandit_either_2","A1FYTTGF0QACU9","either","4","542","","","","","","","0","0","1","0.2707863597","","0.2","0.8","0.6","0.4","","","","","0.2076996705","0.4769795117","0.3213687962","0.2707863597","","","","","","","","76","L","3","","","219","main_expt"
"","bandit","299","1085409","0.0-260.0-0.0","07690975","wem/bandit_either_2","A1FYTTGF0QACU9","either","4","488","","","","","","","0","0","1","","0.2479045362","0.2","0.8","0.6","0.4","0.2479045362","0.4746148145","0.3782095139","0.2262269101","","","","","","","","","","","","72","H","0","img/none_selected.jpg","","220","main_expt"
"","bandit","300","1087321","0.0-261.0-0.0","07690975","wem/bandit_either_2","A1FYTTGF0QACU9","either","4","354","","","","","","","0","0","1","","0.4789253058","0.2","0.8","0.6","0.4","0.251163546","0.4789253058","0.3572699546","0.2522421151","","","","","","","","","","","","74","J","1","","","221","main_expt"
"","bandit","301","1088895","0.0-262.0-0.0","07690975","wem/bandit_either_2","A1FYTTGF0QACU9","either","4","26","","","","","","","0","1","0","","0.332217079","0.2","0.8","0.6","0.4","0.2653622565","0.4765400837","0.332217079","0.2323100388","","","","","","","","","","","","75","K","2","","","222","main_expt"
"","bandit","302","1090906","0.0-263.0-0.0","07690975","wem/bandit_either_2","A1FYTTGF0QACU9","either","4","449","","","","","","","0","0","1","0.3327789551","","0.2","0.8","0.6","0.4","","","","","0.2034578964","0.4872993944","0.3327789551","0.2013525365","","","","","","","","75","K","2","","","223","main_expt"
"","bandit","303","1092859","0.0-264.0-0.0","07690975","wem/bandit_either_2","A1FYTTGF0QACU9","either","4","419","","","","","","","0","0","1","","0.3720138676","0.2","0.8","0.6","0.4","0.1176985371","0.4864577786","0.3720138676","0.2017363432","","","","","","","","","","","","75","K","2","","","224","main_expt"
"","bandit","304","1094778","0.0-265.0-0.0","07690975","wem/bandit_either_2","A1FYTTGF0QACU9","either","4","364","","","","","","","1","0","0","0.4815865163","","0.2","0.8","0.6","0.4","","","","","0.08531446518","0.4815865163","0.4035982493","0.1608447522","","","","","","","","74","J","1","","","225","main_expt"
"","bandit","305","1096714","0.0-266.0-0.0","07690975","wem/bandit_either_2","A1FYTTGF0QACU9","either","4","362","","","","","","","0","0","1","0.4781941344","","0.2","0.8","0.6","0.4","","","","","0.0901010045","0.4781941344","0.3538577565","0.2023183299","","","","","","","","74","J","1","","","226","main_expt"
"","bandit","306","1098565","0.0-267.0-0.0","07690975","wem/bandit_either_2","A1FYTTGF0QACU9","either","4","298","","","","","","","1","0","0","0.4742279627","","0.2","0.8","0.6","0.4","","","","","0.06499555022","0.4742279627","0.4205879778","0.1555458008","","","","","","","","74","J","1","","","227","main_expt"
"","bandit","307","1100483","0.0-268.0-0.0","07690975","wem/bandit_either_2","A1FYTTGF0QACU9","either","4","381","","","","","","","1","0","0","0.4597327255","","0.2","0.8","0.6","0.4","","","","","0.06967502077","0.4597327255","0.4082381823","0.1210896773","","","","","","","","74","J","1","","","228","main_expt"
"","bandit","308","1102536","0.0-269.0-0.0","07690975","wem/bandit_either_2","A1FYTTGF0QACU9","either","4","506","","","","","","","0","1","0","","0.4733003713","0.2","0.8","0.6","0.4","0.07642173418","0.4733003713","0.4274963613","0.1206830913","","","","","","","","","","","","74","J","1","","","229","main_expt"
"","bandit","309","1104521","0.0-270.0-0.0","07690975","wem/bandit_either_2","A1FYTTGF0QACU9","either","4","436","","","","","","","0","0","1","0.4832022084","","0.2","0.8","0.6","0.4","","","","","0.04973788902","0.4832022084","0.4362488765","0.1334008039","","","","","","","","74","J","1","","","230","main_expt"
"","bandit","310","1106581","0.0-271.0-0.0","07690975","wem/bandit_either_2","A1FYTTGF0QACU9","either","4","460","","","","","","","0","1","0","","0.4802630573","0.2","0.8","0.6","0.4","0.07419495466","0.4802630573","0.4420629534","0.1048467088","","","","","","","","","","","","74","J","1","","","231","main_expt"
"","bandit","311","1108640","0.0-272.0-0.0","07690975","wem/bandit_either_2","A1FYTTGF0QACU9","either","4","504","","","","","","","0","0","1","0.4739318499","","0.2","0.8","0.6","0.4","","","","","0.08125260149","0.4739318499","0.4287414635","0.1184002818","","","","","","","","74","J","1","","","232","main_expt"
"","bandit","312","1110690","0.0-273.0-0.0","07690975","wem/bandit_either_2","A1FYTTGF0QACU9","either","4","505","","","","","","","0","1","0","","0.4709765286","0.2","0.8","0.6","0.4","0.06057073796","0.4709765286","0.4395511981","0.08533064469","","","","","","","","","","","","74","J","1","","","233","main_expt"
"","bandit","313","1112622","0.0-274.0-0.0","07690975","wem/bandit_either_2","A1FYTTGF0QACU9","either","4","377","","","","","","","0","1","0","","0.4658145356","0.2","0.8","0.6","0.4","0.1037411708","0.4658145356","0.4479240545","0.1190123434","","","","","","","","","","","","74","J","1","","","234","main_expt"
"","bandit","314","1114544","0.0-275.0-0.0","07690975","wem/bandit_either_2","A1FYTTGF0QACU9","either","4","338","","","","","","","0","1","0","","0.4312508187","0.2","0.8","0.6","0.4","0.1267441937","0.4312508187","0.4476644646","0.1392024459","","","","","","","","","","","","74","J","1","","","235","main_expt"
"","bandit","315","1116642","0.0-276.0-0.0","07690975","wem/bandit_either_2","A1FYTTGF0QACU9","either","4","532","","","","","","","1","0","0","0.4323277229","","0.2","0.8","0.6","0.4","","","","","0.1002206095","0.4323277229","0.457106966","0.1076242464","","","","","","","","74","J","1","","","236","main_expt"
"","bandit","316","1118616","0.0-277.0-0.0","07690975","wem/bandit_either_2","A1FYTTGF0QACU9","either","4","399","","","","","","","0","1","0","","0.4517679415","0.2","0.8","0.6","0.4","0.08353940566","0.4517679415","0.4097288684","0.1539911713","","","","","","","","","","","","74","J","1","","","237","main_expt"
"","bandit","317","1120543","0.0-278.0-0.0","07690975","wem/bandit_either_2","A1FYTTGF0QACU9","either","4","381","","","","","","","0","0","1","0.4476427196","","0.2","0.8","0.6","0.4","","","","","0.07847158511","0.4476427196","0.4530646831","0.1833253983","","","","","","","","74","J","1","","","238","main_expt"
"","bandit","318","1122610","0.0-279.0-0.0","07690975","wem/bandit_either_2","A1FYTTGF0QACU9","either","4","455","","","","","","","1","0","0","0.4421551546","","0.2","0.8","0.6","0.4","","","","","0.1132310855","0.4421551546","0.4532148127","0.185515968","","","","","","","","74","J","1","","","239","main_expt"
"","bandit","319","1124714","0.0-280.0-0.0","07690975","wem/bandit_either_2","A1FYTTGF0QACU9","either","4","572","","","","","","","1","0","0","0.4205303603","","0.2","0.8","0.6","0.4","","","","","0.130249024","0.4205303603","0.4456906816","0.2545144829","","","","","","","","74","J","1","","","240","main_expt"
"","bandit","320","1126613","0.0-281.0-0.0","07690975","wem/bandit_either_2","A1FYTTGF0QACU9","either","4","358","","","","","","","0","0","1","0.4304808994","","0.2","0.8","0.6","0.4","","","","","0.1356270161","0.4304808994","0.4515134246","0.1902236802","","","","","","","","74","J","1","","","241","main_expt"
"","bandit","321","1128536","0.0-282.0-0.0","07690975","wem/bandit_either_2","A1FYTTGF0QACU9","either","4","368","","","","","","","0","0","1","0.4640222466","","0.2","0.8","0.6","0.4","","","","","0.1402569013","0.4318168925","0.4640222466","0.2196571485","","","","","","","","75","K","2","","","242","main_expt"
"","bandit","322","1130386","0.0-283.0-0.0","07690975","wem/bandit_either_2","A1FYTTGF0QACU9","either","4","303","","","","","","","1","0","0","0.4437639365","","0.2","0.8","0.6","0.4","","","","","0.1851652895","0.4437639365","0.4305348251","0.2691755858","","","","","","","","74","J","1","","","243","main_expt"
"","bandit","323","1132462","0.0-284.0-0.0","07690975","wem/bandit_either_2","A1FYTTGF0QACU9","either","4","500","","","","","","","0","0","1","0.4444545885","","0.2","0.8","0.6","0.4","","","","","0.1871667761","0.4444545885","0.4444417595","0.2689580194","","","","","","","","74","J","1","","","244","main_expt"
"","bandit","324","1134389","0.0-285.0-0.0","07690975","wem/bandit_either_2","A1FYTTGF0QACU9","either","4","381","","","","","","","0","0","1","0.445216333","","0.2","0.8","0.6","0.4","","","","","0.1881322931","0.445216333","0.4468105605","0.1935089033","","","","","","","","74","J","1","","","245","main_expt"
"","bandit","325","1136572","0.0-286.0-0.0","07690975","wem/bandit_either_2","A1FYTTGF0QACU9","either","4","651","","","","","","","0","0","1","0.4453418505","","0.2","0.8","0.6","0.4","","","","","0.187853128","0.4767449203","0.4453418505","0.1466547275","","","","","","","","75","K","2","","","246","main_expt"
"","bandit","326","1138559","0.0-287.0-0.0","07690975","wem/bandit_either_2","A1FYTTGF0QACU9","either","4","447","","","","","","","1","0","0","0.4530054638","","0.2","0.8","0.6","0.4","","","","","0.1952756904","0.4530054638","0.4426138654","0.1275107348","","","","","","","","74","J","1","","","247","main_expt"
"","bandit","327","1140518","0.0-288.0-0.0","07690975","wem/bandit_either_2","A1FYTTGF0QACU9","either","4","403","","","","","","","0","0","1","0.4326938674","","0.2","0.8","0.6","0.4","","","","","0.1722543521","0.4326938674","0.464375056","0.107785627","","","","","","","","74","J","1","","","248","main_expt"
