"consent","trial_type","trial_index","time_elapsed","internal_node_id","subjID","study","MID","cond","drift","rt","responses","key_press","expt_phase","like","value","connected","gems","bombs","no_reward","GemPrChosen","BombPrChosen","GainOverPainPr_0","GainOverPainPr_1","GainOverPainPr_2","GainOverPainPr_3","LosePr_0","LosePr_1","LosePr_2","LosePr_3","WinPr_0","WinPr_1","WinPr_2","WinPr_3","Q0","Q1","Q2","gender","age","ethnicity","target","respCharCode","respKey","respChoiceNum","respChoice","practice","trial_counter","trial_label"
"INL_behavioral_consent_30min_online.html","consent","0","28327","0.0-0.0","09072577","wem/bandit_either_2","A289D98Z4GAZ28","either","7","","","","","","","","","","","","","","","","","","","","","","","","","","","","","","","","","","","","","",""
"","survey-text","1","42819","0.0-1.0","09072577","wem/bandit_either_2","A289D98Z4GAZ28","either","7","13488","{""Q0"":""A289D98Z4GAZ28""}","","","","","","","","","","","","","","","","","","","","","","","","","","","","","","","","","","","",""
"","text","2","69132","0.0-2.0","09072577","wem/bandit_either_2","A289D98Z4GAZ28","either","7","25309","","32","","","","","","","","","","","","","","","","","","","","","","","","","","","","","","","","","","",""
"","text","3","104748","0.0-3.0","09072577","wem/bandit_either_2","A289D98Z4GAZ28","either","7","35615","","32","","","","","","","","","","","","","","","","","","","","","","","","","","","","","","","","","","",""
"","text","4","217108","0.0-4.0","09072577","wem/bandit_either_2","A289D98Z4GAZ28","either","7","112359","","32","","","","","","","","","","","","","","","","","","","","","","","","","","","","","","","","","","",""
"","text","5","272963","0.0-5.0","09072577","wem/bandit_either_2","A289D98Z4GAZ28","either","7","55854","","32","","","","","","","","","","","","","","","","","","","","","","","","","","","","","","","","","","",""
"","text","6","346498","0.0-6.0","09072577","wem/bandit_either_2","A289D98Z4GAZ28","either","7","73534","","32","","","","","","","","","","","","","","","","","","","","","","","","","","","","","","","","","","",""
"","text","7","396204","0.0-7.0","09072577","wem/bandit_either_2","A289D98Z4GAZ28","either","7","49704","","32","","","","","","","","","","","","","","","","","","","","","","","","","","","","","","","","","","",""
"","text","8","404666","0.0-8.0","09072577","wem/bandit_either_2","A289D98Z4GAZ28","either","7","8462","","32","","","","","","","","","","","","","","","","","","","","","","","","","","","","","","","","","","",""
"","identification","9","424695","0.0-9.0-0.0","09072577","wem/bandit_either_2","A289D98Z4GAZ28","either","7","20017","","","","6","6","6","","","","","","","","","","","","","","","","","","","","","","","","the village of Zur","","","","","","",""
"","identification","10","436420","0.0-9.0-1.0","09072577","wem/bandit_either_2","A289D98Z4GAZ28","either","7","10717","","","","0","0","0","","","","","","","","","","","","","","","","","","","","","","","","the village of Nyx","","","","","","",""
"","text","11","447939","0.0-10.0","09072577","wem/bandit_either_2","A289D98Z4GAZ28","either","7","10517","","32","","","","","","","","","","","","","","","","","","","","","","","","","","","","","","","","","","",""
"","text","12","458291","0.0-11.0","09072577","wem/bandit_either_2","A289D98Z4GAZ28","either","7","10350","","32","","","","","","","","","","","","","","","","","","","","","","","","","","","","","","","","","","",""
"","text","13","483924","0.0-12.0","09072577","wem/bandit_either_2","A289D98Z4GAZ28","either","7","25631","","32","","","","","","","","","","","","","","","","","","","","","","","","","","","","","","","","","","",""
"","text","14","500451","0.0-13.0","09072577","wem/bandit_either_2","A289D98Z4GAZ28","either","7","16527","","32","","","","","","","","","","","","","","","","","","","","","","","","","","","","","","","","","","",""
"","bandit","15","506323","0.0-14.0-0.0","09072577","wem/bandit_either_2","A289D98Z4GAZ28","either","7","4365","","","","","","","0","0","1","0","0","","","","","0","","","","0","","","","","","","","","","","74","J","0","img/none_selected_demo.jpg","true","0",""
"","bandit","16","511593","0.0-15.0-0.0","09072577","wem/bandit_either_2","A289D98Z4GAZ28","either","7","3766","","","","","","","0","0","1","0","0","","","","","0","","","","0","","","","","","","","","","","75","K","0","img/none_selected_demo.jpg","true","0",""
"","text","17","537547","0.0-16.0","09072577","wem/bandit_either_2","A289D98Z4GAZ28","either","7","25951","","32","","","","","","","","","","","","","","","","","","","","","","","","","","","","","","","","","","",""
"","text","18","558618","0.0-17.0","09072577","wem/bandit_either_2","A289D98Z4GAZ28","either","7","21069","","32","","","","","","","","","","","","","","","","","","","","","","","","","","","","","","","","","","",""
"","text","19","580035","0.0-18.0","09072577","wem/bandit_either_2","A289D98Z4GAZ28","either","7","21415","","32","","","","","","","","","","","","","","","","","","","","","","","","","","","","","","","","","","",""
"","text","20","591555","0.0-19.0","09072577","wem/bandit_either_2","A289D98Z4GAZ28","either","7","11519","","32","","","","","","","","","","","","","","","","","","","","","","","","","","","","","","","","","","",""
"","bandit","21","595703","0.0-20.0-0.0","09072577","wem/bandit_either_2","A289D98Z4GAZ28","either","7","2645","","","","","","","1","0","0","0.8","","0.5","0.5","","","","","","","0.8","0.2","","","","","","","","","","74","J","0","img/none_selected_demo.jpg","true","0","80_20_practice"
"","bandit","22","598551","0.0-20.0-1.0","09072577","wem/bandit_either_2","A289D98Z4GAZ28","either","7","1344","","","","","","","0","0","1","","0.2","0.5","0.5","","","0.8","0.2","","","","","","","","","","","","","","75","K","1","","true","0","80_20_practice"
"","bandit","23","600680","0.0-20.0-2.0","09072577","wem/bandit_either_2","A289D98Z4GAZ28","either","7","624","","","","","","","0","0","1","0.2","","0.5","0.5","","","","","","","0.8","0.2","","","","","","","","","","75","K","1","","true","0","80_20_practice"
"","bandit","24","602824","0.0-20.0-3.0","09072577","wem/bandit_either_2","A289D98Z4GAZ28","either","7","640","","","","","","","0","1","0","","0.8","0.5","0.5","","","0.8","0.2","","","","","","","","","","","","","","74","J","0","img/none_selected_demo.jpg","true","0","80_20_practice"
"","bandit","25","605313","0.0-20.0-4.0","09072577","wem/bandit_either_2","A289D98Z4GAZ28","either","7","984","","","","","","","0","0","1","0.8","","0.5","0.5","","","","","","","0.8","0.2","","","","","","","","","","74","J","0","img/none_selected_demo.jpg","true","0","80_20_practice"
"","bandit","26","607486","0.0-20.0-5.0","09072577","wem/bandit_either_2","A289D98Z4GAZ28","either","7","671","","","","","","","0","0","1","0.2","","0.5","0.5","","","","","","","0.8","0.2","","","","","","","","","","75","K","1","","true","0","80_20_practice"
"","bandit","27","609559","0.0-20.0-6.0","09072577","wem/bandit_either_2","A289D98Z4GAZ28","either","7","570","","","","","","","1","0","0","0.8","","0.5","0.5","","","","","","","0.8","0.2","","","","","","","","","","74","J","0","img/none_selected_demo.jpg","true","0","80_20_practice"
"","bandit","28","611743","0.0-20.0-7.0","09072577","wem/bandit_either_2","A289D98Z4GAZ28","either","7","680","","","","","","","1","0","0","0.8","","0.5","0.5","","","","","","","0.8","0.2","","","","","","","","","","74","J","0","img/none_selected_demo.jpg","true","0","80_20_practice"
"","bandit","29","613989","0.0-20.0-8.0","09072577","wem/bandit_either_2","A289D98Z4GAZ28","either","7","744","","","","","","","0","1","0","","0.8","0.5","0.5","","","0.8","0.2","","","","","","","","","","","","","","74","J","0","img/none_selected_demo.jpg","true","0","80_20_practice"
"","bandit","30","616121","0.0-20.0-9.0","09072577","wem/bandit_either_2","A289D98Z4GAZ28","either","7","627","","","","","","","0","0","1","","0.2","0.5","0.5","","","0.8","0.2","","","","","","","","","","","","","","75","K","1","","true","0","80_20_practice"
"","bandit","31","618249","0.0-20.0-10.0","09072577","wem/bandit_either_2","A289D98Z4GAZ28","either","7","623","","","","","","","0","1","0","","0.2","0.5","0.5","","","0.8","0.2","","","","","","","","","","","","","","75","K","1","","true","0","80_20_practice"
"","bandit","32","620415","0.0-20.0-11.0","09072577","wem/bandit_either_2","A289D98Z4GAZ28","either","7","663","","","","","","","0","0","1","0.2","","0.5","0.5","","","","","","","0.8","0.2","","","","","","","","","","75","K","1","","true","0","80_20_practice"
"","bandit","33","622473","0.0-20.0-12.0","09072577","wem/bandit_either_2","A289D98Z4GAZ28","either","7","552","","","","","","","1","0","0","0.8","","0.5","0.5","","","","","","","0.8","0.2","","","","","","","","","","74","J","0","img/none_selected_demo.jpg","true","0","80_20_practice"
"","bandit","34","624544","0.0-20.0-13.0","09072577","wem/bandit_either_2","A289D98Z4GAZ28","either","7","567","","","","","","","1","0","0","0.8","","0.5","0.5","","","","","","","0.8","0.2","","","","","","","","","","74","J","0","img/none_selected_demo.jpg","true","0","80_20_practice"
"","bandit","35","626511","0.0-20.0-14.0","09072577","wem/bandit_either_2","A289D98Z4GAZ28","either","7","463","","","","","","","1","0","0","0.8","","0.5","0.5","","","","","","","0.8","0.2","","","","","","","","","","74","J","0","img/none_selected_demo.jpg","true","0","80_20_practice"
"","bandit","36","628527","0.0-20.0-15.0","09072577","wem/bandit_either_2","A289D98Z4GAZ28","either","7","512","","","","","","","1","0","0","0.8","","0.5","0.5","","","","","","","0.8","0.2","","","","","","","","","","74","J","0","img/none_selected_demo.jpg","true","0","80_20_practice"
"","bandit","37","630424","0.0-20.0-16.0","09072577","wem/bandit_either_2","A289D98Z4GAZ28","either","7","392","","","","","","","0","0","1","0.8","","0.5","0.5","","","","","","","0.8","0.2","","","","","","","","","","74","J","0","img/none_selected_demo.jpg","true","0","80_20_practice"
"","bandit","38","632247","0.0-20.0-17.0","09072577","wem/bandit_either_2","A289D98Z4GAZ28","either","7","319","","","","","","","0","1","0","","0.8","0.5","0.5","","","0.8","0.2","","","","","","","","","","","","","","74","J","0","img/none_selected_demo.jpg","true","0","80_20_practice"
"","bandit","39","634071","0.0-20.0-18.0","09072577","wem/bandit_either_2","A289D98Z4GAZ28","either","7","320","","","","","","","1","0","0","0.8","","0.5","0.5","","","","","","","0.8","0.2","","","","","","","","","","74","J","0","img/none_selected_demo.jpg","true","0","80_20_practice"
"","bandit","40","636126","0.0-20.0-19.0","09072577","wem/bandit_either_2","A289D98Z4GAZ28","either","7","551","","","","","","","0","0","1","","0.8","0.5","0.5","","","0.8","0.2","","","","","","","","","","","","","","74","J","0","img/none_selected_demo.jpg","true","0","80_20_practice"
"","text","41","642954","0.0-21.0","09072577","wem/bandit_either_2","A289D98Z4GAZ28","either","7","6826","","32","","","","","","","","","","","","","","","","","","","","","","","","","","","","","","","","","","",""
"","bandit","42","647064","0.0-22.0-0.0","09072577","wem/bandit_either_2","A289D98Z4GAZ28","either","7","2605","","","","","","","1","0","0","1","0","","","","","0","1","","","1","0","","","","","","","","","","74","J","0","img/none_selected_demo.jpg","true","0",""
"","text","43","659282","0.0-23.0","09072577","wem/bandit_either_2","A289D98Z4GAZ28","either","7","12217","","32","","","","","","","","","","","","","","","","","","","","","","","","","","","","","","","","","","",""
"","text","44","665586","0.0-24.0","09072577","wem/bandit_either_2","A289D98Z4GAZ28","either","7","6302","","32","","","","","","","","","","","","","","","","","","","","","","","","","","","","","","","","","","",""
"","text","45","676466","0.0-25.0","09072577","wem/bandit_either_2","A289D98Z4GAZ28","either","7","10879","","32","","","","","","","","","","","","","","","","","","","","","","","","","","","","","","","","","","",""
"","text","46","689810","0.0-26.0","09072577","wem/bandit_either_2","A289D98Z4GAZ28","either","7","13343","","32","","","","","","","","","","","","","","","","","","","","","","","","","","","","","","","","","","",""
"","text","47","704890","0.0-27.0","09072577","wem/bandit_either_2","A289D98Z4GAZ28","either","7","15078","","32","","","","","","","","","","","","","","","","","","","","","","","","","","","","","","","","","","",""
"","text","48","713562","0.0-28.0","09072577","wem/bandit_either_2","A289D98Z4GAZ28","either","7","8670","","32","","","","","","","","","","","","","","","","","","","","","","","","","","","","","","","","","","",""
"","text","49","725818","0.0-29.0","09072577","wem/bandit_either_2","A289D98Z4GAZ28","either","7","12255","","32","","","","","","","","","","","","","","","","","","","","","","","","","","","","","","","","","","",""
"","text","50","733674","0.0-30.0","09072577","wem/bandit_either_2","A289D98Z4GAZ28","either","7","7854","","32","","","","","","","","","","","","","","","","","","","","","","","","","","","","","","","","","","",""
"","text","51","744042","0.0-31.0","09072577","wem/bandit_either_2","A289D98Z4GAZ28","either","7","10367","","32","","","","","","","","","","","","","","","","","","","","","","","","","","","","","","","","","","",""
"","text","52","755090","0.0-32.0","09072577","wem/bandit_either_2","A289D98Z4GAZ28","either","7","11047","","32","","","","","","","","","","","","","","","","","","","","","","","","","","","","","","","","","","",""
"","text","53","758778","0.0-33.0","09072577","wem/bandit_either_2","A289D98Z4GAZ28","either","7","3685","","32","","","","","","","","","","","","","","","","","","","","","","","","","","","","","","","","","","",""
"","bandit","54","761045","0.0-34.0-0.0","09072577","wem/bandit_either_2","A289D98Z4GAZ28","either","7","765","","","","","","","1","0","0","0.8","","0.5","0.5","0.5","0.5","","","","","0.8","0.2","0.6","0.2","","","","","","","","72","H","0","img/none_selected.jpg","true","0","full_practice"
"","bandit","55","762998","0.0-34.0-1.0","09072577","wem/bandit_either_2","A289D98Z4GAZ28","either","7","449","","","","","","","1","0","0","0.8","","0.5","0.5","0.5","0.5","","","","","0.8","0.2","0.6","0.2","","","","","","","","72","H","0","img/none_selected.jpg","true","0","full_practice"
"","bandit","56","764912","0.0-34.0-2.0","09072577","wem/bandit_either_2","A289D98Z4GAZ28","either","7","408","","","","","","","0","1","0","","0.8","0.5","0.5","0.5","0.5","0.8","0.2","0.6","0.2","","","","","","","","","","","","72","H","0","img/none_selected.jpg","true","0","full_practice"
"","bandit","57","766767","0.0-34.0-3.0","09072577","wem/bandit_either_2","A289D98Z4GAZ28","either","7","351","","","","","","","1","0","0","0.8","","0.5","0.5","0.5","0.5","","","","","0.8","0.2","0.6","0.2","","","","","","","","72","H","0","img/none_selected.jpg","true","0","full_practice"
"","bandit","58","768656","0.0-34.0-4.0","09072577","wem/bandit_either_2","A289D98Z4GAZ28","either","7","383","","","","","","","1","0","0","0.8","","0.5","0.5","0.5","0.5","","","","","0.8","0.2","0.6","0.2","","","","","","","","72","H","0","img/none_selected.jpg","true","0","full_practice"
"","bandit","59","770511","0.0-34.0-5.0","09072577","wem/bandit_either_2","A289D98Z4GAZ28","either","7","350","","","","","","","0","0","1","","0.2","0.5","0.5","0.5","0.5","0.8","0.2","0.6","0.2","","","","","","","","","","","","74","J","1","","true","0","full_practice"
"","bandit","60","772384","0.0-34.0-6.0","09072577","wem/bandit_either_2","A289D98Z4GAZ28","either","7","368","","","","","","","1","0","0","0.6","","0.5","0.5","0.5","0.5","","","","","0.8","0.2","0.6","0.2","","","","","","","","75","K","2","","true","0","full_practice"
"","bandit","61","774295","0.0-34.0-7.0","09072577","wem/bandit_either_2","A289D98Z4GAZ28","either","7","408","","","","","","","1","0","0","0.6","","0.5","0.5","0.5","0.5","","","","","0.8","0.2","0.6","0.2","","","","","","","","75","K","2","","true","0","full_practice"
"","bandit","62","776121","0.0-34.0-8.0","09072577","wem/bandit_either_2","A289D98Z4GAZ28","either","7","318","","","","","","","0","0","1","0.6","","0.5","0.5","0.5","0.5","","","","","0.8","0.2","0.6","0.2","","","","","","","","75","K","2","","true","0","full_practice"
"","bandit","63","777992","0.0-34.0-9.0","09072577","wem/bandit_either_2","A289D98Z4GAZ28","either","7","366","","","","","","","0","0","1","","0.6","0.5","0.5","0.5","0.5","0.8","0.2","0.6","0.2","","","","","","","","","","","","75","K","2","","true","0","full_practice"
"","bandit","64","779774","0.0-34.0-10.0","09072577","wem/bandit_either_2","A289D98Z4GAZ28","either","7","278","","","","","","","0","0","1","","0.2","0.5","0.5","0.5","0.5","0.8","0.2","0.6","0.2","","","","","","","","","","","","76","L","3","","true","0","full_practice"
"","bandit","65","781838","0.0-34.0-11.0","09072577","wem/bandit_either_2","A289D98Z4GAZ28","either","7","560","","","","","","","0","0","1","0.2","","0.5","0.5","0.5","0.5","","","","","0.8","0.2","0.6","0.2","","","","","","","","76","L","3","","true","0","full_practice"
"","bandit","66","783672","0.0-34.0-12.0","09072577","wem/bandit_either_2","A289D98Z4GAZ28","either","7","328","","","","","","","1","0","0","0.6","","0.5","0.5","0.5","0.5","","","","","0.8","0.2","0.6","0.2","","","","","","","","75","K","2","","true","0","full_practice"
"","bandit","67","785559","0.0-34.0-13.0","09072577","wem/bandit_either_2","A289D98Z4GAZ28","either","7","383","","","","","","","0","1","0","","0.8","0.5","0.5","0.5","0.5","0.8","0.2","0.6","0.2","","","","","","","","","","","","72","H","0","img/none_selected.jpg","true","0","full_practice"
"","bandit","68","787414","0.0-34.0-14.0","09072577","wem/bandit_either_2","A289D98Z4GAZ28","either","7","351","","","","","","","0","0","1","","0.6","0.5","0.5","0.5","0.5","0.8","0.2","0.6","0.2","","","","","","","","","","","","75","K","2","","true","0","full_practice"
"","bandit","69","789176","0.0-34.0-15.0","09072577","wem/bandit_either_2","A289D98Z4GAZ28","either","7","257","","","","","","","0","0","1","","0.2","0.5","0.5","0.5","0.5","0.8","0.2","0.6","0.2","","","","","","","","","","","","74","J","1","","true","0","full_practice"
"","bandit","70","791144","0.0-34.0-16.0","09072577","wem/bandit_either_2","A289D98Z4GAZ28","either","7","464","","","","","","","1","0","0","0.6","","0.5","0.5","0.5","0.5","","","","","0.8","0.2","0.6","0.2","","","","","","","","75","K","2","","true","0","full_practice"
"","bandit","71","792847","0.0-34.0-17.0","09072577","wem/bandit_either_2","A289D98Z4GAZ28","either","7","198","","","","","","","0","0","1","","0.2","0.5","0.5","0.5","0.5","0.8","0.2","0.6","0.2","","","","","","","","","","","","76","L","3","","true","0","full_practice"
"","bandit","72","794462","0.0-34.0-18.0","09072577","wem/bandit_either_2","A289D98Z4GAZ28","either","7","111","","","","","","","0","0","1","0.2","","0.5","0.5","0.5","0.5","","","","","0.8","0.2","0.6","0.2","","","","","","","","76","L","3","","true","0","full_practice"
"","bandit","73","796350","0.0-34.0-19.0","09072577","wem/bandit_either_2","A289D98Z4GAZ28","either","7","384","","","","","","","1","0","0","0.2","","0.5","0.5","0.5","0.5","","","","","0.8","0.2","0.6","0.2","","","","","","","","74","J","1","","true","0","full_practice"
"","text","74","802611","0.0-35.0","09072577","wem/bandit_either_2","A289D98Z4GAZ28","either","7","6256","","32","","","","","","","","","","","","","","","","","","","","","","","","","","","","","","","","","","",""
"","text","75","849707","0.0-36.0","09072577","wem/bandit_either_2","A289D98Z4GAZ28","either","7","46093","","32","","","","","","","","","","","","","","","","","","","","","","","","","","","","","","","","","","",""
"","text","76","872651","0.0-37.0","09072577","wem/bandit_either_2","A289D98Z4GAZ28","either","7","22942","","32","","","","","","","","","","","","","","","","","","","","","","","","","","","","","","","","","","",""
"","text","77","882835","0.0-38.0","09072577","wem/bandit_either_2","A289D98Z4GAZ28","either","7","10182","","32","","","","","","","","","","","","","","","","","","","","","","","","","","","","","","","","","","",""
"","text","78","895603","0.0-39.0","09072577","wem/bandit_either_2","A289D98Z4GAZ28","either","7","12766","","32","","","","","","","","","","","","","","","","","","","","","","","","","","","","","","","","","","",""
"","text","79","916108","0.0-40.0","09072577","wem/bandit_either_2","A289D98Z4GAZ28","either","7","20502","","32","","","","","","","","","","","","","","","","","","","","","","","","","","","","","","","","","","",""
"","bandit","80","918823","0.0-41.0-0.0","09072577","wem/bandit_either_2","A289D98Z4GAZ28","either","7","1212","","","","","","","0","0","1","0.01738065524","","0.6","0.2","0.8","0.4","","","","","0.01738065524","0.06530018083","0.1480066451","0.1952616071","","","","","","","","72","H","0","img/none_selected.jpg","","1","main_expt"
"","bandit","81","921096","0.0-42.0-0.0","09072577","wem/bandit_either_2","A289D98Z4GAZ28","either","7","766","","","","","","","0","0","1","","0.1011701763","0.6","0.2","0.8","0.4","0.0196943787","0.1011701763","0.1053714073","0.1652234336","","","","","","","","","","","","74","J","1","","","2","main_expt"
"","bandit","82","923193","0.0-43.0-0.0","09072577","wem/bandit_either_2","A289D98Z4GAZ28","either","7","590","","","","","","","0","0","1","0.1460078221","","0.6","0.2","0.8","0.4","","","","","0.01678573497","0.09486719381","0.1460078221","0.1347382479","","","","","","","","75","K","2","","","3","main_expt"
"","bandit","83","925160","0.0-44.0-0.0","09072577","wem/bandit_either_2","A289D98Z4GAZ28","either","7","462","","","","","","","0","0","1","","0.1684625442","0.6","0.2","0.8","0.4","0.02981965743","0.06705802814","0.1866138214","0.1684625442","","","","","","","","","","","","76","L","3","","","4","main_expt"
"","bandit","84","927504","0.0-45.0-0.0","09072577","wem/bandit_either_2","A289D98Z4GAZ28","either","7","838","","","","","","","0","0","1","0.2445348717","","0.6","0.2","0.8","0.4","","","","","0.02600208211","0.0822298525","0.2445348717","0.1792029032","","","","","","","","75","K","2","","","5","main_expt"
"","bandit","85","929432","0.0-46.0-0.0","09072577","wem/bandit_either_2","A289D98Z4GAZ28","either","7","424","","","","","","","0","0","1","","0.09162209411","0.6","0.2","0.8","0.4","0.02332436933","0.09162209411","0.2546962146","0.2153873139","","","","","","","","","","","","74","J","1","","","6","main_expt"
"","bandit","86","931320","0.0-47.0-0.0","09072577","wem/bandit_either_2","A289D98Z4GAZ28","either","7","382","","","","","","","0","0","1","","0.02864040813","0.6","0.2","0.8","0.4","0.02864040813","0.1028820098","0.2344841702","0.1757762721","","","","","","","","","","","","72","H","0","img/none_selected.jpg","","7","main_expt"
"","bandit","87","933200","0.0-48.0-0.0","09072577","wem/bandit_either_2","A289D98Z4GAZ28","either","7","375","","","","","","","0","0","1","","0.2241229746","0.6","0.2","0.8","0.4","0.02951264166","0.1532270122","0.2473344203","0.2241229746","","","","","","","","","","","","76","L","3","","","8","main_expt"
"","bandit","88","935079","0.0-49.0-0.0","09072577","wem/bandit_either_2","A289D98Z4GAZ28","either","7","372","","","","","","","0","0","1","","0.2131450397","0.6","0.2","0.8","0.4","0.02997011939","0.2131450397","0.2642160399","0.2199426203","","","","","","","","","","","","74","J","1","","","9","main_expt"
"","bandit","89","937103","0.0-50.0-0.0","09072577","wem/bandit_either_2","A289D98Z4GAZ28","either","7","519","","","","","","","0","0","1","0.2104627424","","0.6","0.2","0.8","0.4","","","","","0.02489651457","0.2985754635","0.2104627424","0.1520686932","","","","","","","","75","K","2","","","10","main_expt"
"","bandit","90","939231","0.0-51.0-0.0","09072577","wem/bandit_either_2","A289D98Z4GAZ28","either","7","623","","","","","","","0","0","1","0.01651058827","","0.6","0.2","0.8","0.4","","","","","0.01651058827","0.2924640086","0.219372878","0.2013349999","","","","","","","","72","H","0","img/none_selected.jpg","","11","main_expt"
"","bandit","91","941143","0.0-52.0-0.0","09072577","wem/bandit_either_2","A289D98Z4GAZ28","either","7","406","","","","","","","0","0","1","","0.3264291113","0.6","0.2","0.8","0.4","0.02341729431","0.3264291113","0.2105839871","0.2156800105","","","","","","","","","","","","74","J","1","","","12","main_expt"
"","bandit","92","943047","0.0-53.0-0.0","09072577","wem/bandit_either_2","A289D98Z4GAZ28","either","7","398","","","","","","","0","0","1","0.2511698571","","0.6","0.2","0.8","0.4","","","","","0.0257410372","0.3254913314","0.2511698571","0.1833947696","","","","","","","","75","K","2","","","13","main_expt"
"","bandit","93","944989","0.0-54.0-0.0","09072577","wem/bandit_either_2","A289D98Z4GAZ28","either","7","439","","","","","","","0","0","1","0.243643366","","0.6","0.2","0.8","0.4","","","","","0.02570014082","0.3428504842","0.2158977649","0.243643366","","","","","","","","76","L","3","","","14","main_expt"
"","bandit","94","946865","0.0-55.0-0.0","09072577","wem/bandit_either_2","A289D98Z4GAZ28","either","7","368","","","","","","","0","0","1","0.2265365198","","0.6","0.2","0.8","0.4","","","","","0.04268316416","0.3244047679","0.2762480727","0.2265365198","","","","","","","","76","L","3","","","15","main_expt"
"","bandit","95","948800","0.0-56.0-0.0","09072577","wem/bandit_either_2","A289D98Z4GAZ28","either","7","430","","","","","","","0","0","1","","0.2484951132","0.6","0.2","0.8","0.4","0.04667408308","0.3025313629","0.3202890724","0.2484951132","","","","","","","","","","","","76","L","3","","","16","main_expt"
"","bandit","96","950727","0.0-57.0-0.0","09072577","wem/bandit_either_2","A289D98Z4GAZ28","either","7","422","","","","","","","1","0","0","0.3680552247","","0.6","0.2","0.8","0.4","","","","","0.0506688767","0.3291216938","0.3680552247","0.2570267238","","","","","","","","75","K","2","","","17","main_expt"
"","bandit","97","952728","0.0-58.0-0.0","09072577","wem/bandit_either_2","A289D98Z4GAZ28","either","7","495","","","","","","","1","0","0","0.3968593921","","0.6","0.2","0.8","0.4","","","","","0.02988526167","0.2987881532","0.3968593921","0.287418789","","","","","","","","75","K","2","","","18","main_expt"
"","bandit","98","954840","0.0-59.0-0.0","09072577","wem/bandit_either_2","A289D98Z4GAZ28","either","7","606","","","","","","","0","0","1","","0.4192996399","0.6","0.2","0.8","0.4","0.03476350355","0.281207523","0.4192996399","0.2338710899","","","","","","","","","","","","75","K","2","","","19","main_expt"
"","bandit","99","956952","0.0-60.0-0.0","09072577","wem/bandit_either_2","A289D98Z4GAZ28","either","7","606","","","","","","","1","0","0","0.4362768361","","0.6","0.2","0.8","0.4","","","","","0.0233687216","0.291129981","0.4362768361","0.2335293464","","","","","","","","75","K","2","","","20","main_expt"
"","bandit","100","958934","0.0-61.0-0.0","09072577","wem/bandit_either_2","A289D98Z4GAZ28","either","7","477","","","","","","","0","0","1","0.4599691003","","0.6","0.2","0.8","0.4","","","","","0.01272547494","0.2729578326","0.4599691003","0.2434826965","","","","","","","","75","K","2","","","21","main_expt"
"","bandit","101","961016","0.0-62.0-0.0","09072577","wem/bandit_either_2","A289D98Z4GAZ28","either","7","576","","","","","","","1","0","0","0.44353765","","0.6","0.2","0.8","0.4","","","","","0.01739491555","0.2805141014","0.44353765","0.2702300591","","","","","","","","75","K","2","","","22","main_expt"
"","bandit","102","963129","0.0-63.0-0.0","09072577","wem/bandit_either_2","A289D98Z4GAZ28","either","7","606","","","","","","","0","0","1","0.4105594395","","0.6","0.2","0.8","0.4","","","","","0.006692102231","0.3016389313","0.4105594395","0.2424740502","","","","","","","","75","K","2","","","23","main_expt"
"","bandit","103","965079","0.0-64.0-0.0","09072577","wem/bandit_either_2","A289D98Z4GAZ28","either","7","444","","","","","","","0","0","1","0.4243351486","","0.6","0.2","0.8","0.4","","","","","0.01209419849","0.2475621169","0.4243351486","0.1754503809","","","","","","","","75","K","2","","","24","main_expt"
"","bandit","104","967008","0.0-65.0-0.0","09072577","wem/bandit_either_2","A289D98Z4GAZ28","either","7","423","","","","","","","0","0","1","0.4172780312","","0.6","0.2","0.8","0.4","","","","","0.009734580702","0.2607476102","0.4172780312","0.2023019753","","","","","","","","75","K","2","","","25","main_expt"
"","bandit","105","968933","0.0-66.0-0.0","09072577","wem/bandit_either_2","A289D98Z4GAZ28","either","7","422","","","","","","","0","0","1","","0.292589008","0.6","0.2","0.8","0.4","0.008596148908","0.292589008","0.3981062588","0.1887270612","","","","","","","","","","","","74","J","1","","","26","main_expt"
"","bandit","106","970871","0.0-67.0-0.0","09072577","wem/bandit_either_2","A289D98Z4GAZ28","either","7","432","","","","","","","0","0","1","","0.01380650739","0.6","0.2","0.8","0.4","0.01380650739","0.2978950393","0.3889188119","0.2526986378","","","","","","","","","","","","72","H","0","img/none_selected.jpg","","27","main_expt"
"","bandit","107","972760","0.0-68.0-0.0","09072577","wem/bandit_either_2","A289D98Z4GAZ28","either","7","383","","","","","","","0","0","1","0.01160852189","","0.6","0.2","0.8","0.4","","","","","0.01160852189","0.337392419","0.3699095679","0.2536033627","","","","","","","","72","H","0","img/none_selected.jpg","","28","main_expt"
"","bandit","108","974727","0.0-69.0-0.0","09072577","wem/bandit_either_2","A289D98Z4GAZ28","either","7","463","","","","","","","0","0","1","","0.3830759015","0.6","0.2","0.8","0.4","0.02858314752","0.3830759015","0.4087832773","0.258258936","","","","","","","","","","","","74","J","1","","","29","main_expt"
"","bandit","109","976582","0.0-70.0-0.0","09072577","wem/bandit_either_2","A289D98Z4GAZ28","either","7","350","","","","","","","0","0","1","","0.3778881599","0.6","0.2","0.8","0.4","0.0265596094","0.3778881599","0.4162513677","0.3152574144","","","","","","","","","","","","74","J","1","","","30","main_expt"
"","bandit","110","978544","0.0-71.0-0.0","09072577","wem/bandit_either_2","A289D98Z4GAZ28","either","7","455","","","","","","","0","1","0","","0.3585458117","0.6","0.2","0.8","0.4","0.02828816112","0.3585458117","0.43337534","0.3508579725","","","","","","","","","","","","74","J","1","","","31","main_expt"
"","bandit","111","980433","0.0-72.0-0.0","09072577","wem/bandit_either_2","A289D98Z4GAZ28","either","7","383","","","","","","","0","0","1","","0.3511664436","0.6","0.2","0.8","0.4","0.03857304495","0.3511664436","0.4399105216","0.3902021543","","","","","","","","","","","","74","J","1","","","32","main_expt"
"","bandit","112","982393","0.0-73.0-0.0","09072577","wem/bandit_either_2","A289D98Z4GAZ28","either","7","453","","","","","","","0","1","0","","0.3924960189","0.6","0.2","0.8","0.4","0.02642959278","0.3924960189","0.3859623535","0.4112626521","","","","","","","","","","","","74","J","1","","","33","main_expt"
"","bandit","113","984286","0.0-74.0-0.0","09072577","wem/bandit_either_2","A289D98Z4GAZ28","either","7","390","","","","","","","1","0","0","0.3713907517","","0.6","0.2","0.8","0.4","","","","","0.06800028167","0.3713907517","0.4231921331","0.3912589523","","","","","","","","74","J","1","","","34","main_expt"
"","bandit","114","986145","0.0-75.0-0.0","09072577","wem/bandit_either_2","A289D98Z4GAZ28","either","7","352","","","","","","","0","1","0","","0.3929004689","0.6","0.2","0.8","0.4","0.05710280771","0.3929004689","0.3950458867","0.3663646496","","","","","","","","","","","","74","J","1","","","35","main_expt"
"","bandit","115","988039","0.0-76.0-0.0","09072577","wem/bandit_either_2","A289D98Z4GAZ28","either","7","389","","","","","","","0","0","1","0.3820467604","","0.6","0.2","0.8","0.4","","","","","0.07756943076","0.3820467604","0.4005306787","0.3045225128","","","","","","","","74","J","1","","","36","main_expt"
"","bandit","116","989881","0.0-77.0-0.0","09072577","wem/bandit_either_2","A289D98Z4GAZ28","either","7","335","","","","","","","0","0","1","","0.3948022939","0.6","0.2","0.8","0.4","0.06074629621","0.3948022939","0.3972735937","0.2806474599","","","","","","","","","","","","74","J","1","","","37","main_expt"
"","bandit","117","991713","0.0-78.0-0.0","09072577","wem/bandit_either_2","A289D98Z4GAZ28","either","7","325","","","","","","","1","0","0","0.3769579019","","0.6","0.2","0.8","0.4","","","","","0.07063042774","0.3769579019","0.38339591","0.3558759705","","","","","","","","74","J","1","","","38","main_expt"
"","bandit","118","993623","0.0-79.0-0.0","09072577","wem/bandit_either_2","A289D98Z4GAZ28","either","7","406","","","","","","","0","0","1","0.4030344636","","0.6","0.2","0.8","0.4","","","","","0.06209293178","0.4030344636","0.3906354184","0.3194138052","","","","","","","","74","J","1","","","39","main_expt"
"","bandit","119","995383","0.0-80.0-0.0","09072577","wem/bandit_either_2","A289D98Z4GAZ28","either","7","251","","","","","","","0","0","1","","0.3622335218","0.6","0.2","0.8","0.4","0.06952578958","0.3622335218","0.3623676206","0.3549086085","","","","","","","","","","","","74","J","1","","","40","main_expt"
"","bandit","120","997273","0.0-81.0-0.0","09072577","wem/bandit_either_2","A289D98Z4GAZ28","either","7","383","","","","","","","1","0","0","0.3873704927","","0.6","0.2","0.8","0.4","","","","","0.1291245709","0.3911596719","0.3873704927","0.3452113815","","","","","","","","75","K","2","","","41","main_expt"
"","bandit","121","999072","0.0-82.0-0.0","09072577","wem/bandit_either_2","A289D98Z4GAZ28","either","7","294","","","","","","","1","0","0","0.359823116","","0.6","0.2","0.8","0.4","","","","","0.1174523948","0.3921858285","0.359823116","0.3522960267","","","","","","","","75","K","2","","","42","main_expt"
"","bandit","122","1000889","0.0-83.0-0.0","09072577","wem/bandit_either_2","A289D98Z4GAZ28","either","7","311","","","","","","","1","0","0","0.3710191411","","0.6","0.2","0.8","0.4","","","","","0.1201484523","0.3831213528","0.3710191411","0.3093122096","","","","","","","","75","K","2","","","43","main_expt"
"","bandit","123","1002976","0.0-84.0-0.0","09072577","wem/bandit_either_2","A289D98Z4GAZ28","either","7","582","","","","","","","0","1","0","","0.3874065465","0.6","0.2","0.8","0.4","0.09958360536","0.3518708159","0.3874065465","0.3026159556","","","","","","","","","","","","75","K","2","","","44","main_expt"
"","bandit","124","1005113","0.0-85.0-0.0","09072577","wem/bandit_either_2","A289D98Z4GAZ28","either","7","631","","","","","","","0","0","1","0.3851533971","","0.6","0.2","0.8","0.4","","","","","0.05173655998","0.3122870636","0.3851533971","0.3336294247","","","","","","","","75","K","2","","","45","main_expt"
"","bandit","125","1007039","0.0-86.0-0.0","09072577","wem/bandit_either_2","A289D98Z4GAZ28","either","7","422","","","","","","","0","0","1","","0.4055883719","0.6","0.2","0.8","0.4","0.05945041096","0.2635721956","0.4055883719","0.3400222736","","","","","","","","","","","","75","K","2","","","46","main_expt"
"","bandit","126","1009136","0.0-87.0-0.0","09072577","wem/bandit_either_2","A289D98Z4GAZ28","either","7","592","","","","","","","1","0","0","0.3671593179","","0.6","0.2","0.8","0.4","","","","","0.04375763727","0.2856785865","0.3671593179","0.328707825","","","","","","","","75","K","2","","","47","main_expt"
"","bandit","127","1011127","0.0-88.0-0.0","09072577","wem/bandit_either_2","A289D98Z4GAZ28","either","7","486","","","","","","","0","0","1","","0.3198203038","0.6","0.2","0.8","0.4","0.0666370861","0.2649087478","0.3198203038","0.3307690822","","","","","","","","","","","","75","K","2","","","48","main_expt"
"","bandit","128","1013368","0.0-89.0-0.0","09072577","wem/bandit_either_2","A289D98Z4GAZ28","either","7","734","","","","","","","0","0","1","","0.3111357295","0.6","0.2","0.8","0.4","0.08266213623","0.2462979357","0.3111357295","0.3438067684","","","","","","","","","","","","75","K","2","","","49","main_expt"
"","bandit","129","1015271","0.0-90.0-0.0","09072577","wem/bandit_either_2","A289D98Z4GAZ28","either","7","399","","","","","","","0","0","1","","0.3196682981","0.6","0.2","0.8","0.4","0.08795051988","0.2490076798","0.3196682981","0.4037002216","","","","","","","","","","","","75","K","2","","","50","main_expt"
"","bandit","130","1017080","0.0-91.0-0.0","09072577","wem/bandit_either_2","A289D98Z4GAZ28","either","7","303","","","","","","","0","0","1","0.305209751","","0.6","0.2","0.8","0.4","","","","","0.07533366945","0.305209751","0.3088596379","0.3557518394","","","","","","","","74","J","1","","","51","main_expt"
"","bandit","131","1019008","0.0-92.0-0.0","09072577","wem/bandit_either_2","A289D98Z4GAZ28","either","7","422","","","","","","","0","0","1","","0.3087204988","0.6","0.2","0.8","0.4","0.06506638851","0.3087204988","0.3060924957","0.3254324358","","","","","","","","","","","","74","J","1","","","52","main_expt"
"","bandit","132","1020913","0.0-93.0-0.0","09072577","wem/bandit_either_2","A289D98Z4GAZ28","either","7","398","","","","","","","0","1","0","","0.2984188648","0.6","0.2","0.8","0.4","0.06562792832","0.2984188648","0.3229319808","0.2952150256","","","","","","","","","","","","74","J","1","","","53","main_expt"
"","bandit","133","1022809","0.0-94.0-0.0","09072577","wem/bandit_either_2","A289D98Z4GAZ28","either","7","389","","","","","","","0","0","1","0.3353917468","","0.6","0.2","0.8","0.4","","","","","0.04630081711","0.3353917468","0.3280138586","0.300320608","","","","","","","","74","J","1","","","54","main_expt"
"","bandit","134","1024753","0.0-95.0-0.0","09072577","wem/bandit_either_2","A289D98Z4GAZ28","either","7","438","","","","","","","0","0","1","0.3259144651","","0.6","0.2","0.8","0.4","","","","","0.03868373719","0.3259144651","0.2777260571","0.2985084879","","","","","","","","74","J","1","","","55","main_expt"
"","bandit","135","1026665","0.0-96.0-0.0","09072577","wem/bandit_either_2","A289D98Z4GAZ28","either","7","405","","","","","","","0","1","0","","0.3259049121","0.6","0.2","0.8","0.4","0.06235362297","0.3259049121","0.1791004868","0.2607009345","","","","","","","","","","","","74","J","1","","","56","main_expt"
"","bandit","136","1028552","0.0-97.0-0.0","09072577","wem/bandit_either_2","A289D98Z4GAZ28","either","7","381","","","","","","","0","0","1","","0.3687904078","0.6","0.2","0.8","0.4","0.04639461243","0.3687904078","0.2182265394","0.2565854794","","","","","","","","","","","","74","J","1","","","57","main_expt"
"","bandit","137","1030512","0.0-98.0-0.0","09072577","wem/bandit_either_2","A289D98Z4GAZ28","either","7","453","","","","","","","0","0","1","","0.3422038875","0.6","0.2","0.8","0.4","0.08954448139","0.3422038875","0.2970860181","0.319121847","","","","","","","","","","","","74","J","1","","","58","main_expt"
"","bandit","138","1032511","0.0-99.0-0.0","09072577","wem/bandit_either_2","A289D98Z4GAZ28","either","7","494","","","","","","","0","0","1","0.3771421139","","0.6","0.2","0.8","0.4","","","","","0.07390342289","0.3771421139","0.3249685468","0.3269923399","","","","","","","","74","J","1","","","59","main_expt"
"","bandit","139","1034369","0.0-100.0-0.0","09072577","wem/bandit_either_2","A289D98Z4GAZ28","either","7","350","","","","","","","0","0","1","0.05801548519","","0.6","0.2","0.8","0.4","","","","","0.05801548519","0.3620124399","0.2931470039","0.3150968823","","","","","","","","72","H","0","img/none_selected.jpg","","60","main_expt"
"","bandit","140","1036330","0.0-101.0-0.0","09072577","wem/bandit_either_2","A289D98Z4GAZ28","either","7","453","","","","","","","0","0","1","","0.07333263924","0.6","0.2","0.8","0.4","0.07333263924","0.3958116198","0.2646536279","0.324539239","","","","","","","","","","","","72","H","0","img/none_selected.jpg","","61","main_expt"
"","bandit","141","1038352","0.0-102.0-0.0","09072577","wem/bandit_either_2","A289D98Z4GAZ28","either","7","516","","","","","","","0","0","1","0.07563430262","","0.6","0.2","0.8","0.4","","","","","0.07563430262","0.3615218546","0.242461968","0.3066306166","","","","","","","","72","H","0","img/none_selected.jpg","","62","main_expt"
"","bandit","142","1040319","0.0-103.0-0.0","09072577","wem/bandit_either_2","A289D98Z4GAZ28","either","7","462","","","","","","","1","0","0","0.3068900116","","0.6","0.2","0.8","0.4","","","","","0.06826526778","0.3574266064","0.2206683029","0.3068900116","","","","","","","","76","L","3","","","63","main_expt"
"","bandit","143","1042376","0.0-104.0-0.0","09072577","wem/bandit_either_2","A289D98Z4GAZ28","either","7","550","","","","","","","0","1","0","","0.2936494982","0.6","0.2","0.8","0.4","0.1175271989","0.3541915859","0.2288959862","0.2936494982","","","","","","","","","","","","76","L","3","","","64","main_expt"
"","bandit","144","1044625","0.0-105.0-0.0","09072577","wem/bandit_either_2","A289D98Z4GAZ28","either","7","742","","","","","","","1","0","0","0.290236101","","0.6","0.2","0.8","0.4","","","","","0.1273865191","0.3339820985","0.2346523549","0.290236101","","","","","","","","76","L","3","","","65","main_expt"
"","bandit","145","1046577","0.0-106.0-0.0","09072577","wem/bandit_either_2","A289D98Z4GAZ28","either","7","444","","","","","","","0","0","1","0.2512036594","","0.6","0.2","0.8","0.4","","","","","0.09075088943","0.3195467083","0.1881688105","0.2512036594","","","","","","","","76","L","3","","","66","main_expt"
"","bandit","146","1048671","0.0-107.0-0.0","09072577","wem/bandit_either_2","A289D98Z4GAZ28","either","7","589","","","","","","","0","0","1","","0.263747572","0.6","0.2","0.8","0.4","0.08077075725","0.3477383846","0.231043846","0.263747572","","","","","","","","","","","","76","L","3","","","67","main_expt"
"","bandit","147","1050663","0.0-108.0-0.0","09072577","wem/bandit_either_2","A289D98Z4GAZ28","either","7","486","","","","","","","0","0","1","","0.2892519303","0.6","0.2","0.8","0.4","0.08810311296","0.3365352069","0.2576664243","0.2892519303","","","","","","","","","","","","76","L","3","","","68","main_expt"
"","bandit","148","1052536","0.0-109.0-0.0","09072577","wem/bandit_either_2","A289D98Z4GAZ28","either","7","366","","","","","","","0","0","1","","0.2183283259","0.6","0.2","0.8","0.4","0.1260156682","0.3148812039","0.2183283259","0.2383664846","","","","","","","","","","","","75","K","2","","","69","main_expt"
"","bandit","149","1054448","0.0-110.0-0.0","09072577","wem/bandit_either_2","A289D98Z4GAZ28","either","7","406","","","","","","","0","0","1","0.2260484764","","0.6","0.2","0.8","0.4","","","","","0.08773951932","0.3154014692","0.2260484764","0.2497111545","","","","","","","","75","K","2","","","70","main_expt"
"","bandit","150","1056474","0.0-111.0-0.0","09072577","wem/bandit_either_2","A289D98Z4GAZ28","either","7","518","","","","","","","1","0","0","0.3196469567","","0.6","0.2","0.8","0.4","","","","","0.1154304285","0.219815459","0.3196469567","0.2095843002","","","","","","","","75","K","2","","","71","main_expt"
"","bandit","151","1058416","0.0-112.0-0.0","09072577","wem/bandit_either_2","A289D98Z4GAZ28","either","7","435","","","","","","","0","0","1","0.3644141189","","0.6","0.2","0.8","0.4","","","","","0.10097247","0.2623730272","0.3644141189","0.1972488467","","","","","","","","75","K","2","","","72","main_expt"
"","bandit","152","1060351","0.0-113.0-0.0","09072577","wem/bandit_either_2","A289D98Z4GAZ28","either","7","430","","","","","","","0","0","1","0.4081842109","","0.6","0.2","0.8","0.4","","","","","0.0746930591","0.2639805735","0.4081842109","0.15494396","","","","","","","","75","K","2","","","73","main_expt"
"","bandit","153","1062152","0.0-114.0-0.0","09072577","wem/bandit_either_2","A289D98Z4GAZ28","either","7","294","","","","","","","0","0","1","0.4506698749","","0.6","0.2","0.8","0.4","","","","","0.1124392477","0.2770925356","0.4506698749","0.1324790415","","","","","","","","75","K","2","","","74","main_expt"
"","bandit","154","1063994","0.0-115.0-0.0","09072577","wem/bandit_either_2","A289D98Z4GAZ28","either","7","333","","","","","","","1","0","0","0.454520075","","0.6","0.2","0.8","0.4","","","","","0.113494578","0.2796652475","0.454520075","0.179195356","","","","","","","","75","K","2","","","75","main_expt"
"","bandit","155","1065817","0.0-116.0-0.0","09072577","wem/bandit_either_2","A289D98Z4GAZ28","either","7","316","","","","","","","0","1","0","","0.466199952","0.6","0.2","0.8","0.4","0.1469344428","0.3153427244","0.466199952","0.215808919","","","","","","","","","","","","75","K","2","","","76","main_expt"
"","bandit","156","1067602","0.0-117.0-0.0","09072577","wem/bandit_either_2","A289D98Z4GAZ28","either","7","278","","","","","","","0","0","1","0.4402141775","","0.6","0.2","0.8","0.4","","","","","0.2152215887","0.3676911864","0.4402141775","0.2312347408","","","","","","","","75","K","2","","","77","main_expt"
"","bandit","157","1069506","0.0-118.0-0.0","09072577","wem/bandit_either_2","A289D98Z4GAZ28","either","7","396","","","","","","","1","0","0","0.4525957793","","0.6","0.2","0.8","0.4","","","","","0.2055177618","0.3434277392","0.4525957793","0.2197025874","","","","","","","","75","K","2","","","78","main_expt"
"","bandit","158","1071424","0.0-119.0-0.0","09072577","wem/bandit_either_2","A289D98Z4GAZ28","either","7","408","","","","","","","0","0","1","","0.4630799716","0.6","0.2","0.8","0.4","0.222262525","0.3758616161","0.4630799716","0.2227420924","","","","","","","","","","","","75","K","2","","","79","main_expt"
"","bandit","159","1073256","0.0-120.0-0.0","09072577","wem/bandit_either_2","A289D98Z4GAZ28","either","7","326","","","","","","","1","0","0","0.423693353","","0.6","0.2","0.8","0.4","","","","","0.2700860438","0.3862393514","0.423693353","0.2283057493","","","","","","","","75","K","2","","","80","main_expt"
"","bandit","160","1075178","0.0-121.0-0.0","09072577","wem/bandit_either_2","A289D98Z4GAZ28","either","7","414","","","","","","","0","0","1","","0.4319112677","0.6","0.2","0.8","0.4","0.2642688004","0.3593770893","0.4319112677","0.2721525977","","","","","","","","","","","","75","K","2","","","81","main_expt"
"","bandit","161","1077113","0.0-122.0-0.0","09072577","wem/bandit_either_2","A289D98Z4GAZ28","either","7","429","","","","","","","0","0","1","0.441827487","","0.6","0.2","0.8","0.4","","","","","0.2824164754","0.4035110645","0.441827487","0.2850237184","","","","","","","","75","K","2","","","82","main_expt"
"","bandit","162","1078921","0.0-123.0-0.0","09072577","wem/bandit_either_2","A289D98Z4GAZ28","either","7","300","","","","","","","0","0","1","0.4288861504","","0.6","0.2","0.8","0.4","","","","","0.2819095575","0.3719627038","0.4288861504","0.3236436683","","","","","","","","75","K","2","","","83","main_expt"
"","bandit","163","1080817","0.0-124.0-0.0","09072577","wem/bandit_either_2","A289D98Z4GAZ28","either","7","388","","","","","","","1","0","0","0.4350385517","","0.6","0.2","0.8","0.4","","","","","0.2589745902","0.3349288927","0.4350385517","0.3339638593","","","","","","","","75","K","2","","","84","main_expt"
"","bandit","164","1082646","0.0-125.0-0.0","09072577","wem/bandit_either_2","A289D98Z4GAZ28","either","7","324","","","","","","","0","0","1","","0.4255505645","0.6","0.2","0.8","0.4","0.3626504113","0.3247899262","0.4255505645","0.3795022601","","","","","","","","","","","","75","K","2","","","85","main_expt"
"","bandit","165","1084480","0.0-126.0-0.0","09072577","wem/bandit_either_2","A289D98Z4GAZ28","either","7","327","","","","","","","0","0","1","0.4330938692","","0.6","0.2","0.8","0.4","","","","","0.3598915268","0.3443557019","0.4330938692","0.3835523064","","","","","","","","75","K","2","","","86","main_expt"
"","bandit","166","1086258","0.0-127.0-0.0","09072577","wem/bandit_either_2","A289D98Z4GAZ28","either","7","269","","","","","","","0","0","1","0.4548398529","","0.6","0.2","0.8","0.4","","","","","0.3433052933","0.3648776167","0.4548398529","0.3772514457","","","","","","","","75","K","2","","","87","main_expt"
"","bandit","167","1088138","0.0-128.0-0.0","09072577","wem/bandit_either_2","A289D98Z4GAZ28","either","7","371","","","","","","","1","0","0","0.4493124031","","0.6","0.2","0.8","0.4","","","","","0.4022938878","0.3609631839","0.4493124031","0.3766830519","","","","","","","","75","K","2","","","88","main_expt"
"","bandit","168","1089985","0.0-129.0-0.0","09072577","wem/bandit_either_2","A289D98Z4GAZ28","either","7","341","","","","","","","1","0","0","0.4161110063","","0.6","0.2","0.8","0.4","","","","","0.4141493151","0.3636167192","0.4161110063","0.3537755119","","","","","","","","75","K","2","","","89","main_expt"
"","bandit","169","1091856","0.0-130.0-0.0","09072577","wem/bandit_either_2","A289D98Z4GAZ28","either","7","364","","","","","","","0","0","1","0.405260856","","0.6","0.2","0.8","0.4","","","","","0.4136124289","0.3563441379","0.405260856","0.3014761449","","","","","","","","75","K","2","","","90","main_expt"
"","bandit","170","1093792","0.0-131.0-0.0","09072577","wem/bandit_either_2","A289D98Z4GAZ28","either","7","429","","","","","","","1","0","0","0.3827048226","","0.6","0.2","0.8","0.4","","","","","0.4184852842","0.3389138503","0.3827048226","0.2694038268","","","","","","","","75","K","2","","","91","main_expt"
"","bandit","171","1095793","0.0-132.0-0.0","09072577","wem/bandit_either_2","A289D98Z4GAZ28","either","7","494","","","","","","","0","0","1","0.3552182969","","0.6","0.2","0.8","0.4","","","","","0.4456808576","0.3263360165","0.3552182969","0.2651536323","","","","","","","","75","K","2","","","92","main_expt"
"","bandit","172","1097647","0.0-133.0-0.0","09072577","wem/bandit_either_2","A289D98Z4GAZ28","either","7","348","","","","","","","0","0","1","0.3286897504","","0.6","0.2","0.8","0.4","","","","","0.4355219805","0.2844131911","0.3286897504","0.1997208586","","","","","","","","75","K","2","","","93","main_expt"
"","bandit","173","1099465","0.0-134.0-0.0","09072577","wem/bandit_either_2","A289D98Z4GAZ28","either","7","310","","","","","","","1","0","0","0.3422490236","","0.6","0.2","0.8","0.4","","","","","0.4609821192","0.2978465223","0.3422490236","0.2442555344","","","","","","","","75","K","2","","","94","main_expt"
"","bandit","174","1101216","0.0-135.0-0.0","09072577","wem/bandit_either_2","A289D98Z4GAZ28","either","7","245","","","","","","","0","1","0","","0.3160161054","0.6","0.2","0.8","0.4","0.4419374505","0.2638723705","0.3160161054","0.2638839348","","","","","","","","","","","","75","K","2","","","95","main_expt"
"","bandit","175","1102792","0.0-136.0-0.0","09072577","wem/bandit_either_2","A289D98Z4GAZ28","either","7","68","","","","","","","0","0","1","","0.2945538732","0.6","0.2","0.8","0.4","0.39438674","0.2276010735","0.2945538732","0.2265245807","","","","","","","","","","","","75","K","2","","","96","main_expt"
"","bandit","176","1104800","0.0-137.0-0.0","09072577","wem/bandit_either_2","A289D98Z4GAZ28","either","7","502","","","","","","","0","1","0","","0.393563827","0.6","0.2","0.8","0.4","0.3617668419","0.2045446072","0.393563827","0.1969189177","","","","","","","","","","","","75","K","2","","","97","main_expt"
"","bandit","177","1106744","0.0-138.0-0.0","09072577","wem/bandit_either_2","A289D98Z4GAZ28","either","7","438","","","","","","","0","0","1","0.4046254927","","0.6","0.2","0.8","0.4","","","","","0.3737913853","0.2436418828","0.4046254927","0.1761144245","","","","","","","","75","K","2","","","98","main_expt"
"","bandit","178","1108529","0.0-139.0-0.0","09072577","wem/bandit_either_2","A289D98Z4GAZ28","either","7","278","","","","","","","0","0","1","0.3659012549","","0.6","0.2","0.8","0.4","","","","","0.4221129479","0.2473144087","0.3659012549","0.1211630765","","","","","","","","75","K","2","","","99","main_expt"
"","bandit","179","1110473","0.0-140.0-0.0","09072577","wem/bandit_either_2","A289D98Z4GAZ28","either","7","436","","","","","","","0","0","1","0.400368336","","0.6","0.2","0.8","0.4","","","","","0.3857893684","0.2707360286","0.400368336","0.1257326749","","","","","","","","75","K","2","","","100","main_expt"
"","bandit","180","1112386","0.0-141.0-0.0","09072577","wem/bandit_either_2","A289D98Z4GAZ28","either","7","406","","","","","","","1","0","0","0.4367931528","","0.6","0.2","0.8","0.4","","","","","0.3635527264","0.3250409822","0.4367931528","0.09975532208","","","","","","","","75","K","2","","","101","main_expt"
"","bandit","181","1114265","0.0-142.0-0.0","09072577","wem/bandit_either_2","A289D98Z4GAZ28","either","7","372","","","","","","","0","0","1","0.4371155326","","0.6","0.2","0.8","0.4","","","","","0.3738375489","0.3088580598","0.4371155326","0.1127414424","","","","","","","","75","K","2","","","102","main_expt"
"","bandit","182","1116166","0.0-143.0-0.0","09072577","wem/bandit_either_2","A289D98Z4GAZ28","either","7","396","","","","","","","0","0","1","0.388648264","","0.6","0.2","0.8","0.4","","","","","0.3860163181","0.2901001995","0.388648264","0.1232600734","","","","","","","","75","K","2","","","103","main_expt"
"","bandit","183","1118272","0.0-144.0-0.0","09072577","wem/bandit_either_2","A289D98Z4GAZ28","either","7","598","","","","","","","0","0","1","0.3718469433","","0.6","0.2","0.8","0.4","","","","","0.390692362","0.309645936","0.3718469433","0.08156843846","","","","","","","","75","K","2","","","104","main_expt"
"","bandit","184","1120521","0.0-145.0-0.0","09072577","wem/bandit_either_2","A289D98Z4GAZ28","either","7","741","","","","","","","1","0","0","0.3920304628","","0.6","0.2","0.8","0.4","","","","","0.4139082553","0.3386062745","0.3920304628","0.08245659199","","","","","","","","75","K","2","","","105","main_expt"
"","bandit","185","1122600","0.0-146.0-0.0","09072577","wem/bandit_either_2","A289D98Z4GAZ28","either","7","572","","","","","","","0","0","1","0.3733497125","","0.6","0.2","0.8","0.4","","","","","0.3295275825","0.3827539061","0.3733497125","0.1276639339","","","","","","","","75","K","2","","","106","main_expt"
"","bandit","186","1124754","0.0-147.0-0.0","09072577","wem/bandit_either_2","A289D98Z4GAZ28","either","7","644","","","","","","","0","0","1","","0.3878439861","0.6","0.2","0.8","0.4","0.3499712774","0.3401355396","0.3878439861","0.1812689745","","","","","","","","","","","","75","K","2","","","107","main_expt"
"","bandit","187","1126744","0.0-148.0-0.0","09072577","wem/bandit_either_2","A289D98Z4GAZ28","either","7","484","","","","","","","0","0","1","0.3529013302","","0.6","0.2","0.8","0.4","","","","","0.2666891207","0.3258039352","0.3529013302","0.2187982558","","","","","","","","75","K","2","","","108","main_expt"
"","bandit","188","1128815","0.0-149.0-0.0","09072577","wem/bandit_either_2","A289D98Z4GAZ28","either","7","565","","","","","","","0","0","1","0.2201216928","","0.6","0.2","0.8","0.4","","","","","0.2575067634","0.374919859","0.3457683734","0.2201216928","","","","","","","","76","L","3","","","109","main_expt"
"","bandit","189","1130664","0.0-150.0-0.0","09072577","wem/bandit_either_2","A289D98Z4GAZ28","either","7","341","","","","","","","0","0","1","","0.1789817232","0.6","0.2","0.8","0.4","0.2664913793","0.3656186065","0.3316873257","0.1789817232","","","","","","","","","","","","76","L","3","","","110","main_expt"
"","bandit","190","1132627","0.0-151.0-0.0","09072577","wem/bandit_either_2","A289D98Z4GAZ28","either","7","452","","","","","","","1","0","0","0.2404947452","","0.6","0.2","0.8","0.4","","","","","0.2233446911","0.3649701027","0.3434945318","0.2404947452","","","","","","","","76","L","3","","","111","main_expt"
"","bandit","191","1134648","0.0-152.0-0.0","09072577","wem/bandit_either_2","A289D98Z4GAZ28","either","7","515","","","","","","","0","0","1","","0.2959558532","0.6","0.2","0.8","0.4","0.2170082082","0.3371716456","0.2729480053","0.2959558532","","","","","","","","","","","","76","L","3","","","112","main_expt"
"","bandit","192","1136704","0.0-153.0-0.0","09072577","wem/bandit_either_2","A289D98Z4GAZ28","either","7","549","","","","","","","0","0","1","","0.2966985553","0.6","0.2","0.8","0.4","0.1912277411","0.2587224119","0.2579672073","0.2966985553","","","","","","","","","","","","76","L","3","","","113","main_expt"
"","bandit","193","1138569","0.0-154.0-0.0","09072577","wem/bandit_either_2","A289D98Z4GAZ28","either","7","357","","","","","","","0","0","1","","0.3289730608","0.6","0.2","0.8","0.4","0.1691995451","0.2384324947","0.24654084","0.3289730608","","","","","","","","","","","","76","L","3","","","114","main_expt"
"","bandit","194","1140351","0.0-155.0-0.0","09072577","wem/bandit_either_2","A289D98Z4GAZ28","either","7","276","","","","","","","0","1","0","","0.2705755989","0.6","0.2","0.8","0.4","0.1263730162","0.2705755989","0.246649757","0.2783705844","","","","","","","","","","","","74","J","1","","","115","main_expt"
"","bandit","195","1142249","0.0-156.0-0.0","09072577","wem/bandit_either_2","A289D98Z4GAZ28","either","7","389","","","","","","","0","1","0","","0.2666822","0.6","0.2","0.8","0.4","0.1130092975","0.2666822","0.2190482835","0.2990421824","","","","","","","","","","","","74","J","1","","","116","main_expt"
"","bandit","196","1144448","0.0-157.0-0.0","09072577","wem/bandit_either_2","A289D98Z4GAZ28","either","7","693","","","","","","","0","1","0","","0.2664749026","0.6","0.2","0.8","0.4","0.1317362661","0.2664749026","0.1860086181","0.3214730448","","","","","","","","","","","","74","J","1","","","117","main_expt"
"","bandit","197","1146434","0.0-158.0-0.0","09072577","wem/bandit_either_2","A289D98Z4GAZ28","either","7","477","","","","","","","0","1","0","","0.285497096","0.6","0.2","0.8","0.4","0.08460291254","0.285497096","0.1765749983","0.3996160597","","","","","","","","","","","","74","J","1","","","118","main_expt"
"","bandit","198","1148407","0.0-159.0-0.0","09072577","wem/bandit_either_2","A289D98Z4GAZ28","either","7","467","","","","","","","0","0","1","","0.3004427434","0.6","0.2","0.8","0.4","0.09168363065","0.3004427434","0.1840588368","0.4143362638","","","","","","","","","","","","74","J","1","","","119","main_expt"
"","bandit","199","1150312","0.0-160.0-0.0","09072577","wem/bandit_either_2","A289D98Z4GAZ28","either","7","397","","","","","","","0","0","1","","0.2419855731","0.6","0.2","0.8","0.4","0.06729372802","0.2419855731","0.1988357929","0.372340151","","","","","","","","","","","","74","J","1","","","120","main_expt"
"","bandit","200","1152144","0.0-161.0-0.0","09072577","wem/bandit_either_2","A289D98Z4GAZ28","either","7","325","","","","","","","1","0","0","0.3054132847","","0.6","0.2","0.8","0.4","","","","","0.08346408207","0.3054132847","0.2315674","0.3910424524","","","","","","","","74","J","1","","","121","main_expt"
"","bandit","201","1153959","0.0-162.0-0.0","09072577","wem/bandit_either_2","A289D98Z4GAZ28","either","7","309","","","","","","","0","0","1","","0.2473202095","0.6","0.2","0.8","0.4","0.05632743158","0.2473202095","0.2041322171","0.3813410711","","","","","","","","","","","","74","J","1","","","122","main_expt"
"","bandit","202","1155960","0.0-163.0-0.0","09072577","wem/bandit_either_2","A289D98Z4GAZ28","either","7","493","","","","","","","0","1","0","","0.2909195989","0.6","0.2","0.8","0.4","0.05516745574","0.2909195989","0.1945268209","0.4247291795","","","","","","","","","","","","74","J","1","","","123","main_expt"
"","bandit","203","1157841","0.0-164.0-0.0","09072577","wem/bandit_either_2","A289D98Z4GAZ28","either","7","372","","","","","","","0","0","1","","0.3493750294","0.6","0.2","0.8","0.4","0.05528311039","0.3493750294","0.2206749142","0.4311179713","","","","","","","","","","","","74","J","1","","","124","main_expt"
"","bandit","204","1159751","0.0-165.0-0.0","09072577","wem/bandit_either_2","A289D98Z4GAZ28","either","7","403","","","","","","","0","0","1","","0.3883668019","0.6","0.2","0.8","0.4","0.07149807259","0.3883668019","0.212012295","0.4085782939","","","","","","","","","","","","74","J","1","","","125","main_expt"
"","bandit","205","1161624","0.0-166.0-0.0","09072577","wem/bandit_either_2","A289D98Z4GAZ28","either","7","362","","","","","","","0","1","0","","0.3888129637","0.6","0.2","0.8","0.4","0.1137803622","0.3888129637","0.1656684785","0.4110861309","","","","","","","","","","","","74","J","1","","","126","main_expt"
"","bandit","206","1163473","0.0-167.0-0.0","09072577","wem/bandit_either_2","A289D98Z4GAZ28","either","7","340","","","","","","","0","0","1","","0.3659195129","0.6","0.2","0.8","0.4","0.1003054442","0.3659195129","0.1685301808","0.4214671818","","","","","","","","","","","","74","J","1","","","127","main_expt"
"","bandit","207","1165384","0.0-168.0-0.0","09072577","wem/bandit_either_2","A289D98Z4GAZ28","either","7","405","","","","","","","1","0","0","0.3689954399","","0.6","0.2","0.8","0.4","","","","","0.1378169536","0.3689954399","0.1703551811","0.36889317","","","","","","","","74","J","1","","","128","main_expt"
"","bandit","208","1167336","0.0-169.0-0.0","09072577","wem/bandit_either_2","A289D98Z4GAZ28","either","7","444","","","","","","","0","0","1","","0.3600340942","0.6","0.2","0.8","0.4","0.1333081235","0.3600340942","0.1624753709","0.3840267129","","","","","","","","","","","","74","J","1","","","129","main_expt"
"","bandit","209","1169217","0.0-170.0-0.0","09072577","wem/bandit_either_2","A289D98Z4GAZ28","either","7","373","","","","","","","0","0","1","","0.3580797835","0.6","0.2","0.8","0.4","0.1682212827","0.3580797835","0.2335662737","0.3809677701","","","","","","","","","","","","74","J","1","","","130","main_expt"
"","bandit","210","1171200","0.0-171.0-0.0","09072577","wem/bandit_either_2","A289D98Z4GAZ28","either","7","476","","","","","","","0","0","1","","0.3785893338","0.6","0.2","0.8","0.4","0.2193829955","0.3785893338","0.240441026","0.3681933818","","","","","","","","","","","","74","J","1","","","131","main_expt"
"","bandit","211","1173080","0.0-172.0-0.0","09072577","wem/bandit_either_2","A289D98Z4GAZ28","either","7","372","","","","","","","0","0","1","","0.3764735404","0.6","0.2","0.8","0.4","0.2693349046","0.3764735404","0.2266699971","0.3664045944","","","","","","","","","","","","74","J","1","","","132","main_expt"
"","bandit","212","1174992","0.0-173.0-0.0","09072577","wem/bandit_either_2","A289D98Z4GAZ28","either","7","404","","","","","","","0","0","1","0.2576546077","","0.6","0.2","0.8","0.4","","","","","0.2576546077","0.3433534211","0.1994193025","0.4046437197","","","","","","","","72","H","0","img/none_selected.jpg","","133","main_expt"
"","bandit","213","1176704","0.0-174.0-0.0","09072577","wem/bandit_either_2","A289D98Z4GAZ28","either","7","205","","","","","","","0","0","1","","0.2412372273","0.6","0.2","0.8","0.4","0.2412372273","0.3606247271","0.1891464922","0.364490756","","","","","","","","","","","","72","H","0","img/none_selected.jpg","","134","main_expt"
"","bandit","214","1178553","0.0-175.0-0.0","09072577","wem/bandit_either_2","A289D98Z4GAZ28","either","7","340","","","","","","","0","0","1","0.2198641054","","0.6","0.2","0.8","0.4","","","","","0.2198641054","0.3268624306","0.1614798668","0.311914316","","","","","","","","72","H","0","img/none_selected.jpg","","135","main_expt"
"","bandit","215","1180393","0.0-176.0-0.0","09072577","wem/bandit_either_2","A289D98Z4GAZ28","either","7","330","","","","","","","0","0","1","","0.2504132697","0.6","0.2","0.8","0.4","0.2504132697","0.2854606769","0.1880386222","0.2653901568","","","","","","","","","","","","72","H","0","img/none_selected.jpg","","136","main_expt"
"","bandit","216","1182199","0.0-177.0-0.0","09072577","wem/bandit_either_2","A289D98Z4GAZ28","either","7","300","","","","","","","0","0","1","0.1961818793","","0.6","0.2","0.8","0.4","","","","","0.1912230989","0.3311747399","0.1961818793","0.2413295316","","","","","","","","75","K","2","","","137","main_expt"
"","bandit","217","1184120","0.0-178.0-0.0","09072577","wem/bandit_either_2","A289D98Z4GAZ28","either","7","413","","","","","","","0","0","1","","0.2857678963","0.6","0.2","0.8","0.4","0.1576256809","0.2570785188","0.2857678963","0.2060295423","","","","","","","","","","","","75","K","2","","","138","main_expt"
"","bandit","218","1186024","0.0-179.0-0.0","09072577","wem/bandit_either_2","A289D98Z4GAZ28","either","7","397","","","","","","","0","0","1","0.3449131854","","0.6","0.2","0.8","0.4","","","","","0.1019788138","0.2858060749","0.3449131854","0.1809645164","","","","","","","","75","K","2","","","139","main_expt"
"","bandit","219","1187881","0.0-180.0-0.0","09072577","wem/bandit_either_2","A289D98Z4GAZ28","either","7","349","","","","","","","0","0","1","0.2537716732","","0.6","0.2","0.8","0.4","","","","","0.07754087054","0.2975559752","0.2537716732","0.1843216893","","","","","","","","75","K","2","","","140","main_expt"
"","bandit","220","1189530","0.0-181.0-0.0","09072577","wem/bandit_either_2","A289D98Z4GAZ28","either","7","139","","","","","","","0","0","1","0.1651876155","","0.6","0.2","0.8","0.4","","","","","0.09489610577","0.2802168405","0.2858111263","0.1651876155","","","","","","","","76","L","3","","","141","main_expt"
"","bandit","221","1191377","0.0-182.0-0.0","09072577","wem/bandit_either_2","A289D98Z4GAZ28","either","7","339","","","","","","","0","0","1","0.1536427928","","0.6","0.2","0.8","0.4","","","","","0.09601428546","0.2231986748","0.303049367","0.1536427928","","","","","","","","76","L","3","","","142","main_expt"
"","bandit","222","1193384","0.0-183.0-0.0","09072577","wem/bandit_either_2","A289D98Z4GAZ28","either","7","501","","","","","","","0","0","1","","0.1546140226","0.6","0.2","0.8","0.4","0.08301142993","0.2032880393","0.2969419413","0.1546140226","","","","","","","","","","","","76","L","3","","","143","main_expt"
"","bandit","223","1195216","0.0-184.0-0.0","09072577","wem/bandit_either_2","A289D98Z4GAZ28","either","7","324","","","","","","","0","0","1","","0.1746031107","0.6","0.2","0.8","0.4","0.09599686985","0.1967741464","0.3128690494","0.1746031107","","","","","","","","","","","","76","L","3","","","144","main_expt"
"","bandit","224","1197050","0.0-185.0-0.0","09072577","wem/bandit_either_2","A289D98Z4GAZ28","either","7","325","","","","","","","0","0","1","0.2283154954","","0.6","0.2","0.8","0.4","","","","","0.07499383622","0.2283154954","0.2991796355","0.2021387556","","","","","","","","74","J","1","","","145","main_expt"
"","bandit","225","1198871","0.0-186.0-0.0","09072577","wem/bandit_either_2","A289D98Z4GAZ28","either","7","315","","","","","","","0","1","0","","0.2118700154","0.6","0.2","0.8","0.4","0.09566861","0.2118700154","0.3163763193","0.2504344391","","","","","","","","","","","","74","J","1","","","146","main_expt"
"","bandit","226","1200761","0.0-187.0-0.0","09072577","wem/bandit_either_2","A289D98Z4GAZ28","either","7","380","","","","","","","0","0","1","","0.210437557","0.6","0.2","0.8","0.4","0.08578591382","0.210437557","0.3198025905","0.2437718569","","","","","","","","","","","","74","J","1","","","147","main_expt"
"","bandit","227","1202882","0.0-188.0-0.0","09072577","wem/bandit_either_2","A289D98Z4GAZ28","either","7","612","","","","","","","0","0","1","","0.2370661354","0.6","0.2","0.8","0.4","0.1147887709","0.2370661354","0.2588245921","0.2446677265","","","","","","","","","","","","74","J","1","","","148","main_expt"
"","bandit","228","1204783","0.0-189.0-0.0","09072577","wem/bandit_either_2","A289D98Z4GAZ28","either","7","395","","","","","","","0","0","1","","0.2430363771","0.6","0.2","0.8","0.4","0.1378203382","0.2430363771","0.248712437","0.2911002833","","","","","","","","","","","","74","J","1","","","149","main_expt"
"","bandit","229","1206727","0.0-190.0-0.0","09072577","wem/bandit_either_2","A289D98Z4GAZ28","either","7","437","","","","","","","0","0","1","","0.2242182381","0.6","0.2","0.8","0.4","0.1414499273","0.2242182381","0.179144869","0.3529655025","","","","","","","","","","","","74","J","1","","","150","main_expt"
"","bandit","230","1208584","0.0-191.0-0.0","09072577","wem/bandit_either_2","A289D98Z4GAZ28","either","7","350","","","","","","","0","1","0","","0.1997145133","0.6","0.2","0.8","0.4","0.07852348772","0.1997145133","0.1545669956","0.3885741111","","","","","","","","","","","","74","J","1","","","151","main_expt"
"","bandit","231","1210433","0.0-192.0-0.0","09072577","wem/bandit_either_2","A289D98Z4GAZ28","either","7","340","","","","","","","0","1","0","","0.2195927633","0.6","0.2","0.8","0.4","0.08485793113","0.2195927633","0.1651714415","0.3690499696","","","","","","","","","","","","74","J","1","","","152","main_expt"
"","bandit","232","1212362","0.0-193.0-0.0","09072577","wem/bandit_either_2","A289D98Z4GAZ28","either","7","420","","","","","","","0","0","1","","0.2121816628","0.6","0.2","0.8","0.4","0.1083789561","0.2121816628","0.2396245514","0.3710492515","","","","","","","","","","","","74","J","1","","","153","main_expt"
"","bandit","233","1214256","0.0-194.0-0.0","09072577","wem/bandit_either_2","A289D98Z4GAZ28","either","7","386","","","","","","","0","0","1","","0.1830588608","0.6","0.2","0.8","0.4","0.109098481","0.1830588608","0.2085838567","0.3483335413","","","","","","","","","","","","74","J","1","","","154","main_expt"
"","bandit","234","1216143","0.0-195.0-0.0","09072577","wem/bandit_either_2","A289D98Z4GAZ28","either","7","381","","","","","","","0","0","1","","0.2031423662","0.6","0.2","0.8","0.4","0.1758262092","0.2031423662","0.1864274254","0.3343760247","","","","","","","","","","","","74","J","1","","","155","main_expt"
"","bandit","235","1218088","0.0-196.0-0.0","09072577","wem/bandit_either_2","A289D98Z4GAZ28","either","7","437","","","","","","","0","0","1","","0.2022731065","0.6","0.2","0.8","0.4","0.2046597001","0.2022731065","0.1750870897","0.3742013553","","","","","","","","","","","","74","J","1","","","156","main_expt"
"","bandit","236","1219921","0.0-197.0-0.0","09072577","wem/bandit_either_2","A289D98Z4GAZ28","either","7","324","","","","","","","0","0","1","","0.1826661219","0.6","0.2","0.8","0.4","0.1774751899","0.1826661219","0.1321985386","0.3620366094","","","","","","","","","","","","74","J","1","","","157","main_expt"
"","bandit","237","1221878","0.0-198.0-0.0","09072577","wem/bandit_either_2","A289D98Z4GAZ28","either","7","451","","","","","","","0","0","1","0.1341899746","","0.6","0.2","0.8","0.4","","","","","0.1612033886","0.1658993888","0.1341899746","0.3671714071","","","","","","","","75","K","2","","","158","main_expt"
"","bandit","238","1223880","0.0-199.0-0.0","09072577","wem/bandit_either_2","A289D98Z4GAZ28","either","7","493","","","","","","","0","0","1","0.1567784951","","0.6","0.2","0.8","0.4","","","","","0.1586838935","0.1620079643","0.1567784951","0.4015988616","","","","","","","","75","K","2","","","159","main_expt"
"","bandit","239","1225848","0.0-200.0-0.0","09072577","wem/bandit_either_2","A289D98Z4GAZ28","either","7","459","","","","","","","0","0","1","0.1615549635","","0.6","0.2","0.8","0.4","","","","","0.2159944071","0.2453635642","0.1615549635","0.4004877553","","","","","","","","75","K","2","","","160","main_expt"
"","bandit","240","1227944","0.0-201.0-0.0","09072577","wem/bandit_either_2","A289D98Z4GAZ28","either","7","588","","","","","","","0","0","1","","0.1854631015","0.6","0.2","0.8","0.4","0.2105769377","0.2456373749","0.1854631015","0.4095849454","","","","","","","","","","","","75","K","2","","","161","main_expt"
"","bandit","241","1230006","0.0-202.0-0.0","09072577","wem/bandit_either_2","A289D98Z4GAZ28","either","7","555","","","","","","","0","0","1","0.21229469","","0.6","0.2","0.8","0.4","","","","","0.2006925765","0.2460125232","0.21229469","0.3978002783","","","","","","","","75","K","2","","","162","main_expt"
"","bandit","242","1231904","0.0-203.0-0.0","09072577","wem/bandit_either_2","A289D98Z4GAZ28","either","7","389","","","","","","","0","0","1","0.162194177","","0.6","0.2","0.8","0.4","","","","","0.2365124807","0.2013568893","0.162194177","0.4180552148","","","","","","","","75","K","2","","","163","main_expt"
"","bandit","243","1233775","0.0-204.0-0.0","09072577","wem/bandit_either_2","A289D98Z4GAZ28","either","7","363","","","","","","","0","0","1","","0.4407560021","0.6","0.2","0.8","0.4","0.2157370886","0.1933595846","0.1535707797","0.4407560021","","","","","","","","","","","","76","L","3","","","164","main_expt"
"","bandit","244","1235688","0.0-205.0-0.0","09072577","wem/bandit_either_2","A289D98Z4GAZ28","either","7","404","","","","","","","0","0","1","","0.167552211","0.6","0.2","0.8","0.4","0.2166787898","0.167552211","0.2315934193","0.4582960521","","","","","","","","","","","","74","J","1","","","165","main_expt"
"","bandit","245","1237472","0.0-206.0-0.0","09072577","wem/bandit_either_2","A289D98Z4GAZ28","either","7","275","","","","","","","0","0","1","","0.4337500892","0.6","0.2","0.8","0.4","0.1846262972","0.1311237951","0.2579087381","0.4337500892","","","","","","","","","","","","76","L","3","","","166","main_expt"
"","bandit","246","1239278","0.0-207.0-0.0","09072577","wem/bandit_either_2","A289D98Z4GAZ28","either","7","300","","","","","","","0","0","1","","0.1714029316","0.6","0.2","0.8","0.4","0.1888750078","0.1714029316","0.2496457694","0.4537582576","","","","","","","","","","","","74","J","1","","","167","main_expt"
"","bandit","247","1241119","0.0-208.0-0.0","09072577","wem/bandit_either_2","A289D98Z4GAZ28","either","7","332","","","","","","","0","1","0","","0.1494402723","0.6","0.2","0.8","0.4","0.2315683769","0.1494402723","0.234558796","0.4473485534","","","","","","","","","","","","74","J","1","","","168","main_expt"
"","bandit","248","1243025","0.0-209.0-0.0","09072577","wem/bandit_either_2","A289D98Z4GAZ28","either","7","397","","","","","","","0","0","1","","0.1819888556","0.6","0.2","0.8","0.4","0.2018123945","0.1819888556","0.2458600006","0.4471591033","","","","","","","","","","","","74","J","1","","","169","main_expt"
"","bandit","249","1244934","0.0-210.0-0.0","09072577","wem/bandit_either_2","A289D98Z4GAZ28","either","7","402","","","","","","","0","0","1","0.2329206984","","0.6","0.2","0.8","0.4","","","","","0.139238222","0.2329206984","0.2214583157","0.4581839475","","","","","","","","74","J","1","","","170","main_expt"
"","bandit","250","1246791","0.0-211.0-0.0","09072577","wem/bandit_either_2","A289D98Z4GAZ28","either","7","350","","","","","","","0","1","0","","0.2000607923","0.6","0.2","0.8","0.4","0.1466511374","0.2000607923","0.296208115","0.4674995421","","","","","","","","","","","","74","J","1","","","171","main_expt"
"","bandit","251","1248742","0.0-212.0-0.0","09072577","wem/bandit_either_2","A289D98Z4GAZ28","either","7","443","","","","","","","0","0","1","","0.2342957318","0.6","0.2","0.8","0.4","0.1348290388","0.2342957318","0.3062379281","0.4455620345","","","","","","","","","","","","74","J","1","","","172","main_expt"
"","bandit","252","1250806","0.0-213.0-0.0","09072577","wem/bandit_either_2","A289D98Z4GAZ28","either","7","557","","","","","","","0","1","0","","0.2189308077","0.6","0.2","0.8","0.4","0.1521691919","0.2189308077","0.2498067723","0.4471610379","","","","","","","","","","","","74","J","1","","","173","main_expt"
"","bandit","253","1252975","0.0-214.0-0.0","09072577","wem/bandit_either_2","A289D98Z4GAZ28","either","7","661","","","","","","","0","0","1","","0.2373932689","0.6","0.2","0.8","0.4","0.2191935525","0.2373932689","0.1803522277","0.4496576915","","","","","","","","","","","","74","J","1","","","174","main_expt"
"","bandit","254","1256502","0.0-215.0-0.0","09072577","wem/bandit_either_2","A289D98Z4GAZ28","either","7","2021","","","","","","","0","0","1","","0.2160264752","0.6","0.2","0.8","0.4","0.219961305","0.2160264752","0.2014319342","0.4715297358","","","","","","","","","","","","74","J","1","","","175","main_expt"
"","bandit","255","1258584","0.0-216.0-0.0","09072577","wem/bandit_either_2","A289D98Z4GAZ28","either","7","573","","","","","","","0","0","1","","0.1990604306","0.6","0.2","0.8","0.4","0.1882485239","0.1990604306","0.2122003168","0.477956151","","","","","","","","","","","","74","J","1","","","176","main_expt"
"","bandit","256","1260560","0.0-217.0-0.0","09072577","wem/bandit_either_2","A289D98Z4GAZ28","either","7","467","","","","","","","0","0","1","0.1729978196","","0.6","0.2","0.8","0.4","","","","","0.1644902553","0.1729978196","0.2629069455","0.4563721206","","","","","","","","74","J","1","","","177","main_expt"
"","bandit","257","1262382","0.0-218.0-0.0","09072577","wem/bandit_either_2","A289D98Z4GAZ28","either","7","315","","","","","","","0","1","0","","0.1633080779","0.6","0.2","0.8","0.4","0.1713669852","0.1633080779","0.2336104206","0.4409869931","","","","","","","","","","","","74","J","1","","","178","main_expt"
"","bandit","258","1264223","0.0-219.0-0.0","09072577","wem/bandit_either_2","A289D98Z4GAZ28","either","7","333","","","","","","","0","0","1","","0.1243251356","0.6","0.2","0.8","0.4","0.2263400462","0.1243251356","0.1887504226","0.4243126063","","","","","","","","","","","","74","J","1","","","179","main_expt"
"","bandit","259","1266176","0.0-220.0-0.0","09072577","wem/bandit_either_2","A289D98Z4GAZ28","either","7","443","","","","","","","0","0","1","0.1150149055","","0.6","0.2","0.8","0.4","","","","","0.2036870175","0.1150149055","0.138376641","0.4312830743","","","","","","","","74","J","1","","","180","main_expt"
"","bandit","260","1268159","0.0-221.0-0.0","09072577","wem/bandit_either_2","A289D98Z4GAZ28","either","7","476","","","","","","","0","0","1","0.1407924877","","0.6","0.2","0.8","0.4","","","","","0.1934599198","0.1407924877","0.1883992559","0.4433127893","","","","","","","","74","J","1","","","181","main_expt"
"","bandit","261","1270200","0.0-222.0-0.0","09072577","wem/bandit_either_2","A289D98Z4GAZ28","either","7","532","","","","","","","0","0","1","","0.09672650852","0.6","0.2","0.8","0.4","0.2424515525","0.09672650852","0.128889003","0.440136403","","","","","","","","","","","","74","J","1","","","182","main_expt"
"","bandit","262","1272097","0.0-223.0-0.0","09072577","wem/bandit_either_2","A289D98Z4GAZ28","either","7","387","","","","","","","0","0","1","","0.09888002855","0.6","0.2","0.8","0.4","0.1961777535","0.09888002855","0.1748769843","0.4347693449","","","","","","","","","","","","74","J","1","","","183","main_expt"
"","bandit","263","1273961","0.0-224.0-0.0","09072577","wem/bandit_either_2","A289D98Z4GAZ28","either","7","354","","","","","","","0","0","1","","0.07200145298","0.6","0.2","0.8","0.4","0.1489283113","0.07200145298","0.1945994373","0.4277130926","","","","","","","","","","","","74","J","1","","","184","main_expt"
"","bandit","264","1275985","0.0-225.0-0.0","09072577","wem/bandit_either_2","A289D98Z4GAZ28","either","7","515","","","","","","","0","0","1","0.1499965078","","0.6","0.2","0.8","0.4","","","","","0.1499965078","0.09476413333","0.1644748654","0.3956248437","","","","","","","","72","H","0","img/none_selected.jpg","","185","main_expt"
"","bandit","265","1278025","0.0-226.0-0.0","09072577","wem/bandit_either_2","A289D98Z4GAZ28","either","7","529","","","","","","","0","0","1","","0.2169832988","0.6","0.2","0.8","0.4","0.2169832988","0.06556422103","0.1504635592","0.3748928266","","","","","","","","","","","","72","H","0","img/none_selected.jpg","","186","main_expt"
"","bandit","266","1279992","0.0-227.0-0.0","09072577","wem/bandit_either_2","A289D98Z4GAZ28","either","7","459","","","","","","","1","0","0","0.2655186329","","0.6","0.2","0.8","0.4","","","","","0.2655186329","0.08901149072","0.1760039214","0.3848139325","","","","","","","","72","H","0","img/none_selected.jpg","","187","main_expt"
"","bandit","267","1281922","0.0-228.0-0.0","09072577","wem/bandit_either_2","A289D98Z4GAZ28","either","7","419","","","","","","","0","0","1","","0.2738785118","0.6","0.2","0.8","0.4","0.2738785118","0.09471428588","0.1203267588","0.3990176401","","","","","","","","","","","","72","H","0","img/none_selected.jpg","","188","main_expt"
"","bandit","268","1283953","0.0-229.0-0.0","09072577","wem/bandit_either_2","A289D98Z4GAZ28","either","7","522","","","","","","","0","0","1","0.3041874674","","0.6","0.2","0.8","0.4","","","","","0.3041874674","0.05118235823","0.1171540391","0.3581396838","","","","","","","","72","H","0","img/none_selected.jpg","","189","main_expt"
"","bandit","269","1285944","0.0-230.0-0.0","09072577","wem/bandit_either_2","A289D98Z4GAZ28","either","7","482","","","","","","","0","0","1","","0.3229453735","0.6","0.2","0.8","0.4","0.3229453735","0.05788318751","0.1535230761","0.2882972244","","","","","","","","","","","","72","H","0","img/none_selected.jpg","","190","main_expt"
"","bandit","270","1287671","0.0-231.0-0.0","09072577","wem/bandit_either_2","A289D98Z4GAZ28","either","7","220","","","","","","","0","0","1","","0.1372750947","0.6","0.2","0.8","0.4","0.3818249757","0.08736915481","0.1372750947","0.3145326233","","","","","","","","","","","","75","K","2","","","191","main_expt"
"","bandit","271","1289626","0.0-232.0-0.0","09072577","wem/bandit_either_2","A289D98Z4GAZ28","either","7","444","","","","","","","0","0","1","0.1047771501","","0.6","0.2","0.8","0.4","","","","","0.4157726243","0.08251019118","0.1047771501","0.3270603702","","","","","","","","75","K","2","","","192","main_expt"
"","bandit","272","1291506","0.0-233.0-0.0","09072577","wem/bandit_either_2","A289D98Z4GAZ28","either","7","370","","","","","","","0","0","1","0.1100845432","","0.6","0.2","0.8","0.4","","","","","0.4611608212","0.06897628064","0.1100845432","0.3604030797","","","","","","","","75","K","2","","","193","main_expt"
"","bandit","273","1293386","0.0-234.0-0.0","09072577","wem/bandit_either_2","A289D98Z4GAZ28","either","7","370","","","","","","","0","1","0","","0.357423186","0.6","0.2","0.8","0.4","0.4508818777","0.06801266305","0.1468163818","0.357423186","","","","","","","","","","","","76","L","3","","","194","main_expt"
"","bandit","274","1295247","0.0-235.0-0.0","09072577","wem/bandit_either_2","A289D98Z4GAZ28","either","7","354","","","","","","","0","0","1","0.3697779856","","0.6","0.2","0.8","0.4","","","","","0.4278921451","0.09923709358","0.1495594621","0.3697779856","","","","","","","","76","L","3","","","195","main_expt"
"","bandit","275","1297319","0.0-236.0-0.0","09072577","wem/bandit_either_2","A289D98Z4GAZ28","either","7","564","","","","","","","0","0","1","","0.3617177512","0.6","0.2","0.8","0.4","0.4256293003","0.1103063831","0.2263220537","0.3617177512","","","","","","","","","","","","76","L","3","","","196","main_expt"
"","bandit","276","1299361","0.0-237.0-0.0","09072577","wem/bandit_either_2","A289D98Z4GAZ28","either","7","533","","","","","","","0","0","1","","0.3775990084","0.6","0.2","0.8","0.4","0.4476975038","0.07377144043","0.2204718804","0.3775990084","","","","","","","","","","","","76","L","3","","","197","main_expt"
"","bandit","277","1301183","0.0-238.0-0.0","09072577","wem/bandit_either_2","A289D98Z4GAZ28","either","7","314","","","","","","","0","1","0","","0.4144042571","0.6","0.2","0.8","0.4","0.4434357272","0.08863448313","0.2401118457","0.4144042571","","","","","","","","","","","","76","L","3","","","198","main_expt"
"","bandit","278","1303032","0.0-239.0-0.0","09072577","wem/bandit_either_2","A289D98Z4GAZ28","either","7","341","","","","","","","0","0","1","0.4081775392","","0.6","0.2","0.8","0.4","","","","","0.4245114622","0.1082179128","0.2673724497","0.4081775392","","","","","","","","76","L","3","","","199","main_expt"
"","bandit","279","1304889","0.0-240.0-0.0","09072577","wem/bandit_either_2","A289D98Z4GAZ28","either","7","347","","","","","","","0","0","1","","0.4166156547","0.6","0.2","0.8","0.4","0.4087100315","0.09350688576","0.3125307902","0.4166156547","","","","","","","","","","","","76","L","3","","","200","main_expt"
"","bandit","280","1306689","0.0-241.0-0.0","09072577","wem/bandit_either_2","A289D98Z4GAZ28","either","7","291","","","","","","","1","0","0","0.4306537176","","0.6","0.2","0.8","0.4","","","","","0.4361521275","0.1036625099","0.2914574258","0.4306537176","","","","","","","","76","L","3","","","201","main_expt"
"","bandit","281","1308529","0.0-242.0-0.0","09072577","wem/bandit_either_2","A289D98Z4GAZ28","either","7","330","","","","","","","0","0","1","","0.449382563","0.6","0.2","0.8","0.4","0.3332596158","0.1216733889","0.2550600684","0.449382563","","","","","","","","","","","","76","L","3","","","202","main_expt"
"","bandit","282","1310279","0.0-243.0-0.0","09072577","wem/bandit_either_2","A289D98Z4GAZ28","either","7","243","","","","","","","0","0","1","","0.4506576586","0.6","0.2","0.8","0.4","0.3581848779","0.120655788","0.2769745997","0.4506576586","","","","","","","","","","","","76","L","3","","","203","main_expt"
"","bandit","283","1311961","0.0-244.0-0.0","09072577","wem/bandit_either_2","A289D98Z4GAZ28","either","7","172","","","","","","","1","0","0","0.454839243","","0.6","0.2","0.8","0.4","","","","","0.3597133043","0.1082970726","0.2752990059","0.454839243","","","","","","","","76","L","3","","","204","main_expt"
"","bandit","284","1313729","0.0-245.0-0.0","09072577","wem/bandit_either_2","A289D98Z4GAZ28","either","7","259","","","","","","","0","0","1","","0.4512889682","0.6","0.2","0.8","0.4","0.3630183988","0.09143681274","0.2901512169","0.4512889682","","","","","","","","","","","","76","L","3","","","205","main_expt"
"","bandit","285","1315681","0.0-246.0-0.0","09072577","wem/bandit_either_2","A289D98Z4GAZ28","either","7","442","","","","","","","1","0","0","0.4591490044","","0.6","0.2","0.8","0.4","","","","","0.3737494834","0.08377413986","0.2823763913","0.4591490044","","","","","","","","76","L","3","","","206","main_expt"
"","bandit","286","1317553","0.0-247.0-0.0","09072577","wem/bandit_either_2","A289D98Z4GAZ28","either","7","363","","","","","","","0","0","1","","0.4650593633","0.6","0.2","0.8","0.4","0.3668784438","0.1585073664","0.2708062506","0.4650593633","","","","","","","","","","","","76","L","3","","","207","main_expt"
"","bandit","287","1319480","0.0-248.0-0.0","09072577","wem/bandit_either_2","A289D98Z4GAZ28","either","7","419","","","","","","","0","1","0","","0.4641513068","0.6","0.2","0.8","0.4","0.4045351895","0.162299901","0.2641553663","0.4641513068","","","","","","","","","","","","76","L","3","","","208","main_expt"
"","bandit","288","1321480","0.0-249.0-0.0","09072577","wem/bandit_either_2","A289D98Z4GAZ28","either","7","492","","","","","","","0","1","0","","0.4567807332","0.6","0.2","0.8","0.4","0.4402386934","0.1542266077","0.2704675845","0.4567807332","","","","","","","","","","","","76","L","3","","","209","main_expt"
"","bandit","289","1323433","0.0-250.0-0.0","09072577","wem/bandit_either_2","A289D98Z4GAZ28","either","7","443","","","","","","","0","0","1","","0.428253188","0.6","0.2","0.8","0.4","0.4483623408","0.1890415559","0.3420868926","0.428253188","","","","","","","","","","","","76","L","3","","","210","main_expt"
"","bandit","290","1325410","0.0-251.0-0.0","09072577","wem/bandit_either_2","A289D98Z4GAZ28","either","7","467","","","","","","","0","0","1","","0.410271385","0.6","0.2","0.8","0.4","0.4471415093","0.1818133019","0.3069688952","0.410271385","","","","","","","","","","","","76","L","3","","","211","main_expt"
"","bandit","291","1327417","0.0-252.0-0.0","09072577","wem/bandit_either_2","A289D98Z4GAZ28","either","7","498","","","","","","","0","1","0","","0.4065587724","0.6","0.2","0.8","0.4","0.4374655127","0.1782747956","0.3005379093","0.4065587724","","","","","","","","","","","","76","L","3","","","212","main_expt"
"","bandit","292","1329528","0.0-253.0-0.0","09072577","wem/bandit_either_2","A289D98Z4GAZ28","either","7","602","","","","","","","1","0","0","0.4007116542","","0.6","0.2","0.8","0.4","","","","","0.4381457257","0.1935195711","0.213882915","0.4007116542","","","","","","","","76","L","3","","","213","main_expt"
"","bandit","293","1331554","0.0-254.0-0.0","09072577","wem/bandit_either_2","A289D98Z4GAZ28","either","7","515","","","","","","","0","0","1","0.4246209323","","0.6","0.2","0.8","0.4","","","","","0.4643769008","0.2421176173","0.2138557204","0.4246209323","","","","","","","","76","L","3","","","214","main_expt"
"","bandit","294","1333474","0.0-255.0-0.0","09072577","wem/bandit_either_2","A289D98Z4GAZ28","either","7","410","","","","","","","0","0","1","0.3993057066","","0.6","0.2","0.8","0.4","","","","","0.4328812357","0.2629876012","0.2142566612","0.3993057066","","","","","","","","76","L","3","","","215","main_expt"
"","bandit","295","1335417","0.0-256.0-0.0","09072577","wem/bandit_either_2","A289D98Z4GAZ28","either","7","434","","","","","","","0","0","1","0.3987772474","","0.6","0.2","0.8","0.4","","","","","0.4064507999","0.2977714141","0.1900351118","0.3987772474","","","","","","","","76","L","3","","","216","main_expt"
"","bandit","296","1337326","0.0-257.0-0.0","09072577","wem/bandit_either_2","A289D98Z4GAZ28","either","7","401","","","","","","","0","0","1","0.4101433534","","0.6","0.2","0.8","0.4","","","","","0.4197961641","0.3017601552","0.2185169477","0.4101433534","","","","","","","","76","L","3","","","217","main_expt"
"","bandit","297","1339217","0.0-258.0-0.0","09072577","wem/bandit_either_2","A289D98Z4GAZ28","either","7","381","","","","","","","0","0","1","","0.4448029092","0.6","0.2","0.8","0.4","0.4167397569","0.2888566207","0.2240895604","0.4448029092","","","","","","","","","","","","76","L","3","","","218","main_expt"
"","bandit","298","1341258","0.0-259.0-0.0","09072577","wem/bandit_either_2","A289D98Z4GAZ28","either","7","531","","","","","","","0","0","1","","0.4454766299","0.6","0.2","0.8","0.4","0.4250944588","0.2844008008","0.1990808675","0.4454766299","","","","","","","","","","","","76","L","3","","","219","main_expt"
"","bandit","299","1343129","0.0-260.0-0.0","09072577","wem/bandit_either_2","A289D98Z4GAZ28","either","7","362","","","","","","","1","0","0","0.4610997771","","0.6","0.2","0.8","0.4","","","","","0.4173336587","0.2225062479","0.266602996","0.4610997771","","","","","","","","76","L","3","","","220","main_expt"
"","bandit","300","1344985","0.0-261.0-0.0","09072577","wem/bandit_either_2","A289D98Z4GAZ28","either","7","347","","","","","","","0","0","1","0.4642289789","","0.6","0.2","0.8","0.4","","","","","0.3944711005","0.2409900116","0.2443661227","0.4642289789","","","","","","","","76","L","3","","","221","main_expt"
"","bandit","301","1346847","0.0-262.0-0.0","09072577","wem/bandit_either_2","A289D98Z4GAZ28","either","7","354","","","","","","","1","0","0","0.4641270597","","0.6","0.2","0.8","0.4","","","","","0.3619306912","0.1989678636","0.2205922116","0.4641270597","","","","","","","","76","L","3","","","222","main_expt"
"","bandit","302","1348683","0.0-263.0-0.0","09072577","wem/bandit_either_2","A289D98Z4GAZ28","either","7","324","","","","","","","0","1","0","","0.4697433819","0.6","0.2","0.8","0.4","0.4117842179","0.1902867071","0.1861223506","0.4697433819","","","","","","","","","","","","76","L","3","","","223","main_expt"
"","bandit","303","1350681","0.0-264.0-0.0","09072577","wem/bandit_either_2","A289D98Z4GAZ28","either","7","486","","","","","","","1","0","0","0.460898083","","0.6","0.2","0.8","0.4","","","","","0.3965092367","0.2076415522","0.1668884863","0.460898083","","","","","","","","76","L","3","","","224","main_expt"
"","bandit","304","1352872","0.0-265.0-0.0","09072577","wem/bandit_either_2","A289D98Z4GAZ28","either","7","682","","","","","","","0","0","1","","0.4394890665","0.6","0.2","0.8","0.4","0.4084477862","0.2393469174","0.1481472712","0.4394890665","","","","","","","","","","","","76","L","3","","","225","main_expt"
"","bandit","305","1354914","0.0-266.0-0.0","09072577","wem/bandit_either_2","A289D98Z4GAZ28","either","7","530","","","","","","","0","1","0","","0.4520955237","0.6","0.2","0.8","0.4","0.4104601526","0.2425440376","0.1140846591","0.4520955237","","","","","","","","","","","","76","L","3","","","226","main_expt"
"","bandit","306","1356936","0.0-267.0-0.0","09072577","wem/bandit_either_2","A289D98Z4GAZ28","either","7","514","","","","","","","0","0","1","","0.4324220164","0.6","0.2","0.8","0.4","0.3899733519","0.2365603363","0.1074218354","0.4324220164","","","","","","","","","","","","76","L","3","","","227","main_expt"
"","bandit","307","1358928","0.0-268.0-0.0","09072577","wem/bandit_either_2","A289D98Z4GAZ28","either","7","482","","","","","","","0","0","1","0.4220482421","","0.6","0.2","0.8","0.4","","","","","0.3796730737","0.2127958296","0.08065165665","0.4220482421","","","","","","","","76","L","3","","","228","main_expt"
"","bandit","308","1360706","0.0-269.0-0.0","09072577","wem/bandit_either_2","A289D98Z4GAZ28","either","7","266","","","","","","","0","0","1","0.3885749154","","0.6","0.2","0.8","0.4","","","","","0.4046866514","0.2207861463","0.07774059362","0.3885749154","","","","","","","","76","L","3","","","229","main_expt"
"","bandit","309","1362640","0.0-270.0-0.0","09072577","wem/bandit_either_2","A289D98Z4GAZ28","either","7","426","","","","","","","1","0","0","0.4023755806","","0.6","0.2","0.8","0.4","","","","","0.3988793555","0.2589226453","0.1109483114","0.4023755806","","","","","","","","76","L","3","","","230","main_expt"
"","bandit","310","1364592","0.0-271.0-0.0","09072577","wem/bandit_either_2","A289D98Z4GAZ28","either","7","442","","","","","","","0","0","1","0.3768725222","","0.6","0.2","0.8","0.4","","","","","0.3981898202","0.2956158432","0.05902300203","0.3768725222","","","","","","","","76","L","3","","","231","main_expt"
"","bandit","311","1366889","0.0-272.0-0.0","09072577","wem/bandit_either_2","A289D98Z4GAZ28","either","7","786","","","","","","","0","0","1","","0.3619917427","0.6","0.2","0.8","0.4","0.4411941832","0.3202484073","0.06675855664","0.3619917427","","","","","","","","","","","","76","L","3","","","232","main_expt"
"","bandit","312","1369265","0.0-273.0-0.0","09072577","wem/bandit_either_2","A289D98Z4GAZ28","either","7","866","","","","","","","0","1","0","","0.3833578816","0.6","0.2","0.8","0.4","0.42967461","0.2933644042","0.06703699679","0.3833578816","","","","","","","","","","","","76","L","3","","","233","main_expt"
"","bandit","313","1371762","0.0-274.0-0.0","09072577","wem/bandit_either_2","A289D98Z4GAZ28","either","7","986","","","","","","","0","1","0","","0.3552131768","0.6","0.2","0.8","0.4","0.4242798354","0.3106154811","0.05331023031","0.3552131768","","","","","","","","","","","","76","L","3","","","234","main_expt"
"","bandit","314","1373896","0.0-275.0-0.0","09072577","wem/bandit_either_2","A289D98Z4GAZ28","either","7","625","","","","","","","0","1","0","","0.3135084543","0.6","0.2","0.8","0.4","0.4617388459","0.3158990995","0.05187545802","0.3135084543","","","","","","","","","","","","76","L","3","","","235","main_expt"
"","bandit","315","1376136","0.0-276.0-0.0","09072577","wem/bandit_either_2","A289D98Z4GAZ28","either","7","731","","","","","","","0","0","1","","0.244945467","0.6","0.2","0.8","0.4","0.4619510484","0.3036927748","0.06939909985","0.244945467","","","","","","","","","","","","76","L","3","","","236","main_expt"
"","bandit","316","1378528","0.0-277.0-0.0","09072577","wem/bandit_either_2","A289D98Z4GAZ28","either","7","882","","","","","","","0","0","1","0.1823839079","","0.6","0.2","0.8","0.4","","","","","0.4482398789","0.3491021326","0.1210409879","0.1823839079","","","","","","","","76","L","3","","","237","main_expt"
"","bandit","317","1380681","0.0-278.0-0.0","09072577","wem/bandit_either_2","A289D98Z4GAZ28","either","7","642","","","","","","","0","0","1","","0.1685050226","0.6","0.2","0.8","0.4","0.4193969143","0.3939254097","0.1147840357","0.1685050226","","","","","","","","","","","","76","L","3","","","238","main_expt"
"","bandit","318","1382778","0.0-279.0-0.0","09072577","wem/bandit_either_2","A289D98Z4GAZ28","either","7","585","","","","","","","0","0","1","","0.1606472637","0.6","0.2","0.8","0.4","0.4203848948","0.379108978","0.1006463842","0.1606472637","","","","","","","","","","","","76","L","3","","","239","main_expt"
"","bandit","319","1385151","0.0-280.0-0.0","09072577","wem/bandit_either_2","A289D98Z4GAZ28","either","7","865","","","","","","","0","0","1","","0.1512795466","0.6","0.2","0.8","0.4","0.4489383263","0.3876209848","0.1008771133","0.1512795466","","","","","","","","","","","","76","L","3","","","240","main_expt"
"","bandit","320","1387737","0.0-281.0-0.0","09072577","wem/bandit_either_2","A289D98Z4GAZ28","either","7","1075","","","","","","","0","0","1","0.1916219391","","0.6","0.2","0.8","0.4","","","","","0.4636195567","0.3839625774","0.09981833296","0.1916219391","","","","","","","","76","L","3","","","241","main_expt"
"","bandit","321","1389857","0.0-282.0-0.0","09072577","wem/bandit_either_2","A289D98Z4GAZ28","either","7","609","","","","","","","0","0","1","","0.1641013935","0.6","0.2","0.8","0.4","0.4575307695","0.3477958629","0.1171772993","0.1641013935","","","","","","","","","","","","76","L","3","","","242","main_expt"
"","bandit","322","1391991","0.0-283.0-0.0","09072577","wem/bandit_either_2","A289D98Z4GAZ28","either","7","626","","","","","","","0","0","1","0.1239984651","","0.6","0.2","0.8","0.4","","","","","0.4449554393","0.3500658948","0.1239984651","0.2064320789","","","","","","","","75","K","2","","","243","main_expt"
"","bandit","323","1393905","0.0-284.0-0.0","09072577","wem/bandit_either_2","A289D98Z4GAZ28","either","7","403","","","","","","","0","0","1","0.1126152289","","0.6","0.2","0.8","0.4","","","","","0.4525763452","0.3452717574","0.1126152289","0.2205496082","","","","","","","","75","K","2","","","244","main_expt"
"","bandit","324","1395879","0.0-285.0-0.0","09072577","wem/bandit_either_2","A289D98Z4GAZ28","either","7","465","","","","","","","0","0","1","","0.1524829061","0.6","0.2","0.8","0.4","0.4753838692","0.3162288444","0.1524829061","0.214276823","","","","","","","","","","","","75","K","2","","","245","main_expt"
"","bandit","325","1397801","0.0-286.0-0.0","09072577","wem/bandit_either_2","A289D98Z4GAZ28","either","7","411","","","","","","","0","0","1","","0.1921750243","0.6","0.2","0.8","0.4","0.4623654582","0.2894596967","0.1921750243","0.2084567316","","","","","","","","","","","","75","K","2","","","246","main_expt"
"","bandit","326","1399679","0.0-287.0-0.0","09072577","wem/bandit_either_2","A289D98Z4GAZ28","either","7","369","","","","","","","0","0","1","","0.2642296388","0.6","0.2","0.8","0.4","0.4331165165","0.2642296388","0.1931065189","0.2232303491","","","","","","","","","","","","74","J","1","","","247","main_expt"
"","bandit","327","1401656","0.0-288.0-0.0","09072577","wem/bandit_either_2","A289D98Z4GAZ28","either","7","464","","","","","","","0","0","1","0.2534255255","","0.6","0.2","0.8","0.4","","","","","0.4401602984","0.2534255255","0.2189994516","0.2541796534","","","","","","","","74","J","1","","","248","main_expt"
"","bandit","328","1403511","0.0-289.0-0.0","09072577","wem/bandit_either_2","A289D98Z4GAZ28","either","7","346","","","","","","","1","0","0","0.2252980971","","0.6","0.2","0.8","0.4","","","","","0.430892824","0.2252980971","0.1989243371","0.232462199","","","","","","","","74","J","1","","","249","main_expt"
"","bandit","329","1405440","0.0-290.0-0.0","09072577","wem/bandit_either_2","A289D98Z4GAZ28","either","7","418","","","","","","","0","0","1","","0.298830738","0.6","0.2","0.8","0.4","0.4282509168","0.298830738","0.1635706079","0.2877664065","","","","","","","","","","","","74","J","1","","","250","main_expt"
