"consent","trial_type","trial_index","time_elapsed","internal_node_id","subjID","study","MID","cond","drift","rt","responses","key_press","expt_phase","like","value","connected","gems","bombs","no_reward","GemPrChosen","BombPrChosen","GainOverPainPr_0","GainOverPainPr_1","GainOverPainPr_2","GainOverPainPr_3","LosePr_0","LosePr_1","LosePr_2","LosePr_3","WinPr_0","WinPr_1","WinPr_2","WinPr_3","Q0","Q1","Q2","gender","age","ethnicity","target","respCharCode","respKey","respChoiceNum","respChoice","practice","trial_counter","trial_label"
"INL_behavioral_consent_30min_online.html","consent","0","18473","0.0-0.0","09515401","wem/bandit_either_2","AZNIEFUIVB2H0","either","5","","","","","","","","","","","","","","","","","","","","","","","","","","","","","","","","","","","","","",""
"","survey-text","1","24127","0.0-1.0","09515401","wem/bandit_either_2","AZNIEFUIVB2H0","either","5","4644","{""Q0"":""AZNIEFUIVB2H0""}","","","","","","","","","","","","","","","","","","","","","","","","","","","","","","","","","","","",""
"","text","2","66890","0.0-2.0","09515401","wem/bandit_either_2","AZNIEFUIVB2H0","either","5","41760","","32","","","","","","","","","","","","","","","","","","","","","","","","","","","","","","","","","","",""
"","text","3","76098","0.0-3.0","09515401","wem/bandit_either_2","AZNIEFUIVB2H0","either","5","9205","","32","","","","","","","","","","","","","","","","","","","","","","","","","","","","","","","","","","",""
"","text","4","98461","0.0-4.0","09515401","wem/bandit_either_2","AZNIEFUIVB2H0","either","5","22359","","32","","","","","","","","","","","","","","","","","","","","","","","","","","","","","","","","","","",""
"","text","5","110875","0.0-5.0","09515401","wem/bandit_either_2","AZNIEFUIVB2H0","either","5","12411","","32","","","","","","","","","","","","","","","","","","","","","","","","","","","","","","","","","","",""
"","text","6","127148","0.0-6.0","09515401","wem/bandit_either_2","AZNIEFUIVB2H0","either","5","16269","","32","","","","","","","","","","","","","","","","","","","","","","","","","","","","","","","","","","",""
"","text","7","141273","0.0-7.0","09515401","wem/bandit_either_2","AZNIEFUIVB2H0","either","5","14122","","32","","","","","","","","","","","","","","","","","","","","","","","","","","","","","","","","","","",""
"","text","8","148154","0.0-8.0","09515401","wem/bandit_either_2","AZNIEFUIVB2H0","either","5","6877","","32","","","","","","","","","","","","","","","","","","","","","","","","","","","","","","","","","","",""
"","identification","9","165251","0.0-9.0-0.0","09515401","wem/bandit_either_2","AZNIEFUIVB2H0","either","5","17066","","","","1","2","1","","","","","","","","","","","","","","","","","","","","","","","","the village of Zur","","","","","","",""
"","identification","10","171935","0.0-9.0-1.0","09515401","wem/bandit_either_2","AZNIEFUIVB2H0","either","5","5654","","","","3","3","3","","","","","","","","","","","","","","","","","","","","","","","","the village of Nyx","","","","","","",""
"","text","11","186294","0.0-10.0","09515401","wem/bandit_either_2","AZNIEFUIVB2H0","either","5","13348","","32","","","","","","","","","","","","","","","","","","","","","","","","","","","","","","","","","","",""
"","text","12","191761","0.0-11.0","09515401","wem/bandit_either_2","AZNIEFUIVB2H0","either","5","5464","","32","","","","","","","","","","","","","","","","","","","","","","","","","","","","","","","","","","",""
"","text","13","193866","0.0-12.0","09515401","wem/bandit_either_2","AZNIEFUIVB2H0","either","5","2103","","32","","","","","","","","","","","","","","","","","","","","","","","","","","","","","","","","","","",""
"","text","14","198075","0.0-13.0","09515401","wem/bandit_either_2","AZNIEFUIVB2H0","either","5","4208","","32","","","","","","","","","","","","","","","","","","","","","","","","","","","","","","","","","","",""
"","bandit","15","201064","0.0-14.0-0.0","09515401","wem/bandit_either_2","AZNIEFUIVB2H0","either","5","1479","","","","","","","0","0","1","0","0","","","","","0","","","","0","","","","","","","","","","","74","J","0","img/none_selected_demo.jpg","true","0",""
"","bandit","16","204827","0.0-15.0-0.0","09515401","wem/bandit_either_2","AZNIEFUIVB2H0","either","5","2248","","","","","","","0","0","1","0","0","","","","","0","","","","0","","","","","","","","","","","75","K","0","img/none_selected_demo.jpg","true","0",""
"","text","17","214997","0.0-16.0","09515401","wem/bandit_either_2","AZNIEFUIVB2H0","either","5","10166","","32","","","","","","","","","","","","","","","","","","","","","","","","","","","","","","","","","","",""
"","text","18","230584","0.0-17.0","09515401","wem/bandit_either_2","AZNIEFUIVB2H0","either","5","15582","","32","","","","","","","","","","","","","","","","","","","","","","","","","","","","","","","","","","",""
"","text","19","239419","0.0-18.0","09515401","wem/bandit_either_2","AZNIEFUIVB2H0","either","5","8832","","32","","","","","","","","","","","","","","","","","","","","","","","","","","","","","","","","","","",""
"","text","20","243282","0.0-19.0","09515401","wem/bandit_either_2","AZNIEFUIVB2H0","either","5","3861","","32","","","","","","","","","","","","","","","","","","","","","","","","","","","","","","","","","","",""
"","bandit","21","245486","0.0-20.0-0.0","09515401","wem/bandit_either_2","AZNIEFUIVB2H0","either","5","691","","","","","","","1","0","0","0.8","","0.5","0.5","","","","","","","0.8","0.2","","","","","","","","","","74","J","0","img/none_selected_demo.jpg","true","0","80_20_practice"
"","bandit","22","249057","0.0-20.0-1.0","09515401","wem/bandit_either_2","AZNIEFUIVB2H0","either","5","2061","","","","","","","0","0","1","","0.2","0.5","0.5","","","0.8","0.2","","","","","","","","","","","","","","75","K","1","","true","0","80_20_practice"
"","bandit","23","251086","0.0-20.0-2.0","09515401","wem/bandit_either_2","AZNIEFUIVB2H0","either","5","520","","","","","","","0","1","0","","0.8","0.5","0.5","","","0.8","0.2","","","","","","","","","","","","","","74","J","0","img/none_selected_demo.jpg","true","0","80_20_practice"
"","bandit","24","253207","0.0-20.0-3.0","09515401","wem/bandit_either_2","AZNIEFUIVB2H0","either","5","612","","","","","","","0","1","0","","0.8","0.5","0.5","","","0.8","0.2","","","","","","","","","","","","","","74","J","0","img/none_selected_demo.jpg","true","0","80_20_practice"
"","bandit","25","255226","0.0-20.0-4.0","09515401","wem/bandit_either_2","AZNIEFUIVB2H0","either","5","511","","","","","","","0","0","1","","0.8","0.5","0.5","","","0.8","0.2","","","","","","","","","","","","","","74","J","0","img/none_selected_demo.jpg","true","0","80_20_practice"
"","bandit","26","257162","0.0-20.0-5.0","09515401","wem/bandit_either_2","AZNIEFUIVB2H0","either","5","427","","","","","","","0","1","0","","0.8","0.5","0.5","","","0.8","0.2","","","","","","","","","","","","","","74","J","0","img/none_selected_demo.jpg","true","0","80_20_practice"
"","bandit","27","259121","0.0-20.0-6.0","09515401","wem/bandit_either_2","AZNIEFUIVB2H0","either","5","450","","","","","","","0","1","0","","0.8","0.5","0.5","","","0.8","0.2","","","","","","","","","","","","","","74","J","0","img/none_selected_demo.jpg","true","0","80_20_practice"
"","bandit","28","261080","0.0-20.0-7.0","09515401","wem/bandit_either_2","AZNIEFUIVB2H0","either","5","449","","","","","","","0","0","1","","0.8","0.5","0.5","","","0.8","0.2","","","","","","","","","","","","","","74","J","0","img/none_selected_demo.jpg","true","0","80_20_practice"
"","bandit","29","262960","0.0-20.0-8.0","09515401","wem/bandit_either_2","AZNIEFUIVB2H0","either","5","370","","","","","","","0","0","1","","0.8","0.5","0.5","","","0.8","0.2","","","","","","","","","","","","","","74","J","0","img/none_selected_demo.jpg","true","0","80_20_practice"
"","bandit","30","264807","0.0-20.0-9.0","09515401","wem/bandit_either_2","AZNIEFUIVB2H0","either","5","330","","","","","","","0","1","0","","0.8","0.5","0.5","","","0.8","0.2","","","","","","","","","","","","","","74","J","0","img/none_selected_demo.jpg","true","0","80_20_practice"
"","bandit","31","266766","0.0-20.0-10.0","09515401","wem/bandit_either_2","AZNIEFUIVB2H0","either","5","448","","","","","","","0","1","0","","0.8","0.5","0.5","","","0.8","0.2","","","","","","","","","","","","","","74","J","0","img/none_selected_demo.jpg","true","0","80_20_practice"
"","bandit","32","268698","0.0-20.0-11.0","09515401","wem/bandit_either_2","AZNIEFUIVB2H0","either","5","423","","","","","","","1","0","0","0.8","","0.5","0.5","","","","","","","0.8","0.2","","","","","","","","","","74","J","0","img/none_selected_demo.jpg","true","0","80_20_practice"
"","bandit","33","270566","0.0-20.0-12.0","09515401","wem/bandit_either_2","AZNIEFUIVB2H0","either","5","355","","","","","","","0","1","0","","0.8","0.5","0.5","","","0.8","0.2","","","","","","","","","","","","","","74","J","0","img/none_selected_demo.jpg","true","0","80_20_practice"
"","bandit","34","272518","0.0-20.0-13.0","09515401","wem/bandit_either_2","AZNIEFUIVB2H0","either","5","438","","","","","","","1","0","0","0.8","","0.5","0.5","","","","","","","0.8","0.2","","","","","","","","","","74","J","0","img/none_selected_demo.jpg","true","0","80_20_practice"
"","bandit","35","274578","0.0-20.0-14.0","09515401","wem/bandit_either_2","AZNIEFUIVB2H0","either","5","549","","","","","","","0","1","0","","0.8","0.5","0.5","","","0.8","0.2","","","","","","","","","","","","","","74","J","0","img/none_selected_demo.jpg","true","0","80_20_practice"
"","bandit","36","276633","0.0-20.0-15.0","09515401","wem/bandit_either_2","AZNIEFUIVB2H0","either","5","543","","","","","","","0","1","0","","0.8","0.5","0.5","","","0.8","0.2","","","","","","","","","","","","","","74","J","0","img/none_selected_demo.jpg","true","0","80_20_practice"
"","bandit","37","278546","0.0-20.0-16.0","09515401","wem/bandit_either_2","AZNIEFUIVB2H0","either","5","402","","","","","","","0","1","0","","0.8","0.5","0.5","","","0.8","0.2","","","","","","","","","","","","","","74","J","0","img/none_selected_demo.jpg","true","0","80_20_practice"
"","bandit","38","280477","0.0-20.0-17.0","09515401","wem/bandit_either_2","AZNIEFUIVB2H0","either","5","421","","","","","","","0","0","1","","0.8","0.5","0.5","","","0.8","0.2","","","","","","","","","","","","","","74","J","0","img/none_selected_demo.jpg","true","0","80_20_practice"
"","bandit","39","283750","0.0-20.0-18.0","09515401","wem/bandit_either_2","AZNIEFUIVB2H0","either","5","1764","","","","","","","0","1","0","","0.8","0.5","0.5","","","0.8","0.2","","","","","","","","","","","","","","74","J","0","img/none_selected_demo.jpg","true","0","80_20_practice"
"","bandit","40","285613","0.0-20.0-19.0","09515401","wem/bandit_either_2","AZNIEFUIVB2H0","either","5","354","","","","","","","0","0","1","0.8","","0.5","0.5","","","","","","","0.8","0.2","","","","","","","","","","74","J","0","img/none_selected_demo.jpg","true","0","80_20_practice"
"","text","41","289789","0.0-21.0","09515401","wem/bandit_either_2","AZNIEFUIVB2H0","either","5","4172","","32","","","","","","","","","","","","","","","","","","","","","","","","","","","","","","","","","","",""
"","bandit","42","292460","0.0-22.0-0.0","09515401","wem/bandit_either_2","AZNIEFUIVB2H0","either","5","1161","","","","","","","1","0","0","1","0","","","","","0","1","","","1","0","","","","","","","","","","74","J","0","img/none_selected_demo.jpg","true","0",""
"","text","43","301967","0.0-23.0","09515401","wem/bandit_either_2","AZNIEFUIVB2H0","either","5","9504","","32","","","","","","","","","","","","","","","","","","","","","","","","","","","","","","","","","","",""
"","text","44","314341","0.0-24.0","09515401","wem/bandit_either_2","AZNIEFUIVB2H0","either","5","12371","","32","","","","","","","","","","","","","","","","","","","","","","","","","","","","","","","","","","",""
"","text","45","319061","0.0-25.0","09515401","wem/bandit_either_2","AZNIEFUIVB2H0","either","5","4718","","32","","","","","","","","","","","","","","","","","","","","","","","","","","","","","","","","","","",""
"","text","46","322896","0.0-26.0","09515401","wem/bandit_either_2","AZNIEFUIVB2H0","either","5","3832","","32","","","","","","","","","","","","","","","","","","","","","","","","","","","","","","","","","","",""
"","text","47","330867","0.0-27.0","09515401","wem/bandit_either_2","AZNIEFUIVB2H0","either","5","7967","","32","","","","","","","","","","","","","","","","","","","","","","","","","","","","","","","","","","",""
"","text","48","334335","0.0-28.0","09515401","wem/bandit_either_2","AZNIEFUIVB2H0","either","5","3463","","32","","","","","","","","","","","","","","","","","","","","","","","","","","","","","","","","","","",""
"","text","49","342419","0.0-29.0","09515401","wem/bandit_either_2","AZNIEFUIVB2H0","either","5","8079","","32","","","","","","","","","","","","","","","","","","","","","","","","","","","","","","","","","","",""
"","text","50","345647","0.0-30.0","09515401","wem/bandit_either_2","AZNIEFUIVB2H0","either","5","3222","","32","","","","","","","","","","","","","","","","","","","","","","","","","","","","","","","","","","",""
"","text","51","353178","0.0-31.0","09515401","wem/bandit_either_2","AZNIEFUIVB2H0","either","5","7527","","32","","","","","","","","","","","","","","","","","","","","","","","","","","","","","","","","","","",""
"","text","52","354983","0.0-32.0","09515401","wem/bandit_either_2","AZNIEFUIVB2H0","either","5","1801","","32","","","","","","","","","","","","","","","","","","","","","","","","","","","","","","","","","","",""
"","text","53","359868","0.0-33.0","09515401","wem/bandit_either_2","AZNIEFUIVB2H0","either","5","4883","","32","","","","","","","","","","","","","","","","","","","","","","","","","","","","","","","","","","",""
"","bandit","54","362924","0.0-34.0-0.0","09515401","wem/bandit_either_2","AZNIEFUIVB2H0","either","5","1542","","","","","","","1","0","0","0.8","","0.5","0.5","0.5","0.5","","","","","0.8","0.2","0.6","0.2","","","","","","","","72","H","0","img/none_selected.jpg","true","0","full_practice"
"","bandit","55","365062","0.0-34.0-1.0","09515401","wem/bandit_either_2","AZNIEFUIVB2H0","either","5","627","","","","","","","1","0","0","0.8","","0.5","0.5","0.5","0.5","","","","","0.8","0.2","0.6","0.2","","","","","","","","72","H","0","img/none_selected.jpg","true","0","full_practice"
"","bandit","56","367053","0.0-34.0-2.0","09515401","wem/bandit_either_2","AZNIEFUIVB2H0","either","5","479","","","","","","","0","0","1","0.8","","0.5","0.5","0.5","0.5","","","","","0.8","0.2","0.6","0.2","","","","","","","","72","H","0","img/none_selected.jpg","true","0","full_practice"
"","bandit","57","369015","0.0-34.0-3.0","09515401","wem/bandit_either_2","AZNIEFUIVB2H0","either","5","453","","","","","","","0","1","0","","0.8","0.5","0.5","0.5","0.5","0.8","0.2","0.6","0.2","","","","","","","","","","","","72","H","0","img/none_selected.jpg","true","0","full_practice"
"","bandit","58","371116","0.0-34.0-4.0","09515401","wem/bandit_either_2","AZNIEFUIVB2H0","either","5","591","","","","","","","0","0","1","","0.8","0.5","0.5","0.5","0.5","0.8","0.2","0.6","0.2","","","","","","","","","","","","72","H","0","img/none_selected.jpg","true","0","full_practice"
"","bandit","59","373006","0.0-34.0-5.0","09515401","wem/bandit_either_2","AZNIEFUIVB2H0","either","5","380","","","","","","","0","0","1","0.8","","0.5","0.5","0.5","0.5","","","","","0.8","0.2","0.6","0.2","","","","","","","","72","H","0","img/none_selected.jpg","true","0","full_practice"
"","bandit","60","374860","0.0-34.0-6.0","09515401","wem/bandit_either_2","AZNIEFUIVB2H0","either","5","343","","","","","","","0","0","1","","0.2","0.5","0.5","0.5","0.5","0.8","0.2","0.6","0.2","","","","","","","","","","","","74","J","1","","true","0","full_practice"
"","bandit","61","376738","0.0-34.0-7.0","09515401","wem/bandit_either_2","AZNIEFUIVB2H0","either","5","360","","","","","","","0","0","1","0.2","","0.5","0.5","0.5","0.5","","","","","0.8","0.2","0.6","0.2","","","","","","","","74","J","1","","true","0","full_practice"
"","bandit","62","379035","0.0-34.0-8.0","09515401","wem/bandit_either_2","AZNIEFUIVB2H0","either","5","787","","","","","","","0","0","1","","0.6","0.5","0.5","0.5","0.5","0.8","0.2","0.6","0.2","","","","","","","","","","","","75","K","2","","true","0","full_practice"
"","bandit","63","380825","0.0-34.0-9.0","09515401","wem/bandit_either_2","AZNIEFUIVB2H0","either","5","280","","","","","","","0","0","1","","0.6","0.5","0.5","0.5","0.5","0.8","0.2","0.6","0.2","","","","","","","","","","","","75","K","2","","true","0","full_practice"
"","bandit","64","384560","0.0-34.0-10.0","09515401","wem/bandit_either_2","AZNIEFUIVB2H0","either","5","2222","","","","","","","1","0","0","0.2","","0.5","0.5","0.5","0.5","","","","","0.8","0.2","0.6","0.2","","","","","","","","76","L","3","","true","0","full_practice"
"","bandit","65","386387","0.0-34.0-11.0","09515401","wem/bandit_either_2","AZNIEFUIVB2H0","either","5","316","","","","","","","0","0","1","0.2","","0.5","0.5","0.5","0.5","","","","","0.8","0.2","0.6","0.2","","","","","","","","76","L","3","","true","0","full_practice"
"","bandit","66","388136","0.0-34.0-12.0","09515401","wem/bandit_either_2","AZNIEFUIVB2H0","either","5","239","","","","","","","0","0","1","0.2","","0.5","0.5","0.5","0.5","","","","","0.8","0.2","0.6","0.2","","","","","","","","76","L","3","","true","0","full_practice"
"","bandit","67","390827","0.0-34.0-13.0","09515401","wem/bandit_either_2","AZNIEFUIVB2H0","either","5","1180","","","","","","","0","1","0","","0.8","0.5","0.5","0.5","0.5","0.8","0.2","0.6","0.2","","","","","","","","","","","","72","H","0","img/none_selected.jpg","true","0","full_practice"
"","bandit","68","392637","0.0-34.0-14.0","09515401","wem/bandit_either_2","AZNIEFUIVB2H0","either","5","297","","","","","","","1","0","0","0.8","","0.5","0.5","0.5","0.5","","","","","0.8","0.2","0.6","0.2","","","","","","","","72","H","0","img/none_selected.jpg","true","0","full_practice"
"","bandit","69","394398","0.0-34.0-15.0","09515401","wem/bandit_either_2","AZNIEFUIVB2H0","either","5","247","","","","","","","0","1","0","","0.8","0.5","0.5","0.5","0.5","0.8","0.2","0.6","0.2","","","","","","","","","","","","72","H","0","img/none_selected.jpg","true","0","full_practice"
"","bandit","70","396262","0.0-34.0-16.0","09515401","wem/bandit_either_2","AZNIEFUIVB2H0","either","5","352","","","","","","","0","1","0","","0.8","0.5","0.5","0.5","0.5","0.8","0.2","0.6","0.2","","","","","","","","","","","","72","H","0","img/none_selected.jpg","true","0","full_practice"
"","bandit","71","398135","0.0-34.0-17.0","09515401","wem/bandit_either_2","AZNIEFUIVB2H0","either","5","359","","","","","","","1","0","0","0.8","","0.5","0.5","0.5","0.5","","","","","0.8","0.2","0.6","0.2","","","","","","","","72","H","0","img/none_selected.jpg","true","0","full_practice"
"","bandit","72","400022","0.0-34.0-18.0","09515401","wem/bandit_either_2","AZNIEFUIVB2H0","either","5","370","","","","","","","1","0","0","0.8","","0.5","0.5","0.5","0.5","","","","","0.8","0.2","0.6","0.2","","","","","","","","72","H","0","img/none_selected.jpg","true","0","full_practice"
"","bandit","73","401813","0.0-34.0-19.0","09515401","wem/bandit_either_2","AZNIEFUIVB2H0","either","5","280","","","","","","","0","1","0","","0.8","0.5","0.5","0.5","0.5","0.8","0.2","0.6","0.2","","","","","","","","","","","","72","H","0","img/none_selected.jpg","true","0","full_practice"
"","text","74","404856","0.0-35.0","09515401","wem/bandit_either_2","AZNIEFUIVB2H0","either","5","3033","","32","","","","","","","","","","","","","","","","","","","","","","","","","","","","","","","","","","",""
"","text","75","417040","0.0-36.0","09515401","wem/bandit_either_2","AZNIEFUIVB2H0","either","5","11177","","32","","","","","","","","","","","","","","","","","","","","","","","","","","","","","","","","","","",""
"","text","76","426017","0.0-37.0","09515401","wem/bandit_either_2","AZNIEFUIVB2H0","either","5","8970","","32","","","","","","","","","","","","","","","","","","","","","","","","","","","","","","","","","","",""
"","text","77","427860","0.0-38.0","09515401","wem/bandit_either_2","AZNIEFUIVB2H0","either","5","1839","","32","","","","","","","","","","","","","","","","","","","","","","","","","","","","","","","","","","",""
"","text","78","430942","0.0-39.0","09515401","wem/bandit_either_2","AZNIEFUIVB2H0","either","5","3078","","32","","","","","","","","","","","","","","","","","","","","","","","","","","","","","","","","","","",""
"","text","79","432872","0.0-40.0","09515401","wem/bandit_either_2","AZNIEFUIVB2H0","either","5","1926","","32","","","","","","","","","","","","","","","","","","","","","","","","","","","","","","","","","","",""
"","bandit","80","435221","0.0-41.0-0.0","09515401","wem/bandit_either_2","AZNIEFUIVB2H0","either","5","834","","","","","","","0","0","1","","0.3897275569","0.4","0.8","0.6","0.2","0.3897275569","0.4265570961","0.1165465043","0.3340388524","","","","","","","","","","","","72","H","0","img/none_selected.jpg","","1","main_expt"
"","bandit","81","437118","0.0-42.0-0.0","09515401","wem/bandit_either_2","AZNIEFUIVB2H0","either","5","384","","","","","","","0","0","1","","0.3911966266","0.4","0.8","0.6","0.2","0.3911966266","0.4177099958","0.08371899021","0.3223834482","","","","","","","","","","","","72","H","0","img/none_selected.jpg","","2","main_expt"
"","bandit","82","439098","0.0-43.0-0.0","09515401","wem/bandit_either_2","AZNIEFUIVB2H0","either","5","468","","","","","","","0","0","1","0.4192185534","","0.4","0.8","0.6","0.2","","","","","0.4074861021","0.4192185534","0.04339790364","0.3585509001","","","","","","","","74","J","1","","","3","main_expt"
"","bandit","83","440957","0.0-44.0-0.0","09515401","wem/bandit_either_2","AZNIEFUIVB2H0","either","5","348","","","","","","","0","0","1","0.4241610434","","0.4","0.8","0.6","0.2","","","","","0.3965638453","0.4241610434","0.04073472785","0.3416436242","","","","","","","","74","J","1","","","4","main_expt"
"","bandit","84","442932","0.0-45.0-0.0","09515401","wem/bandit_either_2","AZNIEFUIVB2H0","either","5","464","","","","","","","0","0","1","","0.04731773769","0.4","0.8","0.6","0.2","0.3688269119","0.4284837315","0.04731773769","0.3444758892","","","","","","","","","","","","75","K","2","","","5","main_expt"
"","bandit","85","444726","0.0-46.0-0.0","09515401","wem/bandit_either_2","AZNIEFUIVB2H0","either","5","283","","","","","","","0","0","1","0.05617088868","","0.4","0.8","0.6","0.2","","","","","0.3865867917","0.4328708062","0.05617088868","0.3574177426","","","","","","","","75","K","2","","","6","main_expt"
"","bandit","86","446461","0.0-47.0-0.0","09515401","wem/bandit_either_2","AZNIEFUIVB2H0","either","5","223","","","","","","","1","0","0","0.3634052143","","0.4","0.8","0.6","0.2","","","","","0.4294719924","0.4176545671","0.05606577856","0.3634052143","","","","","","","","76","L","3","","","7","main_expt"
"","bandit","87","448359","0.0-48.0-0.0","09515401","wem/bandit_either_2","AZNIEFUIVB2H0","either","5","387","","","","","","","0","0","1","0.3675420607","","0.4","0.8","0.6","0.2","","","","","0.4210378118","0.4022395488","0.09244853328","0.3675420607","","","","","","","","76","L","3","","","8","main_expt"
"","bandit","88","450188","0.0-49.0-0.0","09515401","wem/bandit_either_2","AZNIEFUIVB2H0","either","5","319","","","","","","","0","0","1","","0.3921196104","0.4","0.8","0.6","0.2","0.4502112583","0.3929004949","0.1271341085","0.3921196104","","","","","","","","","","","","76","L","3","","","9","main_expt"
"","bandit","89","451998","0.0-50.0-0.0","09515401","wem/bandit_either_2","AZNIEFUIVB2H0","either","5","299","","","","","","","0","0","1","","0.4026182126","0.4","0.8","0.6","0.2","0.4452653155","0.3863711448","0.1370717255","0.4026182126","","","","","","","","","","","","76","L","3","","","10","main_expt"
"","bandit","90","453793","0.0-51.0-0.0","09515401","wem/bandit_either_2","AZNIEFUIVB2H0","either","5","282","","","","","","","0","0","1","0.3543069494","","0.4","0.8","0.6","0.2","","","","","0.4352349267","0.4205849279","0.1275050207","0.3543069494","","","","","","","","76","L","3","","","11","main_expt"
"","bandit","91","456854","0.0-52.0-0.0","09515401","wem/bandit_either_2","AZNIEFUIVB2H0","either","5","1547","","","","","","","0","0","1","","0.122317004","0.4","0.8","0.6","0.2","0.4029030639","0.4525069231","0.122317004","0.3504097904","","","","","","","","","","","","75","K","2","","","12","main_expt"
"","bandit","92","458749","0.0-53.0-0.0","09515401","wem/bandit_either_2","AZNIEFUIVB2H0","either","5","382","","","","","","","0","1","0","","0.1251711411","0.4","0.8","0.6","0.2","0.4198147105","0.4485799753","0.1251711411","0.2787441393","","","","","","","","","","","","75","K","2","","","13","main_expt"
"","bandit","93","460668","0.0-54.0-0.0","09515401","wem/bandit_either_2","AZNIEFUIVB2H0","either","5","408","","","","","","","0","0","1","0.1380641988","","0.4","0.8","0.6","0.2","","","","","0.3761312174","0.4504049656","0.1380641988","0.2723245106","","","","","","","","75","K","2","","","14","main_expt"
"","bandit","94","462408","0.0-55.0-0.0","09515401","wem/bandit_either_2","AZNIEFUIVB2H0","either","5","226","","","","","","","0","0","1","","0.2010812313","0.4","0.8","0.6","0.2","0.4017507227","0.4281165459","0.2010812313","0.3687644442","","","","","","","","","","","","75","K","2","","","15","main_expt"
"","bandit","95","464219","0.0-56.0-0.0","09515401","wem/bandit_either_2","AZNIEFUIVB2H0","either","5","298","","","","","","","0","0","1","0.1747275657","","0.4","0.8","0.6","0.2","","","","","0.3859888637","0.4035101098","0.1747275657","0.3992289848","","","","","","","","75","K","2","","","16","main_expt"
"","bandit","96","465877","0.0-57.0-0.0","09515401","wem/bandit_either_2","AZNIEFUIVB2H0","either","5","140","","","","","","","0","0","1","0.1816524112","","0.4","0.8","0.6","0.2","","","","","0.3706978481","0.4063691663","0.1816524112","0.4067061876","","","","","","","","75","K","2","","","17","main_expt"
"","bandit","97","467606","0.0-58.0-0.0","09515401","wem/bandit_either_2","AZNIEFUIVB2H0","either","5","215","","","","","","","0","0","1","0.4201618032","","0.4","0.8","0.6","0.2","","","","","0.3323991027","0.4201618032","0.1700798448","0.3969002131","","","","","","","","74","J","1","","","18","main_expt"
"","bandit","98","470585","0.0-59.0-0.0","09515401","wem/bandit_either_2","AZNIEFUIVB2H0","either","5","1464","","","","","","","0","0","1","0.3868389751","","0.4","0.8","0.6","0.2","","","","","0.3301718366","0.3868389751","0.1998500639","0.3930099592","","","","","","","","74","J","1","","","19","main_expt"
"","bandit","99","472105","0.0-60.0-0.0","09515401","wem/bandit_either_2","AZNIEFUIVB2H0","either","5","2","","","","","","","1","0","0","0.3868875991","","0.4","0.8","0.6","0.2","","","","","0.3714618997","0.3868875991","0.2418808817","0.3791602553","","","","","","","","74","J","1","","","20","main_expt"
"","bandit","100","473997","0.0-61.0-0.0","09515401","wem/bandit_either_2","AZNIEFUIVB2H0","either","5","375","","","","","","","1","0","0","0.4253770554","","0.4","0.8","0.6","0.2","","","","","0.3621694591","0.4253770554","0.2293341009","0.4127515201","","","","","","","","74","J","1","","","21","main_expt"
"","bandit","101","475835","0.0-62.0-0.0","09515401","wem/bandit_either_2","AZNIEFUIVB2H0","either","5","320","","","","","","","0","1","0","","0.4285762007","0.4","0.8","0.6","0.2","0.3648829928","0.4285762007","0.2074184163","0.4164833055","","","","","","","","","","","","74","J","1","","","22","main_expt"
"","bandit","102","477744","0.0-63.0-0.0","09515401","wem/bandit_either_2","AZNIEFUIVB2H0","either","5","386","","","","","","","0","0","1","0.4082522222","","0.4","0.8","0.6","0.2","","","","","0.2856994719","0.4082522222","0.1832507358","0.4143027846","","","","","","","","74","J","1","","","23","main_expt"
"","bandit","103","479520","0.0-64.0-0.0","09515401","wem/bandit_either_2","AZNIEFUIVB2H0","either","5","259","","","","","","","0","0","1","0.4027270218","","0.4","0.8","0.6","0.2","","","","","0.3152516524","0.4027270218","0.1469425149","0.3649270698","","","","","","","","74","J","1","","","24","main_expt"
"","bandit","104","481318","0.0-65.0-0.0","09515401","wem/bandit_either_2","AZNIEFUIVB2H0","either","5","285","","","","","","","1","0","0","0.4100212433","","0.4","0.8","0.6","0.2","","","","","0.2778145345","0.4100212433","0.102794739","0.392676409","","","","","","","","74","J","1","","","25","main_expt"
"","bandit","105","483164","0.0-66.0-0.0","09515401","wem/bandit_either_2","AZNIEFUIVB2H0","either","5","327","","","","","","","0","0","1","","0.4190791169","0.4","0.8","0.6","0.2","0.3170506137","0.4190791169","0.1173732637","0.4031565401","","","","","","","","","","","","74","J","1","","","26","main_expt"
"","bandit","106","484970","0.0-67.0-0.0","09515401","wem/bandit_either_2","AZNIEFUIVB2H0","either","5","294","","","","","","","0","1","0","","0.4527212376","0.4","0.8","0.6","0.2","0.3223143746","0.4527212376","0.08835016803","0.4245959001","","","","","","","","","","","","74","J","1","","","27","main_expt"
"","bandit","107","486817","0.0-68.0-0.0","09515401","wem/bandit_either_2","AZNIEFUIVB2H0","either","5","335","","","","","","","1","0","0","0.4480998813","","0.4","0.8","0.6","0.2","","","","","0.3234472479","0.4480998813","0.1134440288","0.4232885055","","","","","","","","74","J","1","","","28","main_expt"
"","bandit","108","488620","0.0-69.0-0.0","09515401","wem/bandit_either_2","AZNIEFUIVB2H0","either","5","292","","","","","","","0","0","1","0.4628669208","","0.4","0.8","0.6","0.2","","","","","0.2881425904","0.4628669208","0.1982905849","0.4495512981","","","","","","","","74","J","1","","","29","main_expt"
"","bandit","109","492188","0.0-70.0-0.0","09515401","wem/bandit_either_2","AZNIEFUIVB2H0","either","5","2056","","","","","","","0","0","1","0.4565655028","","0.4","0.8","0.6","0.2","","","","","0.2326555855","0.4565655028","0.2366655967","0.4485299892","","","","","","","","74","J","1","","","30","main_expt"
"","bandit","110","493948","0.0-71.0-0.0","09515401","wem/bandit_either_2","AZNIEFUIVB2H0","either","5","248","","","","","","","0","1","0","","0.4686031056","0.4","0.8","0.6","0.2","0.2364604256","0.4686031056","0.1622470467","0.4599237238","","","","","","","","","","","","74","J","1","","","31","main_expt"
"","bandit","111","495772","0.0-72.0-0.0","09515401","wem/bandit_either_2","AZNIEFUIVB2H0","either","5","312","","","","","","","0","0","1","0.4659582456","","0.4","0.8","0.6","0.2","","","","","0.2451982598","0.4659582456","0.1771911602","0.4508116693","","","","","","","","74","J","1","","","32","main_expt"
"","bandit","112","497585","0.0-73.0-0.0","09515401","wem/bandit_either_2","AZNIEFUIVB2H0","either","5","302","","","","","","","0","0","1","0.4810757035","","0.4","0.8","0.6","0.2","","","","","0.2360369815","0.4810757035","0.1622836308","0.45101727","","","","","","","","74","J","1","","","33","main_expt"
"","bandit","113","499426","0.0-74.0-0.0","09515401","wem/bandit_either_2","AZNIEFUIVB2H0","either","5","327","","","","","","","1","0","0","0.4842727378","","0.4","0.8","0.6","0.2","","","","","0.2317763892","0.4842727378","0.1655985557","0.4340174653","","","","","","","","74","J","1","","","34","main_expt"
"","bandit","114","501434","0.0-75.0-0.0","09515401","wem/bandit_either_2","AZNIEFUIVB2H0","either","5","498","","","","","","","0","0","1","0.4745470136","","0.4","0.8","0.6","0.2","","","","","0.2527891731","0.4745470136","0.1492797185","0.4040147441","","","","","","","","74","J","1","","","35","main_expt"
"","bandit","115","503325","0.0-76.0-0.0","09515401","wem/bandit_either_2","AZNIEFUIVB2H0","either","5","378","","","","","","","0","0","1","0.4440965139","","0.4","0.8","0.6","0.2","","","","","0.2641283143","0.4440965139","0.1504543003","0.4268829696","","","","","","","","74","J","1","","","36","main_expt"
"","bandit","116","505170","0.0-77.0-0.0","09515401","wem/bandit_either_2","AZNIEFUIVB2H0","either","5","332","","","","","","","0","1","0","","0.4544425755","0.4","0.8","0.6","0.2","0.2309310423","0.4544425755","0.1064249526","0.4562327564","","","","","","","","","","","","74","J","1","","","37","main_expt"
"","bandit","117","507065","0.0-78.0-0.0","09515401","wem/bandit_either_2","AZNIEFUIVB2H0","either","5","383","","","","","","","0","0","1","0.4700138218","","0.4","0.8","0.6","0.2","","","","","0.2093170459","0.4700138218","0.1346530267","0.4481627861","","","","","","","","74","J","1","","","38","main_expt"
"","bandit","118","508732","0.0-79.0-0.0","09515401","wem/bandit_either_2","AZNIEFUIVB2H0","either","5","157","","","","","","","1","0","0","0.466948448","","0.4","0.8","0.6","0.2","","","","","0.1398625959","0.466948448","0.1303494481","0.4475890948","","","","","","","","74","J","1","","","39","main_expt"
"","bandit","119","510577","0.0-80.0-0.0","09515401","wem/bandit_either_2","AZNIEFUIVB2H0","either","5","330","","","","","","","1","0","0","0.4679256248","","0.4","0.8","0.6","0.2","","","","","0.09690087606","0.4679256248","0.1492074344","0.4501575696","","","","","","","","74","J","1","","","40","main_expt"
"","bandit","120","512430","0.0-81.0-0.0","09515401","wem/bandit_either_2","AZNIEFUIVB2H0","either","5","340","","","","","","","0","1","0","","0.445537573","0.4","0.8","0.6","0.2","0.1129569356","0.445537573","0.1370672299","0.4121884666","","","","","","","","","","","","74","J","1","","","41","main_expt"
"","bandit","121","514249","0.0-82.0-0.0","09515401","wem/bandit_either_2","AZNIEFUIVB2H0","either","5","309","","","","","","","1","0","0","0.4521531226","","0.4","0.8","0.6","0.2","","","","","0.1227033228","0.4521531226","0.08144147181","0.4379939247","","","","","","","","74","J","1","","","42","main_expt"
"","bandit","122","516090","0.0-83.0-0.0","09515401","wem/bandit_either_2","AZNIEFUIVB2H0","either","5","329","","","","","","","0","1","0","","0.4695072217","0.4","0.8","0.6","0.2","0.08393287497","0.4695072217","0.06793865388","0.4271747655","","","","","","","","","","","","74","J","1","","","43","main_expt"
"","bandit","123","517994","0.0-84.0-0.0","09515401","wem/bandit_either_2","AZNIEFUIVB2H0","either","5","393","","","","","","","0","0","1","0.4807409838","","0.4","0.8","0.6","0.2","","","","","0.06260074275","0.4807409838","0.05295344446","0.4480494518","","","","","","","","74","J","1","","","44","main_expt"
"","bandit","124","519582","0.0-85.0-0.0","09515401","wem/bandit_either_2","AZNIEFUIVB2H0","either","5","77","","","","","","","1","0","0","0.4507048108","","0.4","0.8","0.6","0.2","","","","","0.08062123592","0.4507048108","0.02744239742","0.4269729589","","","","","","","","74","J","1","","","45","main_expt"
"","bandit","125","521438","0.0-86.0-0.0","09515401","wem/bandit_either_2","AZNIEFUIVB2H0","either","5","344","","","","","","","0","0","1","0.4382321206","","0.4","0.8","0.6","0.2","","","","","0.1110847749","0.4382321206","0.02347437243","0.4475746277","","","","","","","","74","J","1","","","46","main_expt"
"","bandit","126","523146","0.0-87.0-0.0","09515401","wem/bandit_either_2","AZNIEFUIVB2H0","either","5","196","","","","","","","0","0","1","0.4393937913","","0.4","0.8","0.6","0.2","","","","","0.05346849493","0.4393937913","0.02418160198","0.4295618238","","","","","","","","74","J","1","","","47","main_expt"
"","bandit","127","524971","0.0-88.0-0.0","09515401","wem/bandit_either_2","AZNIEFUIVB2H0","either","5","314","","","","","","","1","0","0","0.440318131","","0.4","0.8","0.6","0.2","","","","","0.04499733497","0.440318131","0.01182676654","0.4431907244","","","","","","","","74","J","1","","","48","main_expt"
"","bandit","128","526870","0.0-89.0-0.0","09515401","wem/bandit_either_2","AZNIEFUIVB2H0","either","5","388","","","","","","","0","1","0","","0.4362102412","0.4","0.8","0.6","0.2","0.07378534534","0.4362102412","0.0186287842","0.4187732916","","","","","","","","","","","","74","J","1","","","49","main_expt"
"","bandit","129","528724","0.0-90.0-0.0","09515401","wem/bandit_either_2","AZNIEFUIVB2H0","either","5","343","","","","","","","1","0","0","0.44488671","","0.4","0.8","0.6","0.2","","","","","0.06168845619","0.44488671","0.02550629551","0.356579213","","","","","","","","74","J","1","","","50","main_expt"
"","bandit","130","530591","0.0-91.0-0.0","09515401","wem/bandit_either_2","AZNIEFUIVB2H0","either","5","354","","","","","","","1","0","0","0.4633405548","","0.4","0.8","0.6","0.2","","","","","0.1062028567","0.4633405548","0.04366809707","0.2629404955","","","","","","","","74","J","1","","","51","main_expt"
"","bandit","131","532461","0.0-92.0-0.0","09515401","wem/bandit_either_2","AZNIEFUIVB2H0","either","5","348","","","","","","","0","0","1","0.4528043762","","0.4","0.8","0.6","0.2","","","","","0.1379608546","0.4528043762","0.04357168116","0.2919747068","","","","","","","","74","J","1","","","52","main_expt"
"","bandit","132","534331","0.0-93.0-0.0","09515401","wem/bandit_either_2","AZNIEFUIVB2H0","either","5","353","","","","","","","0","0","1","0.4390431751","","0.4","0.8","0.6","0.2","","","","","0.1356826849","0.4390431751","0.03899227154","0.3809901122","","","","","","","","74","J","1","","","53","main_expt"
"","bandit","133","536208","0.0-94.0-0.0","09515401","wem/bandit_either_2","AZNIEFUIVB2H0","either","5","363","","","","","","","0","0","1","0.4549270822","","0.4","0.8","0.6","0.2","","","","","0.1038772241","0.4549270822","0.04009146386","0.3452518694","","","","","","","","74","J","1","","","54","main_expt"
"","bandit","134","538103","0.0-95.0-0.0","09515401","wem/bandit_either_2","AZNIEFUIVB2H0","either","5","376","","","","","","","1","0","0","0.4710341864","","0.4","0.8","0.6","0.2","","","","","0.1689791829","0.4710341864","0.0155768565","0.3263112327","","","","","","","","74","J","1","","","55","main_expt"
"","bandit","135","539998","0.0-96.0-0.0","09515401","wem/bandit_either_2","AZNIEFUIVB2H0","either","5","377","","","","","","","1","0","0","0.4745834276","","0.4","0.8","0.6","0.2","","","","","0.1108888145","0.4745834276","0.02112461672","0.3308963945","","","","","","","","74","J","1","","","56","main_expt"
"","bandit","136","541926","0.0-97.0-0.0","09515401","wem/bandit_either_2","AZNIEFUIVB2H0","either","5","414","","","","","","","1","0","0","0.489318572","","0.4","0.8","0.6","0.2","","","","","0.1206542402","0.489318572","0.0126553198","0.3150326571","","","","","","","","74","J","1","","","57","main_expt"
"","bandit","137","543776","0.0-98.0-0.0","09515401","wem/bandit_either_2","AZNIEFUIVB2H0","either","5","335","","","","","","","0","0","1","0.480037986","","0.4","0.8","0.6","0.2","","","","","0.09707343937","0.480037986","0.01131359515","0.3049116772","","","","","","","","74","J","1","","","58","main_expt"
"","bandit","138","545569","0.0-99.0-0.0","09515401","wem/bandit_either_2","AZNIEFUIVB2H0","either","5","279","","","","","","","0","1","0","","0.4593461039","0.4","0.8","0.6","0.2","0.1044384952","0.4593461039","0.01030075821","0.3050987947","","","","","","","","","","","","74","J","1","","","59","main_expt"
"","bandit","139","547401","0.0-100.0-0.0","09515401","wem/bandit_either_2","AZNIEFUIVB2H0","either","5","318","","","","","","","1","0","0","0.446051488","","0.4","0.8","0.6","0.2","","","","","0.08890369623","0.446051488","0.005868957973","0.3274009355","","","","","","","","74","J","1","","","60","main_expt"
"","bandit","140","549214","0.0-101.0-0.0","09515401","wem/bandit_either_2","AZNIEFUIVB2H0","either","5","299","","","","","","","0","0","1","0.4391285327","","0.4","0.8","0.6","0.2","","","","","0.08921221942","0.4391285327","0.004361943215","0.3428943983","","","","","","","","74","J","1","","","61","main_expt"
"","bandit","141","551003","0.0-102.0-0.0","09515401","wem/bandit_either_2","AZNIEFUIVB2H0","either","5","276","","","","","","","0","0","1","0.4063883723","","0.4","0.8","0.6","0.2","","","","","0.09812025034","0.4063883723","0.005208412743","0.3549763931","","","","","","","","74","J","1","","","62","main_expt"
"","bandit","142","552812","0.0-103.0-0.0","09515401","wem/bandit_either_2","AZNIEFUIVB2H0","either","5","295","","","","","","","1","0","0","0.4330387396","","0.4","0.8","0.6","0.2","","","","","0.09006279409","0.4330387396","0.006461011255","0.3496678451","","","","","","","","74","J","1","","","63","main_expt"
"","bandit","143","554631","0.0-104.0-0.0","09515401","wem/bandit_either_2","AZNIEFUIVB2H0","either","5","306","","","","","","","1","0","0","0.4207902426","","0.4","0.8","0.6","0.2","","","","","0.1118976224","0.4207902426","0.01267926231","0.3188537263","","","","","","","","74","J","1","","","64","main_expt"
"","bandit","144","556426","0.0-105.0-0.0","09515401","wem/bandit_either_2","AZNIEFUIVB2H0","either","5","281","","","","","","","0","0","1","0.3719582347","","0.4","0.8","0.6","0.2","","","","","0.1053817613","0.3719582347","0.009732787917","0.3191795336","","","","","","","","74","J","1","","","65","main_expt"
"","bandit","145","558106","0.0-106.0-0.0","09515401","wem/bandit_either_2","AZNIEFUIVB2H0","either","5","162","","","","","","","0","0","1","0.3748569955","","0.4","0.8","0.6","0.2","","","","","0.1307356695","0.3748569955","0.01092542651","0.268616347","","","","","","","","74","J","1","","","66","main_expt"
"","bandit","146","559947","0.0-107.0-0.0","09515401","wem/bandit_either_2","AZNIEFUIVB2H0","either","5","329","","","","","","","0","0","1","0.335252031","","0.4","0.8","0.6","0.2","","","","","0.1418436428","0.335252031","0.02125534741","0.259194563","","","","","","","","74","J","1","","","67","main_expt"
"","bandit","147","561753","0.0-108.0-0.0","09515401","wem/bandit_either_2","AZNIEFUIVB2H0","either","5","291","","","","","","","0","1","0","","0.3199157278","0.4","0.8","0.6","0.2","0.1459089566","0.3199157278","0.02360283027","0.2281204868","","","","","","","","","","","","74","J","1","","","68","main_expt"
"","bandit","148","563569","0.0-109.0-0.0","09515401","wem/bandit_either_2","AZNIEFUIVB2H0","either","5","301","","","","","","","0","0","1","","0.3068525281","0.4","0.8","0.6","0.2","0.1809721424","0.3068525281","0.02539305756","0.2195844169","","","","","","","","","","","","74","J","1","","","69","main_expt"
"","bandit","149","565402","0.0-110.0-0.0","09515401","wem/bandit_either_2","AZNIEFUIVB2H0","either","5","317","","","","","","","0","0","1","0.3181076016","","0.4","0.8","0.6","0.2","","","","","0.1784068974","0.3181076016","0.05014388586","0.1883338509","","","","","","","","74","J","1","","","70","main_expt"
"","bandit","150","567430","0.0-111.0-0.0","09515401","wem/bandit_either_2","AZNIEFUIVB2H0","either","5","514","","","","","","","0","0","1","0.04209054697","","0.4","0.8","0.6","0.2","","","","","0.1973023396","0.2926426422","0.04209054697","0.1639708178","","","","","","","","75","K","2","","","71","main_expt"
"","bandit","151","569033","0.0-112.0-0.0","09515401","wem/bandit_either_2","AZNIEFUIVB2H0","either","5","80","","","","","","","0","0","1","","0.05611199342","0.4","0.8","0.6","0.2","0.2436342847","0.2380263643","0.05611199342","0.1312842785","","","","","","","","","","","","75","K","2","","","72","main_expt"
"","bandit","152","570749","0.0-113.0-0.0","09515401","wem/bandit_either_2","AZNIEFUIVB2H0","either","5","201","","","","","","","0","0","1","","0.05293238473","0.4","0.8","0.6","0.2","0.1992173182","0.2407197948","0.05293238473","0.1805041857","","","","","","","","","","","","75","K","2","","","73","main_expt"
"","bandit","153","572504","0.0-114.0-0.0","09515401","wem/bandit_either_2","AZNIEFUIVB2H0","either","5","242","","","","","","","0","0","1","0.2347098304","","0.4","0.8","0.6","0.2","","","","","0.2347098304","0.2317468449","0.0318456884","0.1739557812","","","","","","","","72","H","0","img/none_selected.jpg","","74","main_expt"
"","bandit","154","574294","0.0-115.0-0.0","09515401","wem/bandit_either_2","AZNIEFUIVB2H0","either","5","275","","","","","","","0","0","1","","0.2641442137","0.4","0.8","0.6","0.2","0.2641442137","0.2545997551","0.03873230677","0.2434916027","","","","","","","","","","","","72","H","0","img/none_selected.jpg","","75","main_expt"
"","bandit","155","576122","0.0-116.0-0.0","09515401","wem/bandit_either_2","AZNIEFUIVB2H0","either","5","315","","","","","","","0","0","1","","0.3192644053","0.4","0.8","0.6","0.2","0.3192644053","0.2890845388","0.03304947682","0.2438468568","","","","","","","","","","","","72","H","0","img/none_selected.jpg","","76","main_expt"
"","bandit","156","577963","0.0-117.0-0.0","09515401","wem/bandit_either_2","AZNIEFUIVB2H0","either","5","325","","","","","","","1","0","0","0.3351132613","","0.4","0.8","0.6","0.2","","","","","0.3351132613","0.2386362654","0.02607887458","0.2425324642","","","","","","","","72","H","0","img/none_selected.jpg","","77","main_expt"
"","bandit","157","579891","0.0-118.0-0.0","09515401","wem/bandit_either_2","AZNIEFUIVB2H0","either","5","415","","","","","","","1","0","0","0.3086784207","","0.4","0.8","0.6","0.2","","","","","0.3086784207","0.2673679704","0.02492981692","0.205588479","","","","","","","","72","H","0","img/none_selected.jpg","","78","main_expt"
"","bandit","158","581685","0.0-119.0-0.0","09515401","wem/bandit_either_2","AZNIEFUIVB2H0","either","5","280","","","","","","","0","0","1","0.3076482073","","0.4","0.8","0.6","0.2","","","","","0.3076482073","0.2813811921","0.01824110002","0.213062191","","","","","","","","72","H","0","img/none_selected.jpg","","79","main_expt"
"","bandit","159","583375","0.0-120.0-0.0","09515401","wem/bandit_either_2","AZNIEFUIVB2H0","either","5","177","","","","","","","0","1","0","","0.3605025214","0.4","0.8","0.6","0.2","0.3605025214","0.2419447949","0.0202176162","0.1852926048","","","","","","","","","","","","72","H","0","img/none_selected.jpg","","80","main_expt"
"","bandit","160","585192","0.0-121.0-0.0","09515401","wem/bandit_either_2","AZNIEFUIVB2H0","either","5","305","","","","","","","0","0","1","0.3286166321","","0.4","0.8","0.6","0.2","","","","","0.3286166321","0.323481111","0.0252752587","0.2332942271","","","","","","","","72","H","0","img/none_selected.jpg","","81","main_expt"
"","bandit","161","587035","0.0-122.0-0.0","09515401","wem/bandit_either_2","AZNIEFUIVB2H0","either","5","327","","","","","","","0","0","1","","0.3459677762","0.4","0.8","0.6","0.2","0.3459677762","0.3097244961","0.05668457717","0.2087797338","","","","","","","","","","","","72","H","0","img/none_selected.jpg","","82","main_expt"
"","bandit","162","588851","0.0-123.0-0.0","09515401","wem/bandit_either_2","AZNIEFUIVB2H0","either","5","304","","","","","","","0","0","1","","0.3092751195","0.4","0.8","0.6","0.2","0.3092751195","0.2787498647","0.07760530004","0.2049979043","","","","","","","","","","","","72","H","0","img/none_selected.jpg","","83","main_expt"
"","bandit","163","590726","0.0-124.0-0.0","09515401","wem/bandit_either_2","AZNIEFUIVB2H0","either","5","362","","","","","","","0","0","1","","0.3044630387","0.4","0.8","0.6","0.2","0.3044630387","0.2589524449","0.03696005566","0.2151780091","","","","","","","","","","","","72","H","0","img/none_selected.jpg","","84","main_expt"
"","bandit","164","592556","0.0-125.0-0.0","09515401","wem/bandit_either_2","AZNIEFUIVB2H0","either","5","317","","","","","","","0","0","1","0.2812480587","","0.4","0.8","0.6","0.2","","","","","0.2812480587","0.2769318636","0.04177257934","0.1497615914","","","","","","","","72","H","0","img/none_selected.jpg","","85","main_expt"
"","bandit","165","594380","0.0-126.0-0.0","09515401","wem/bandit_either_2","AZNIEFUIVB2H0","either","5","310","","","","","","","0","0","1","","0.2506532223","0.4","0.8","0.6","0.2","0.2506532223","0.2849222391","0.0385770192","0.1223687677","","","","","","","","","","","","72","H","0","img/none_selected.jpg","","86","main_expt"
"","bandit","166","596239","0.0-127.0-0.0","09515401","wem/bandit_either_2","AZNIEFUIVB2H0","either","5","347","","","","","","","0","0","1","0.2269900387","","0.4","0.8","0.6","0.2","","","","","0.2269900387","0.3131087309","0.03720252147","0.1472857413","","","","","","","","72","H","0","img/none_selected.jpg","","87","main_expt"
"","bandit","167","598172","0.0-128.0-0.0","09515401","wem/bandit_either_2","AZNIEFUIVB2H0","either","5","415","","","","","","","1","0","0","0.3038587512","","0.4","0.8","0.6","0.2","","","","","0.1504729919","0.3038587512","0.06746059371","0.1252586248","","","","","","","","74","J","1","","","88","main_expt"
"","bandit","168","600052","0.0-129.0-0.0","09515401","wem/bandit_either_2","AZNIEFUIVB2H0","either","5","311","","","","","","","0","0","1","0.3308022157","","0.4","0.8","0.6","0.2","","","","","0.1382070302","0.3308022157","0.04069757945","0.1194927994","","","","","","","","74","J","1","","","89","main_expt"
"","bandit","169","603450","0.0-130.0-0.0","09515401","wem/bandit_either_2","AZNIEFUIVB2H0","either","5","1880","","","","","","","0","0","1","0.3574922351","","0.4","0.8","0.6","0.2","","","","","0.1364765349","0.3574922351","0.07325379503","0.1589750007","","","","","","","","74","J","1","","","90","main_expt"
"","bandit","170","605123","0.0-131.0-0.0","09515401","wem/bandit_either_2","AZNIEFUIVB2H0","either","5","151","","","","","","","0","0","1","0.3729517688","","0.4","0.8","0.6","0.2","","","","","0.09318196272","0.3729517688","0.06877471811","0.1859960426","","","","","","","","74","J","1","","","91","main_expt"
"","bandit","171","606852","0.0-132.0-0.0","09515401","wem/bandit_either_2","AZNIEFUIVB2H0","either","5","211","","","","","","","1","0","0","0.398352994","","0.4","0.8","0.6","0.2","","","","","0.06946097624","0.398352994","0.04115987362","0.192419488","","","","","","","","74","J","1","","","92","main_expt"
"","bandit","172","608749","0.0-133.0-0.0","09515401","wem/bandit_either_2","AZNIEFUIVB2H0","either","5","382","","","","","","","0","0","1","0.4135860398","","0.4","0.8","0.6","0.2","","","","","0.08102832817","0.4135860398","0.07078892783","0.1716033463","","","","","","","","74","J","1","","","93","main_expt"
"","bandit","173","610629","0.0-134.0-0.0","09515401","wem/bandit_either_2","AZNIEFUIVB2H0","either","5","363","","","","","","","0","0","1","0.3786880174","","0.4","0.8","0.6","0.2","","","","","0.1271360848","0.3786880174","0.05572868433","0.1935897604","","","","","","","","74","J","1","","","94","main_expt"
"","bandit","174","612450","0.0-135.0-0.0","09515401","wem/bandit_either_2","AZNIEFUIVB2H0","either","5","305","","","","","","","0","0","1","","0.3823424718","0.4","0.8","0.6","0.2","0.1097592989","0.3823424718","0.05056929995","0.2193228015","","","","","","","","","","","","74","J","1","","","95","main_expt"
"","bandit","175","614288","0.0-136.0-0.0","09515401","wem/bandit_either_2","AZNIEFUIVB2H0","either","5","324","","","","","","","0","0","1","0.3642725552","","0.4","0.8","0.6","0.2","","","","","0.1085490834","0.3642725552","0.04159874267","0.3262643469","","","","","","","","74","J","1","","","96","main_expt"
"","bandit","176","616146","0.0-137.0-0.0","09515401","wem/bandit_either_2","AZNIEFUIVB2H0","either","5","344","","","","","","","1","0","0","0.3197717944","","0.4","0.8","0.6","0.2","","","","","0.1049812554","0.3197717944","0.03654451862","0.3207405496","","","","","","","","74","J","1","","","97","main_expt"
"","bandit","177","618107","0.0-138.0-0.0","09515401","wem/bandit_either_2","AZNIEFUIVB2H0","either","5","446","","","","","","","0","0","1","0.2514424369","","0.4","0.8","0.6","0.2","","","","","0.08177978443","0.2514424369","0.04190300095","0.3712856991","","","","","","","","74","J","1","","","98","main_expt"
"","bandit","178","619972","0.0-139.0-0.0","09515401","wem/bandit_either_2","AZNIEFUIVB2H0","either","5","349","","","","","","","1","0","0","0.2926772137","","0.4","0.8","0.6","0.2","","","","","0.07574087804","0.2926772137","0.08742990617","0.3740145378","","","","","","","","74","J","1","","","99","main_expt"
"","bandit","179","621856","0.0-140.0-0.0","09515401","wem/bandit_either_2","AZNIEFUIVB2H0","either","5","370","","","","","","","0","0","1","","0.234485335","0.4","0.8","0.6","0.2","0.07829319678","0.234485335","0.08966523481","0.3776295542","","","","","","","","","","","","74","J","1","","","100","main_expt"
"","bandit","180","623707","0.0-141.0-0.0","09515401","wem/bandit_either_2","AZNIEFUIVB2H0","either","5","333","","","","","","","0","0","1","0.250352175","","0.4","0.8","0.6","0.2","","","","","0.07919243683","0.250352175","0.07849065771","0.3592666398","","","","","","","","74","J","1","","","101","main_expt"
"","bandit","181","625596","0.0-142.0-0.0","09515401","wem/bandit_either_2","AZNIEFUIVB2H0","either","5","372","","","","","","","1","0","0","0.2139972863","","0.4","0.8","0.6","0.2","","","","","0.1052753188","0.2139972863","0.1054267613","0.3412191773","","","","","","","","74","J","1","","","102","main_expt"
"","bandit","182","627480","0.0-143.0-0.0","09515401","wem/bandit_either_2","AZNIEFUIVB2H0","either","5","368","","","","","","","0","0","1","0.20092706","","0.4","0.8","0.6","0.2","","","","","0.1248526142","0.20092706","0.1120981937","0.3133100433","","","","","","","","74","J","1","","","103","main_expt"
"","bandit","183","629288","0.0-144.0-0.0","09515401","wem/bandit_either_2","AZNIEFUIVB2H0","either","5","294","","","","","","","0","1","0","","0.2305366804","0.4","0.8","0.6","0.2","0.142969925","0.2305366804","0.1034740879","0.3219148419","","","","","","","","","","","","74","J","1","","","104","main_expt"
"","bandit","184","631204","0.0-145.0-0.0","09515401","wem/bandit_either_2","AZNIEFUIVB2H0","either","5","400","","","","","","","1","0","0","0.2102135581","","0.4","0.8","0.6","0.2","","","","","0.13947254","0.2102135581","0.07597240327","0.3300892518","","","","","","","","74","J","1","","","105","main_expt"
"","bandit","185","633178","0.0-146.0-0.0","09515401","wem/bandit_either_2","AZNIEFUIVB2H0","either","5","459","","","","","","","1","0","0","0.2219457329","","0.4","0.8","0.6","0.2","","","","","0.1329526997","0.2219457329","0.1124257427","0.3401839058","","","","","","","","74","J","1","","","106","main_expt"
"","bandit","186","635044","0.0-147.0-0.0","09515401","wem/bandit_either_2","AZNIEFUIVB2H0","either","5","349","","","","","","","0","0","1","0.3048423019","","0.4","0.8","0.6","0.2","","","","","0.1727290233","0.3048423019","0.1133168519","0.3784706915","","","","","","","","74","J","1","","","107","main_expt"
"","bandit","187","636896","0.0-148.0-0.0","09515401","wem/bandit_either_2","AZNIEFUIVB2H0","either","5","337","","","","","","","1","0","0","0.258150515","","0.4","0.8","0.6","0.2","","","","","0.1864487031","0.258150515","0.1752395656","0.3945753887","","","","","","","","74","J","1","","","108","main_expt"
"","bandit","188","638750","0.0-149.0-0.0","09515401","wem/bandit_either_2","AZNIEFUIVB2H0","either","5","339","","","","","","","0","0","1","0.1859129148","","0.4","0.8","0.6","0.2","","","","","0.2463216238","0.1859129148","0.1862973424","0.356827327","","","","","","","","74","J","1","","","109","main_expt"
"","bandit","189","641116","0.0-150.0-0.0","09515401","wem/bandit_either_2","AZNIEFUIVB2H0","either","5","851","","","","","","","0","0","1","0.1371624404","","0.4","0.8","0.6","0.2","","","","","0.2431522628","0.1371624404","0.2015845776","0.2344179837","","","","","","","","74","J","1","","","110","main_expt"
"","bandit","190","643507","0.0-151.0-0.0","09515401","wem/bandit_either_2","AZNIEFUIVB2H0","either","5","876","","","","","","","0","0","1","0.1258232978","","0.4","0.8","0.6","0.2","","","","","0.1757476643","0.1258232978","0.2003651753","0.2644823096","","","","","","","","74","J","1","","","111","main_expt"
"","bandit","191","645406","0.0-152.0-0.0","09515401","wem/bandit_either_2","AZNIEFUIVB2H0","either","5","385","","","","","","","1","0","0","0.1529967373","","0.4","0.8","0.6","0.2","","","","","0.2451518953","0.1529967373","0.21392293","0.28311182","","","","","","","","74","J","1","","","112","main_expt"
"","bandit","192","647537","0.0-153.0-0.0","09515401","wem/bandit_either_2","AZNIEFUIVB2H0","either","5","617","","","","","","","0","0","1","0.148248117","","0.4","0.8","0.6","0.2","","","","","0.2407836715","0.148248117","0.1606798039","0.2413269532","","","","","","","","74","J","1","","","113","main_expt"
"","bandit","193","649455","0.0-154.0-0.0","09515401","wem/bandit_either_2","AZNIEFUIVB2H0","either","5","405","","","","","","","0","0","1","","0.1562208239","0.4","0.8","0.6","0.2","0.3099317417","0.1562208239","0.2095980235","0.3100969134","","","","","","","","","","","","74","J","1","","","114","main_expt"
"","bandit","194","651623","0.0-155.0-0.0","09515401","wem/bandit_either_2","AZNIEFUIVB2H0","either","5","647","","","","","","","0","0","1","","0.329842252","0.4","0.8","0.6","0.2","0.3180754701","0.2138032898","0.2550279667","0.329842252","","","","","","","","","","","","76","L","3","","","115","main_expt"
"","bandit","195","653445","0.0-156.0-0.0","09515401","wem/bandit_either_2","AZNIEFUIVB2H0","either","5","307","","","","","","","0","0","1","","0.3223706096","0.4","0.8","0.6","0.2","0.2919742107","0.2331260325","0.2471764387","0.3223706096","","","","","","","","","","","","76","L","3","","","116","main_expt"
"","bandit","196","655298","0.0-157.0-0.0","09515401","wem/bandit_either_2","AZNIEFUIVB2H0","either","5","341","","","","","","","0","0","1","0.3098408215","","0.4","0.8","0.6","0.2","","","","","0.2799774295","0.1826309729","0.2730878341","0.3098408215","","","","","","","","76","L","3","","","117","main_expt"
"","bandit","197","657208","0.0-158.0-0.0","09515401","wem/bandit_either_2","AZNIEFUIVB2H0","either","5","395","","","","","","","0","1","0","","0.2974554567","0.4","0.8","0.6","0.2","0.2646714695","0.1511269107","0.2071462199","0.2974554567","","","","","","","","","","","","76","L","3","","","118","main_expt"
"","bandit","198","659199","0.0-159.0-0.0","09515401","wem/bandit_either_2","AZNIEFUIVB2H0","either","5","478","","","","","","","0","1","0","","0.3598468986","0.4","0.8","0.6","0.2","0.3179839519","0.1559979654","0.2275232499","0.3598468986","","","","","","","","","","","","76","L","3","","","119","main_expt"
"","bandit","199","661073","0.0-160.0-0.0","09515401","wem/bandit_either_2","AZNIEFUIVB2H0","either","5","360","","","","","","","0","0","1","","0.2984373086","0.4","0.8","0.6","0.2","0.3302262658","0.1463004055","0.2767559596","0.2984373086","","","","","","","","","","","","76","L","3","","","120","main_expt"
"","bandit","200","662868","0.0-161.0-0.0","09515401","wem/bandit_either_2","AZNIEFUIVB2H0","either","5","281","","","","","","","0","0","1","","0.2973090059","0.4","0.8","0.6","0.2","0.3500549905","0.1418195479","0.3448590315","0.2973090059","","","","","","","","","","","","76","L","3","","","121","main_expt"
"","bandit","201","664758","0.0-162.0-0.0","09515401","wem/bandit_either_2","AZNIEFUIVB2H0","either","5","351","","","","","","","0","1","0","","0.3382791822","0.4","0.8","0.6","0.2","0.2686616284","0.1270782113","0.3593301016","0.3382791822","","","","","","","","","","","","76","L","3","","","122","main_expt"
"","bandit","202","666703","0.0-163.0-0.0","09515401","wem/bandit_either_2","AZNIEFUIVB2H0","either","5","337","","","","","","","0","0","1","","0.3154347028","0.4","0.8","0.6","0.2","0.2277230314","0.1207154071","0.3680529171","0.3154347028","","","","","","","","","","","","76","L","3","","","123","main_expt"
"","bandit","203","668229","0.0-164.0-0.0","09515401","wem/bandit_either_2","AZNIEFUIVB2H0","either","5","6","","","","","","","0","0","1","0.2966737815","","0.4","0.8","0.6","0.2","","","","","0.3287090939","0.1229329119","0.3476523483","0.2966737815","","","","","","","","76","L","3","","","124","main_expt"
"","bandit","204","669881","0.0-165.0-0.0","09515401","wem/bandit_either_2","AZNIEFUIVB2H0","either","5","129","","","","","","","0","0","1","0.3094831126","","0.4","0.8","0.6","0.2","","","","","0.3687339586","0.09241122996","0.3564603465","0.3094831126","","","","","","","","76","L","3","","","125","main_expt"
"","bandit","205","671692","0.0-166.0-0.0","09515401","wem/bandit_either_2","AZNIEFUIVB2H0","either","5","287","","","","","","","0","0","1","0.2488993205","","0.4","0.8","0.6","0.2","","","","","0.3836195774","0.08418962236","0.3550684458","0.2488993205","","","","","","","","76","L","3","","","126","main_expt"
"","bandit","206","673546","0.0-167.0-0.0","09515401","wem/bandit_either_2","AZNIEFUIVB2H0","either","5","332","","","","","","","0","0","1","","0.1953487027","0.4","0.8","0.6","0.2","0.3617365958","0.154715772","0.3235559827","0.1953487027","","","","","","","","","","","","76","L","3","","","127","main_expt"
"","bandit","207","675219","0.0-168.0-0.0","09515401","wem/bandit_either_2","AZNIEFUIVB2H0","either","5","155","","","","","","","0","1","0","","0.312087491","0.4","0.8","0.6","0.2","0.3235283493","0.1556709078","0.312087491","0.2171889907","","","","","","","","","","","","75","K","2","","","128","main_expt"
"","bandit","208","677013","0.0-169.0-0.0","09515401","wem/bandit_either_2","AZNIEFUIVB2H0","either","5","277","","","","","","","0","0","1","0.2843272188","","0.4","0.8","0.6","0.2","","","","","0.3453830546","0.1214200615","0.2843272188","0.2467699801","","","","","","","","75","K","2","","","129","main_expt"
"","bandit","209","678879","0.0-170.0-0.0","09515401","wem/bandit_either_2","AZNIEFUIVB2H0","either","5","341","","","","","","","0","0","1","0.2128416856","","0.4","0.8","0.6","0.2","","","","","0.3242747857","0.1377283829","0.2128416856","0.2814443482","","","","","","","","75","K","2","","","130","main_expt"
"","bandit","210","680665","0.0-171.0-0.0","09515401","wem/bandit_either_2","AZNIEFUIVB2H0","either","5","269","","","","","","","0","0","1","","0.2403879813","0.4","0.8","0.6","0.2","0.3417201858","0.1397421628","0.2403879813","0.2834176508","","","","","","","","","","","","75","K","2","","","131","main_expt"
"","bandit","211","682445","0.0-172.0-0.0","09515401","wem/bandit_either_2","AZNIEFUIVB2H0","either","5","262","","","","","","","0","0","1","0.2811421594","","0.4","0.8","0.6","0.2","","","","","0.3498614837","0.1061875113","0.2811421594","0.2429908031","","","","","","","","75","K","2","","","132","main_expt"
"","bandit","212","684149","0.0-173.0-0.0","09515401","wem/bandit_either_2","AZNIEFUIVB2H0","either","5","187","","","","","","","0","0","1","0.07774811701","","0.4","0.8","0.6","0.2","","","","","0.3134828643","0.07774811701","0.3002858371","0.3053559495","","","","","","","","74","J","1","","","133","main_expt"
"","bandit","213","685925","0.0-174.0-0.0","09515401","wem/bandit_either_2","AZNIEFUIVB2H0","either","5","259","","","","","","","1","0","0","0.08211281178","","0.4","0.8","0.6","0.2","","","","","0.3554593188","0.08211281178","0.277406375","0.2693478067","","","","","","","","74","J","1","","","134","main_expt"
"","bandit","214","687747","0.0-175.0-0.0","09515401","wem/bandit_either_2","AZNIEFUIVB2H0","either","5","307","","","","","","","1","0","0","0.1123817552","","0.4","0.8","0.6","0.2","","","","","0.3150900126","0.1123817552","0.2897147582","0.3369166079","","","","","","","","74","J","1","","","135","main_expt"
"","bandit","215","689641","0.0-176.0-0.0","09515401","wem/bandit_either_2","AZNIEFUIVB2H0","either","5","379","","","","","","","0","0","1","0.1478339482","","0.4","0.8","0.6","0.2","","","","","0.3199395785","0.1478339482","0.3590576628","0.268603144","","","","","","","","74","J","1","","","136","main_expt"
"","bandit","216","691611","0.0-177.0-0.0","09515401","wem/bandit_either_2","AZNIEFUIVB2H0","either","5","454","","","","","","","0","0","1","","0.1374936615","0.4","0.8","0.6","0.2","0.33362357","0.1374936615","0.3822427384","0.2373427956","","","","","","","","","","","","74","J","1","","","137","main_expt"
"","bandit","217","693467","0.0-178.0-0.0","09515401","wem/bandit_either_2","AZNIEFUIVB2H0","either","5","338","","","","","","","1","0","0","0.159761955","","0.4","0.8","0.6","0.2","","","","","0.3611324022","0.159761955","0.3410071165","0.2206869265","","","","","","","","74","J","1","","","138","main_expt"
"","bandit","218","695315","0.0-179.0-0.0","09515401","wem/bandit_either_2","AZNIEFUIVB2H0","either","5","332","","","","","","","0","0","1","","0.1363721132","0.4","0.8","0.6","0.2","0.3504145086","0.1363721132","0.3738014659","0.2177966349","","","","","","","","","","","","74","J","1","","","139","main_expt"
"","bandit","219","697096","0.0-180.0-0.0","09515401","wem/bandit_either_2","AZNIEFUIVB2H0","either","5","264","","","","","","","0","0","1","0.1031445192","","0.4","0.8","0.6","0.2","","","","","0.309774603","0.1031445192","0.422575493","0.2387685432","","","","","","","","74","J","1","","","140","main_expt"
"","bandit","220","698903","0.0-181.0-0.0","09515401","wem/bandit_either_2","AZNIEFUIVB2H0","either","5","289","","","","","","","0","0","1","0.09805286369","","0.4","0.8","0.6","0.2","","","","","0.3506531288","0.09805286369","0.4439129864","0.2575087366","","","","","","","","74","J","1","","","141","main_expt"
"","bandit","221","700747","0.0-182.0-0.0","09515401","wem/bandit_either_2","AZNIEFUIVB2H0","either","5","327","","","","","","","0","0","1","0.1149002948","","0.4","0.8","0.6","0.2","","","","","0.2965027242","0.1149002948","0.4323802182","0.2392038972","","","","","","","","74","J","1","","","142","main_expt"
"","bandit","222","702357","0.0-183.0-0.0","09515401","wem/bandit_either_2","AZNIEFUIVB2H0","either","5","93","","","","","","","0","0","1","","0.2087517366","0.4","0.8","0.6","0.2","0.2087517366","0.1209542099","0.4358412593","0.2216470548","","","","","","","","","","","","72","H","0","img/none_selected.jpg","","143","main_expt"
"","bandit","223","704036","0.0-184.0-0.0","09515401","wem/bandit_either_2","AZNIEFUIVB2H0","either","5","160","","","","","","","0","0","1","","0.2313605626","0.4","0.8","0.6","0.2","0.2313605626","0.1202521083","0.4407373256","0.2224896139","","","","","","","","","","","","72","H","0","img/none_selected.jpg","","144","main_expt"
"","bandit","224","705728","0.0-185.0-0.0","09515401","wem/bandit_either_2","AZNIEFUIVB2H0","either","5","177","","","","","","","0","0","1","0.1785565547","","0.4","0.8","0.6","0.2","","","","","0.1785565547","0.1619743669","0.4661091035","0.1925605464","","","","","","","","72","H","0","img/none_selected.jpg","","145","main_expt"
"","bandit","225","707700","0.0-186.0-0.0","09515401","wem/bandit_either_2","AZNIEFUIVB2H0","either","5","454","","","","","","","0","0","1","0.4637097668","","0.4","0.8","0.6","0.2","","","","","0.1770660648","0.1664631043","0.4637097668","0.2069800611","","","","","","","","75","K","2","","","146","main_expt"
"","bandit","226","709388","0.0-187.0-0.0","09515401","wem/bandit_either_2","AZNIEFUIVB2H0","either","5","171","","","","","","","0","0","1","","0.4700491642","0.4","0.8","0.6","0.2","0.1063371611","0.1669241763","0.4700491642","0.2489662189","","","","","","","","","","","","75","K","2","","","147","main_expt"
"","bandit","227","711222","0.0-188.0-0.0","09515401","wem/bandit_either_2","AZNIEFUIVB2H0","either","5","318","","","","","","","1","0","0","0.4648109734","","0.4","0.8","0.6","0.2","","","","","0.1216370817","0.1581456949","0.4648109734","0.1946464158","","","","","","","","75","K","2","","","148","main_expt"
"","bandit","228","713242","0.0-189.0-0.0","09515401","wem/bandit_either_2","AZNIEFUIVB2H0","either","5","505","","","","","","","0","0","1","","0.4635511513","0.4","0.8","0.6","0.2","0.1024256959","0.1698392466","0.4635511513","0.1826562491","","","","","","","","","","","","75","K","2","","","149","main_expt"
"","bandit","229","715063","0.0-190.0-0.0","09515401","wem/bandit_either_2","AZNIEFUIVB2H0","either","5","303","","","","","","","0","0","1","0.4445017148","","0.4","0.8","0.6","0.2","","","","","0.1371094633","0.2140114634","0.4445017148","0.1750473563","","","","","","","","75","K","2","","","150","main_expt"
"","bandit","230","716869","0.0-191.0-0.0","09515401","wem/bandit_either_2","AZNIEFUIVB2H0","either","5","286","","","","","","","0","1","0","","0.4434799742","0.4","0.8","0.6","0.2","0.1702433702","0.2392960001","0.4434799742","0.1109536645","","","","","","","","","","","","75","K","2","","","151","main_expt"
"","bandit","231","718790","0.0-192.0-0.0","09515401","wem/bandit_either_2","AZNIEFUIVB2H0","either","5","406","","","","","","","0","0","1","0.4451665291","","0.4","0.8","0.6","0.2","","","","","0.1860489046","0.2095863317","0.4451665291","0.1143086707","","","","","","","","75","K","2","","","152","main_expt"
"","bandit","232","720657","0.0-193.0-0.0","09515401","wem/bandit_either_2","AZNIEFUIVB2H0","either","5","351","","","","","","","0","1","0","","0.4401532833","0.4","0.8","0.6","0.2","0.2117094388","0.2543258611","0.4401532833","0.1236290712","","","","","","","","","","","","75","K","2","","","153","main_expt"
"","bandit","233","722448","0.0-194.0-0.0","09515401","wem/bandit_either_2","AZNIEFUIVB2H0","either","5","276","","","","","","","1","0","0","0.4516855879","","0.4","0.8","0.6","0.2","","","","","0.2072389033","0.2602259906","0.4516855879","0.1600695342","","","","","","","","75","K","2","","","154","main_expt"
"","bandit","234","724285","0.0-195.0-0.0","09515401","wem/bandit_either_2","AZNIEFUIVB2H0","either","5","318","","","","","","","0","0","1","0.4480264808","","0.4","0.8","0.6","0.2","","","","","0.1986333914","0.2750581274","0.4480264808","0.1770288166","","","","","","","","75","K","2","","","155","main_expt"
"","bandit","235","725991","0.0-196.0-0.0","09515401","wem/bandit_either_2","AZNIEFUIVB2H0","either","5","191","","","","","","","0","0","1","0.4260414265","","0.4","0.8","0.6","0.2","","","","","0.2054640346","0.2438045727","0.4260414265","0.1761817894","","","","","","","","75","K","2","","","156","main_expt"
"","bandit","236","727811","0.0-197.0-0.0","09515401","wem/bandit_either_2","AZNIEFUIVB2H0","either","5","306","","","","","","","1","0","0","0.4365201507","","0.4","0.8","0.6","0.2","","","","","0.1810715383","0.2857025143","0.4365201507","0.1998830888","","","","","","","","75","K","2","","","157","main_expt"
"","bandit","237","729616","0.0-198.0-0.0","09515401","wem/bandit_either_2","AZNIEFUIVB2H0","either","5","289","","","","","","","0","1","0","","0.4076244479","0.4","0.8","0.6","0.2","0.2118906364","0.2887719476","0.4076244479","0.2150354531","","","","","","","","","","","","75","K","2","","","158","main_expt"
"","bandit","238","731412","0.0-199.0-0.0","09515401","wem/bandit_either_2","AZNIEFUIVB2H0","either","5","278","","","","","","","0","0","1","","0.403953851","0.4","0.8","0.6","0.2","0.2293976715","0.2859462397","0.403953851","0.2221069796","","","","","","","","","","","","75","K","2","","","159","main_expt"
"","bandit","239","733248","0.0-200.0-0.0","09515401","wem/bandit_either_2","AZNIEFUIVB2H0","either","5","308","","","","","","","0","0","1","","0.4282135537","0.4","0.8","0.6","0.2","0.2186051381","0.207432816","0.4282135537","0.2627335039","","","","","","","","","","","","75","K","2","","","160","main_expt"
"","bandit","240","735004","0.0-201.0-0.0","09515401","wem/bandit_either_2","AZNIEFUIVB2H0","either","5","237","","","","","","","0","0","1","","0.4479073124","0.4","0.8","0.6","0.2","0.2175927206","0.1611694724","0.4479073124","0.2922457848","","","","","","","","","","","","75","K","2","","","161","main_expt"
"","bandit","241","736825","0.0-202.0-0.0","09515401","wem/bandit_either_2","AZNIEFUIVB2H0","either","5","300","","","","","","","0","0","1","0.4456201243","","0.4","0.8","0.6","0.2","","","","","0.2370404117","0.14378348","0.4456201243","0.3040212123","","","","","","","","75","K","2","","","162","main_expt"
"","bandit","242","738611","0.0-203.0-0.0","09515401","wem/bandit_either_2","AZNIEFUIVB2H0","either","5","258","","","","","","","0","0","1","","0.4384930657","0.4","0.8","0.6","0.2","0.2778780432","0.1707099899","0.4384930657","0.2933359027","","","","","","","","","","","","75","K","2","","","163","main_expt"
"","bandit","243","740428","0.0-204.0-0.0","09515401","wem/bandit_either_2","AZNIEFUIVB2H0","either","5","297","","","","","","","0","1","0","","0.4231568034","0.4","0.8","0.6","0.2","0.2643388611","0.1933693166","0.4231568034","0.2388203062","","","","","","","","","","","","75","K","2","","","164","main_expt"
"","bandit","244","742368","0.0-205.0-0.0","09515401","wem/bandit_either_2","AZNIEFUIVB2H0","either","5","414","","","","","","","1","0","0","0.4412535734","","0.4","0.8","0.6","0.2","","","","","0.1967204453","0.2406324952","0.4412535734","0.2646204916","","","","","","","","75","K","2","","","165","main_expt"
"","bandit","245","744237","0.0-206.0-0.0","09515401","wem/bandit_either_2","AZNIEFUIVB2H0","either","5","351","","","","","","","0","1","0","","0.438364003","0.4","0.8","0.6","0.2","0.1567937345","0.2650462377","0.438364003","0.2591758032","","","","","","","","","","","","75","K","2","","","166","main_expt"
"","bandit","246","746241","0.0-207.0-0.0","09515401","wem/bandit_either_2","AZNIEFUIVB2H0","either","5","487","","","","","","","0","0","1","","0.4290991351","0.4","0.8","0.6","0.2","0.1201482918","0.245875583","0.4290991351","0.1955934818","","","","","","","","","","","","75","K","2","","","167","main_expt"
"","bandit","247","748116","0.0-208.0-0.0","09515401","wem/bandit_either_2","AZNIEFUIVB2H0","either","5","357","","","","","","","0","0","1","0.4510860662","","0.4","0.8","0.6","0.2","","","","","0.0936051119","0.257303599","0.4510860662","0.2090603634","","","","","","","","75","K","2","","","168","main_expt"
"","bandit","248","750085","0.0-209.0-0.0","09515401","wem/bandit_either_2","AZNIEFUIVB2H0","either","5","453","","","","","","","1","0","0","0.4491424364","","0.4","0.8","0.6","0.2","","","","","0.08775096918","0.2993732043","0.4491424364","0.2678479696","","","","","","","","75","K","2","","","169","main_expt"
"","bandit","249","751966","0.0-210.0-0.0","09515401","wem/bandit_either_2","AZNIEFUIVB2H0","either","5","362","","","","","","","0","1","0","","0.4332244901","0.4","0.8","0.6","0.2","0.06743429675","0.3388977639","0.4332244901","0.2532125956","","","","","","","","","","","","75","K","2","","","170","main_expt"
"","bandit","250","754004","0.0-211.0-0.0","09515401","wem/bandit_either_2","AZNIEFUIVB2H0","either","5","522","","","","","","","0","0","1","0.4405036994","","0.4","0.8","0.6","0.2","","","","","0.05979118822","0.2947926635","0.4405036994","0.2568627054","","","","","","","","75","K","2","","","171","main_expt"
"","bandit","251","755959","0.0-212.0-0.0","09515401","wem/bandit_either_2","AZNIEFUIVB2H0","either","5","438","","","","","","","0","0","1","0.4358521759","","0.4","0.8","0.6","0.2","","","","","0.03200499914","0.2892529657","0.4358521759","0.2451563353","","","","","","","","75","K","2","","","172","main_expt"
"","bandit","252","757895","0.0-213.0-0.0","09515401","wem/bandit_either_2","AZNIEFUIVB2H0","either","5","417","","","","","","","0","1","0","","0.4471617722","0.4","0.8","0.6","0.2","0.04613358223","0.2571917514","0.4471617722","0.3003395367","","","","","","","","","","","","75","K","2","","","173","main_expt"
"","bandit","253","759949","0.0-214.0-0.0","09515401","wem/bandit_either_2","AZNIEFUIVB2H0","either","5","534","","","","","","","1","0","0","0.4560251174","","0.4","0.8","0.6","0.2","","","","","0.05969677181","0.244173221","0.4560251174","0.2545998681","","","","","","","","75","K","2","","","174","main_expt"
"","bandit","254","761816","0.0-215.0-0.0","09515401","wem/bandit_either_2","AZNIEFUIVB2H0","either","5","350","","","","","","","0","0","1","0.4379349024","","0.4","0.8","0.6","0.2","","","","","0.05930066603","0.2038098688","0.4379349024","0.3383135611","","","","","","","","75","K","2","","","175","main_expt"
"","bandit","255","763551","0.0-216.0-0.0","09515401","wem/bandit_either_2","AZNIEFUIVB2H0","either","5","219","","","","","","","1","0","0","0.4328841116","","0.4","0.8","0.6","0.2","","","","","0.08110879181","0.2053823003","0.4328841116","0.3880627729","","","","","","","","75","K","2","","","176","main_expt"
"","bandit","256","765705","0.0-217.0-0.0","09515401","wem/bandit_either_2","AZNIEFUIVB2H0","either","5","637","","","","","","","0","0","1","","0.3965365967","0.4","0.8","0.6","0.2","0.07611568943","0.2193083282","0.3965365967","0.3920994557","","","","","","","","","","","","75","K","2","","","177","main_expt"
"","bandit","257","767575","0.0-218.0-0.0","09515401","wem/bandit_either_2","AZNIEFUIVB2H0","either","5","353","","","","","","","0","0","1","0.3899234309","","0.4","0.8","0.6","0.2","","","","","0.1220467165","0.1904263594","0.3899234309","0.3882277994","","","","","","","","75","K","2","","","178","main_expt"
"","bandit","258","769607","0.0-219.0-0.0","09515401","wem/bandit_either_2","AZNIEFUIVB2H0","either","5","513","","","","","","","0","0","1","","0.4238443777","0.4","0.8","0.6","0.2","0.1698853315","0.2212788648","0.4238443777","0.3939691408","","","","","","","","","","","","75","K","2","","","179","main_expt"
"","bandit","259","771556","0.0-220.0-0.0","09515401","wem/bandit_either_2","AZNIEFUIVB2H0","either","5","431","","","","","","","0","0","1","0.4487400994","","0.4","0.8","0.6","0.2","","","","","0.1374762061","0.2640717145","0.4487400994","0.4074656662","","","","","","","","75","K","2","","","180","main_expt"
"","bandit","260","773375","0.0-221.0-0.0","09515401","wem/bandit_either_2","AZNIEFUIVB2H0","either","5","302","","","","","","","1","0","0","0.4314573438","","0.4","0.8","0.6","0.2","","","","","0.09961924189","0.2426483564","0.4314573438","0.3724421945","","","","","","","","75","K","2","","","181","main_expt"
"","bandit","261","775239","0.0-222.0-0.0","09515401","wem/bandit_either_2","AZNIEFUIVB2H0","either","5","347","","","","","","","0","0","1","","0.4458059303","0.4","0.8","0.6","0.2","0.1391043194","0.2001563476","0.4458059303","0.2998177931","","","","","","","","","","","","75","K","2","","","182","main_expt"
"","bandit","262","777073","0.0-223.0-0.0","09515401","wem/bandit_either_2","AZNIEFUIVB2H0","either","5","317","","","","","","","0","1","0","","0.4485460149","0.4","0.8","0.6","0.2","0.1336424596","0.2167094124","0.4485460149","0.3629728763","","","","","","","","","","","","75","K","2","","","183","main_expt"
"","bandit","263","779072","0.0-224.0-0.0","09515401","wem/bandit_either_2","AZNIEFUIVB2H0","either","5","483","","","","","","","0","1","0","","0.4078350507","0.4","0.8","0.6","0.2","0.115911235","0.2402813617","0.4078350507","0.3763603645","","","","","","","","","","","","75","K","2","","","184","main_expt"
"","bandit","264","780972","0.0-225.0-0.0","09515401","wem/bandit_either_2","AZNIEFUIVB2H0","either","5","384","","","","","","","0","0","1","0.3805788675","","0.4","0.8","0.6","0.2","","","","","0.1394203739","0.2745112141","0.3805788675","0.3472982705","","","","","","","","75","K","2","","","185","main_expt"
"","bandit","265","782777","0.0-226.0-0.0","09515401","wem/bandit_either_2","AZNIEFUIVB2H0","either","5","288","","","","","","","0","0","1","0.4236809331","","0.4","0.8","0.6","0.2","","","","","0.1557479742","0.2774566956","0.4236809331","0.3095995051","","","","","","","","75","K","2","","","186","main_expt"
"","bandit","266","784801","0.0-227.0-0.0","09515401","wem/bandit_either_2","AZNIEFUIVB2H0","either","5","508","","","","","","","0","1","0","","0.4058627081","0.4","0.8","0.6","0.2","0.1823611596","0.2876011691","0.4058627081","0.2567332284","","","","","","","","","","","","75","K","2","","","187","main_expt"
"","bandit","267","786655","0.0-228.0-0.0","09515401","wem/bandit_either_2","AZNIEFUIVB2H0","either","5","337","","","","","","","0","0","1","0.3913346521","","0.4","0.8","0.6","0.2","","","","","0.1854179297","0.2947112378","0.3913346521","0.2555256861","","","","","","","","75","K","2","","","188","main_expt"
"","bandit","268","788385","0.0-229.0-0.0","09515401","wem/bandit_either_2","AZNIEFUIVB2H0","either","5","214","","","","","","","0","1","0","","0.3760164219","0.4","0.8","0.6","0.2","0.1875645599","0.2581494","0.3760164219","0.2009875262","","","","","","","","","","","","75","K","2","","","189","main_expt"
"","bandit","269","790224","0.0-230.0-0.0","09515401","wem/bandit_either_2","AZNIEFUIVB2H0","either","5","323","","","","","","","0","1","0","","0.3327352817","0.4","0.8","0.6","0.2","0.2018323604","0.1756323468","0.3327352817","0.2055488595","","","","","","","","","","","","75","K","2","","","190","main_expt"
"","bandit","270","791970","0.0-231.0-0.0","09515401","wem/bandit_either_2","AZNIEFUIVB2H0","either","5","228","","","","","","","0","0","1","","0.3015177445","0.4","0.8","0.6","0.2","0.221094727","0.2521570866","0.3015177445","0.1506387864","","","","","","","","","","","","75","K","2","","","191","main_expt"
"","bandit","271","793798","0.0-232.0-0.0","09515401","wem/bandit_either_2","AZNIEFUIVB2H0","either","5","311","","","","","","","0","0","1","0.2773298268","","0.4","0.8","0.6","0.2","","","","","0.2320570195","0.2964739449","0.2773298268","0.2027442266","","","","","","","","75","K","2","","","192","main_expt"
"","bandit","272","795602","0.0-233.0-0.0","09515401","wem/bandit_either_2","AZNIEFUIVB2H0","either","5","289","","","","","","","1","0","0","0.2836613797","","0.4","0.8","0.6","0.2","","","","","0.2948950962","0.2612966838","0.2836613797","0.1969137872","","","","","","","","75","K","2","","","193","main_expt"
"","bandit","273","797427","0.0-234.0-0.0","09515401","wem/bandit_either_2","AZNIEFUIVB2H0","either","5","309","","","","","","","0","0","1","","0.2799350415","0.4","0.8","0.6","0.2","0.2602906927","0.3292914436","0.2799350415","0.2114994946","","","","","","","","","","","","75","K","2","","","194","main_expt"
"","bandit","274","799406","0.0-235.0-0.0","09515401","wem/bandit_either_2","AZNIEFUIVB2H0","either","5","451","","","","","","","0","0","1","0.2068597772","","0.4","0.8","0.6","0.2","","","","","0.1771499101","0.4070308407","0.2068597772","0.2467939011","","","","","","","","75","K","2","","","195","main_expt"
"","bandit","275","801047","0.0-236.0-0.0","09515401","wem/bandit_either_2","AZNIEFUIVB2H0","either","5","120","","","","","","","1","0","0","0.3494820729","","0.4","0.8","0.6","0.2","","","","","0.1746274925","0.3494820729","0.2679469531","0.2731811988","","","","","","","","74","J","1","","","196","main_expt"
"","bandit","276","802860","0.0-237.0-0.0","09515401","wem/bandit_either_2","AZNIEFUIVB2H0","either","5","294","","","","","","","0","0","1","0.3571939809","","0.4","0.8","0.6","0.2","","","","","0.193224684","0.3571939809","0.2448078588","0.2512114903","","","","","","","","74","J","1","","","197","main_expt"
"","bandit","277","804630","0.0-238.0-0.0","09515401","wem/bandit_either_2","AZNIEFUIVB2H0","either","5","250","","","","","","","1","0","0","0.382430028","","0.4","0.8","0.6","0.2","","","","","0.1771509929","0.382430028","0.2433987968","0.190651112","","","","","","","","74","J","1","","","198","main_expt"
"","bandit","278","806531","0.0-239.0-0.0","09515401","wem/bandit_either_2","AZNIEFUIVB2H0","either","5","373","","","","","","","0","1","0","","0.3353474301","0.4","0.8","0.6","0.2","0.2466668772","0.3353474301","0.2653624242","0.1701189695","","","","","","","","","","","","74","J","1","","","199","main_expt"
"","bandit","279","808338","0.0-240.0-0.0","09515401","wem/bandit_either_2","AZNIEFUIVB2H0","either","5","286","","","","","","","0","0","1","0.3321976498","","0.4","0.8","0.6","0.2","","","","","0.2477816141","0.3321976498","0.2551376492","0.1656975488","","","","","","","","74","J","1","","","200","main_expt"
"","bandit","280","810116","0.0-241.0-0.0","09515401","wem/bandit_either_2","AZNIEFUIVB2H0","either","5","259","","","","","","","0","0","1","","0.3218117355","0.4","0.8","0.6","0.2","0.2744817861","0.3218117355","0.2660639347","0.1647298582","","","","","","","","","","","","74","J","1","","","201","main_expt"
"","bandit","281","811957","0.0-242.0-0.0","09515401","wem/bandit_either_2","AZNIEFUIVB2H0","either","5","321","","","","","","","0","0","1","","0.2949214693","0.4","0.8","0.6","0.2","0.3043062986","0.2949214693","0.2220900594","0.1242041815","","","","","","","","","","","","74","J","1","","","202","main_expt"
"","bandit","282","813791","0.0-243.0-0.0","09515401","wem/bandit_either_2","AZNIEFUIVB2H0","either","5","316","","","","","","","0","0","1","0.300077299","","0.4","0.8","0.6","0.2","","","","","0.272185569","0.300077299","0.1543353204","0.1684487429","","","","","","","","74","J","1","","","203","main_expt"
"","bandit","283","815656","0.0-244.0-0.0","09515401","wem/bandit_either_2","AZNIEFUIVB2H0","either","5","345","","","","","","","0","0","1","0.2866085977","","0.4","0.8","0.6","0.2","","","","","0.2610767704","0.2866085977","0.1605482003","0.1666409686","","","","","","","","74","J","1","","","204","main_expt"
"","bandit","284","817559","0.0-245.0-0.0","09515401","wem/bandit_either_2","AZNIEFUIVB2H0","either","5","385","","","","","","","1","0","0","0.2695546272","","0.4","0.8","0.6","0.2","","","","","0.2832615928","0.2695546272","0.1406914754","0.2197286508","","","","","","","","74","J","1","","","205","main_expt"
"","bandit","285","819509","0.0-246.0-0.0","09515401","wem/bandit_either_2","AZNIEFUIVB2H0","either","5","431","","","","","","","0","0","1","0.2622178416","","0.4","0.8","0.6","0.2","","","","","0.300913322","0.2622178416","0.1138947463","0.2754509052","","","","","","","","74","J","1","","","206","main_expt"
"","bandit","286","821254","0.0-247.0-0.0","09515401","wem/bandit_either_2","AZNIEFUIVB2H0","either","5","223","","","","","","","0","0","1","0.2498186578","","0.4","0.8","0.6","0.2","","","","","0.3260258847","0.2498186578","0.1096702189","0.2664869377","","","","","","","","74","J","1","","","207","main_expt"
"","bandit","287","822853","0.0-248.0-0.0","09515401","wem/bandit_either_2","AZNIEFUIVB2H0","either","5","79","","","","","","","0","0","1","","0.09922356593","0.4","0.8","0.6","0.2","0.3173829003","0.2335358635","0.09922356593","0.2686565688","","","","","","","","","","","","75","K","2","","","208","main_expt"
"","bandit","288","824403","0.0-249.0-0.0","09515401","wem/bandit_either_2","AZNIEFUIVB2H0","either","5","27","","","","","","","0","0","1","0.101567507","","0.4","0.8","0.6","0.2","","","","","0.3153846937","0.2638942681","0.101567507","0.2380255957","","","","","","","","75","K","2","","","209","main_expt"
"","bandit","289","826206","0.0-250.0-0.0","09515401","wem/bandit_either_2","AZNIEFUIVB2H0","either","5","282","","","","","","","0","0","1","0.08675379402","","0.4","0.8","0.6","0.2","","","","","0.3010876552","0.2526926237","0.08675379402","0.2507768727","","","","","","","","75","K","2","","","210","main_expt"
"","bandit","290","827766","0.0-251.0-0.0","09515401","wem/bandit_either_2","AZNIEFUIVB2H0","either","5","38","","","","","","","0","0","1","0.07512021269","","0.4","0.8","0.6","0.2","","","","","0.2864900033","0.2740367769","0.07512021269","0.2685142319","","","","","","","","75","K","2","","","211","main_expt"
"","bandit","291","831151","0.0-252.0-0.0","09515401","wem/bandit_either_2","AZNIEFUIVB2H0","either","5","1867","","","","","","","0","0","1","","0.260511483","0.4","0.8","0.6","0.2","0.3163372434","0.2440836191","0.08144254236","0.260511483","","","","","","","","","","","","76","L","3","","","212","main_expt"
"","bandit","292","832922","0.0-253.0-0.0","09515401","wem/bandit_either_2","AZNIEFUIVB2H0","either","5","250","","","","","","","0","0","1","","0.2579605047","0.4","0.8","0.6","0.2","0.2701305136","0.2341903104","0.06585574052","0.2579605047","","","","","","","","","","","","76","L","3","","","213","main_expt"
"","bandit","293","834700","0.0-254.0-0.0","09515401","wem/bandit_either_2","AZNIEFUIVB2H0","either","5","248","","","","","","","0","0","1","","0.2470456849","0.4","0.8","0.6","0.2","0.302599165","0.2097526345","0.08686614453","0.2470456849","","","","","","","","","","","","76","L","3","","","214","main_expt"
"","bandit","294","836550","0.0-255.0-0.0","09515401","wem/bandit_either_2","AZNIEFUIVB2H0","either","5","328","","","","","","","0","1","0","","0.3285383036","0.4","0.8","0.6","0.2","0.2968005471","0.1796882487","0.1068548489","0.3285383036","","","","","","","","","","","","76","L","3","","","215","main_expt"
"","bandit","295","838485","0.0-256.0-0.0","09515401","wem/bandit_either_2","AZNIEFUIVB2H0","either","5","413","","","","","","","0","1","0","","0.3780044773","0.4","0.8","0.6","0.2","0.2835536598","0.2237900511","0.1211736082","0.3780044773","","","","","","","","","","","","76","L","3","","","216","main_expt"
"","bandit","296","840308","0.0-257.0-0.0","09515401","wem/bandit_either_2","AZNIEFUIVB2H0","either","5","304","","","","","","","0","0","1","","0.3939228946","0.4","0.8","0.6","0.2","0.2520762718","0.2265358539","0.09343701815","0.3939228946","","","","","","","","","","","","76","L","3","","","217","main_expt"
"","bandit","297","841932","0.0-258.0-0.0","09515401","wem/bandit_either_2","AZNIEFUIVB2H0","either","5","105","","","","","","","0","0","1","0.3198270803","","0.4","0.8","0.6","0.2","","","","","0.2562699476","0.2364013437","0.1001055386","0.3198270803","","","","","","","","76","L","3","","","218","main_expt"
"","bandit","298","843761","0.0-259.0-0.0","09515401","wem/bandit_either_2","AZNIEFUIVB2H0","either","5","310","","","","","","","0","0","1","","0.3502502288","0.4","0.8","0.6","0.2","0.3002431464","0.2810560361","0.09524874014","0.3502502288","","","","","","","","","","","","76","L","3","","","219","main_expt"
"","bandit","299","845575","0.0-260.0-0.0","09515401","wem/bandit_either_2","AZNIEFUIVB2H0","either","5","296","","","","","","","0","1","0","","0.3402456168","0.4","0.8","0.6","0.2","0.3365413303","0.3027429446","0.1304899995","0.3402456168","","","","","","","","","","","","76","L","3","","","220","main_expt"
"","bandit","300","847541","0.0-261.0-0.0","09515401","wem/bandit_either_2","AZNIEFUIVB2H0","either","5","447","","","","","","","0","0","1","","0.3770059732","0.4","0.8","0.6","0.2","0.2946103072","0.3132134988","0.1272814923","0.3770059732","","","","","","","","","","","","76","L","3","","","221","main_expt"
"","bandit","301","849445","0.0-262.0-0.0","09515401","wem/bandit_either_2","AZNIEFUIVB2H0","either","5","384","","","","","","","0","0","1","","0.3864421123","0.4","0.8","0.6","0.2","0.3267284332","0.2424821827","0.1654407056","0.3864421123","","","","","","","","","","","","76","L","3","","","222","main_expt"
"","bandit","302","851326","0.0-263.0-0.0","09515401","wem/bandit_either_2","AZNIEFUIVB2H0","either","5","360","","","","","","","0","0","1","","0.4205211408","0.4","0.8","0.6","0.2","0.3175152631","0.2595367495","0.1788325852","0.4205211408","","","","","","","","","","","","76","L","3","","","223","main_expt"
"","bandit","303","853250","0.0-264.0-0.0","09515401","wem/bandit_either_2","AZNIEFUIVB2H0","either","5","404","","","","","","","0","0","1","","0.1736623033","0.4","0.8","0.6","0.2","0.3192400935","0.328819141","0.1736623033","0.4131889957","","","","","","","","","","","","75","K","2","","","224","main_expt"
"","bandit","304","855004","0.0-265.0-0.0","09515401","wem/bandit_either_2","AZNIEFUIVB2H0","either","5","234","","","","","","","0","0","1","0.1721911447","","0.4","0.8","0.6","0.2","","","","","0.3096750449","0.356121412","0.1721911447","0.4001513574","","","","","","","","75","K","2","","","225","main_expt"
"","bandit","305","856856","0.0-266.0-0.0","09515401","wem/bandit_either_2","AZNIEFUIVB2H0","either","5","335","","","","","","","0","0","1","","0.2133818582","0.4","0.8","0.6","0.2","0.3142833063","0.3394019192","0.2133818582","0.3963688582","","","","","","","","","","","","75","K","2","","","226","main_expt"
"","bandit","306","859373","0.0-267.0-0.0","09515401","wem/bandit_either_2","AZNIEFUIVB2H0","either","5","998","","","","","","","0","1","0","","0.2860553004","0.4","0.8","0.6","0.2","0.3096885674","0.2860553004","0.2620007467","0.3979714495","","","","","","","","","","","","74","J","1","","","227","main_expt"
"","bandit","307","861247","0.0-268.0-0.0","09515401","wem/bandit_either_2","AZNIEFUIVB2H0","either","5","357","","","","","","","0","1","0","","0.2967856672","0.4","0.8","0.6","0.2","0.3048295172","0.2967856672","0.2961930455","0.3811043637","","","","","","","","","","","","74","J","1","","","228","main_expt"
"","bandit","308","863157","0.0-269.0-0.0","09515401","wem/bandit_either_2","AZNIEFUIVB2H0","either","5","391","","","","","","","0","0","1","0.2857745529","","0.4","0.8","0.6","0.2","","","","","0.2553920021","0.2857745529","0.3081123415","0.3488149186","","","","","","","","74","J","1","","","229","main_expt"
"","bandit","309","865009","0.0-270.0-0.0","09515401","wem/bandit_either_2","AZNIEFUIVB2H0","either","5","331","","","","","","","0","0","1","0.2589404948","","0.4","0.8","0.6","0.2","","","","","0.2783794412","0.2589404948","0.3027177586","0.2883621188","","","","","","","","74","J","1","","","230","main_expt"
"","bandit","310","866802","0.0-271.0-0.0","09515401","wem/bandit_either_2","AZNIEFUIVB2H0","either","5","236","","","","","","","0","0","1","0.2628441024","","0.4","0.8","0.6","0.2","","","","","0.2735536708","0.2628441024","0.2495346478","0.2444465504","","","","","","","","74","J","1","","","231","main_expt"
"","bandit","311","868728","0.0-272.0-0.0","09515401","wem/bandit_either_2","AZNIEFUIVB2H0","either","5","403","","","","","","","0","0","1","0.276537748","","0.4","0.8","0.6","0.2","","","","","0.2262440502","0.276537748","0.2185872191","0.2996930955","","","","","","","","74","J","1","","","232","main_expt"
"","bandit","312","870643","0.0-273.0-0.0","09515401","wem/bandit_either_2","AZNIEFUIVB2H0","either","5","392","","","","","","","0","0","1","0.2485723575","","0.4","0.8","0.6","0.2","","","","","0.2171974885","0.2485723575","0.1874863907","0.3103031796","","","","","","","","74","J","1","","","233","main_expt"
"","bandit","313","872533","0.0-274.0-0.0","09515401","wem/bandit_either_2","AZNIEFUIVB2H0","either","5","361","","","","","","","0","0","1","","0.2951485073","0.4","0.8","0.6","0.2","0.2951485073","0.2172766866","0.2165838284","0.2971988612","","","","","","","","","","","","72","H","0","img/none_selected.jpg","","234","main_expt"
"","bandit","314","874103","0.0-275.0-0.0","09515401","wem/bandit_either_2","AZNIEFUIVB2H0","either","5","48","","","","","","","1","0","0","0.3135740045","","0.4","0.8","0.6","0.2","","","","","0.3135740045","0.221542824","0.1791302586","0.3266576642","","","","","","","","72","H","0","img/none_selected.jpg","","235","main_expt"
"","bandit","315","876013","0.0-276.0-0.0","09515401","wem/bandit_either_2","AZNIEFUIVB2H0","either","5","390","","","","","","","0","0","1","","0.2945285262","0.4","0.8","0.6","0.2","0.2945285262","0.2200573756","0.2463713802","0.3596878827","","","","","","","","","","","","72","H","0","img/none_selected.jpg","","236","main_expt"
"","bandit","316","877892","0.0-277.0-0.0","09515401","wem/bandit_either_2","AZNIEFUIVB2H0","either","5","359","","","","","","","0","0","1","","0.2797454337","0.4","0.8","0.6","0.2","0.2797454337","0.2146478317","0.2204623923","0.3951370387","","","","","","","","","","","","72","H","0","img/none_selected.jpg","","237","main_expt"
"","bandit","317","879738","0.0-278.0-0.0","09515401","wem/bandit_either_2","AZNIEFUIVB2H0","either","5","326","","","","","","","0","0","1","0.266453507","","0.4","0.8","0.6","0.2","","","","","0.266453507","0.2237656472","0.2316256556","0.3863552979","","","","","","","","72","H","0","img/none_selected.jpg","","238","main_expt"
"","bandit","318","881551","0.0-279.0-0.0","09515401","wem/bandit_either_2","AZNIEFUIVB2H0","either","5","294","","","","","","","0","0","1","","0.310831157","0.4","0.8","0.6","0.2","0.310831157","0.2302611888","0.2406304147","0.3962704677","","","","","","","","","","","","72","H","0","img/none_selected.jpg","","239","main_expt"
"","bandit","319","883420","0.0-280.0-0.0","09515401","wem/bandit_either_2","AZNIEFUIVB2H0","either","5","351","","","","","","","0","0","1","0.331950591","","0.4","0.8","0.6","0.2","","","","","0.331950591","0.2253069634","0.2624476398","0.3926977495","","","","","","","","72","H","0","img/none_selected.jpg","","240","main_expt"
"","bandit","320","885176","0.0-281.0-0.0","09515401","wem/bandit_either_2","AZNIEFUIVB2H0","either","5","235","","","","","","","0","0","1","","0.3223776605","0.4","0.8","0.6","0.2","0.3223776605","0.2523404353","0.2627099727","0.3381110468","","","","","","","","","","","","72","H","0","img/none_selected.jpg","","241","main_expt"
"","bandit","321","886703","0.0-282.0-0.0","09515401","wem/bandit_either_2","AZNIEFUIVB2H0","either","5","7","","","","","","","0","1","0","","0.238450381","0.4","0.8","0.6","0.2","0.3389272588","0.238450381","0.2262339403","0.3213381148","","","","","","","","","","","","74","J","1","","","242","main_expt"
"","bandit","322","888737","0.0-283.0-0.0","09515401","wem/bandit_either_2","AZNIEFUIVB2H0","either","5","516","","","","","","","1","0","0","0.2476478509","","0.4","0.8","0.6","0.2","","","","","0.4023830898","0.2476478509","0.2511573395","0.3395415742","","","","","","","","74","J","1","","","243","main_expt"
"","bandit","323","890646","0.0-284.0-0.0","09515401","wem/bandit_either_2","AZNIEFUIVB2H0","either","5","385","","","","","","","0","0","1","0.2603762171","","0.4","0.8","0.6","0.2","","","","","0.4072225753","0.2603762171","0.3112309098","0.3077285799","","","","","","","","74","J","1","","","244","main_expt"
"","bandit","324","892501","0.0-285.0-0.0","09515401","wem/bandit_either_2","AZNIEFUIVB2H0","either","5","335","","","","","","","0","0","1","","0.2778117757","0.4","0.8","0.6","0.2","0.4047901721","0.2778117757","0.3169667097","0.269997398","","","","","","","","","","","","74","J","1","","","245","main_expt"
"","bandit","325","894403","0.0-286.0-0.0","09515401","wem/bandit_either_2","AZNIEFUIVB2H0","either","5","380","","","","","","","0","0","1","0.2571702875","","0.4","0.8","0.6","0.2","","","","","0.4245844383","0.2571702875","0.3774934029","0.2896792764","","","","","","","","74","J","1","","","246","main_expt"
"","bandit","326","896321","0.0-287.0-0.0","09515401","wem/bandit_either_2","AZNIEFUIVB2H0","either","5","399","","","","","","","0","0","1","0.2790325972","","0.4","0.8","0.6","0.2","","","","","0.4425022826","0.2790325972","0.3592590195","0.3079745892","","","","","","","","74","J","1","","","247","main_expt"
"","bandit","327","898256","0.0-288.0-0.0","09515401","wem/bandit_either_2","AZNIEFUIVB2H0","either","5","413","","","","","","","1","0","0","0.2665328125","","0.4","0.8","0.6","0.2","","","","","0.4454461089","0.2665328125","0.3659800935","0.2306801962","","","","","","","","74","J","1","","","248","main_expt"
"","bandit","328","900094","0.0-289.0-0.0","09515401","wem/bandit_either_2","AZNIEFUIVB2H0","either","5","320","","","","","","","1","0","0","0.2666328085","","0.4","0.8","0.6","0.2","","","","","0.4565985803","0.2666328085","0.3940863056","0.2363838343","","","","","","","","74","J","1","","","249","main_expt"
"","bandit","329","902052","0.0-290.0-0.0","09515401","wem/bandit_either_2","AZNIEFUIVB2H0","either","5","435","","","","","","","1","0","0","0.2637425143","","0.4","0.8","0.6","0.2","","","","","0.4666950096","0.2637425143","0.3652193683","0.2865845142","","","","","","","","74","J","1","","","250","main_expt"
