"consent","trial_type","trial_index","time_elapsed","internal_node_id","subjID","study","MID","cond","drift","rt","responses","key_press","expt_phase","like","value","connected","gems","bombs","no_reward","GemPrChosen","BombPrChosen","GainOverPainPr_0","GainOverPainPr_1","GainOverPainPr_2","GainOverPainPr_3","LosePr_0","LosePr_1","LosePr_2","LosePr_3","WinPr_0","WinPr_1","WinPr_2","WinPr_3","Q0","Q1","Q2","gender","age","ethnicity","target","respCharCode","respKey","respChoiceNum","respChoice","practice","trial_counter","trial_label"
"INL_behavioral_consent_30min_online.html","consent","0","6345","0.0-0.0","10879596","wem/bandit_either_2","AWXIEV9H6KT9E","either","4","","","","","","","","","","","","","","","","","","","","","","","","","","","","","","","","","","","","","",""
"","survey-text","1","8956","0.0-1.0","10879596","wem/bandit_either_2","AWXIEV9H6KT9E","either","4","1598","{""Q0"":""AWXIEV9H6KT9E""}","","","","","","","","","","","","","","","","","","","","","","","","","","","","","","","","","","","",""
"","text","2","13347","0.0-2.0","10879596","wem/bandit_either_2","AWXIEV9H6KT9E","either","4","3386","","32","","","","","","","","","","","","","","","","","","","","","","","","","","","","","","","","","","",""
"","text","3","13888","0.0-3.0","10879596","wem/bandit_either_2","AWXIEV9H6KT9E","either","4","539","","32","","","","","","","","","","","","","","","","","","","","","","","","","","","","","","","","","","",""
"","text","4","17688","0.0-4.0","10879596","wem/bandit_either_2","AWXIEV9H6KT9E","either","4","3798","","32","","","","","","","","","","","","","","","","","","","","","","","","","","","","","","","","","","",""
"","text","5","18385","0.0-5.0","10879596","wem/bandit_either_2","AWXIEV9H6KT9E","either","4","696","","32","","","","","","","","","","","","","","","","","","","","","","","","","","","","","","","","","","",""
"","text","6","21662","0.0-6.0","10879596","wem/bandit_either_2","AWXIEV9H6KT9E","either","4","3275","","32","","","","","","","","","","","","","","","","","","","","","","","","","","","","","","","","","","",""
"","text","7","22083","0.0-7.0","10879596","wem/bandit_either_2","AWXIEV9H6KT9E","either","4","420","","32","","","","","","","","","","","","","","","","","","","","","","","","","","","","","","","","","","",""
"","text","8","22463","0.0-8.0","10879596","wem/bandit_either_2","AWXIEV9H6KT9E","either","4","378","","32","","","","","","","","","","","","","","","","","","","","","","","","","","","","","","","","","","",""
"","identification","9","26258","0.0-9.0-0.0","10879596","wem/bandit_either_2","AWXIEV9H6KT9E","either","4","3774","","","","4","4","4","","","","","","","","","","","","","","","","","","","","","","","","the village of Zur","","","","","","",""
"","identification","10","29479","0.0-9.0-1.0","10879596","wem/bandit_either_2","AWXIEV9H6KT9E","either","4","2196","","","","3","3","4","","","","","","","","","","","","","","","","","","","","","","","","the village of Nyx","","","","","","",""
"","text","11","38503","0.0-10.0","10879596","wem/bandit_either_2","AWXIEV9H6KT9E","either","4","8021","","32","","","","","","","","","","","","","","","","","","","","","","","","","","","","","","","","","","",""
"","text","12","38987","0.0-11.0","10879596","wem/bandit_either_2","AWXIEV9H6KT9E","either","4","482","","32","","","","","","","","","","","","","","","","","","","","","","","","","","","","","","","","","","",""
"","text","13","39574","0.0-12.0","10879596","wem/bandit_either_2","AWXIEV9H6KT9E","either","4","585","","32","","","","","","","","","","","","","","","","","","","","","","","","","","","","","","","","","","",""
"","text","14","47635","0.0-13.0","10879596","wem/bandit_either_2","AWXIEV9H6KT9E","either","4","8059","","32","","","","","","","","","","","","","","","","","","","","","","","","","","","","","","","","","","",""
"","bandit","15","50359","0.0-14.0-0.0","10879596","wem/bandit_either_2","AWXIEV9H6KT9E","either","4","1210","","","","","","","0","0","1","0","0","","","","","0","","","","0","","","","","","","","","","","74","J","0","img/none_selected_demo.jpg","true","0",""
"","bandit","16","52922","0.0-15.0-0.0","10879596","wem/bandit_either_2","AWXIEV9H6KT9E","either","4","1055","","","","","","","0","0","1","0","0","","","","","0","","","","0","","","","","","","","","","","75","K","0","img/none_selected_demo.jpg","true","0",""
"","text","17","54153","0.0-16.0","10879596","wem/bandit_either_2","AWXIEV9H6KT9E","either","4","1229","","32","","","","","","","","","","","","","","","","","","","","","","","","","","","","","","","","","","",""
"","text","18","54582","0.0-17.0","10879596","wem/bandit_either_2","AWXIEV9H6KT9E","either","4","428","","32","","","","","","","","","","","","","","","","","","","","","","","","","","","","","","","","","","",""
"","text","19","54892","0.0-18.0","10879596","wem/bandit_either_2","AWXIEV9H6KT9E","either","4","307","","32","","","","","","","","","","","","","","","","","","","","","","","","","","","","","","","","","","",""
"","text","20","55189","0.0-19.0","10879596","wem/bandit_either_2","AWXIEV9H6KT9E","either","4","295","","32","","","","","","","","","","","","","","","","","","","","","","","","","","","","","","","","","","",""
"","bandit","21","57236","0.0-20.0-0.0","10879596","wem/bandit_either_2","AWXIEV9H6KT9E","either","4","537","","","","","","","1","0","0","0.8","","0.5","0.5","","","","","","","0.8","0.2","","","","","","","","","","74","J","0","img/none_selected_demo.jpg","true","0","80_20_practice"
"","bandit","22","59306","0.0-20.0-1.0","10879596","wem/bandit_either_2","AWXIEV9H6KT9E","either","4","559","","","","","","","0","1","0","","0.8","0.5","0.5","","","0.8","0.2","","","","","","","","","","","","","","74","J","0","img/none_selected_demo.jpg","true","0","80_20_practice"
"","bandit","23","61399","0.0-20.0-2.0","10879596","wem/bandit_either_2","AWXIEV9H6KT9E","either","4","582","","","","","","","0","1","0","","0.2","0.5","0.5","","","0.8","0.2","","","","","","","","","","","","","","75","K","1","","true","0","80_20_practice"
"","bandit","24","64658","0.0-20.0-3.0","10879596","wem/bandit_either_2","AWXIEV9H6KT9E","either","4","1747","","","","","","","0","0","1","","0.2","0.5","0.5","","","0.8","0.2","","","","","","","","","","","","","","75","K","1","","true","0","80_20_practice"
"","bandit","25","112840","0.0-20.0-4.0","10879596","wem/bandit_either_2","AWXIEV9H6KT9E","either","4","46672","","","","","","","0","0","1","","0.2","0.5","0.5","","","0.8","0.2","","","","","","","","","","","","","","75","K","1","","true","0","80_20_practice"
"","bandit","26","115073","0.0-20.0-5.0","10879596","wem/bandit_either_2","AWXIEV9H6KT9E","either","4","723","","","","","","","0","0","1","0.2","","0.5","0.5","","","","","","","0.8","0.2","","","","","","","","","","75","K","1","","true","0","80_20_practice"
"","bandit","27","118415","0.0-20.0-6.0","10879596","wem/bandit_either_2","AWXIEV9H6KT9E","either","4","1833","","","","","","","1","0","0","0.8","","0.5","0.5","","","","","","","0.8","0.2","","","","","","","","","","74","J","0","img/none_selected_demo.jpg","true","0","80_20_practice"
"","bandit","28","120258","0.0-20.0-7.0","10879596","wem/bandit_either_2","AWXIEV9H6KT9E","either","4","331","","","","","","","0","0","1","","0.2","0.5","0.5","","","0.8","0.2","","","","","","","","","","","","","","75","K","1","","true","0","80_20_practice"
"","bandit","29","122073","0.0-20.0-8.0","10879596","wem/bandit_either_2","AWXIEV9H6KT9E","either","4","299","","","","","","","0","0","1","0.8","","0.5","0.5","","","","","","","0.8","0.2","","","","","","","","","","74","J","0","img/none_selected_demo.jpg","true","0","80_20_practice"
"","bandit","30","123910","0.0-20.0-9.0","10879596","wem/bandit_either_2","AWXIEV9H6KT9E","either","4","321","","","","","","","0","0","1","","0.2","0.5","0.5","","","0.8","0.2","","","","","","","","","","","","","","75","K","1","","true","0","80_20_practice"
"","bandit","31","125788","0.0-20.0-10.0","10879596","wem/bandit_either_2","AWXIEV9H6KT9E","either","4","361","","","","","","","1","0","0","0.8","","0.5","0.5","","","","","","","0.8","0.2","","","","","","","","","","74","J","0","img/none_selected_demo.jpg","true","0","80_20_practice"
"","bandit","32","127579","0.0-20.0-11.0","10879596","wem/bandit_either_2","AWXIEV9H6KT9E","either","4","281","","","","","","","0","0","1","0.8","","0.5","0.5","","","","","","","0.8","0.2","","","","","","","","","","74","J","0","img/none_selected_demo.jpg","true","0","80_20_practice"
"","bandit","33","129115","0.0-20.0-12.0","10879596","wem/bandit_either_2","AWXIEV9H6KT9E","either","4","30","","","","","","","1","0","0","0.8","","0.5","0.5","","","","","","","0.8","0.2","","","","","","","","","","74","J","0","img/none_selected_demo.jpg","true","0","80_20_practice"
"","bandit","34","130937","0.0-20.0-13.0","10879596","wem/bandit_either_2","AWXIEV9H6KT9E","either","4","300","","","","","","","1","0","0","0.8","","0.5","0.5","","","","","","","0.8","0.2","","","","","","","","","","74","J","0","img/none_selected_demo.jpg","true","0","80_20_practice"
"","bandit","35","132471","0.0-20.0-14.0","10879596","wem/bandit_either_2","AWXIEV9H6KT9E","either","4","7","","","","","","","0","1","0","","0.8","0.5","0.5","","","0.8","0.2","","","","","","","","","","","","","","74","J","0","img/none_selected_demo.jpg","true","0","80_20_practice"
"","bandit","36","134058","0.0-20.0-15.0","10879596","wem/bandit_either_2","AWXIEV9H6KT9E","either","4","75","","","","","","","0","1","0","","0.2","0.5","0.5","","","0.8","0.2","","","","","","","","","","","","","","75","K","1","","true","0","80_20_practice"
"","bandit","37","135800","0.0-20.0-16.0","10879596","wem/bandit_either_2","AWXIEV9H6KT9E","either","4","233","","","","","","","0","0","1","","0.2","0.5","0.5","","","0.8","0.2","","","","","","","","","","","","","","75","K","1","","true","0","80_20_practice"
"","bandit","38","137502","0.0-20.0-17.0","10879596","wem/bandit_either_2","AWXIEV9H6KT9E","either","4","191","","","","","","","0","0","1","0.2","","0.5","0.5","","","","","","","0.8","0.2","","","","","","","","","","75","K","1","","true","0","80_20_practice"
"","bandit","39","139114","0.0-20.0-18.0","10879596","wem/bandit_either_2","AWXIEV9H6KT9E","either","4","101","","","","","","","0","1","0","","0.8","0.5","0.5","","","0.8","0.2","","","","","","","","","","","","","","74","J","0","img/none_selected_demo.jpg","true","0","80_20_practice"
"","bandit","40","140881","0.0-20.0-19.0","10879596","wem/bandit_either_2","AWXIEV9H6KT9E","either","4","256","","","","","","","1","0","0","0.2","","0.5","0.5","","","","","","","0.8","0.2","","","","","","","","","","75","K","1","","true","0","80_20_practice"
"","text","41","146311","0.0-21.0","10879596","wem/bandit_either_2","AWXIEV9H6KT9E","either","4","5426","","32","","","","","","","","","","","","","","","","","","","","","","","","","","","","","","","","","","",""
"","bandit","42","148829","0.0-22.0-0.0","10879596","wem/bandit_either_2","AWXIEV9H6KT9E","either","4","1009","","","","","","","1","0","0","1","0","","","","","0","1","","","1","0","","","","","","","","","","74","J","0","img/none_selected_demo.jpg","true","0",""
"","text","43","148970","0.0-23.0","10879596","wem/bandit_either_2","AWXIEV9H6KT9E","either","4","138","","74","","","","","","","","","","","","","","","","","","","","","","","","","","","","","","","","","","",""
"","text","44","152866","0.0-24.0","10879596","wem/bandit_either_2","AWXIEV9H6KT9E","either","4","3893","","32","","","","","","","","","","","","","","","","","","","","","","","","","","","","","","","","","","",""
"","text","45","153210","0.0-25.0","10879596","wem/bandit_either_2","AWXIEV9H6KT9E","either","4","339","","32","","","","","","","","","","","","","","","","","","","","","","","","","","","","","","","","","","",""
"","text","46","153474","0.0-26.0","10879596","wem/bandit_either_2","AWXIEV9H6KT9E","either","4","262","","32","","","","","","","","","","","","","","","","","","","","","","","","","","","","","","","","","","",""
"","text","47","153685","0.0-27.0","10879596","wem/bandit_either_2","AWXIEV9H6KT9E","either","4","208","","32","","","","","","","","","","","","","","","","","","","","","","","","","","","","","","","","","","",""
"","text","48","153883","0.0-28.0","10879596","wem/bandit_either_2","AWXIEV9H6KT9E","either","4","194","","32","","","","","","","","","","","","","","","","","","","","","","","","","","","","","","","","","","",""
"","text","49","154072","0.0-29.0","10879596","wem/bandit_either_2","AWXIEV9H6KT9E","either","4","187","","32","","","","","","","","","","","","","","","","","","","","","","","","","","","","","","","","","","",""
"","text","50","154296","0.0-30.0","10879596","wem/bandit_either_2","AWXIEV9H6KT9E","either","4","221","","32","","","","","","","","","","","","","","","","","","","","","","","","","","","","","","","","","","",""
"","text","51","154493","0.0-31.0","10879596","wem/bandit_either_2","AWXIEV9H6KT9E","either","4","195","","32","","","","","","","","","","","","","","","","","","","","","","","","","","","","","","","","","","",""
"","text","52","154703","0.0-32.0","10879596","wem/bandit_either_2","AWXIEV9H6KT9E","either","4","207","","32","","","","","","","","","","","","","","","","","","","","","","","","","","","","","","","","","","",""
"","text","53","154915","0.0-33.0","10879596","wem/bandit_either_2","AWXIEV9H6KT9E","either","4","208","","32","","","","","","","","","","","","","","","","","","","","","","","","","","","","","","","","","","",""
"","bandit","54","157015","0.0-34.0-0.0","10879596","wem/bandit_either_2","AWXIEV9H6KT9E","either","4","589","","","","","","","1","0","0","0.8","","0.5","0.5","0.5","0.5","","","","","0.8","0.2","0.6","0.2","","","","","","","","72","H","0","img/none_selected.jpg","true","0","full_practice"
"","bandit","55","158538","0.0-34.0-1.0","10879596","wem/bandit_either_2","AWXIEV9H6KT9E","either","4","12","","","","","","","0","0","1","","0.2","0.5","0.5","0.5","0.5","0.8","0.2","0.6","0.2","","","","","","","","","","","","76","L","3","","true","0","full_practice"
"","bandit","56","160073","0.0-34.0-2.0","10879596","wem/bandit_either_2","AWXIEV9H6KT9E","either","4","19","","","","","","","1","0","0","0.8","","0.5","0.5","0.5","0.5","","","","","0.8","0.2","0.6","0.2","","","","","","","","72","H","0","img/none_selected.jpg","true","0","full_practice"
"","bandit","57","161674","0.0-34.0-3.0","10879596","wem/bandit_either_2","AWXIEV9H6KT9E","either","4","89","","","","","","","1","0","0","0.6","","0.5","0.5","0.5","0.5","","","","","0.8","0.2","0.6","0.2","","","","","","","","75","K","2","","true","0","full_practice"
"","bandit","58","163317","0.0-34.0-4.0","10879596","wem/bandit_either_2","AWXIEV9H6KT9E","either","4","131","","","","","","","0","1","0","","0.6","0.5","0.5","0.5","0.5","0.8","0.2","0.6","0.2","","","","","","","","","","","","75","K","2","","true","0","full_practice"
"","bandit","59","340407","0.0-34.0-5.0","10879596","wem/bandit_either_2","AWXIEV9H6KT9E","either","4","175564","","","","","","","0","1","0","","0.8","0.5","0.5","0.5","0.5","0.8","0.2","0.6","0.2","","","","","","","","","","","","72","H","0","img/none_selected.jpg","true","0","full_practice"
"","bandit","60","341954","0.0-34.0-6.0","10879596","wem/bandit_either_2","AWXIEV9H6KT9E","either","4","17","","","","","","","0","0","1","0.6","","0.5","0.5","0.5","0.5","","","","","0.8","0.2","0.6","0.2","","","","","","","","75","K","2","","true","0","full_practice"
"","bandit","61","343716","0.0-34.0-7.0","10879596","wem/bandit_either_2","AWXIEV9H6KT9E","either","4","232","","","","","","","0","0","1","0.2","","0.5","0.5","0.5","0.5","","","","","0.8","0.2","0.6","0.2","","","","","","","","76","L","3","","true","0","full_practice"
"","bandit","62","345501","0.0-34.0-8.0","10879596","wem/bandit_either_2","AWXIEV9H6KT9E","either","4","266","","","","","","","0","0","1","","0.6","0.5","0.5","0.5","0.5","0.8","0.2","0.6","0.2","","","","","","","","","","","","75","K","2","","true","0","full_practice"
"","bandit","63","347127","0.0-34.0-9.0","10879596","wem/bandit_either_2","AWXIEV9H6KT9E","either","4","109","","","","","","","0","0","1","","0.6","0.5","0.5","0.5","0.5","0.8","0.2","0.6","0.2","","","","","","","","","","","","75","K","2","","true","0","full_practice"
"","bandit","64","348887","0.0-34.0-10.0","10879596","wem/bandit_either_2","AWXIEV9H6KT9E","either","4","235","","","","","","","0","0","1","","0.8","0.5","0.5","0.5","0.5","0.8","0.2","0.6","0.2","","","","","","","","","","","","72","H","0","img/none_selected.jpg","true","0","full_practice"
"","bandit","65","350606","0.0-34.0-11.0","10879596","wem/bandit_either_2","AWXIEV9H6KT9E","either","4","189","","","","","","","1","0","0","0.2","","0.5","0.5","0.5","0.5","","","","","0.8","0.2","0.6","0.2","","","","","","","","74","J","1","","true","0","full_practice"
"","bandit","66","352405","0.0-34.0-12.0","10879596","wem/bandit_either_2","AWXIEV9H6KT9E","either","4","271","","","","","","","1","0","0","0.6","","0.5","0.5","0.5","0.5","","","","","0.8","0.2","0.6","0.2","","","","","","","","75","K","2","","true","0","full_practice"
"","bandit","67","354103","0.0-34.0-13.0","10879596","wem/bandit_either_2","AWXIEV9H6KT9E","either","4","170","","","","","","","0","1","0","","0.2","0.5","0.5","0.5","0.5","0.8","0.2","0.6","0.2","","","","","","","","","","","","76","L","3","","true","0","full_practice"
"","bandit","68","355732","0.0-34.0-14.0","10879596","wem/bandit_either_2","AWXIEV9H6KT9E","either","4","105","","","","","","","0","1","0","","0.6","0.5","0.5","0.5","0.5","0.8","0.2","0.6","0.2","","","","","","","","","","","","75","K","2","","true","0","full_practice"
"","bandit","69","357270","0.0-34.0-15.0","10879596","wem/bandit_either_2","AWXIEV9H6KT9E","either","4","6","","","","","","","0","0","1","0.6","","0.5","0.5","0.5","0.5","","","","","0.8","0.2","0.6","0.2","","","","","","","","75","K","2","","true","0","full_practice"
"","bandit","70","359022","0.0-34.0-16.0","10879596","wem/bandit_either_2","AWXIEV9H6KT9E","either","4","220","","","","","","","0","1","0","","0.2","0.5","0.5","0.5","0.5","0.8","0.2","0.6","0.2","","","","","","","","","","","","74","J","1","","true","0","full_practice"
"","bandit","71","397682","0.0-34.0-17.0","10879596","wem/bandit_either_2","AWXIEV9H6KT9E","either","4","37141","","","","","","","0","0","1","","0.2","0.5","0.5","0.5","0.5","0.8","0.2","0.6","0.2","","","","","","","","","","","","74","J","1","","true","0","full_practice"
"","bandit","72","399317","0.0-34.0-18.0","10879596","wem/bandit_either_2","AWXIEV9H6KT9E","either","4","102","","","","","","","1","0","0","0.6","","0.5","0.5","0.5","0.5","","","","","0.8","0.2","0.6","0.2","","","","","","","","75","K","2","","true","0","full_practice"
"","bandit","73","401205","0.0-34.0-19.0","10879596","wem/bandit_either_2","AWXIEV9H6KT9E","either","4","345","","","","","","","0","0","1","0.2","","0.5","0.5","0.5","0.5","","","","","0.8","0.2","0.6","0.2","","","","","","","","76","L","3","","true","0","full_practice"
"","text","74","677378","0.0-35.0","10879596","wem/bandit_either_2","AWXIEV9H6KT9E","either","4","276160","","32","","","","","","","","","","","","","","","","","","","","","","","","","","","","","","","","","","",""
"","text","75","690048","0.0-36.0","10879596","wem/bandit_either_2","AWXIEV9H6KT9E","either","4","11661","","32","","","","","","","","","","","","","","","","","","","","","","","","","","","","","","","","","","",""
"","text","76","691236","0.0-37.0","10879596","wem/bandit_either_2","AWXIEV9H6KT9E","either","4","1185","","32","","","","","","","","","","","","","","","","","","","","","","","","","","","","","","","","","","",""
"","text","77","691724","0.0-38.0","10879596","wem/bandit_either_2","AWXIEV9H6KT9E","either","4","484","","32","","","","","","","","","","","","","","","","","","","","","","","","","","","","","","","","","","",""
"","text","78","692113","0.0-39.0","10879596","wem/bandit_either_2","AWXIEV9H6KT9E","either","4","387","","32","","","","","","","","","","","","","","","","","","","","","","","","","","","","","","","","","","",""
"","text","79","692447","0.0-40.0","10879596","wem/bandit_either_2","AWXIEV9H6KT9E","either","4","331","","32","","","","","","","","","","","","","","","","","","","","","","","","","","","","","","","","","","",""
"","bandit","80","695871","0.0-41.0-0.0","10879596","wem/bandit_either_2","AWXIEV9H6KT9E","either","4","1244","","","","","","","1","0","0","0.2771551185","","0.6","0.4","0.2","0.8","","","","","0.3242650943","0.2771551185","0.3894728165","0.3525715257","","","","","","","","74","J","1","","","1","main_expt"
"","bandit","81","699887","0.0-42.0-0.0","10879596","wem/bandit_either_2","AWXIEV9H6KT9E","either","4","2496","","","","","","","0","0","1","","0.363660736","0.6","0.4","0.2","0.8","0.3296228245","0.3030893157","0.363660736","0.390153736","","","","","","","","","","","","75","K","2","","","2","main_expt"
"","bandit","82","701738","0.0-43.0-0.0","10879596","wem/bandit_either_2","AWXIEV9H6KT9E","either","4","338","","","","","","","0","0","1","0.3725447061","","0.6","0.4","0.2","0.8","","","","","0.3102780753","0.3211059343","0.3842171554","0.3725447061","","","","","","","","76","L","3","","","3","main_expt"
"","bandit","83","703663","0.0-44.0-0.0","10879596","wem/bandit_either_2","AWXIEV9H6KT9E","either","4","408","","","","","","","0","1","0","","0.2804386453","0.6","0.4","0.2","0.8","0.2749892112","0.2804386453","0.3831963053","0.3431524481","","","","","","","","","","","","74","J","1","","","4","main_expt"
"","bandit","84","705758","0.0-45.0-0.0","10879596","wem/bandit_either_2","AWXIEV9H6KT9E","either","4","579","","","","","","","0","0","1","","0.4056596471","0.6","0.4","0.2","0.8","0.3037824898","0.2609559086","0.4056596471","0.3448007793","","","","","","","","","","","","75","K","2","","","5","main_expt"
"","bandit","85","708232","0.0-46.0-0.0","10879596","wem/bandit_either_2","AWXIEV9H6KT9E","either","4","959","","","","","","","0","1","0","","0.3217417103","0.6","0.4","0.2","0.8","0.3217417103","0.2259287768","0.4409946319","0.3980888019","","","","","","","","","","","","72","H","0","img/none_selected.jpg","","6","main_expt"
"","bandit","86","710066","0.0-47.0-0.0","10879596","wem/bandit_either_2","AWXIEV9H6KT9E","either","4","324","","","","","","","0","0","1","0.3693121862","","0.6","0.4","0.2","0.8","","","","","0.3018715163","0.2433618728","0.3821747998","0.3693121862","","","","","","","","76","L","3","","","7","main_expt"
"","bandit","87","711995","0.0-48.0-0.0","10879596","wem/bandit_either_2","AWXIEV9H6KT9E","either","4","414","","","","","","","0","0","1","","0.3841844813","0.6","0.4","0.2","0.8","0.3643645816","0.2025356769","0.3841844813","0.2933697555","","","","","","","","","","","","75","K","2","","","8","main_expt"
"","bandit","88","714019","0.0-49.0-0.0","10879596","wem/bandit_either_2","AWXIEV9H6KT9E","either","4","513","","","","","","","0","0","1","","0.1441028094","0.6","0.4","0.2","0.8","0.3418610374","0.1441028094","0.3412237964","0.3036212831","","","","","","","","","","","","74","J","1","","","9","main_expt"
"","bandit","89","716067","0.0-50.0-0.0","10879596","wem/bandit_either_2","AWXIEV9H6KT9E","either","4","534","","","","","","","0","0","1","0.3190157878","","0.6","0.4","0.2","0.8","","","","","0.3190157878","0.1736005971","0.3256420777","0.308020301","","","","","","","","72","H","0","img/none_selected.jpg","","10","main_expt"
"","bandit","90","717899","0.0-51.0-0.0","10879596","wem/bandit_either_2","AWXIEV9H6KT9E","either","4","314","","","","","","","0","1","0","","0.3514007431","0.6","0.4","0.2","0.8","0.2998731478","0.1836365694","0.3514007431","0.3065973113","","","","","","","","","","","","75","K","2","","","11","main_expt"
"","bandit","91","719866","0.0-52.0-0.0","10879596","wem/bandit_either_2","AWXIEV9H6KT9E","either","4","454","","","","","","","1","0","0","0.2143869662","","0.6","0.4","0.2","0.8","","","","","0.2942822571","0.2143869662","0.3722032088","0.3271859636","","","","","","","","74","J","1","","","12","main_expt"
"","bandit","92","721566","0.0-53.0-0.0","10879596","wem/bandit_either_2","AWXIEV9H6KT9E","either","4","189","","","","","","","0","0","1","0.2761076709","","0.6","0.4","0.2","0.8","","","","","0.3009212619","0.1637139448","0.3681707299","0.2761076709","","","","","","","","76","L","3","","","13","main_expt"
"","bandit","93","723369","0.0-54.0-0.0","10879596","wem/bandit_either_2","AWXIEV9H6KT9E","either","4","287","","","","","","","0","0","1","","0.3528222564","0.6","0.4","0.2","0.8","0.3227424667","0.1488535162","0.3528222564","0.2311164494","","","","","","","","","","","","75","K","2","","","14","main_expt"
"","bandit","94","725662","0.0-55.0-0.0","10879596","wem/bandit_either_2","AWXIEV9H6KT9E","either","4","772","","","","","","","0","0","1","","0.1332411271","0.6","0.4","0.2","0.8","0.3547546862","0.1332411271","0.3738838661","0.2905977425","","","","","","","","","","","","74","J","1","","","15","main_expt"
"","bandit","95","727852","0.0-56.0-0.0","10879596","wem/bandit_either_2","AWXIEV9H6KT9E","either","4","12","","","","","","","0","0","1","0.3241157583","","0.6","0.4","0.2","0.8","","","","","0.3241157583","0.09882415698","0.3385239332","0.2924554969","","","","","","","","72","H","0","img/none_selected.jpg","","16","main_expt"
"","bandit","96","925348","0.0-57.0-0.0","10879596","wem/bandit_either_2","AWXIEV9H6KT9E","either","4","195952","","","","","","","0","0","1","","0.1069157009","0.6","0.4","0.2","0.8","0.3363410386","0.1069157009","0.3111355138","0.3114836302","","","","","","","","","","","","74","J","1","","","17","main_expt"
"","bandit","97","928516","0.0-58.0-0.0","10879596","wem/bandit_either_2","AWXIEV9H6KT9E","either","4","1635","","","","","","","0","0","1","","0.3487767647","0.6","0.4","0.2","0.8","0.3880947854","0.134958137","0.3487767647","0.3215333475","","","","","","","","","","","","75","K","2","","","18","main_expt"
"","bandit","98","930105","0.0-59.0-0.0","10879596","wem/bandit_either_2","AWXIEV9H6KT9E","either","4","64","","","","","","","0","0","1","0.2733398822","","0.6","0.4","0.2","0.8","","","","","0.4116912081","0.1230418706","0.3010303499","0.2733398822","","","","","","","","76","L","3","","","19","main_expt"
"","bandit","99","931630","0.0-60.0-0.0","10879596","wem/bandit_either_2","AWXIEV9H6KT9E","either","4","5","","","","","","","0","0","1","0.2351410235","","0.6","0.4","0.2","0.8","","","","","0.3973894305","0.09866604889","0.2907203997","0.2351410235","","","","","","","","76","L","3","","","20","main_expt"
"","bandit","100","933416","0.0-61.0-0.0","10879596","wem/bandit_either_2","AWXIEV9H6KT9E","either","4","254","","","","","","","0","1","0","","0.369037109","0.6","0.4","0.2","0.8","0.369037109","0.1021222834","0.3088108907","0.2257810982","","","","","","","","","","","","72","H","0","img/none_selected.jpg","","21","main_expt"
"","bandit","101","935207","0.0-62.0-0.0","10879596","wem/bandit_either_2","AWXIEV9H6KT9E","either","4","256","","","","","","","0","0","1","0.1234138809","","0.6","0.4","0.2","0.8","","","","","0.4179468344","0.1234138809","0.349202701","0.2221856846","","","","","","","","74","J","1","","","22","main_expt"
"","bandit","102","937054","0.0-63.0-0.0","10879596","wem/bandit_either_2","AWXIEV9H6KT9E","either","4","314","","","","","","","0","1","0","","0.3785068464","0.6","0.4","0.2","0.8","0.4276062926","0.1030640584","0.3785068464","0.2127124712","","","","","","","","","","","","75","K","2","","","23","main_expt"
"","bandit","103","938829","0.0-64.0-0.0","10879596","wem/bandit_either_2","AWXIEV9H6KT9E","either","4","240","","","","","","","0","0","1","0.1261035851","","0.6","0.4","0.2","0.8","","","","","0.4078122208","0.1261035851","0.4012919653","0.1882566648","","","","","","","","74","J","1","","","24","main_expt"
"","bandit","104","940799","0.0-65.0-0.0","10879596","wem/bandit_either_2","AWXIEV9H6KT9E","either","4","449","","","","","","","1","0","0","0.3950411191","","0.6","0.4","0.2","0.8","","","","","0.3950411191","0.1796705612","0.400899794","0.1273223766","","","","","","","","72","H","0","img/none_selected.jpg","","25","main_expt"
"","bandit","105","942622","0.0-66.0-0.0","10879596","wem/bandit_either_2","AWXIEV9H6KT9E","either","4","285","","","","","","","0","0","1","","0.15747458","0.6","0.4","0.2","0.8","0.4322303329","0.2414651519","0.4126274585","0.15747458","","","","","","","","","","","","76","L","3","","","26","main_expt"
"","bandit","106","944542","0.0-67.0-0.0","10879596","wem/bandit_either_2","AWXIEV9H6KT9E","either","4","386","","","","","","","0","0","1","","0.3992263875","0.6","0.4","0.2","0.8","0.4353643722","0.2005374927","0.3992263875","0.1442684908","","","","","","","","","","","","75","K","2","","","27","main_expt"
"","bandit","107","946446","0.0-68.0-0.0","10879596","wem/bandit_either_2","AWXIEV9H6KT9E","either","4","378","","","","","","","0","0","1","0.3197257227","","0.6","0.4","0.2","0.8","","","","","0.4464017809","0.3197257227","0.3846584236","0.2255404594","","","","","","","","74","J","1","","","28","main_expt"
"","bandit","108","948461","0.0-69.0-0.0","10879596","wem/bandit_either_2","AWXIEV9H6KT9E","either","4","483","","","","","","","0","0","1","","0.3561298134","0.6","0.4","0.2","0.8","0.4417109462","0.3141869899","0.3561298134","0.2730951691","","","","","","","","","","","","75","K","2","","","29","main_expt"
"","bandit","109","950959","0.0-70.0-0.0","10879596","wem/bandit_either_2","AWXIEV9H6KT9E","either","4","966","","","","","","","1","0","0","0.2890412698","","0.6","0.4","0.2","0.8","","","","","0.4065908859","0.3445991012","0.3101363315","0.2890412698","","","","","","","","76","L","3","","","30","main_expt"
"","bandit","110","953097","0.0-71.0-0.0","10879596","wem/bandit_either_2","AWXIEV9H6KT9E","either","4","591","","","","","","","0","0","1","","0.3456655029","0.6","0.4","0.2","0.8","0.3954582793","0.3456655029","0.3322219809","0.3309226042","","","","","","","","","","","","74","J","1","","","31","main_expt"
"","bandit","111","955148","0.0-72.0-0.0","10879596","wem/bandit_either_2","AWXIEV9H6KT9E","either","4","521","","","","","","","0","0","1","","0.3516269472","0.6","0.4","0.2","0.8","0.3716723047","0.3826172224","0.3516269472","0.3519301717","","","","","","","","","","","","75","K","2","","","32","main_expt"
"","bandit","112","956973","0.0-73.0-0.0","10879596","wem/bandit_either_2","AWXIEV9H6KT9E","either","4","294","","","","","","","0","1","0","","0.3804083149","0.6","0.4","0.2","0.8","0.3799724366","0.3804083149","0.3852085553","0.3414953842","","","","","","","","","","","","74","J","1","","","33","main_expt"
"","bandit","113","959026","0.0-74.0-0.0","10879596","wem/bandit_either_2","AWXIEV9H6KT9E","either","4","518","","","","","","","0","0","1","","0.4196644934","0.6","0.4","0.2","0.8","0.409480615","0.3808178469","0.4196644934","0.2938412915","","","","","","","","","","","","75","K","2","","","34","main_expt"
"","bandit","114","961182","0.0-75.0-0.0","10879596","wem/bandit_either_2","AWXIEV9H6KT9E","either","4","618","","","","","","","0","0","1","","0.376129724","0.6","0.4","0.2","0.8","0.3869649509","0.376129724","0.420891004","0.2256616696","","","","","","","","","","","","74","J","1","","","35","main_expt"
"","bandit","115","964222","0.0-76.0-0.0","10879596","wem/bandit_either_2","AWXIEV9H6KT9E","either","4","1501","","","","","","","1","0","0","0.3045389962","","0.6","0.4","0.2","0.8","","","","","0.3045389962","0.4027809904","0.3808881167","0.2525957923","","","","","","","","72","H","0","img/none_selected.jpg","","36","main_expt"
"","bandit","116","966516","0.0-77.0-0.0","10879596","wem/bandit_either_2","AWXIEV9H6KT9E","either","4","757","","","","","","","0","1","0","","0.3634360393","0.6","0.4","0.2","0.8","0.2954217214","0.3715556026","0.3634360393","0.2333373749","","","","","","","","","","","","75","K","2","","","37","main_expt"
"","bandit","117","968384","0.0-78.0-0.0","10879596","wem/bandit_either_2","AWXIEV9H6KT9E","either","4","337","","","","","","","1","0","0","0.354842885","","0.6","0.4","0.2","0.8","","","","","0.2749906923","0.354842885","0.3432691328","0.2126884676","","","","","","","","74","J","1","","","38","main_expt"
"","bandit","118","970722","0.0-79.0-0.0","10879596","wem/bandit_either_2","AWXIEV9H6KT9E","either","4","814","","","","","","","0","0","1","0.3066825603","","0.6","0.4","0.2","0.8","","","","","0.2911873598","0.3066825603","0.3113322025","0.212498526","","","","","","","","74","J","1","","","39","main_expt"
"","bandit","119","973115","0.0-80.0-0.0","10879596","wem/bandit_either_2","AWXIEV9H6KT9E","either","4","862","","","","","","","0","0","1","","0.3298138996","0.6","0.4","0.2","0.8","0.3066149412","0.3208648015","0.3298138996","0.2031275136","","","","","","","","","","","","75","K","2","","","40","main_expt"
"","bandit","120","975514","0.0-81.0-0.0","10879596","wem/bandit_either_2","AWXIEV9H6KT9E","either","4","860","","","","","","","0","0","1","0.2409224204","","0.6","0.4","0.2","0.8","","","","","0.2612722093","0.2774570704","0.3590557929","0.2409224204","","","","","","","","76","L","3","","","41","main_expt"
"","bandit","121","978630","0.0-82.0-0.0","10879596","wem/bandit_either_2","AWXIEV9H6KT9E","either","4","1591","","","","","","","0","0","1","0.2166695961","","0.6","0.4","0.2","0.8","","","","","0.2579482203","0.3092882543","0.3455434044","0.2166695961","","","","","","","","76","L","3","","","42","main_expt"
"","bandit","122","981046","0.0-83.0-0.0","10879596","wem/bandit_either_2","AWXIEV9H6KT9E","either","4","880","","","","","","","0","0","1","","0.4020043176","0.6","0.4","0.2","0.8","0.2232302517","0.3161251671","0.4020043176","0.2314197793","","","","","","","","","","","","75","K","2","","","43","main_expt"
"","bandit","123","984969","0.0-84.0-0.0","10879596","wem/bandit_either_2","AWXIEV9H6KT9E","either","4","2379","","","","","","","0","0","1","0.4088695108","","0.6","0.4","0.2","0.8","","","","","0.2435669349","0.3032549762","0.4088695108","0.1889371852","","","","","","","","75","K","2","","","44","main_expt"
"","bandit","124","987102","0.0-85.0-0.0","10879596","wem/bandit_either_2","AWXIEV9H6KT9E","either","4","596","","","","","","","0","0","1","","0.3914045207","0.6","0.4","0.2","0.8","0.1885724617","0.3012359134","0.3914045207","0.2152104473","","","","","","","","","","","","75","K","2","","","45","main_expt"
"","bandit","125","989167","0.0-86.0-0.0","10879596","wem/bandit_either_2","AWXIEV9H6KT9E","either","4","497","","","","","","","0","0","1","","0.2994346937","0.6","0.4","0.2","0.8","0.104230756","0.2994346937","0.3682142312","0.2260726972","","","","","","","","","","","","74","J","1","","","46","main_expt"
"","bandit","126","990806","0.0-87.0-0.0","10879596","wem/bandit_either_2","AWXIEV9H6KT9E","either","4","99","","","","","","","1","0","0","0.3169549043","","0.6","0.4","0.2","0.8","","","","","0.09013225529","0.3169549043","0.3462276735","0.2330399618","","","","","","","","74","J","1","","","47","main_expt"
"","bandit","127","993311","0.0-88.0-0.0","10879596","wem/bandit_either_2","AWXIEV9H6KT9E","either","4","976","","","","","","","0","1","0","","0.3137179834","0.6","0.4","0.2","0.8","0.1066227192","0.3137179834","0.3501405617","0.2769685944","","","","","","","","","","","","74","J","1","","","48","main_expt"
"","bandit","128","995857","0.0-89.0-0.0","10879596","wem/bandit_either_2","AWXIEV9H6KT9E","either","4","595","","","","","","","0","0","1","0.3607669766","","0.6","0.4","0.2","0.8","","","","","0.1273062614","0.3026837323","0.3607669766","0.2954986192","","","","","","","","75","K","2","","","49","main_expt"
"","bandit","129","1032852","0.0-90.0-0.0","10879596","wem/bandit_either_2","AWXIEV9H6KT9E","either","4","35048","","","","","","","1","0","0","0.2730110453","","0.6","0.4","0.2","0.8","","","","","0.08158159543","0.2690248343","0.3776327681","0.2730110453","","","","","","","","76","L","3","","","50","main_expt"
"","bandit","130","1050121","0.0-91.0-0.0","10879596","wem/bandit_either_2","AWXIEV9H6KT9E","either","4","15669","","","","","","","0","0","1","","0.2407215714","0.6","0.4","0.2","0.8","0.08035098666","0.2407215714","0.3922012959","0.2672659715","","","","","","","","","","","","74","J","1","","","51","main_expt"
"","bandit","131","1055999","0.0-92.0-0.0","10879596","wem/bandit_either_2","AWXIEV9H6KT9E","either","4","4348","","","","","","","0","0","1","","0.2758158767","0.6","0.4","0.2","0.8","0.1007468434","0.2758158767","0.3532085343","0.2552972095","","","","","","","","","","","","74","J","1","","","52","main_expt"
"","bandit","132","1057916","0.0-93.0-0.0","10879596","wem/bandit_either_2","AWXIEV9H6KT9E","either","4","382","","","","","","","0","0","1","","0.3597378762","0.6","0.4","0.2","0.8","0.1479770317","0.2661511239","0.3597378762","0.1954439593","","","","","","","","","","","","75","K","2","","","53","main_expt"
"","bandit","133","1059767","0.0-94.0-0.0","10879596","wem/bandit_either_2","AWXIEV9H6KT9E","either","4","315","","","","","","","0","0","1","0.1250298759","","0.6","0.4","0.2","0.8","","","","","0.1450389045","0.250303373","0.3553644404","0.1250298759","","","","","","","","76","L","3","","","54","main_expt"
"","bandit","134","1061437","0.0-95.0-0.0","10879596","wem/bandit_either_2","AWXIEV9H6KT9E","either","4","136","","","","","","","0","0","1","","0.1850572083","0.6","0.4","0.2","0.8","0.1678096349","0.1850572083","0.3427354451","0.1224949652","","","","","","","","","","","","74","J","1","","","55","main_expt"
"","bandit","135","1063460","0.0-96.0-0.0","10879596","wem/bandit_either_2","AWXIEV9H6KT9E","either","4","484","","","","","","","0","0","1","","0.3158877586","0.6","0.4","0.2","0.8","0.1748395718","0.2410157884","0.3158877586","0.1312048923","","","","","","","","","","","","75","K","2","","","56","main_expt"
"","bandit","136","1065334","0.0-97.0-0.0","10879596","wem/bandit_either_2","AWXIEV9H6KT9E","either","4","345","","","","","","","0","0","1","0.14452077","","0.6","0.4","0.2","0.8","","","","","0.146986137","0.2657224069","0.3224611445","0.14452077","","","","","","","","76","L","3","","","57","main_expt"
"","bandit","137","1067317","0.0-98.0-0.0","10879596","wem/bandit_either_2","AWXIEV9H6KT9E","either","4","453","","","","","","","0","0","1","","0.3378672788","0.6","0.4","0.2","0.8","0.1316135006","0.2361308133","0.3378672788","0.1198415177","","","","","","","","","","","","75","K","2","","","58","main_expt"
"","bandit","138","1069274","0.0-99.0-0.0","10879596","wem/bandit_either_2","AWXIEV9H6KT9E","either","4","434","","","","","","","0","0","1","","0.3438075972","0.6","0.4","0.2","0.8","0.1776120447","0.2078360154","0.3438075972","0.1674914914","","","","","","","","","","","","75","K","2","","","59","main_expt"
"","bandit","139","1070829","0.0-100.0-0.0","10879596","wem/bandit_either_2","AWXIEV9H6KT9E","either","4","28","","","","","","","0","0","1","","0.2950987239","0.6","0.4","0.2","0.8","0.2034864675","0.2256957235","0.2950987239","0.147959707","","","","","","","","","","","","75","K","2","","","60","main_expt"
"","bandit","140","1072714","0.0-101.0-0.0","10879596","wem/bandit_either_2","AWXIEV9H6KT9E","either","4","346","","","","","","","0","0","1","","0.2713547376","0.6","0.4","0.2","0.8","0.1325668513","0.2713547376","0.2939622289","0.1217284172","","","","","","","","","","","","74","J","1","","","61","main_expt"
"","bandit","141","1074409","0.0-102.0-0.0","10879596","wem/bandit_either_2","AWXIEV9H6KT9E","either","4","166","","","","","","","0","0","1","0.2907096119","","0.6","0.4","0.2","0.8","","","","","0.125492747","0.2800078023","0.2907096119","0.1392905859","","","","","","","","75","K","2","","","62","main_expt"
"","bandit","142","1076311","0.0-103.0-0.0","10879596","wem/bandit_either_2","AWXIEV9H6KT9E","either","4","384","","","","","","","1","0","0","0.1953314019","","0.6","0.4","0.2","0.8","","","","","0.1081989139","0.362183352","0.2696382907","0.1953314019","","","","","","","","76","L","3","","","63","main_expt"
"","bandit","143","1078246","0.0-104.0-0.0","10879596","wem/bandit_either_2","AWXIEV9H6KT9E","either","4","398","","","","","","","0","0","1","0.3354395381","","0.6","0.4","0.2","0.8","","","","","0.09104284411","0.3354395381","0.2496415039","0.2618523415","","","","","","","","74","J","1","","","64","main_expt"
"","bandit","144","1080282","0.0-105.0-0.0","10879596","wem/bandit_either_2","AWXIEV9H6KT9E","either","4","498","","","","","","","0","0","1","0.2364994079","","0.6","0.4","0.2","0.8","","","","","0.1264903162","0.2893845237","0.2364994079","0.2686672798","","","","","","","","75","K","2","","","65","main_expt"
"","bandit","145","1084318","0.0-106.0-0.0","10879596","wem/bandit_either_2","AWXIEV9H6KT9E","either","4","2513","","","","","","","0","0","1","0.2451656397","","0.6","0.4","0.2","0.8","","","","","0.1665937301","0.2355717356","0.2541683514","0.2451656397","","","","","","","","76","L","3","","","66","main_expt"
"","bandit","146","1086530","0.0-107.0-0.0","10879596","wem/bandit_either_2","AWXIEV9H6KT9E","either","4","687","","","","","","","0","1","0","","0.2985471382","0.6","0.4","0.2","0.8","0.1740025863","0.2848755716","0.2985471382","0.2445320338","","","","","","","","","","","","75","K","2","","","67","main_expt"
"","bandit","147","1089995","0.0-108.0-0.0","10879596","wem/bandit_either_2","AWXIEV9H6KT9E","either","4","1930","","","","","","","0","1","0","","0.3391290389","0.6","0.4","0.2","0.8","0.2300011382","0.3341158043","0.3391290389","0.2261158315","","","","","","","","","","","","75","K","2","","","68","main_expt"
"","bandit","148","1093700","0.0-109.0-0.0","10879596","wem/bandit_either_2","AWXIEV9H6KT9E","either","4","2171","","","","","","","0","1","0","","0.3114764975","0.6","0.4","0.2","0.8","0.1768594062","0.3253412689","0.3114764975","0.1627286519","","","","","","","","","","","","75","K","2","","","69","main_expt"
"","bandit","149","1099850","0.0-110.0-0.0","10879596","wem/bandit_either_2","AWXIEV9H6KT9E","either","4","4610","","","","","","","0","0","1","0.1301009224","","0.6","0.4","0.2","0.8","","","","","0.1906145184","0.3280915152","0.3056328376","0.1301009224","","","","","","","","76","L","3","","","70","main_expt"
"","bandit","150","1102085","0.0-111.0-0.0","10879596","wem/bandit_either_2","AWXIEV9H6KT9E","either","4","696","","","","","","","0","0","1","0.3445325487","","0.6","0.4","0.2","0.8","","","","","0.1451664327","0.3772643828","0.3445325487","0.1356707761","","","","","","","","75","K","2","","","71","main_expt"
"","bandit","151","1104146","0.0-112.0-0.0","10879596","wem/bandit_either_2","AWXIEV9H6KT9E","either","4","534","","","","","","","0","0","1","","0.364612409","0.6","0.4","0.2","0.8","0.1091447996","0.4074174212","0.364612409","0.1045412551","","","","","","","","","","","","75","K","2","","","72","main_expt"
"","bandit","152","1106275","0.0-113.0-0.0","10879596","wem/bandit_either_2","AWXIEV9H6KT9E","either","4","597","","","","","","","1","0","0","0.3736299767","","0.6","0.4","0.2","0.8","","","","","0.1248737042","0.3736299767","0.4454774056","0.0867882282","","","","","","","","74","J","1","","","73","main_expt"
"","bandit","153","1108594","0.0-114.0-0.0","10879596","wem/bandit_either_2","AWXIEV9H6KT9E","either","4","781","","","","","","","0","0","1","","0.383211712","0.6","0.4","0.2","0.8","0.1073746888","0.383211712","0.4492830973","0.1018359722","","","","","","","","","","","","74","J","1","","","74","main_expt"
"","bandit","154","1110498","0.0-115.0-0.0","10879596","wem/bandit_either_2","AWXIEV9H6KT9E","either","4","377","","","","","","","0","1","0","","0.3681962321","0.6","0.4","0.2","0.8","0.1051395745","0.3681962321","0.449321966","0.09443707336","","","","","","","","","","","","74","J","1","","","75","main_expt"
"","bandit","155","1112943","0.0-116.0-0.0","10879596","wem/bandit_either_2","AWXIEV9H6KT9E","either","4","915","","","","","","","0","0","1","0.3574328021","","0.6","0.4","0.2","0.8","","","","","0.09171451076","0.3574328021","0.4299726132","0.08768691443","","","","","","","","74","J","1","","","76","main_expt"
"","bandit","156","1115034","0.0-117.0-0.0","10879596","wem/bandit_either_2","AWXIEV9H6KT9E","either","4","565","","","","","","","0","0","1","","0.4349340462","0.6","0.4","0.2","0.8","0.1256070833","0.4041720962","0.4349340462","0.07744448812","","","","","","","","","","","","75","K","2","","","77","main_expt"
"","bandit","157","1116561","0.0-118.0-0.0","10879596","wem/bandit_either_2","AWXIEV9H6KT9E","either","4","1","","","","","","","0","0","1","0.05712631425","","0.6","0.4","0.2","0.8","","","","","0.1398604905","0.4000946746","0.4112950215","0.05712631425","","","","","","","","76","L","3","","","78","main_expt"
"","bandit","158","1118488","0.0-119.0-0.0","10879596","wem/bandit_either_2","AWXIEV9H6KT9E","either","4","388","","","","","","","0","0","1","","0.4123046053","0.6","0.4","0.2","0.8","0.1303191282","0.425248604","0.4123046053","0.03981704588","","","","","","","","","","","","75","K","2","","","79","main_expt"
"","bandit","159","1120265","0.0-120.0-0.0","10879596","wem/bandit_either_2","AWXIEV9H6KT9E","either","4","255","","","","","","","0","0","1","0.4345430878","","0.6","0.4","0.2","0.8","","","","","0.1491340647","0.4263383456","0.4345430878","0.02961196177","","","","","","","","75","K","2","","","80","main_expt"
"","bandit","160","1122333","0.0-121.0-0.0","10879596","wem/bandit_either_2","AWXIEV9H6KT9E","either","4","533","","","","","","","0","1","0","","0.4255274095","0.6","0.4","0.2","0.8","0.1484119081","0.4377411966","0.4255274095","0.0408206899","","","","","","","","","","","","75","K","2","","","81","main_expt"
"","bandit","161","1125315","0.0-122.0-0.0","10879596","wem/bandit_either_2","AWXIEV9H6KT9E","either","4","1452","","","","","","","0","0","1","0.03491361241","","0.6","0.4","0.2","0.8","","","","","0.135460029","0.4263216968","0.4266934287","0.03491361241","","","","","","","","76","L","3","","","82","main_expt"
"","bandit","162","1126966","0.0-123.0-0.0","10879596","wem/bandit_either_2","AWXIEV9H6KT9E","either","4","67","","","","","","","0","0","1","","0.4321646522","0.6","0.4","0.2","0.8","0.09497461961","0.4536492548","0.4321646522","0.01881925386","","","","","","","","","","","","75","K","2","","","83","main_expt"
"","bandit","163","1134431","0.0-124.0-0.0","10879596","wem/bandit_either_2","AWXIEV9H6KT9E","either","4","5939","","","","","","","0","0","1","0.0956585677","","0.6","0.4","0.2","0.8","","","","","0.0956585677","0.4344769981","0.43129245","0.03441768066","","","","","","","","72","H","0","img/none_selected.jpg","","84","main_expt"
"","bandit","164","1136081","0.0-125.0-0.0","10879596","wem/bandit_either_2","AWXIEV9H6KT9E","either","4","121","","","","","","","0","0","1","0.4167097255","","0.6","0.4","0.2","0.8","","","","","0.08427930603","0.4167097255","0.4307495417","0.04015732792","","","","","","","","74","J","1","","","85","main_expt"
"","bandit","165","1137990","0.0-126.0-0.0","10879596","wem/bandit_either_2","AWXIEV9H6KT9E","either","4","380","","","","","","","0","0","1","0.4327415212","","0.6","0.4","0.2","0.8","","","","","0.09540141202","0.4215971904","0.4327415212","0.0462821445","","","","","","","","75","K","2","","","86","main_expt"
"","bandit","166","1139807","0.0-127.0-0.0","10879596","wem/bandit_either_2","AWXIEV9H6KT9E","either","4","286","","","","","","","0","0","1","0.07236867375","","0.6","0.4","0.2","0.8","","","","","0.06504543429","0.3962725568","0.4507305815","0.07236867375","","","","","","","","76","L","3","","","87","main_expt"
"","bandit","167","1141400","0.0-128.0-0.0","10879596","wem/bandit_either_2","AWXIEV9H6KT9E","either","4","60","","","","","","","0","0","1","0.4571393315","","0.6","0.4","0.2","0.8","","","","","0.05894337134","0.4038430626","0.4571393315","0.1132918069","","","","","","","","75","K","2","","","88","main_expt"
"","bandit","168","1143148","0.0-129.0-0.0","10879596","wem/bandit_either_2","AWXIEV9H6KT9E","either","4","223","","","","","","","0","0","1","","0.4247877058","0.6","0.4","0.2","0.8","0.06803635399","0.4247877058","0.4639779763","0.1466354559","","","","","","","","","","","","74","J","1","","","89","main_expt"
"","bandit","169","1144803","0.0-130.0-0.0","10879596","wem/bandit_either_2","AWXIEV9H6KT9E","either","4","131","","","","","","","0","0","1","","0.4620017245","0.6","0.4","0.2","0.8","0.09657856289","0.4196700557","0.4620017245","0.1746819083","","","","","","","","","","","","75","K","2","","","90","main_expt"
"","bandit","170","1146538","0.0-131.0-0.0","10879596","wem/bandit_either_2","AWXIEV9H6KT9E","either","4","205","","","","","","","0","0","1","0.1864657318","","0.6","0.4","0.2","0.8","","","","","0.08522031428","0.401758082","0.4492963398","0.1864657318","","","","","","","","76","L","3","","","91","main_expt"
"","bandit","171","1148080","0.0-132.0-0.0","10879596","wem/bandit_either_2","AWXIEV9H6KT9E","either","4","16","","","","","","","0","0","1","0.3422099147","","0.6","0.4","0.2","0.8","","","","","0.07078380504","0.3422099147","0.462009279","0.2124622091","","","","","","","","74","J","1","","","92","main_expt"
"","bandit","172","1149717","0.0-133.0-0.0","10879596","wem/bandit_either_2","AWXIEV9H6KT9E","either","4","99","","","","","","","0","0","1","","0.4363090379","0.6","0.4","0.2","0.8","0.0564278809","0.3279059742","0.4363090379","0.245786276","","","","","","","","","","","","75","K","2","","","93","main_expt"
"","bandit","173","1151533","0.0-134.0-0.0","10879596","wem/bandit_either_2","AWXIEV9H6KT9E","either","4","301","","","","","","","0","0","1","","0.3155724737","0.6","0.4","0.2","0.8","0.06067733924","0.3155724737","0.4457519602","0.2316759231","","","","","","","","","","","","74","J","1","","","94","main_expt"
"","bandit","174","1153104","0.0-135.0-0.0","10879596","wem/bandit_either_2","AWXIEV9H6KT9E","either","4","42","","","","","","","0","0","1","","0.4231248902","0.6","0.4","0.2","0.8","0.08632751489","0.3519625041","0.4231248902","0.2231756969","","","","","","","","","","","","75","K","2","","","95","main_expt"
"","bandit","175","1154918","0.0-136.0-0.0","10879596","wem/bandit_either_2","AWXIEV9H6KT9E","either","4","280","","","","","","","0","0","1","0.1957128212","","0.6","0.4","0.2","0.8","","","","","0.08481729553","0.3661455107","0.4210676831","0.1957128212","","","","","","","","76","L","3","","","96","main_expt"
"","bandit","176","1156633","0.0-137.0-0.0","10879596","wem/bandit_either_2","AWXIEV9H6KT9E","either","4","183","","","","","","","0","0","1","","0.3558031673","0.6","0.4","0.2","0.8","0.08386440452","0.3558031673","0.4022895305","0.1638116915","","","","","","","","","","","","74","J","1","","","97","main_expt"
"","bandit","177","1158305","0.0-138.0-0.0","10879596","wem/bandit_either_2","AWXIEV9H6KT9E","either","4","138","","","","","","","0","0","1","0.4187351015","","0.6","0.4","0.2","0.8","","","","","0.0940701929","0.3558230887","0.4187351015","0.1405816365","","","","","","","","75","K","2","","","98","main_expt"
"","bandit","178","1160138","0.0-139.0-0.0","10879596","wem/bandit_either_2","AWXIEV9H6KT9E","either","4","303","","","","","","","0","0","1","","0.3981340028","0.6","0.4","0.2","0.8","0.1285058524","0.3064708089","0.3981340028","0.1435678602","","","","","","","","","","","","75","K","2","","","99","main_expt"
"","bandit","179","1161794","0.0-140.0-0.0","10879596","wem/bandit_either_2","AWXIEV9H6KT9E","either","4","129","","","","","","","0","1","0","","0.352498313","0.6","0.4","0.2","0.8","0.065882019","0.352498313","0.3520446815","0.1478754355","","","","","","","","","","","","74","J","1","","","100","main_expt"
"","bandit","180","1163903","0.0-141.0-0.0","10879596","wem/bandit_either_2","AWXIEV9H6KT9E","either","4","569","","","","","","","0","0","1","","0.1532559328","0.6","0.4","0.2","0.8","0.05692140794","0.3511810171","0.3715523215","0.1532559328","","","","","","","","","","","","76","L","3","","","101","main_expt"
"","bandit","181","1166033","0.0-142.0-0.0","10879596","wem/bandit_either_2","AWXIEV9H6KT9E","either","4","580","","","","","","","0","0","1","","0.3246867477","0.6","0.4","0.2","0.8","0.04322280369","0.3246867477","0.3966955113","0.15857411","","","","","","","","","","","","74","J","1","","","102","main_expt"
"","bandit","182","1168002","0.0-143.0-0.0","10879596","wem/bandit_either_2","AWXIEV9H6KT9E","either","4","432","","","","","","","1","0","0","0.2827689756","","0.6","0.4","0.2","0.8","","","","","0.05121437093","0.2827689756","0.3865714765","0.1552377357","","","","","","","","74","J","1","","","103","main_expt"
"","bandit","183","1170571","0.0-144.0-0.0","10879596","wem/bandit_either_2","AWXIEV9H6KT9E","either","4","1044","","","","","","","0","0","1","","0.3440646931","0.6","0.4","0.2","0.8","0.06548077564","0.3307995119","0.3440646931","0.1584193753","","","","","","","","","","","","75","K","2","","","104","main_expt"
"","bandit","184","1173070","0.0-145.0-0.0","10879596","wem/bandit_either_2","AWXIEV9H6KT9E","either","4","965","","","","","","","0","1","0","","0.330981063","0.6","0.4","0.2","0.8","0.07577357845","0.3078297571","0.330981063","0.192058402","","","","","","","","","","","","75","K","2","","","105","main_expt"
"","bandit","185","1179091","0.0-146.0-0.0","10879596","wem/bandit_either_2","AWXIEV9H6KT9E","either","4","4483","","","","","","","0","1","0","","0.3202685942","0.6","0.4","0.2","0.8","0.09041352565","0.3202685942","0.3317280627","0.1562344916","","","","","","","","","","","","74","J","1","","","106","main_expt"
"","bandit","186","1180708","0.0-147.0-0.0","10879596","wem/bandit_either_2","AWXIEV9H6KT9E","either","4","92","","","","","","","0","1","0","","0.2760665195","0.6","0.4","0.2","0.8","0.1184921167","0.3163418234","0.2760665195","0.1493116313","","","","","","","","","","","","75","K","2","","","107","main_expt"
"","bandit","187","1182711","0.0-148.0-0.0","10879596","wem/bandit_either_2","AWXIEV9H6KT9E","either","4","476","","","","","","","0","0","1","0.1357435498","","0.6","0.4","0.2","0.8","","","","","0.1057615429","0.3425943818","0.2826301941","0.1357435498","","","","","","","","76","L","3","","","108","main_expt"
"","bandit","188","1184410","0.0-149.0-0.0","10879596","wem/bandit_either_2","AWXIEV9H6KT9E","either","4","176","","","","","","","0","0","1","0.1164074326","","0.6","0.4","0.2","0.8","","","","","0.1464484126","0.2852030557","0.318117281","0.1164074326","","","","","","","","76","L","3","","","109","main_expt"
"","bandit","189","1201647","0.0-150.0-0.0","10879596","wem/bandit_either_2","AWXIEV9H6KT9E","either","4","15723","","","","","","","1","0","0","0.3392406975","","0.6","0.4","0.2","0.8","","","","","0.1641354829","0.3392406975","0.3358587519","0.1444451916","","","","","","","","74","J","1","","","110","main_expt"
"","bandit","190","1203448","0.0-151.0-0.0","10879596","wem/bandit_either_2","AWXIEV9H6KT9E","either","4","280","","","","","","","0","0","1","","0.3031660534","0.6","0.4","0.2","0.8","0.1386891192","0.3023411017","0.3031660534","0.09905323685","","","","","","","","","","","","75","K","2","","","111","main_expt"
"","bandit","191","1205248","0.0-152.0-0.0","10879596","wem/bandit_either_2","AWXIEV9H6KT9E","either","4","285","","","","","","","0","0","1","0.09652445584","","0.6","0.4","0.2","0.8","","","","","0.1847512065","0.296849772","0.2773548355","0.09652445584","","","","","","","","76","L","3","","","112","main_expt"
"","bandit","192","1206768","0.0-153.0-0.0","10879596","wem/bandit_either_2","AWXIEV9H6KT9E","either","4","1","","","","","","","0","0","1","0.2673419259","","0.6","0.4","0.2","0.8","","","","","0.1304555333","0.2673419259","0.2370758425","0.09961189632","","","","","","","","74","J","1","","","113","main_expt"
"","bandit","193","1208773","0.0-154.0-0.0","10879596","wem/bandit_either_2","AWXIEV9H6KT9E","either","4","492","","","","","","","0","0","1","","0.1821928837","0.6","0.4","0.2","0.8","0.1770102637","0.2670531803","0.1821928837","0.1036139638","","","","","","","","","","","","75","K","2","","","114","main_expt"
"","bandit","194","1211145","0.0-155.0-0.0","10879596","wem/bandit_either_2","AWXIEV9H6KT9E","either","4","856","","","","","","","0","0","1","0.0968506792","","0.6","0.4","0.2","0.8","","","","","0.1564651975","0.2825009356","0.1315453283","0.0968506792","","","","","","","","76","L","3","","","115","main_expt"
"","bandit","195","1213495","0.0-156.0-0.0","10879596","wem/bandit_either_2","AWXIEV9H6KT9E","either","4","834","","","","","","","0","0","1","0.3237719372","","0.6","0.4","0.2","0.8","","","","","0.1665702367","0.3237719372","0.1102777544","0.08782875681","","","","","","","","74","J","1","","","116","main_expt"
"","bandit","196","1215869","0.0-157.0-0.0","10879596","wem/bandit_either_2","AWXIEV9H6KT9E","either","4","845","","","","","","","0","0","1","","0.1101610351","0.6","0.4","0.2","0.8","0.1530687496","0.3154846423","0.1101610351","0.06031800864","","","","","","","","","","","","75","K","2","","","117","main_expt"
"","bandit","197","1217878","0.0-158.0-0.0","10879596","wem/bandit_either_2","AWXIEV9H6KT9E","either","4","491","","","","","","","0","1","0","","0.122460482","0.6","0.4","0.2","0.8","0.1674206906","0.2584508078","0.122460482","0.05633053331","","","","","","","","","","","","75","K","2","","","118","main_expt"
"","bandit","198","1220100","0.0-159.0-0.0","10879596","wem/bandit_either_2","AWXIEV9H6KT9E","either","4","689","","","","","","","0","0","1","","0.1451868924","0.6","0.4","0.2","0.8","0.1990215448","0.2141905193","0.1451868924","0.07530514027","","","","","","","","","","","","75","K","2","","","119","main_expt"
"","bandit","199","1244876","0.0-160.0-0.0","10879596","wem/bandit_either_2","AWXIEV9H6KT9E","either","4","23246","","","","","","","0","0","1","0.2341954374","","0.6","0.4","0.2","0.8","","","","","0.2208640619","0.2341954374","0.09092593383","0.09639595661","","","","","","","","74","J","1","","","120","main_expt"
"","bandit","200","1246466","0.0-161.0-0.0","10879596","wem/bandit_either_2","AWXIEV9H6KT9E","either","4","49","","","","","","","0","0","1","","0.1080456108","0.6","0.4","0.2","0.8","0.2602917539","0.1886372651","0.1080456108","0.1421799471","","","","","","","","","","","","75","K","2","","","121","main_expt"
"","bandit","201","1248643","0.0-162.0-0.0","10879596","wem/bandit_either_2","AWXIEV9H6KT9E","either","4","639","","","","","","","0","0","1","","0.2512498235","0.6","0.4","0.2","0.8","0.2512498235","0.1597592322","0.1169053248","0.1624760489","","","","","","","","","","","","72","H","0","img/none_selected.jpg","","122","main_expt"
"","bandit","202","1250992","0.0-163.0-0.0","10879596","wem/bandit_either_2","AWXIEV9H6KT9E","either","4","813","","","","","","","0","1","0","","0.1571594809","0.6","0.4","0.2","0.8","0.2266242761","0.1895266442","0.1571594809","0.1640214383","","","","","","","","","","","","75","K","2","","","123","main_expt"
"","bandit","203","1253454","0.0-164.0-0.0","10879596","wem/bandit_either_2","AWXIEV9H6KT9E","either","4","920","","","","","","","0","0","1","0.2014340991","","0.6","0.4","0.2","0.8","","","","","0.2373824638","0.2042850732","0.2231804049","0.2014340991","","","","","","","","76","L","3","","","124","main_expt"
"","bandit","204","1255785","0.0-165.0-0.0","10879596","wem/bandit_either_2","AWXIEV9H6KT9E","either","4","793","","","","","","","1","0","0","0.2538727107","","0.6","0.4","0.2","0.8","","","","","0.2538727107","0.1812515389","0.2232794356","0.2229229076","","","","","","","","72","H","0","img/none_selected.jpg","","125","main_expt"
"","bandit","205","1258548","0.0-166.0-0.0","10879596","wem/bandit_either_2","AWXIEV9H6KT9E","either","4","1228","","","","","","","0","0","1","0.1694736183","","0.6","0.4","0.2","0.8","","","","","0.290219491","0.1694736183","0.2316903634","0.2324712723","","","","","","","","74","J","1","","","126","main_expt"
"","bandit","206","1260668","0.0-167.0-0.0","10879596","wem/bandit_either_2","AWXIEV9H6KT9E","either","4","584","","","","","","","0","0","1","","0.2337524142","0.6","0.4","0.2","0.8","0.2542505169","0.1624528765","0.2337524142","0.2628391623","","","","","","","","","","","","75","K","2","","","127","main_expt"
"","bandit","207","1262839","0.0-168.0-0.0","10879596","wem/bandit_either_2","AWXIEV9H6KT9E","either","4","629","","","","","","","0","0","1","0.1632982916","","0.6","0.4","0.2","0.8","","","","","0.2582316027","0.1632982916","0.2198210178","0.2654356302","","","","","","","","74","J","1","","","128","main_expt"
"","bandit","208","1264661","0.0-169.0-0.0","10879596","wem/bandit_either_2","AWXIEV9H6KT9E","either","4","285","","","","","","","0","0","1","0.3267566011","","0.6","0.4","0.2","0.8","","","","","0.3267566011","0.2264598068","0.2280168395","0.2070569149","","","","","","","","72","H","0","img/none_selected.jpg","","129","main_expt"
"","bandit","209","1266527","0.0-170.0-0.0","10879596","wem/bandit_either_2","AWXIEV9H6KT9E","either","4","336","","","","","","","0","0","1","0.2579182239","","0.6","0.4","0.2","0.8","","","","","0.3323271388","0.202760285","0.243895296","0.2579182239","","","","","","","","76","L","3","","","130","main_expt"
"","bandit","210","1268351","0.0-171.0-0.0","10879596","wem/bandit_either_2","AWXIEV9H6KT9E","either","4","293","","","","","","","0","0","1","","0.2164454501","0.6","0.4","0.2","0.8","0.2666668646","0.1585094705","0.2164454501","0.2329110821","","","","","","","","","","","","75","K","2","","","131","main_expt"
"","bandit","211","1270033","0.0-172.0-0.0","10879596","wem/bandit_either_2","AWXIEV9H6KT9E","either","4","156","","","","","","","0","0","1","","0.1304261544","0.6","0.4","0.2","0.8","0.2359119393","0.1304261544","0.200468731","0.2400232435","","","","","","","","","","","","74","J","1","","","132","main_expt"
"","bandit","212","1271855","0.0-173.0-0.0","10879596","wem/bandit_either_2","AWXIEV9H6KT9E","either","4","304","","","","","","","0","0","1","","0.2038597077","0.6","0.4","0.2","0.8","0.2540740643","0.09339990826","0.2038597077","0.2084798617","","","","","","","","","","","","75","K","2","","","133","main_expt"
"","bandit","213","1273696","0.0-174.0-0.0","10879596","wem/bandit_either_2","AWXIEV9H6KT9E","either","4","308","","","","","","","0","0","1","0.08524612959","","0.6","0.4","0.2","0.8","","","","","0.2414927735","0.08524612959","0.2263269307","0.2034544","","","","","","","","74","J","1","","","134","main_expt"
"","bandit","214","1275699","0.0-175.0-0.0","10879596","wem/bandit_either_2","AWXIEV9H6KT9E","either","4","476","","","","","","","0","0","1","","0.0622033461","0.6","0.4","0.2","0.8","0.2632369982","0.0622033461","0.2686469146","0.2088958693","","","","","","","","","","","","74","J","1","","","135","main_expt"
"","bandit","215","1277251","0.0-176.0-0.0","10879596","wem/bandit_either_2","AWXIEV9H6KT9E","either","4","39","","","","","","","0","0","1","","0.2573758916","0.6","0.4","0.2","0.8","0.3032623762","0.05632890875","0.3170393738","0.2573758916","","","","","","","","","","","","76","L","3","","","136","main_expt"
"","bandit","216","1278808","0.0-177.0-0.0","10879596","wem/bandit_either_2","AWXIEV9H6KT9E","either","4","32","","","","","","","0","1","0","","0.338962466","0.6","0.4","0.2","0.8","0.2984046037","0.06052980877","0.338962466","0.2467438462","","","","","","","","","","","","75","K","2","","","137","main_expt"
"","bandit","217","1280812","0.0-178.0-0.0","10879596","wem/bandit_either_2","AWXIEV9H6KT9E","either","4","476","","","","","","","0","0","1","","0.1038497792","0.6","0.4","0.2","0.8","0.3110629865","0.1038497792","0.3586643031","0.2221944767","","","","","","","","","","","","74","J","1","","","138","main_expt"
"","bandit","218","1282955","0.0-179.0-0.0","10879596","wem/bandit_either_2","AWXIEV9H6KT9E","either","4","598","","","","","","","1","0","0","0.3430902759","","0.6","0.4","0.2","0.8","","","","","0.3048373826","0.08561062373","0.3430902759","0.2750517365","","","","","","","","75","K","2","","","139","main_expt"
"","bandit","219","1284988","0.0-180.0-0.0","10879596","wem/bandit_either_2","AWXIEV9H6KT9E","either","4","508","","","","","","","0","0","1","","0.08025295029","0.6","0.4","0.2","0.8","0.3163642845","0.08025295029","0.3777112835","0.277474309","","","","","","","","","","","","74","J","1","","","140","main_expt"
"","bandit","220","1286542","0.0-181.0-0.0","10879596","wem/bandit_either_2","AWXIEV9H6KT9E","either","4","30","","","","","","","0","0","1","","0.4276051364","0.6","0.4","0.2","0.8","0.2213861514","0.09309891757","0.4276051364","0.2932007391","","","","","","","","","","","","75","K","2","","","141","main_expt"
"","bandit","221","1288267","0.0-182.0-0.0","10879596","wem/bandit_either_2","AWXIEV9H6KT9E","either","4","190","","","","","","","0","0","1","0.1107976638","","0.6","0.4","0.2","0.8","","","","","0.2492613222","0.1107976638","0.4312347149","0.3001807938","","","","","","","","74","J","1","","","142","main_expt"
"","bandit","222","1290551","0.0-183.0-0.0","10879596","wem/bandit_either_2","AWXIEV9H6KT9E","either","4","746","","","","","","","0","0","1","","0.09575525052","0.6","0.4","0.2","0.8","0.2645663874","0.09575525052","0.386657586","0.3640878437","","","","","","","","","","","","74","J","1","","","143","main_expt"
"","bandit","223","1292610","0.0-184.0-0.0","10879596","wem/bandit_either_2","AWXIEV9H6KT9E","either","4","525","","","","","","","0","0","1","","0.07222794989","0.6","0.4","0.2","0.8","0.2928215939","0.07222794989","0.3409851627","0.2706796495","","","","","","","","","","","","74","J","1","","","144","main_expt"
"","bandit","224","1294933","0.0-185.0-0.0","10879596","wem/bandit_either_2","AWXIEV9H6KT9E","either","4","793","","","","","","","0","0","1","","0.3538709708","0.6","0.4","0.2","0.8","0.3178979655","0.03203798906","0.3538709708","0.2359726437","","","","","","","","","","","","75","K","2","","","145","main_expt"
"","bandit","225","1297295","0.0-186.0-0.0","10879596","wem/bandit_either_2","AWXIEV9H6KT9E","either","4","840","","","","","","","0","1","0","","0.2745956728","0.6","0.4","0.2","0.8","0.2850957273","0.03073079809","0.2745956728","0.2200332621","","","","","","","","","","","","75","K","2","","","146","main_expt"
"","bandit","226","1299510","0.0-187.0-0.0","10879596","wem/bandit_either_2","AWXIEV9H6KT9E","either","4","671","","","","","","","0","0","1","","0.1957794229","0.6","0.4","0.2","0.8","0.2483519338","0.05105424151","0.2375793476","0.1957794229","","","","","","","","","","","","76","L","3","","","147","main_expt"
"","bandit","227","1301518","0.0-188.0-0.0","10879596","wem/bandit_either_2","AWXIEV9H6KT9E","either","4","472","","","","","","","0","0","1","","0.2954602587","0.6","0.4","0.2","0.8","0.2309770791","0.04045355104","0.2954602587","0.1790722045","","","","","","","","","","","","75","K","2","","","148","main_expt"
"","bandit","228","1303679","0.0-189.0-0.0","10879596","wem/bandit_either_2","AWXIEV9H6KT9E","either","4","623","","","","","","","0","0","1","","0.3435099865","0.6","0.4","0.2","0.8","0.1759049641","0.06416506337","0.3435099865","0.2189150546","","","","","","","","","","","","75","K","2","","","149","main_expt"
"","bandit","229","1305352","0.0-190.0-0.0","10879596","wem/bandit_either_2","AWXIEV9H6KT9E","either","4","135","","","","","","","0","0","1","","0.07819388902","0.6","0.4","0.2","0.8","0.1910702346","0.07819388902","0.268900415","0.2119229637","","","","","","","","","","","","74","J","1","","","150","main_expt"
"","bandit","230","1306897","0.0-191.0-0.0","10879596","wem/bandit_either_2","AWXIEV9H6KT9E","either","4","2","","","","","","","0","0","1","0.2326488896","","0.6","0.4","0.2","0.8","","","","","0.1799178466","0.1186979887","0.2326488896","0.2472398003","","","","","","","","75","K","2","","","151","main_expt"
"","bandit","231","1308877","0.0-192.0-0.0","10879596","wem/bandit_either_2","AWXIEV9H6KT9E","either","4","437","","","","","","","0","0","1","","0.1084773402","0.6","0.4","0.2","0.8","0.1826140084","0.1084773402","0.2768057641","0.2148428051","","","","","","","","","","","","74","J","1","","","152","main_expt"
"","bandit","232","1310547","0.0-193.0-0.0","10879596","wem/bandit_either_2","AWXIEV9H6KT9E","either","4","131","","","","","","","0","1","0","","0.2997660112","0.6","0.4","0.2","0.8","0.147924298","0.1314289417","0.2997660112","0.1598057249","","","","","","","","","","","","75","K","2","","","153","main_expt"
"","bandit","233","1314306","0.0-194.0-0.0","10879596","wem/bandit_either_2","AWXIEV9H6KT9E","either","4","2237","","","","","","","0","0","1","","0.1354051011","0.6","0.4","0.2","0.8","0.1388357139","0.1354051011","0.3196464983","0.1489099923","","","","","","","","","","","","74","J","1","","","154","main_expt"
"","bandit","234","1316021","0.0-195.0-0.0","10879596","wem/bandit_either_2","AWXIEV9H6KT9E","either","4","164","","","","","","","0","0","1","","0.3141654429","0.6","0.4","0.2","0.8","0.1658398244","0.1085215933","0.3141654429","0.1502541116","","","","","","","","","","","","75","K","2","","","155","main_expt"
"","bandit","235","1317606","0.0-196.0-0.0","10879596","wem/bandit_either_2","AWXIEV9H6KT9E","either","4","48","","","","","","","0","0","1","0.1605084188","","0.6","0.4","0.2","0.8","","","","","0.1104921729","0.1383379057","0.2667217688","0.1605084188","","","","","","","","76","L","3","","","156","main_expt"
"","bandit","236","1319586","0.0-197.0-0.0","10879596","wem/bandit_either_2","AWXIEV9H6KT9E","either","4","448","","","","","","","0","0","1","0.2867075714","","0.6","0.4","0.2","0.8","","","","","0.09530810267","0.1428990181","0.2867075714","0.1684101418","","","","","","","","75","K","2","","","157","main_expt"
"","bandit","237","1321481","0.0-198.0-0.0","10879596","wem/bandit_either_2","AWXIEV9H6KT9E","either","4","354","","","","","","","0","0","1","","0.07455979893","0.6","0.4","0.2","0.8","0.1211627972","0.07455979893","0.2788639118","0.1807688322","","","","","","","","","","","","74","J","1","","","158","main_expt"
"","bandit","238","1323139","0.0-199.0-0.0","10879596","wem/bandit_either_2","AWXIEV9H6KT9E","either","4","119","","","","","","","0","0","1","","0.3020710819","0.6","0.4","0.2","0.8","0.1012897464","0.1009372764","0.3020710819","0.1516426412","","","","","","","","","","","","75","K","2","","","159","main_expt"
"","bandit","239","1325092","0.0-200.0-0.0","10879596","wem/bandit_either_2","AWXIEV9H6KT9E","either","4","408","","","","","","","0","0","1","","0.05118862797","0.6","0.4","0.2","0.8","0.1188035868","0.05118862797","0.3404227007","0.1638698877","","","","","","","","","","","","74","J","1","","","160","main_expt"
"","bandit","240","1327357","0.0-201.0-0.0","10879596","wem/bandit_either_2","AWXIEV9H6KT9E","either","4","727","","","","","","","0","0","1","","0.05265847637","0.6","0.4","0.2","0.8","0.1606836622","0.05265847637","0.2876249865","0.1645359983","","","","","","","","","","","","74","J","1","","","161","main_expt"
"","bandit","241","1328978","0.0-202.0-0.0","10879596","wem/bandit_either_2","AWXIEV9H6KT9E","either","4","83","","","","","","","0","0","1","","0.2401308511","0.6","0.4","0.2","0.8","0.1859884171","0.07938684611","0.2401308511","0.2509918509","","","","","","","","","","","","75","K","2","","","162","main_expt"
"","bandit","242","1330849","0.0-203.0-0.0","10879596","wem/bandit_either_2","AWXIEV9H6KT9E","either","4","346","","","","","","","0","0","1","","0.0970900163","0.6","0.4","0.2","0.8","0.2528258464","0.0970900163","0.2486605046","0.1883685458","","","","","","","","","","","","74","J","1","","","163","main_expt"
"","bandit","243","1333121","0.0-204.0-0.0","10879596","wem/bandit_either_2","AWXIEV9H6KT9E","either","4","738","","","","","","","0","0","1","","0.22675384","0.6","0.4","0.2","0.8","0.2515292425","0.07401968201","0.22675384","0.2179532334","","","","","","","","","","","","75","K","2","","","164","main_expt"
"","bandit","244","1335059","0.0-205.0-0.0","10879596","wem/bandit_either_2","AWXIEV9H6KT9E","either","4","413","","","","","","","0","0","1","","0.06633104104","0.6","0.4","0.2","0.8","0.2068970429","0.06633104104","0.2841151948","0.2143704678","","","","","","","","","","","","74","J","1","","","165","main_expt"
"","bandit","245","1337193","0.0-206.0-0.0","10879596","wem/bandit_either_2","AWXIEV9H6KT9E","either","4","590","","","","","","","0","0","1","","0.2842980464","0.6","0.4","0.2","0.8","0.1413778631","0.05309652092","0.2842980464","0.2175899085","","","","","","","","","","","","75","K","2","","","166","main_expt"
"","bandit","246","1339668","0.0-207.0-0.0","10879596","wem/bandit_either_2","AWXIEV9H6KT9E","either","4","943","","","","","","","1","0","0","0.3007590714","","0.6","0.4","0.2","0.8","","","","","0.1999497975","0.07357446968","0.3007590714","0.2137120923","","","","","","","","75","K","2","","","167","main_expt"
"","bandit","247","1341640","0.0-208.0-0.0","10879596","wem/bandit_either_2","AWXIEV9H6KT9E","either","4","436","","","","","","","0","0","1","","0.2884936601","0.6","0.4","0.2","0.8","0.1696145944","0.1054325378","0.2884936601","0.2331560811","","","","","","","","","","","","75","K","2","","","168","main_expt"
"","bandit","248","1343947","0.0-209.0-0.0","10879596","wem/bandit_either_2","AWXIEV9H6KT9E","either","4","773","","","","","","","0","0","1","","0.2803439438","0.6","0.4","0.2","0.8","0.1338518967","0.08536867429","0.2803439438","0.2367963754","","","","","","","","","","","","75","K","2","","","169","main_expt"
"","bandit","249","1345768","0.0-210.0-0.0","10879596","wem/bandit_either_2","AWXIEV9H6KT9E","either","4","289","","","","","","","0","0","1","","0.3010437192","0.6","0.4","0.2","0.8","0.1307598277","0.1083432756","0.3010437192","0.2378050175","","","","","","","","","","","","75","K","2","","","170","main_expt"
"","bandit","250","1347352","0.0-211.0-0.0","10879596","wem/bandit_either_2","AWXIEV9H6KT9E","either","4","48","","","","","","","0","0","1","0.3243802095","","0.6","0.4","0.2","0.8","","","","","0.1200375331","0.09185370626","0.3243802095","0.2253696972","","","","","","","","75","K","2","","","171","main_expt"
"","bandit","251","1349271","0.0-212.0-0.0","10879596","wem/bandit_either_2","AWXIEV9H6KT9E","either","4","386","","","","","","","0","1","0","","0.3140094691","0.6","0.4","0.2","0.8","0.07514546963","0.09458096772","0.3140094691","0.2903394368","","","","","","","","","","","","75","K","2","","","172","main_expt"
"","bandit","252","1355472","0.0-213.0-0.0","10879596","wem/bandit_either_2","AWXIEV9H6KT9E","either","4","4673","","","","","","","0","1","0","","0.1016296913","0.6","0.4","0.2","0.8","0.07704486673","0.1016296913","0.2433770114","0.2384828248","","","","","","","","","","","","74","J","1","","","173","main_expt"
"","bandit","253","1358681","0.0-214.0-0.0","10879596","wem/bandit_either_2","AWXIEV9H6KT9E","either","4","1673","","","","","","","0","0","1","","0.2080779891","0.6","0.4","0.2","0.8","0.04061738922","0.117107939","0.2080779891","0.2823111034","","","","","","","","","","","","75","K","2","","","174","main_expt"
"","bandit","254","1362085","0.0-215.0-0.0","10879596","wem/bandit_either_2","AWXIEV9H6KT9E","either","4","1860","","","","","","","0","0","1","","0.1254773658","0.6","0.4","0.2","0.8","0.02968316822","0.1254773658","0.2211365803","0.292147578","","","","","","","","","","","","74","J","1","","","175","main_expt"
"","bandit","255","1364088","0.0-216.0-0.0","10879596","wem/bandit_either_2","AWXIEV9H6KT9E","either","4","465","","","","","","","0","0","1","","0.231280906","0.6","0.4","0.2","0.8","0.04419366322","0.1518856622","0.231280906","0.2928295457","","","","","","","","","","","","75","K","2","","","176","main_expt"
"","bandit","256","1365968","0.0-217.0-0.0","10879596","wem/bandit_either_2","AWXIEV9H6KT9E","either","4","353","","","","","","","1","0","0","0.297241693","","0.6","0.4","0.2","0.8","","","","","0.04140429262","0.1502483312","0.1689881391","0.297241693","","","","","","","","76","L","3","","","177","main_expt"
"","bandit","257","1367491","0.0-218.0-0.0","10879596","wem/bandit_either_2","AWXIEV9H6KT9E","either","4","0","","","","","","","0","0","1","","0.2073149786","0.6","0.4","0.2","0.8","0.06103489621","0.2073149786","0.1699404395","0.276241128","","","","","","","","","","","","74","J","1","","","178","main_expt"
"","bandit","258","1369321","0.0-219.0-0.0","10879596","wem/bandit_either_2","AWXIEV9H6KT9E","either","4","300","","","","","","","0","0","1","","0.1571972967","0.6","0.4","0.2","0.8","0.053608248","0.1928578162","0.1571972967","0.2405339857","","","","","","","","","","","","75","K","2","","","179","main_expt"
"","bandit","259","1371066","0.0-220.0-0.0","10879596","wem/bandit_either_2","AWXIEV9H6KT9E","either","4","211","","","","","","","0","0","1","","0.233428307","0.6","0.4","0.2","0.8","0.06289379635","0.1412953234","0.1567782565","0.233428307","","","","","","","","","","","","76","L","3","","","180","main_expt"
"","bandit","260","1373054","0.0-221.0-0.0","10879596","wem/bandit_either_2","AWXIEV9H6KT9E","either","4","447","","","","","","","0","0","1","0.07748386732","","0.6","0.4","0.2","0.8","","","","","0.07748386732","0.1258774719","0.1492691696","0.1459310114","","","","","","","","72","H","0","img/none_selected.jpg","","181","main_expt"
"","bandit","261","1374966","0.0-222.0-0.0","10879596","wem/bandit_either_2","AWXIEV9H6KT9E","either","4","369","","","","","","","0","0","1","","0.1121960069","0.6","0.4","0.2","0.8","0.096714051","0.1121960069","0.1609613705","0.1796360657","","","","","","","","","","","","74","J","1","","","182","main_expt"
"","bandit","262","1377043","0.0-223.0-0.0","10879596","wem/bandit_either_2","AWXIEV9H6KT9E","either","4","535","","","","","","","0","0","1","","0.1982891881","0.6","0.4","0.2","0.8","0.05351369794","0.08335286121","0.1982891881","0.1907874973","","","","","","","","","","","","75","K","2","","","183","main_expt"
"","bandit","263","1378877","0.0-224.0-0.0","10879596","wem/bandit_either_2","AWXIEV9H6KT9E","either","4","293","","","","","","","0","0","1","","0.08854511538","0.6","0.4","0.2","0.8","0.08854511538","0.1085923678","0.1703318442","0.1451627339","","","","","","","","","","","","72","H","0","img/none_selected.jpg","","184","main_expt"
"","bandit","264","1380732","0.0-225.0-0.0","10879596","wem/bandit_either_2","AWXIEV9H6KT9E","either","4","342","","","","","","","0","0","1","0.1692531577","","0.6","0.4","0.2","0.8","","","","","0.136385666","0.1113654269","0.09566746086","0.1692531577","","","","","","","","76","L","3","","","185","main_expt"
"","bandit","265","1382327","0.0-226.0-0.0","10879596","wem/bandit_either_2","AWXIEV9H6KT9E","either","4","59","","","","","","","0","0","1","","0.1254261761","0.6","0.4","0.2","0.8","0.1848043888","0.1383531569","0.1254261761","0.1885113298","","","","","","","","","","","","75","K","2","","","186","main_expt"
"","bandit","266","1384178","0.0-227.0-0.0","10879596","wem/bandit_either_2","AWXIEV9H6KT9E","either","4","320","","","","","","","0","0","1","0.1739713275","","0.6","0.4","0.2","0.8","","","","","0.1640989128","0.1739713275","0.1081798115","0.2088125345","","","","","","","","74","J","1","","","187","main_expt"
"","bandit","267","1386082","0.0-228.0-0.0","10879596","wem/bandit_either_2","AWXIEV9H6KT9E","either","4","365","","","","","","","0","1","0","","0.1301402021","0.6","0.4","0.2","0.8","0.1301402021","0.1926366302","0.08529062399","0.2228369986","","","","","","","","","","","","72","H","0","img/none_selected.jpg","","188","main_expt"
"","bandit","268","1388119","0.0-229.0-0.0","10879596","wem/bandit_either_2","AWXIEV9H6KT9E","either","4","507","","","","","","","0","0","1","","0.2499935398","0.6","0.4","0.2","0.8","0.1980942663","0.2499935398","0.07250281893","0.2567428292","","","","","","","","","","","","74","J","1","","","189","main_expt"
"","bandit","269","1390106","0.0-230.0-0.0","10879596","wem/bandit_either_2","AWXIEV9H6KT9E","either","4","449","","","","","","","0","0","1","0.3177850294","","0.6","0.4","0.2","0.8","","","","","0.1842725295","0.2367317824","0.07895395147","0.3177850294","","","","","","","","76","L","3","","","190","main_expt"
"","bandit","270","1391782","0.0-231.0-0.0","10879596","wem/bandit_either_2","AWXIEV9H6KT9E","either","4","144","","","","","","","0","0","1","","0.06204701637","0.6","0.4","0.2","0.8","0.2087081259","0.2515026666","0.06204701637","0.2876912335","","","","","","","","","","","","75","K","2","","","191","main_expt"
"","bandit","271","1393600","0.0-232.0-0.0","10879596","wem/bandit_either_2","AWXIEV9H6KT9E","either","4","288","","","","","","","0","0","1","","0.2451916405","0.6","0.4","0.2","0.8","0.1800110976","0.2451916405","0.064067899","0.2383873749","","","","","","","","","","","","74","J","1","","","192","main_expt"
"","bandit","272","1395402","0.0-233.0-0.0","10879596","wem/bandit_either_2","AWXIEV9H6KT9E","either","4","259","","","","","","","0","0","1","0.1519186298","","0.6","0.4","0.2","0.8","","","","","0.1519186298","0.2353451433","0.1286650472","0.24690957","","","","","","","","72","H","0","img/none_selected.jpg","","193","main_expt"
"","bandit","273","1397239","0.0-234.0-0.0","10879596","wem/bandit_either_2","AWXIEV9H6KT9E","either","4","304","","","","","","","0","0","1","","0.1746490116","0.6","0.4","0.2","0.8","0.1431656489","0.307075739","0.1746490116","0.2728455101","","","","","","","","","","","","75","K","2","","","194","main_expt"
"","bandit","274","1399005","0.0-235.0-0.0","10879596","wem/bandit_either_2","AWXIEV9H6KT9E","either","4","227","","","","","","","0","0","1","","0.3011001907","0.6","0.4","0.2","0.8","0.1868251083","0.3011001907","0.129035247","0.2421292151","","","","","","","","","","","","74","J","1","","","195","main_expt"
"","bandit","275","1400706","0.0-236.0-0.0","10879596","wem/bandit_either_2","AWXIEV9H6KT9E","either","4","160","","","","","","","1","0","0","0.2598052724","","0.6","0.4","0.2","0.8","","","","","0.176624335","0.2861216794","0.09052040682","0.2598052724","","","","","","","","76","L","3","","","196","main_expt"
"","bandit","276","1402539","0.0-237.0-0.0","10879596","wem/bandit_either_2","AWXIEV9H6KT9E","either","4","307","","","","","","","0","0","1","","0.08675464884","0.6","0.4","0.2","0.8","0.2383323772","0.2121549007","0.08675464884","0.2540930088","","","","","","","","","","","","75","K","2","","","197","main_expt"
"","bandit","277","1404307","0.0-238.0-0.0","10879596","wem/bandit_either_2","AWXIEV9H6KT9E","either","4","237","","","","","","","0","0","1","","0.260618614","0.6","0.4","0.2","0.8","0.260618614","0.260340052","0.09429549835","0.2460150375","","","","","","","","","","","","72","H","0","img/none_selected.jpg","","198","main_expt"
"","bandit","278","1406130","0.0-239.0-0.0","10879596","wem/bandit_either_2","AWXIEV9H6KT9E","either","4","294","","","","","","","1","0","0","0.3009562829","","0.6","0.4","0.2","0.8","","","","","0.2935067364","0.3009562829","0.09303778716","0.2217343644","","","","","","","","74","J","1","","","199","main_expt"
"","bandit","279","1408051","0.0-240.0-0.0","10879596","wem/bandit_either_2","AWXIEV9H6KT9E","either","4","380","","","","","","","0","0","1","0.2830302048","","0.6","0.4","0.2","0.8","","","","","0.362920627","0.3430896668","0.07354084322","0.2830302048","","","","","","","","76","L","3","","","200","main_expt"
"","bandit","280","1409938","0.0-241.0-0.0","10879596","wem/bandit_either_2","AWXIEV9H6KT9E","either","4","349","","","","","","","0","0","1","","0.08115367452","0.6","0.4","0.2","0.8","0.3119044903","0.2973668079","0.08115367452","0.3175621279","","","","","","","","","","","","75","K","2","","","201","main_expt"
"","bandit","281","1411974","0.0-242.0-0.0","10879596","wem/bandit_either_2","AWXIEV9H6KT9E","either","4","521","","","","","","","0","0","1","","0.0774842685","0.6","0.4","0.2","0.8","0.3095695708","0.3219337599","0.0774842685","0.3049471546","","","","","","","","","","","","75","K","2","","","202","main_expt"
"","bandit","282","1413982","0.0-243.0-0.0","10879596","wem/bandit_either_2","AWXIEV9H6KT9E","either","4","468","","","","","","","0","0","1","0.3229991028","","0.6","0.4","0.2","0.8","","","","","0.3005459379","0.3229991028","0.09704724367","0.2975042969","","","","","","","","74","J","1","","","203","main_expt"
"","bandit","283","1415599","0.0-244.0-0.0","10879596","wem/bandit_either_2","AWXIEV9H6KT9E","either","4","95","","","","","","","0","0","1","0.3116824409","","0.6","0.4","0.2","0.8","","","","","0.3116824409","0.3077995671","0.1224111047","0.2268457719","","","","","","","","72","H","0","img/none_selected.jpg","","204","main_expt"
"","bandit","284","1417684","0.0-245.0-0.0","10879596","wem/bandit_either_2","AWXIEV9H6KT9E","either","4","544","","","","","","","0","0","1","0.2582085449","","0.6","0.4","0.2","0.8","","","","","0.3291635812","0.3070199156","0.1627664319","0.2582085449","","","","","","","","76","L","3","","","205","main_expt"
"","bandit","285","1419778","0.0-246.0-0.0","10879596","wem/bandit_either_2","AWXIEV9H6KT9E","either","4","566","","","","","","","0","1","0","","0.3109683939","0.6","0.4","0.2","0.8","0.4008790519","0.3109683939","0.1604236747","0.2841247045","","","","","","","","","","","","74","J","1","","","206","main_expt"
"","bandit","286","1421336","0.0-247.0-0.0","10879596","wem/bandit_either_2","AWXIEV9H6KT9E","either","4","32","","","","","","","0","0","1","","0.126388554","0.6","0.4","0.2","0.8","0.4202180382","0.2845075958","0.126388554","0.3333225396","","","","","","","","","","","","75","K","2","","","207","main_expt"
"","bandit","287","1423369","0.0-248.0-0.0","10879596","wem/bandit_either_2","AWXIEV9H6KT9E","either","4","508","","","","","","","0","0","1","0.2419557814","","0.6","0.4","0.2","0.8","","","","","0.4168586074","0.2419557814","0.1602309633","0.290219871","","","","","","","","74","J","1","","","208","main_expt"
"","bandit","288","1425193","0.0-249.0-0.0","10879596","wem/bandit_either_2","AWXIEV9H6KT9E","either","4","285","","","","","","","0","1","0","","0.3949328033","0.6","0.4","0.2","0.8","0.3949328033","0.2449545816","0.2009997365","0.3426384504","","","","","","","","","","","","72","H","0","img/none_selected.jpg","","209","main_expt"
"","bandit","289","1426817","0.0-250.0-0.0","10879596","wem/bandit_either_2","AWXIEV9H6KT9E","either","4","100","","","","","","","0","0","1","","0.1997114924","0.6","0.4","0.2","0.8","0.41782505","0.2176860071","0.1997114924","0.2932754766","","","","","","","","","","","","75","K","2","","","210","main_expt"
"","bandit","290","1428835","0.0-251.0-0.0","10879596","wem/bandit_either_2","AWXIEV9H6KT9E","either","4","487","","","","","","","0","0","1","","0.2460847292","0.6","0.4","0.2","0.8","0.4377941382","0.2460847292","0.2631807131","0.2522206247","","","","","","","","","","","","74","J","1","","","211","main_expt"
"","bandit","291","1430370","0.0-252.0-0.0","10879596","wem/bandit_either_2","AWXIEV9H6KT9E","either","4","3","","","","","","","0","0","1","0.2323705111","","0.6","0.4","0.2","0.8","","","","","0.4619006446","0.2017704833","0.2008991105","0.2323705111","","","","","","","","76","L","3","","","212","main_expt"
"","bandit","292","1432143","0.0-253.0-0.0","10879596","wem/bandit_either_2","AWXIEV9H6KT9E","either","4","253","","","","","","","0","1","0","","0.1891715169","0.6","0.4","0.2","0.8","0.4508737721","0.1891715169","0.1656487101","0.2815580385","","","","","","","","","","","","74","J","1","","","213","main_expt"
"","bandit","293","1434001","0.0-254.0-0.0","10879596","wem/bandit_either_2","AWXIEV9H6KT9E","either","4","317","","","","","","","0","0","1","0.1819308411","","0.6","0.4","0.2","0.8","","","","","0.4639731149","0.1819308411","0.213788386","0.2955812139","","","","","","","","74","J","1","","","214","main_expt"
"","bandit","294","1435702","0.0-255.0-0.0","10879596","wem/bandit_either_2","AWXIEV9H6KT9E","either","4","172","","","","","","","0","0","1","","0.2206736926","0.6","0.4","0.2","0.8","0.4690757113","0.1406935411","0.2206736926","0.2988647484","","","","","","","","","","","","75","K","2","","","215","main_expt"
"","bandit","295","1437530","0.0-256.0-0.0","10879596","wem/bandit_either_2","AWXIEV9H6KT9E","either","4","292","","","","","","","0","0","1","","0.206739756","0.6","0.4","0.2","0.8","0.4685680314","0.206739756","0.2270120675","0.3361974059","","","","","","","","","","","","74","J","1","","","216","main_expt"
"","bandit","296","1439223","0.0-257.0-0.0","10879596","wem/bandit_either_2","AWXIEV9H6KT9E","either","4","177","","","","","","","0","0","1","0.178624692","","0.6","0.4","0.2","0.8","","","","","0.4873952874","0.178624692","0.2561581829","0.2764506131","","","","","","","","74","J","1","","","217","main_expt"
"","bandit","297","1441045","0.0-258.0-0.0","10879596","wem/bandit_either_2","AWXIEV9H6KT9E","either","4","285","","","","","","","0","0","1","0.4790671899","","0.6","0.4","0.2","0.8","","","","","0.4790671899","0.2021641755","0.2785758431","0.299893698","","","","","","","","72","H","0","img/none_selected.jpg","","218","main_expt"
"","bandit","298","1442790","0.0-259.0-0.0","10879596","wem/bandit_either_2","AWXIEV9H6KT9E","either","4","216","","","","","","","0","1","0","","0.3213687962","0.6","0.4","0.2","0.8","0.4769795117","0.2076996705","0.2707863597","0.3213687962","","","","","","","","","","","","76","L","3","","","219","main_expt"
"","bandit","299","1444597","0.0-260.0-0.0","10879596","wem/bandit_either_2","AWXIEV9H6KT9E","either","4","275","","","","","","","0","0","1","0.2262269101","","0.6","0.4","0.2","0.8","","","","","0.4746148145","0.2479045362","0.2262269101","0.3782095139","","","","","","","","75","K","2","","","220","main_expt"
"","bandit","300","1446459","0.0-261.0-0.0","10879596","wem/bandit_either_2","AWXIEV9H6KT9E","either","4","328","","","","","","","0","0","1","","0.251163546","0.6","0.4","0.2","0.8","0.4789253058","0.251163546","0.2522421151","0.3572699546","","","","","","","","","","","","74","J","1","","","221","main_expt"
"","bandit","301","1448194","0.0-262.0-0.0","10879596","wem/bandit_either_2","AWXIEV9H6KT9E","either","4","214","","","","","","","0","0","1","","0.332217079","0.6","0.4","0.2","0.8","0.4765400837","0.2653622565","0.2323100388","0.332217079","","","","","","","","","","","","76","L","3","","","222","main_expt"
"","bandit","302","1449967","0.0-263.0-0.0","10879596","wem/bandit_either_2","AWXIEV9H6KT9E","either","4","236","","","","","","","0","0","1","","0.2013525365","0.6","0.4","0.2","0.8","0.4872993944","0.2034578964","0.2013525365","0.3327789551","","","","","","","","","","","","75","K","2","","","223","main_expt"
"","bandit","303","1451955","0.0-264.0-0.0","10879596","wem/bandit_either_2","AWXIEV9H6KT9E","either","4","449","","","","","","","1","0","0","0.4864577786","","0.6","0.4","0.2","0.8","","","","","0.4864577786","0.1176985371","0.2017363432","0.3720138676","","","","","","","","72","H","0","img/none_selected.jpg","","224","main_expt"
"","bandit","304","1453777","0.0-265.0-0.0","10879596","wem/bandit_either_2","AWXIEV9H6KT9E","either","4","286","","","","","","","0","0","1","0.08531446518","","0.6","0.4","0.2","0.8","","","","","0.4815865163","0.08531446518","0.1608447522","0.4035982493","","","","","","","","74","J","1","","","225","main_expt"
"","bandit","305","1455419","0.0-266.0-0.0","10879596","wem/bandit_either_2","AWXIEV9H6KT9E","either","4","113","","","","","","","0","1","0","","0.2023183299","0.6","0.4","0.2","0.8","0.4781941344","0.0901010045","0.2023183299","0.3538577565","","","","","","","","","","","","75","K","2","","","226","main_expt"
"","bandit","306","1457094","0.0-267.0-0.0","10879596","wem/bandit_either_2","AWXIEV9H6KT9E","either","4","147","","","","","","","0","0","1","0.4742279627","","0.6","0.4","0.2","0.8","","","","","0.4742279627","0.06499555022","0.1555458008","0.4205879778","","","","","","","","72","H","0","img/none_selected.jpg","","227","main_expt"
"","bandit","307","1458620","0.0-268.0-0.0","10879596","wem/bandit_either_2","AWXIEV9H6KT9E","either","4","1","","","","","","","0","0","1","0.4082381823","","0.6","0.4","0.2","0.8","","","","","0.4597327255","0.06967502077","0.1210896773","0.4082381823","","","","","","","","76","L","3","","","228","main_expt"
"","bandit","308","1460277","0.0-269.0-0.0","10879596","wem/bandit_either_2","AWXIEV9H6KT9E","either","4","122","","","","","","","0","0","1","","0.07642173418","0.6","0.4","0.2","0.8","0.4733003713","0.07642173418","0.1206830913","0.4274963613","","","","","","","","","","","","74","J","1","","","229","main_expt"
"","bandit","309","1462099","0.0-270.0-0.0","10879596","wem/bandit_either_2","AWXIEV9H6KT9E","either","4","283","","","","","","","0","0","1","","0.1334008039","0.6","0.4","0.2","0.8","0.4832022084","0.04973788902","0.1334008039","0.4362488765","","","","","","","","","","","","75","K","2","","","230","main_expt"
"","bandit","310","1464553","0.0-271.0-0.0","10879596","wem/bandit_either_2","AWXIEV9H6KT9E","either","4","915","","","","","","","0","1","0","","0.4802630573","0.6","0.4","0.2","0.8","0.4802630573","0.07419495466","0.1048467088","0.4420629534","","","","","","","","","","","","72","H","0","img/none_selected.jpg","","231","main_expt"
"","bandit","311","1466457","0.0-272.0-0.0","10879596","wem/bandit_either_2","AWXIEV9H6KT9E","either","4","378","","","","","","","0","0","1","","0.08125260149","0.6","0.4","0.2","0.8","0.4739318499","0.08125260149","0.1184002818","0.4287414635","","","","","","","","","","","","74","J","1","","","232","main_expt"
"","bandit","312","1468292","0.0-273.0-0.0","10879596","wem/bandit_either_2","AWXIEV9H6KT9E","either","4","309","","","","","","","0","0","1","","0.06057073796","0.6","0.4","0.2","0.8","0.4709765286","0.06057073796","0.08533064469","0.4395511981","","","","","","","","","","","","74","J","1","","","233","main_expt"
"","bandit","313","1469948","0.0-274.0-0.0","10879596","wem/bandit_either_2","AWXIEV9H6KT9E","either","4","126","","","","","","","0","0","1","0.1190123434","","0.6","0.4","0.2","0.8","","","","","0.4658145356","0.1037411708","0.1190123434","0.4479240545","","","","","","","","75","K","2","","","234","main_expt"
"","bandit","314","1471677","0.0-275.0-0.0","10879596","wem/bandit_either_2","AWXIEV9H6KT9E","either","4","189","","","","","","","1","0","0","0.4476644646","","0.6","0.4","0.2","0.8","","","","","0.4312508187","0.1267441937","0.1392024459","0.4476644646","","","","","","","","76","L","3","","","235","main_expt"
"","bandit","315","1473208","0.0-276.0-0.0","10879596","wem/bandit_either_2","AWXIEV9H6KT9E","either","4","10","","","","","","","0","0","1","","0.1076242464","0.6","0.4","0.2","0.8","0.4323277229","0.1002206095","0.1076242464","0.457106966","","","","","","","","","","","","75","K","2","","","236","main_expt"
"","bandit","316","1474856","0.0-277.0-0.0","10879596","wem/bandit_either_2","AWXIEV9H6KT9E","either","4","108","","","","","","","0","0","1","0.08353940566","","0.6","0.4","0.2","0.8","","","","","0.4517679415","0.08353940566","0.1539911713","0.4097288684","","","","","","","","74","J","1","","","237","main_expt"
"","bandit","317","1476493","0.0-278.0-0.0","10879596","wem/bandit_either_2","AWXIEV9H6KT9E","either","4","120","","","","","","","0","1","0","","0.1833253983","0.6","0.4","0.2","0.8","0.4476427196","0.07847158511","0.1833253983","0.4530646831","","","","","","","","","","","","75","K","2","","","238","main_expt"
"","bandit","318","1478118","0.0-279.0-0.0","10879596","wem/bandit_either_2","AWXIEV9H6KT9E","either","4","85","","","","","","","0","0","1","0.185515968","","0.6","0.4","0.2","0.8","","","","","0.4421551546","0.1132310855","0.185515968","0.4532148127","","","","","","","","75","K","2","","","239","main_expt"
"","bandit","319","1480048","0.0-280.0-0.0","10879596","wem/bandit_either_2","AWXIEV9H6KT9E","either","4","396","","","","","","","0","0","1","","0.130249024","0.6","0.4","0.2","0.8","0.4205303603","0.130249024","0.2545144829","0.4456906816","","","","","","","","","","","","74","J","1","","","240","main_expt"
"","bandit","320","1482212","0.0-281.0-0.0","10879596","wem/bandit_either_2","AWXIEV9H6KT9E","either","4","624","","","","","","","0","0","1","","0.1902236802","0.6","0.4","0.2","0.8","0.4304808994","0.1356270161","0.1902236802","0.4515134246","","","","","","","","","","","","75","K","2","","","241","main_expt"
"","bandit","321","1483755","0.0-282.0-0.0","10879596","wem/bandit_either_2","AWXIEV9H6KT9E","either","4","13","","","","","","","0","0","1","","0.1402569013","0.6","0.4","0.2","0.8","0.4318168925","0.1402569013","0.2196571485","0.4640222466","","","","","","","","","","","","74","J","1","","","242","main_expt"
"","bandit","322","1485826","0.0-283.0-0.0","10879596","wem/bandit_either_2","AWXIEV9H6KT9E","either","4","534","","","","","","","0","0","1","","0.2691755858","0.6","0.4","0.2","0.8","0.4437639365","0.1851652895","0.2691755858","0.4305348251","","","","","","","","","","","","75","K","2","","","243","main_expt"
"","bandit","323","1487462","0.0-284.0-0.0","10879596","wem/bandit_either_2","AWXIEV9H6KT9E","either","4","101","","","","","","","0","0","1","0.4444417595","","0.6","0.4","0.2","0.8","","","","","0.4444545885","0.1871667761","0.2689580194","0.4444417595","","","","","","","","76","L","3","","","244","main_expt"
"","bandit","324","1489404","0.0-285.0-0.0","10879596","wem/bandit_either_2","AWXIEV9H6KT9E","either","4","416","","","","","","","0","0","1","0.1881322931","","0.6","0.4","0.2","0.8","","","","","0.445216333","0.1881322931","0.1935089033","0.4468105605","","","","","","","","74","J","1","","","245","main_expt"
"","bandit","325","1491288","0.0-286.0-0.0","10879596","wem/bandit_either_2","AWXIEV9H6KT9E","either","4","345","","","","","","","0","0","1","","0.1466547275","0.6","0.4","0.2","0.8","0.4767449203","0.187853128","0.1466547275","0.4453418505","","","","","","","","","","","","75","K","2","","","246","main_expt"
"","bandit","326","1493173","0.0-287.0-0.0","10879596","wem/bandit_either_2","AWXIEV9H6KT9E","either","4","349","","","","","","","0","0","1","","0.1952756904","0.6","0.4","0.2","0.8","0.4530054638","0.1952756904","0.1275107348","0.4426138654","","","","","","","","","","","","74","J","1","","","247","main_expt"
"","bandit","327","1495292","0.0-288.0-0.0","10879596","wem/bandit_either_2","AWXIEV9H6KT9E","either","4","585","","","","","","","0","0","1","","0.4326938674","0.6","0.4","0.2","0.8","0.4326938674","0.1722543521","0.107785627","0.464375056","","","","","","","","","","","","72","H","0","img/none_selected.jpg","","248","main_expt"
"","bandit","328","1496997","0.0-289.0-0.0","10879596","wem/bandit_either_2","AWXIEV9H6KT9E","either","4","171","","","","","","","0","0","1","","0.1169449123","0.6","0.4","0.2","0.8","0.4276367863","0.1935833679","0.1169449123","0.4416705694","","","","","","","","","","","","75","K","2","","","249","main_expt"
"","bandit","329","1498714","0.0-290.0-0.0","10879596","wem/bandit_either_2","AWXIEV9H6KT9E","either","4","181","","","","","","","0","0","1","0.1783221165","","0.6","0.4","0.2","0.8","","","","","0.4602627553","0.1783221165","0.1474950258","0.4352039605","","","","","","","","74","J","1","","","250","main_expt"
"","bandit","330","1500892","0.0-291.0-0.0","10879596","wem/bandit_either_2","AWXIEV9H6KT9E","either","4","633","","","","","","","1","0","0","0.4625669079","","0.6","0.4","0.2","0.8","","","","","0.4429671406","0.2191654692","0.1272017844","0.4625669079","","","","","","","","76","L","3","","","251","main_expt"
