"consent","trial_type","trial_index","time_elapsed","internal_node_id","subjID","study","MID","cond","drift","rt","responses","key_press","expt_phase","like","value","connected","gems","bombs","no_reward","GemPrChosen","BombPrChosen","GainOverPainPr_0","GainOverPainPr_1","GainOverPainPr_2","GainOverPainPr_3","LosePr_0","LosePr_1","LosePr_2","LosePr_3","WinPr_0","WinPr_1","WinPr_2","WinPr_3","Q0","Q1","Q2","gender","age","ethnicity","target","respCharCode","respKey","respChoiceNum","respChoice","practice","trial_counter","trial_label"
"INL_behavioral_consent_30min_online.html","consent","0","17495","0.0-0.0","13187427","wem/bandit_either_2","ARTSG66V2MOJ6","either","8","","","","","","","","","","","","","","","","","","","","","","","","","","","","","","","","","","","","","",""
"","survey-text","1","35749","0.0-1.0","13187427","wem/bandit_either_2","ARTSG66V2MOJ6","either","8","17238","{""Q0"":""ARTSG66V2MOJ6""}","","","","","","","","","","","","","","","","","","","","","","","","","","","","","","","","","","","",""
"","text","2","50191","0.0-2.0","13187427","wem/bandit_either_2","ARTSG66V2MOJ6","either","8","13436","","32","","","","","","","","","","","","","","","","","","","","","","","","","","","","","","","","","","",""
"","text","3","70769","0.0-3.0","13187427","wem/bandit_either_2","ARTSG66V2MOJ6","either","8","20575","","32","","","","","","","","","","","","","","","","","","","","","","","","","","","","","","","","","","",""
"","text","4","104789","0.0-4.0","13187427","wem/bandit_either_2","ARTSG66V2MOJ6","either","8","34016","","32","","","","","","","","","","","","","","","","","","","","","","","","","","","","","","","","","","",""
"","text","5","119690","0.0-5.0","13187427","wem/bandit_either_2","ARTSG66V2MOJ6","either","8","14898","","32","","","","","","","","","","","","","","","","","","","","","","","","","","","","","","","","","","",""
"","text","6","158761","0.0-6.0","13187427","wem/bandit_either_2","ARTSG66V2MOJ6","either","8","39069","","32","","","","","","","","","","","","","","","","","","","","","","","","","","","","","","","","","","",""
"","text","7","164275","0.0-7.0","13187427","wem/bandit_either_2","ARTSG66V2MOJ6","either","8","5510","","32","","","","","","","","","","","","","","","","","","","","","","","","","","","","","","","","","","",""
"","text","8","170912","0.0-8.0","13187427","wem/bandit_either_2","ARTSG66V2MOJ6","either","8","6635","","32","","","","","","","","","","","","","","","","","","","","","","","","","","","","","","","","","","",""
"","identification","9","193884","0.0-9.0-0.0","13187427","wem/bandit_either_2","ARTSG66V2MOJ6","either","8","22936","","","","3","2","2","","","","","","","","","","","","","","","","","","","","","","","","the village of Zur","","","","","","",""
"","identification","10","209555","0.0-9.0-1.0","13187427","wem/bandit_either_2","ARTSG66V2MOJ6","either","8","14642","","","","1","1","1","","","","","","","","","","","","","","","","","","","","","","","","the village of Nyx","","","","","","",""
"","text","11","230811","0.0-10.0","13187427","wem/bandit_either_2","ARTSG66V2MOJ6","either","8","20253","","32","","","","","","","","","","","","","","","","","","","","","","","","","","","","","","","","","","",""
"","text","12","236499","0.0-11.0","13187427","wem/bandit_either_2","ARTSG66V2MOJ6","either","8","5683","","32","","","","","","","","","","","","","","","","","","","","","","","","","","","","","","","","","","",""
"","text","13","239932","0.0-12.0","13187427","wem/bandit_either_2","ARTSG66V2MOJ6","either","8","3431","","32","","","","","","","","","","","","","","","","","","","","","","","","","","","","","","","","","","",""
"","text","14","245200","0.0-13.0","13187427","wem/bandit_either_2","ARTSG66V2MOJ6","either","8","5264","","32","","","","","","","","","","","","","","","","","","","","","","","","","","","","","","","","","","",""
"","bandit","15","248598","0.0-14.0-0.0","13187427","wem/bandit_either_2","ARTSG66V2MOJ6","either","8","1884","","","","","","","0","0","1","0","0","","","","","0","","","","0","","","","","","","","","","","74","J","0","img/none_selected_demo.jpg","true","0",""
"","bandit","16","251857","0.0-15.0-0.0","13187427","wem/bandit_either_2","ARTSG66V2MOJ6","either","8","1749","","","","","","","0","0","1","0","0","","","","","0","","","","0","","","","","","","","","","","75","K","0","img/none_selected_demo.jpg","true","0",""
"","text","17","261133","0.0-16.0","13187427","wem/bandit_either_2","ARTSG66V2MOJ6","either","8","9272","","32","","","","","","","","","","","","","","","","","","","","","","","","","","","","","","","","","","",""
"","text","18","274944","0.0-17.0","13187427","wem/bandit_either_2","ARTSG66V2MOJ6","either","8","13807","","32","","","","","","","","","","","","","","","","","","","","","","","","","","","","","","","","","","",""
"","text","19","285864","0.0-18.0","13187427","wem/bandit_either_2","ARTSG66V2MOJ6","either","8","10918","","32","","","","","","","","","","","","","","","","","","","","","","","","","","","","","","","","","","",""
"","text","20","289948","0.0-19.0","13187427","wem/bandit_either_2","ARTSG66V2MOJ6","either","8","4082","","32","","","","","","","","","","","","","","","","","","","","","","","","","","","","","","","","","","",""
"","bandit","21","292288","0.0-20.0-0.0","13187427","wem/bandit_either_2","ARTSG66V2MOJ6","either","8","830","","","","","","","1","0","0","0.8","","0.5","0.5","","","","","","","0.8","0.2","","","","","","","","","","74","J","0","img/none_selected_demo.jpg","true","0","80_20_practice"
"","bandit","22","294138","0.0-20.0-1.0","13187427","wem/bandit_either_2","ARTSG66V2MOJ6","either","8","339","","","","","","","0","1","0","","0.8","0.5","0.5","","","0.8","0.2","","","","","","","","","","","","","","74","J","0","img/none_selected_demo.jpg","true","0","80_20_practice"
"","bandit","23","296035","0.0-20.0-2.0","13187427","wem/bandit_either_2","ARTSG66V2MOJ6","either","8","386","","","","","","","1","0","0","0.8","","0.5","0.5","","","","","","","0.8","0.2","","","","","","","","","","74","J","0","img/none_selected_demo.jpg","true","0","80_20_practice"
"","bandit","24","298059","0.0-20.0-3.0","13187427","wem/bandit_either_2","ARTSG66V2MOJ6","either","8","512","","","","","","","1","0","0","0.8","","0.5","0.5","","","","","","","0.8","0.2","","","","","","","","","","74","J","0","img/none_selected_demo.jpg","true","0","80_20_practice"
"","bandit","25","299965","0.0-20.0-4.0","13187427","wem/bandit_either_2","ARTSG66V2MOJ6","either","8","395","","","","","","","1","0","0","0.8","","0.5","0.5","","","","","","","0.8","0.2","","","","","","","","","","74","J","0","img/none_selected_demo.jpg","true","0","80_20_practice"
"","bandit","26","301864","0.0-20.0-5.0","13187427","wem/bandit_either_2","ARTSG66V2MOJ6","either","8","389","","","","","","","0","0","1","0.8","","0.5","0.5","","","","","","","0.8","0.2","","","","","","","","","","74","J","0","img/none_selected_demo.jpg","true","0","80_20_practice"
"","bandit","27","303747","0.0-20.0-6.0","13187427","wem/bandit_either_2","ARTSG66V2MOJ6","either","8","373","","","","","","","0","0","1","","0.8","0.5","0.5","","","0.8","0.2","","","","","","","","","","","","","","74","J","0","img/none_selected_demo.jpg","true","0","80_20_practice"
"","bandit","28","305579","0.0-20.0-7.0","13187427","wem/bandit_either_2","ARTSG66V2MOJ6","either","8","322","","","","","","","1","0","0","0.8","","0.5","0.5","","","","","","","0.8","0.2","","","","","","","","","","74","J","0","img/none_selected_demo.jpg","true","0","80_20_practice"
"","bandit","29","307393","0.0-20.0-8.0","13187427","wem/bandit_either_2","ARTSG66V2MOJ6","either","8","303","","","","","","","1","0","0","0.8","","0.5","0.5","","","","","","","0.8","0.2","","","","","","","","","","74","J","0","img/none_selected_demo.jpg","true","0","80_20_practice"
"","bandit","30","309168","0.0-20.0-9.0","13187427","wem/bandit_either_2","ARTSG66V2MOJ6","either","8","264","","","","","","","1","0","0","0.8","","0.5","0.5","","","","","","","0.8","0.2","","","","","","","","","","74","J","0","img/none_selected_demo.jpg","true","0","80_20_practice"
"","bandit","31","310932","0.0-20.0-10.0","13187427","wem/bandit_either_2","ARTSG66V2MOJ6","either","8","254","","","","","","","1","0","0","0.8","","0.5","0.5","","","","","","","0.8","0.2","","","","","","","","","","74","J","0","img/none_selected_demo.jpg","true","0","80_20_practice"
"","bandit","32","312671","0.0-20.0-11.0","13187427","wem/bandit_either_2","ARTSG66V2MOJ6","either","8","229","","","","","","","0","1","0","","0.8","0.5","0.5","","","0.8","0.2","","","","","","","","","","","","","","74","J","0","img/none_selected_demo.jpg","true","0","80_20_practice"
"","bandit","33","316026","0.0-20.0-12.0","13187427","wem/bandit_either_2","ARTSG66V2MOJ6","either","8","1845","","","","","","","0","1","0","","0.2","0.5","0.5","","","0.8","0.2","","","","","","","","","","","","","","75","K","1","","true","0","80_20_practice"
"","bandit","34","317753","0.0-20.0-13.0","13187427","wem/bandit_either_2","ARTSG66V2MOJ6","either","8","214","","","","","","","0","1","0","","0.2","0.5","0.5","","","0.8","0.2","","","","","","","","","","","","","","75","K","1","","true","0","80_20_practice"
"","bandit","35","319465","0.0-20.0-14.0","13187427","wem/bandit_either_2","ARTSG66V2MOJ6","either","8","200","","","","","","","1","0","0","0.2","","0.5","0.5","","","","","","","0.8","0.2","","","","","","","","","","75","K","1","","true","0","80_20_practice"
"","bandit","36","321083","0.0-20.0-15.0","13187427","wem/bandit_either_2","ARTSG66V2MOJ6","either","8","103","","","","","","","0","0","1","","0.2","0.5","0.5","","","0.8","0.2","","","","","","","","","","","","","","75","K","1","","true","0","80_20_practice"
"","bandit","37","322732","0.0-20.0-16.0","13187427","wem/bandit_either_2","ARTSG66V2MOJ6","either","8","138","","","","","","","0","1","0","","0.2","0.5","0.5","","","0.8","0.2","","","","","","","","","","","","","","75","K","1","","true","0","80_20_practice"
"","bandit","38","324420","0.0-20.0-17.0","13187427","wem/bandit_either_2","ARTSG66V2MOJ6","either","8","173","","","","","","","0","0","1","","0.2","0.5","0.5","","","0.8","0.2","","","","","","","","","","","","","","75","K","1","","true","0","80_20_practice"
"","bandit","39","326032","0.0-20.0-18.0","13187427","wem/bandit_either_2","ARTSG66V2MOJ6","either","8","100","","","","","","","0","0","1","0.2","","0.5","0.5","","","","","","","0.8","0.2","","","","","","","","","","75","K","1","","true","0","80_20_practice"
"","bandit","40","327722","0.0-20.0-19.0","13187427","wem/bandit_either_2","ARTSG66V2MOJ6","either","8","180","","","","","","","0","0","1","","0.2","0.5","0.5","","","0.8","0.2","","","","","","","","","","","","","","75","K","1","","true","0","80_20_practice"
"","text","41","339945","0.0-21.0","13187427","wem/bandit_either_2","ARTSG66V2MOJ6","either","8","12218","","32","","","","","","","","","","","","","","","","","","","","","","","","","","","","","","","","","","",""
"","bandit","42","343209","0.0-22.0-0.0","13187427","wem/bandit_either_2","ARTSG66V2MOJ6","either","8","1753","","","","","","","1","0","0","1","0","","","","","0","1","","","1","0","","","","","","","","","","74","J","0","img/none_selected_demo.jpg","true","0",""
"","text","43","352373","0.0-23.0","13187427","wem/bandit_either_2","ARTSG66V2MOJ6","either","8","9159","","32","","","","","","","","","","","","","","","","","","","","","","","","","","","","","","","","","","",""
"","text","44","357198","0.0-24.0","13187427","wem/bandit_either_2","ARTSG66V2MOJ6","either","8","4818","","32","","","","","","","","","","","","","","","","","","","","","","","","","","","","","","","","","","",""
"","text","45","359810","0.0-25.0","13187427","wem/bandit_either_2","ARTSG66V2MOJ6","either","8","2608","","32","","","","","","","","","","","","","","","","","","","","","","","","","","","","","","","","","","",""
"","text","46","363144","0.0-26.0","13187427","wem/bandit_either_2","ARTSG66V2MOJ6","either","8","3331","","32","","","","","","","","","","","","","","","","","","","","","","","","","","","","","","","","","","",""
"","text","47","377091","0.0-27.0","13187427","wem/bandit_either_2","ARTSG66V2MOJ6","either","8","13942","","32","","","","","","","","","","","","","","","","","","","","","","","","","","","","","","","","","","",""
"","text","48","380163","0.0-28.0","13187427","wem/bandit_either_2","ARTSG66V2MOJ6","either","8","3069","","32","","","","","","","","","","","","","","","","","","","","","","","","","","","","","","","","","","",""
"","text","49","386808","0.0-29.0","13187427","wem/bandit_either_2","ARTSG66V2MOJ6","either","8","6640","","32","","","","","","","","","","","","","","","","","","","","","","","","","","","","","","","","","","",""
"","text","50","390602","0.0-30.0","13187427","wem/bandit_either_2","ARTSG66V2MOJ6","either","8","3790","","32","","","","","","","","","","","","","","","","","","","","","","","","","","","","","","","","","","",""
"","text","51","396968","0.0-31.0","13187427","wem/bandit_either_2","ARTSG66V2MOJ6","either","8","6362","","32","","","","","","","","","","","","","","","","","","","","","","","","","","","","","","","","","","",""
"","text","52","398927","0.0-32.0","13187427","wem/bandit_either_2","ARTSG66V2MOJ6","either","8","1956","","32","","","","","","","","","","","","","","","","","","","","","","","","","","","","","","","","","","",""
"","text","53","402560","0.0-33.0","13187427","wem/bandit_either_2","ARTSG66V2MOJ6","either","8","3627","","32","","","","","","","","","","","","","","","","","","","","","","","","","","","","","","","","","","",""
"","bandit","54","405011","0.0-34.0-0.0","13187427","wem/bandit_either_2","ARTSG66V2MOJ6","either","8","941","","","","","","","0","1","0","","0.8","0.5","0.5","0.5","0.5","0.8","0.2","0.6","0.2","","","","","","","","","","","","72","H","0","img/none_selected.jpg","true","0","full_practice"
"","bandit","55","406789","0.0-34.0-1.0","13187427","wem/bandit_either_2","ARTSG66V2MOJ6","either","8","266","","","","","","","0","0","1","0.2","","0.5","0.5","0.5","0.5","","","","","0.8","0.2","0.6","0.2","","","","","","","","74","J","1","","true","0","full_practice"
"","bandit","56","408636","0.0-34.0-2.0","13187427","wem/bandit_either_2","ARTSG66V2MOJ6","either","8","333","","","","","","","1","0","0","0.6","","0.5","0.5","0.5","0.5","","","","","0.8","0.2","0.6","0.2","","","","","","","","75","K","2","","true","0","full_practice"
"","bandit","57","410441","0.0-34.0-3.0","13187427","wem/bandit_either_2","ARTSG66V2MOJ6","either","8","292","","","","","","","0","0","1","","0.2","0.5","0.5","0.5","0.5","0.8","0.2","0.6","0.2","","","","","","","","","","","","76","L","3","","true","0","full_practice"
"","bandit","58","412547","0.0-34.0-4.0","13187427","wem/bandit_either_2","ARTSG66V2MOJ6","either","8","592","","","","","","","1","0","0","0.8","","0.5","0.5","0.5","0.5","","","","","0.8","0.2","0.6","0.2","","","","","","","","72","H","0","img/none_selected.jpg","true","0","full_practice"
"","bandit","59","414356","0.0-34.0-5.0","13187427","wem/bandit_either_2","ARTSG66V2MOJ6","either","8","297","","","","","","","0","1","0","","0.8","0.5","0.5","0.5","0.5","0.8","0.2","0.6","0.2","","","","","","","","","","","","72","H","0","img/none_selected.jpg","true","0","full_practice"
"","bandit","60","416387","0.0-34.0-6.0","13187427","wem/bandit_either_2","ARTSG66V2MOJ6","either","8","518","","","","","","","0","0","1","","0.2","0.5","0.5","0.5","0.5","0.8","0.2","0.6","0.2","","","","","","","","","","","","76","L","3","","true","0","full_practice"
"","bandit","61","418182","0.0-34.0-7.0","13187427","wem/bandit_either_2","ARTSG66V2MOJ6","either","8","283","","","","","","","0","0","1","0.2","","0.5","0.5","0.5","0.5","","","","","0.8","0.2","0.6","0.2","","","","","","","","76","L","3","","true","0","full_practice"
"","bandit","62","420131","0.0-34.0-8.0","13187427","wem/bandit_either_2","ARTSG66V2MOJ6","either","8","436","","","","","","","0","1","0","","0.6","0.5","0.5","0.5","0.5","0.8","0.2","0.6","0.2","","","","","","","","","","","","75","K","2","","true","0","full_practice"
"","bandit","63","422058","0.0-34.0-9.0","13187427","wem/bandit_either_2","ARTSG66V2MOJ6","either","8","416","","","","","","","0","0","1","","0.2","0.5","0.5","0.5","0.5","0.8","0.2","0.6","0.2","","","","","","","","","","","","74","J","1","","true","0","full_practice"
"","bandit","64","423750","0.0-34.0-10.0","13187427","wem/bandit_either_2","ARTSG66V2MOJ6","either","8","180","","","","","","","0","0","1","","0.2","0.5","0.5","0.5","0.5","0.8","0.2","0.6","0.2","","","","","","","","","","","","74","J","1","","true","0","full_practice"
"","bandit","65","425449","0.0-34.0-11.0","13187427","wem/bandit_either_2","ARTSG66V2MOJ6","either","8","186","","","","","","","1","0","0","0.2","","0.5","0.5","0.5","0.5","","","","","0.8","0.2","0.6","0.2","","","","","","","","74","J","1","","true","0","full_practice"
"","bandit","66","427068","0.0-34.0-12.0","13187427","wem/bandit_either_2","ARTSG66V2MOJ6","either","8","106","","","","","","","0","1","0","","0.8","0.5","0.5","0.5","0.5","0.8","0.2","0.6","0.2","","","","","","","","","","","","72","H","0","img/none_selected.jpg","true","0","full_practice"
"","bandit","67","428844","0.0-34.0-13.0","13187427","wem/bandit_either_2","ARTSG66V2MOJ6","either","8","263","","","","","","","0","0","1","","0.2","0.5","0.5","0.5","0.5","0.8","0.2","0.6","0.2","","","","","","","","","","","","76","L","3","","true","0","full_practice"
"","bandit","68","430402","0.0-34.0-14.0","13187427","wem/bandit_either_2","ARTSG66V2MOJ6","either","8","45","","","","","","","0","0","1","","0.6","0.5","0.5","0.5","0.5","0.8","0.2","0.6","0.2","","","","","","","","","","","","75","K","2","","true","0","full_practice"
"","bandit","69","431920","0.0-34.0-15.0","13187427","wem/bandit_either_2","ARTSG66V2MOJ6","either","8","2","","","","","","","1","0","0","0.8","","0.5","0.5","0.5","0.5","","","","","0.8","0.2","0.6","0.2","","","","","","","","72","H","0","img/none_selected.jpg","true","0","full_practice"
"","bandit","70","433838","0.0-34.0-16.0","13187427","wem/bandit_either_2","ARTSG66V2MOJ6","either","8","406","","","","","","","1","0","0","0.8","","0.5","0.5","0.5","0.5","","","","","0.8","0.2","0.6","0.2","","","","","","","","72","H","0","img/none_selected.jpg","true","0","full_practice"
"","bandit","71","435549","0.0-34.0-17.0","13187427","wem/bandit_either_2","ARTSG66V2MOJ6","either","8","197","","","","","","","0","1","0","","0.8","0.5","0.5","0.5","0.5","0.8","0.2","0.6","0.2","","","","","","","","","","","","72","H","0","img/none_selected.jpg","true","0","full_practice"
"","bandit","72","437085","0.0-34.0-18.0","13187427","wem/bandit_either_2","ARTSG66V2MOJ6","either","8","22","","","","","","","1","0","0","0.8","","0.5","0.5","0.5","0.5","","","","","0.8","0.2","0.6","0.2","","","","","","","","72","H","0","img/none_selected.jpg","true","0","full_practice"
"","bandit","73","438658","0.0-34.0-19.0","13187427","wem/bandit_either_2","ARTSG66V2MOJ6","either","8","60","","","","","","","0","1","0","","0.8","0.5","0.5","0.5","0.5","0.8","0.2","0.6","0.2","","","","","","","","","","","","72","H","0","img/none_selected.jpg","true","0","full_practice"
"","text","74","442270","0.0-35.0","13187427","wem/bandit_either_2","ARTSG66V2MOJ6","either","8","3597","","32","","","","","","","","","","","","","","","","","","","","","","","","","","","","","","","","","","",""
"","text","75","470674","0.0-36.0","13187427","wem/bandit_either_2","ARTSG66V2MOJ6","either","8","27398","","32","","","","","","","","","","","","","","","","","","","","","","","","","","","","","","","","","","",""
"","text","76","482583","0.0-37.0","13187427","wem/bandit_either_2","ARTSG66V2MOJ6","either","8","11903","","32","","","","","","","","","","","","","","","","","","","","","","","","","","","","","","","","","","",""
"","text","77","489905","0.0-38.0","13187427","wem/bandit_either_2","ARTSG66V2MOJ6","either","8","7318","","32","","","","","","","","","","","","","","","","","","","","","","","","","","","","","","","","","","",""
"","text","78","495948","0.0-39.0","13187427","wem/bandit_either_2","ARTSG66V2MOJ6","either","8","6036","","32","","","","","","","","","","","","","","","","","","","","","","","","","","","","","","","","","","",""
"","text","79","499698","0.0-40.0","13187427","wem/bandit_either_2","ARTSG66V2MOJ6","either","8","3745","","32","","","","","","","","","","","","","","","","","","","","","","","","","","","","","","","","","","",""
"","bandit","80","502517","0.0-41.0-0.0","13187427","wem/bandit_either_2","ARTSG66V2MOJ6","either","8","1308","","","","","","","0","0","1","","0.2928194041","0.8","0.6","0.4","0.2","0.2928194041","0.2637293772","0.3540548627","0.1351790469","","","","","","","","","","","","72","H","0","img/none_selected.jpg","","1","main_expt"
"","bandit","81","504333","0.0-42.0-0.0","13187427","wem/bandit_either_2","ARTSG66V2MOJ6","either","8","302","","","","","","","1","0","0","0.3040419902","","0.8","0.6","0.4","0.2","","","","","0.3040419902","0.2760013096","0.3812516843","0.125602744","","","","","","","","72","H","0","img/none_selected.jpg","","2","main_expt"
"","bandit","82","506094","0.0-43.0-0.0","13187427","wem/bandit_either_2","ARTSG66V2MOJ6","either","8","246","","","","","","","0","0","1","0.2875251023","","0.8","0.6","0.4","0.2","","","","","0.2875251023","0.3240499928","0.3901316494","0.09574082279","","","","","","","","72","H","0","img/none_selected.jpg","","3","main_expt"
"","bandit","83","508297","0.0-44.0-0.0","13187427","wem/bandit_either_2","ARTSG66V2MOJ6","either","8","690","","","","","","","1","0","0","0.2965567903","","0.8","0.6","0.4","0.2","","","","","0.2965567903","0.3510822359","0.3945399471","0.0913382225","","","","","","","","72","H","0","img/none_selected.jpg","","4","main_expt"
"","bandit","84","510217","0.0-45.0-0.0","13187427","wem/bandit_either_2","ARTSG66V2MOJ6","either","8","407","","","","","","","0","0","1","0.2681113314","","0.8","0.6","0.4","0.2","","","","","0.2681113314","0.3522827721","0.3997977613","0.106177601","","","","","","","","72","H","0","img/none_selected.jpg","","5","main_expt"
"","bandit","85","512123","0.0-46.0-0.0","13187427","wem/bandit_either_2","ARTSG66V2MOJ6","either","8","393","","","","","","","0","0","1","0.2330443498","","0.8","0.6","0.4","0.2","","","","","0.2330443498","0.382674005","0.390783501","0.08998955495","","","","","","","","72","H","0","img/none_selected.jpg","","6","main_expt"
"","bandit","86","514173","0.0-47.0-0.0","13187427","wem/bandit_either_2","ARTSG66V2MOJ6","either","8","536","","","","","","","0","0","1","","0.3305693427","0.8","0.6","0.4","0.2","0.1630509172","0.3998463606","0.3305693427","0.1077526668","","","","","","","","","","","","75","K","2","","","7","main_expt"
"","bandit","87","516427","0.0-48.0-0.0","13187427","wem/bandit_either_2","ARTSG66V2MOJ6","either","8","741","","","","","","","0","0","1","","0.3056545716","0.8","0.6","0.4","0.2","0.2002468685","0.3832029687","0.3056545716","0.1243697388","","","","","","","","","","","","75","K","2","","","8","main_expt"
"","bandit","88","518617","0.0-49.0-0.0","13187427","wem/bandit_either_2","ARTSG66V2MOJ6","either","8","673","","","","","","","0","1","0","","0.3278889804","0.8","0.6","0.4","0.2","0.1835034381","0.3796681134","0.3278889804","0.1698108096","","","","","","","","","","","","75","K","2","","","9","main_expt"
"","bandit","89","520449","0.0-50.0-0.0","13187427","wem/bandit_either_2","ARTSG66V2MOJ6","either","8","317","","","","","","","0","1","0","","0.3137855556","0.8","0.6","0.4","0.2","0.1939723001","0.3614311416","0.3137855556","0.221757114","","","","","","","","","","","","75","K","2","","","10","main_expt"
"","bandit","90","522468","0.0-51.0-0.0","13187427","wem/bandit_either_2","ARTSG66V2MOJ6","either","8","506","","","","","","","0","0","1","","0.3253079181","0.8","0.6","0.4","0.2","0.1949806013","0.3938737051","0.3253079181","0.1961062924","","","","","","","","","","","","75","K","2","","","11","main_expt"
"","bandit","91","524572","0.0-52.0-0.0","13187427","wem/bandit_either_2","ARTSG66V2MOJ6","either","8","591","","","","","","","1","0","0","0.3298150516","","0.8","0.6","0.4","0.2","","","","","0.2587943474","0.3810544723","0.3298150516","0.1907056259","","","","","","","","75","K","2","","","12","main_expt"
"","bandit","92","526441","0.0-53.0-0.0","13187427","wem/bandit_either_2","ARTSG66V2MOJ6","either","8","353","","","","","","","1","0","0","0.3673307406","","0.8","0.6","0.4","0.2","","","","","0.3085985727","0.3707046684","0.3673307406","0.2162865666","","","","","","","","75","K","2","","","13","main_expt"
"","bandit","93","528366","0.0-54.0-0.0","13187427","wem/bandit_either_2","ARTSG66V2MOJ6","either","8","412","","","","","","","0","0","1","","0.3679224674","0.8","0.6","0.4","0.2","0.2464992766","0.3486531997","0.3679224674","0.2399362825","","","","","","","","","","","","75","K","2","","","14","main_expt"
"","bandit","94","530230","0.0-55.0-0.0","13187427","wem/bandit_either_2","ARTSG66V2MOJ6","either","8","349","","","","","","","0","0","1","","0.3062507314","0.8","0.6","0.4","0.2","0.2474611475","0.3263578384","0.3062507314","0.1986859052","","","","","","","","","","","","75","K","2","","","15","main_expt"
"","bandit","95","532544","0.0-56.0-0.0","13187427","wem/bandit_either_2","ARTSG66V2MOJ6","either","8","800","","","","","","","1","0","0","0.3514189979","","0.8","0.6","0.4","0.2","","","","","0.2835538477","0.3514189979","0.2892976033","0.1865641621","","","","","","","","74","J","1","","","16","main_expt"
"","bandit","96","534503","0.0-57.0-0.0","13187427","wem/bandit_either_2","ARTSG66V2MOJ6","either","8","444","","","","","","","0","0","1","0.3532592314","","0.8","0.6","0.4","0.2","","","","","0.3256112075","0.3532592314","0.2861796528","0.2035525071","","","","","","","","74","J","1","","","17","main_expt"
"","bandit","97","536341","0.0-58.0-0.0","13187427","wem/bandit_either_2","ARTSG66V2MOJ6","either","8","323","","","","","","","1","0","0","0.3858608091","","0.8","0.6","0.4","0.2","","","","","0.3802227677","0.3858608091","0.2958570682","0.2039336531","","","","","","","","74","J","1","","","18","main_expt"
"","bandit","98","538166","0.0-59.0-0.0","13187427","wem/bandit_either_2","ARTSG66V2MOJ6","either","8","309","","","","","","","0","0","1","0.3837638756","","0.8","0.6","0.4","0.2","","","","","0.360566968","0.3837638756","0.3353028819","0.1598579642","","","","","","","","74","J","1","","","19","main_expt"
"","bandit","99","539945","0.0-60.0-0.0","13187427","wem/bandit_either_2","ARTSG66V2MOJ6","either","8","263","","","","","","","0","1","0","","0.2872100501","0.8","0.6","0.4","0.2","0.3696799013","0.2872100501","0.3139704528","0.1437622327","","","","","","","","","","","","74","J","1","","","20","main_expt"
"","bandit","100","541827","0.0-61.0-0.0","13187427","wem/bandit_either_2","ARTSG66V2MOJ6","either","8","368","","","","","","","0","0","1","0.2975414498","","0.8","0.6","0.4","0.2","","","","","0.4006907501","0.2975414498","0.2524707143","0.07974703335","","","","","","","","74","J","1","","","21","main_expt"
"","bandit","101","543730","0.0-62.0-0.0","13187427","wem/bandit_either_2","ARTSG66V2MOJ6","either","8","388","","","","","","","0","0","1","","0.1361132429","0.8","0.6","0.4","0.2","0.4081217326","0.2741965999","0.248326021","0.1361132429","","","","","","","","","","","","76","L","3","","","22","main_expt"
"","bandit","102","545564","0.0-63.0-0.0","13187427","wem/bandit_either_2","ARTSG66V2MOJ6","either","8","319","","","","","","","0","1","0","","0.1705973249","0.8","0.6","0.4","0.2","0.3740207531","0.2379064449","0.2937153481","0.1705973249","","","","","","","","","","","","76","L","3","","","23","main_expt"
"","bandit","103","547313","0.0-64.0-0.0","13187427","wem/bandit_either_2","ARTSG66V2MOJ6","either","8","236","","","","","","","0","0","1","","0.1392759225","0.8","0.6","0.4","0.2","0.3913756451","0.2078598572","0.2625315469","0.1392759225","","","","","","","","","","","","76","L","3","","","24","main_expt"
"","bandit","104","549099","0.0-65.0-0.0","13187427","wem/bandit_either_2","ARTSG66V2MOJ6","either","8","272","","","","","","","0","0","1","","0.1800538527","0.8","0.6","0.4","0.2","0.4100905738","0.2764850733","0.2405651368","0.1800538527","","","","","","","","","","","","76","L","3","","","25","main_expt"
"","bandit","105","551016","0.0-66.0-0.0","13187427","wem/bandit_either_2","ARTSG66V2MOJ6","either","8","404","","","","","","","1","0","0","0.3600668969","","0.8","0.6","0.4","0.2","","","","","0.3600668969","0.3080191348","0.2503350336","0.2146400533","","","","","","","","72","H","0","img/none_selected.jpg","","26","main_expt"
"","bandit","106","552836","0.0-67.0-0.0","13187427","wem/bandit_either_2","ARTSG66V2MOJ6","either","8","305","","","","","","","0","0","1","0.3703096079","","0.8","0.6","0.4","0.2","","","","","0.3703096079","0.3606197488","0.354091838","0.1948367851","","","","","","","","72","H","0","img/none_selected.jpg","","27","main_expt"
"","bandit","107","554667","0.0-68.0-0.0","13187427","wem/bandit_either_2","ARTSG66V2MOJ6","either","8","316","","","","","","","1","0","0","0.3527269899","","0.8","0.6","0.4","0.2","","","","","0.3527269899","0.3696097963","0.3419366675","0.2282666016","","","","","","","","72","H","0","img/none_selected.jpg","","28","main_expt"
"","bandit","108","556523","0.0-69.0-0.0","13187427","wem/bandit_either_2","ARTSG66V2MOJ6","either","8","343","","","","","","","0","0","1","0.2854860911","","0.8","0.6","0.4","0.2","","","","","0.2854860911","0.3434444954","0.361896517","0.1842618798","","","","","","","","72","H","0","img/none_selected.jpg","","29","main_expt"
"","bandit","109","558224","0.0-70.0-0.0","13187427","wem/bandit_either_2","ARTSG66V2MOJ6","either","8","185","","","","","","","0","1","0","","0.3528183973","0.8","0.6","0.4","0.2","0.2971434158","0.3528183973","0.3701160785","0.1930267653","","","","","","","","","","","","74","J","1","","","30","main_expt"
"","bandit","110","560232","0.0-71.0-0.0","13187427","wem/bandit_either_2","ARTSG66V2MOJ6","either","8","493","","","","","","","0","1","0","","0.3436926249","0.8","0.6","0.4","0.2","0.3192935598","0.3436926249","0.3602312343","0.2279264959","","","","","","","","","","","","74","J","1","","","31","main_expt"
"","bandit","111","562042","0.0-72.0-0.0","13187427","wem/bandit_either_2","ARTSG66V2MOJ6","either","8","296","","","","","","","0","0","1","0.3392376576","","0.8","0.6","0.4","0.2","","","","","0.2910845839","0.3392376576","0.3550043818","0.1922668126","","","","","","","","74","J","1","","","32","main_expt"
"","bandit","112","563944","0.0-73.0-0.0","13187427","wem/bandit_either_2","ARTSG66V2MOJ6","either","8","385","","","","","","","0","0","1","","0.2524106513","0.8","0.6","0.4","0.2","0.2956883229","0.2524106513","0.3927862597","0.1503247695","","","","","","","","","","","","74","J","1","","","33","main_expt"
"","bandit","113","565807","0.0-74.0-0.0","13187427","wem/bandit_either_2","ARTSG66V2MOJ6","either","8","347","","","","","","","0","0","1","","0.2378308988","0.8","0.6","0.4","0.2","0.2918182698","0.2378308988","0.4185963197","0.1875072744","","","","","","","","","","","","74","J","1","","","34","main_expt"
"","bandit","114","567490","0.0-75.0-0.0","13187427","wem/bandit_either_2","ARTSG66V2MOJ6","either","8","169","","","","","","","0","0","1","0.441983755","","0.8","0.6","0.4","0.2","","","","","0.3063909307","0.2683654211","0.441983755","0.2135507624","","","","","","","","75","K","2","","","35","main_expt"
"","bandit","115","569332","0.0-76.0-0.0","13187427","wem/bandit_either_2","ARTSG66V2MOJ6","either","8","327","","","","","","","0","0","1","","0.4352827683","0.8","0.6","0.4","0.2","0.2820805085","0.2645223933","0.4352827683","0.2042402853","","","","","","","","","","","","75","K","2","","","36","main_expt"
"","bandit","116","571125","0.0-77.0-0.0","13187427","wem/bandit_either_2","ARTSG66V2MOJ6","either","8","278","","","","","","","0","0","1","0.2610370824","","0.8","0.6","0.4","0.2","","","","","0.2610370824","0.2360561858","0.450520142","0.2024605481","","","","","","","","72","H","0","img/none_selected.jpg","","37","main_expt"
"","bandit","117","572888","0.0-78.0-0.0","13187427","wem/bandit_either_2","ARTSG66V2MOJ6","either","8","245","","","","","","","0","0","1","","0.1677713785","0.8","0.6","0.4","0.2","0.1896233007","0.2001865083","0.4681224698","0.1677713785","","","","","","","","","","","","76","L","3","","","38","main_expt"
"","bandit","118","574636","0.0-79.0-0.0","13187427","wem/bandit_either_2","ARTSG66V2MOJ6","either","8","234","","","","","","","0","0","1","","0.221779122","0.8","0.6","0.4","0.2","0.168851025","0.1687915361","0.4711022053","0.221779122","","","","","","","","","","","","76","L","3","","","39","main_expt"
"","bandit","119","576502","0.0-80.0-0.0","13187427","wem/bandit_either_2","ARTSG66V2MOJ6","either","8","351","","","","","","","0","0","1","","0.1503151413","0.8","0.6","0.4","0.2","0.1615787635","0.1503151413","0.4559447699","0.2722397218","","","","","","","","","","","","74","J","1","","","40","main_expt"
"","bandit","120","578349","0.0-81.0-0.0","13187427","wem/bandit_either_2","ARTSG66V2MOJ6","either","8","331","","","","","","","0","0","1","0.08168262283","","0.8","0.6","0.4","0.2","","","","","0.1472326003","0.08168262283","0.4412687596","0.3298230943","","","","","","","","74","J","1","","","41","main_expt"
"","bandit","121","580097","0.0-82.0-0.0","13187427","wem/bandit_either_2","ARTSG66V2MOJ6","either","8","232","","","","","","","0","0","1","0.1533480506","","0.8","0.6","0.4","0.2","","","","","0.1533480506","0.07668629145","0.4457751761","0.3104885444","","","","","","","","72","H","0","img/none_selected.jpg","","42","main_expt"
"","bandit","122","581643","0.0-83.0-0.0","13187427","wem/bandit_either_2","ARTSG66V2MOJ6","either","8","31","","","","","","","1","0","0","0.4298378352","","0.8","0.6","0.4","0.2","","","","","0.1414351437","0.07394587158","0.4298378352","0.3005355489","","","","","","","","75","K","2","","","43","main_expt"
"","bandit","123","583275","0.0-84.0-0.0","13187427","wem/bandit_either_2","ARTSG66V2MOJ6","either","8","117","","","","","","","0","0","1","0.4416915379","","0.8","0.6","0.4","0.2","","","","","0.1067646429","0.1192337685","0.4416915379","0.2456242138","","","","","","","","75","K","2","","","44","main_expt"
"","bandit","124","585105","0.0-85.0-0.0","13187427","wem/bandit_either_2","ARTSG66V2MOJ6","either","8","311","","","","","","","1","0","0","0.3915522423","","0.8","0.6","0.4","0.2","","","","","0.1250796286","0.1285724119","0.3915522423","0.2839901561","","","","","","","","75","K","2","","","45","main_expt"
"","bandit","125","586970","0.0-86.0-0.0","13187427","wem/bandit_either_2","ARTSG66V2MOJ6","either","8","350","","","","","","","0","0","1","","0.4318427431","0.8","0.6","0.4","0.2","0.1927264636","0.1112684106","0.4318427431","0.2353621531","","","","","","","","","","","","75","K","2","","","46","main_expt"
"","bandit","126","588838","0.0-87.0-0.0","13187427","wem/bandit_either_2","ARTSG66V2MOJ6","either","8","352","","","","","","","0","0","1","","0.4395998441","0.8","0.6","0.4","0.2","0.1804488412","0.1207340475","0.4395998441","0.2405257196","","","","","","","","","","","","75","K","2","","","47","main_expt"
"","bandit","127","590582","0.0-88.0-0.0","13187427","wem/bandit_either_2","ARTSG66V2MOJ6","either","8","229","","","","","","","0","0","1","","0.4630443269","0.8","0.6","0.4","0.2","0.168268176","0.1182533935","0.4630443269","0.2629408555","","","","","","","","","","","","75","K","2","","","48","main_expt"
"","bandit","128","592354","0.0-89.0-0.0","13187427","wem/bandit_either_2","ARTSG66V2MOJ6","either","8","258","","","","","","","0","0","1","","0.1466838001","0.8","0.6","0.4","0.2","0.1466838001","0.1460801474","0.4794982466","0.2902453213","","","","","","","","","","","","72","H","0","img/none_selected.jpg","","49","main_expt"
"","bandit","129","594207","0.0-90.0-0.0","13187427","wem/bandit_either_2","ARTSG66V2MOJ6","either","8","336","","","","","","","0","0","1","","0.1765155983","0.8","0.6","0.4","0.2","0.1336340117","0.1765155983","0.4562783041","0.3033715012","","","","","","","","","","","","74","J","1","","","50","main_expt"
"","bandit","130","595973","0.0-91.0-0.0","13187427","wem/bandit_either_2","ARTSG66V2MOJ6","either","8","252","","","","","","","0","0","1","","0.3536831403","0.8","0.6","0.4","0.2","0.1067821754","0.1614266163","0.4515646323","0.3536831403","","","","","","","","","","","","76","L","3","","","51","main_expt"
"","bandit","131","597834","0.0-92.0-0.0","13187427","wem/bandit_either_2","ARTSG66V2MOJ6","either","8","343","","","","","","","0","0","1","","0.3058792917","0.8","0.6","0.4","0.2","0.07294577227","0.1938643747","0.4344137529","0.3058792917","","","","","","","","","","","","76","L","3","","","52","main_expt"
"","bandit","132","599605","0.0-93.0-0.0","13187427","wem/bandit_either_2","ARTSG66V2MOJ6","either","8","255","","","","","","","0","0","1","0.1721886996","","0.8","0.6","0.4","0.2","","","","","0.07676454597","0.1721886996","0.4421766306","0.3466820038","","","","","","","","74","J","1","","","53","main_expt"
"","bandit","133","601410","0.0-94.0-0.0","13187427","wem/bandit_either_2","ARTSG66V2MOJ6","either","8","287","","","","","","","1","0","0","0.07707135067","","0.8","0.6","0.4","0.2","","","","","0.07707135067","0.1542880765","0.4591875032","0.3159173384","","","","","","","","72","H","0","img/none_selected.jpg","","54","main_expt"
"","bandit","134","603317","0.0-95.0-0.0","13187427","wem/bandit_either_2","ARTSG66V2MOJ6","either","8","392","","","","","","","1","0","0","0.08227932488","","0.8","0.6","0.4","0.2","","","","","0.08227932488","0.2155598061","0.4455250987","0.3205246683","","","","","","","","72","H","0","img/none_selected.jpg","","55","main_expt"
"","bandit","135","605121","0.0-96.0-0.0","13187427","wem/bandit_either_2","ARTSG66V2MOJ6","either","8","287","","","","","","","0","0","1","0.09013031375","","0.8","0.6","0.4","0.2","","","","","0.09013031375","0.199350645","0.4200701886","0.3067659888","","","","","","","","72","H","0","img/none_selected.jpg","","56","main_expt"
"","bandit","136","606979","0.0-97.0-0.0","13187427","wem/bandit_either_2","ARTSG66V2MOJ6","either","8","341","","","","","","","0","0","1","","0.106866739","0.8","0.6","0.4","0.2","0.106866739","0.1991981904","0.3635567377","0.3786279545","","","","","","","","","","","","72","H","0","img/none_selected.jpg","","57","main_expt"
"","bandit","137","608872","0.0-98.0-0.0","13187427","wem/bandit_either_2","ARTSG66V2MOJ6","either","8","377","","","","","","","0","0","1","0.0915584437","","0.8","0.6","0.4","0.2","","","","","0.0915584437","0.1307276253","0.3647217687","0.3796022377","","","","","","","","72","H","0","img/none_selected.jpg","","58","main_expt"
"","bandit","138","610646","0.0-99.0-0.0","13187427","wem/bandit_either_2","ARTSG66V2MOJ6","either","8","258","","","","","","","0","0","1","0.1036540812","","0.8","0.6","0.4","0.2","","","","","0.1036540812","0.1540949786","0.3975499765","0.3570845549","","","","","","","","72","H","0","img/none_selected.jpg","","59","main_expt"
"","bandit","139","612410","0.0-100.0-0.0","13187427","wem/bandit_either_2","ARTSG66V2MOJ6","either","8","245","","","","","","","0","0","1","0.07948280662","","0.8","0.6","0.4","0.2","","","","","0.07948280662","0.1187181044","0.376383165","0.398525789","","","","","","","","72","H","0","img/none_selected.jpg","","60","main_expt"
"","bandit","140","614195","0.0-101.0-0.0","13187427","wem/bandit_either_2","ARTSG66V2MOJ6","either","8","268","","","","","","","0","0","1","0.0685056185","","0.8","0.6","0.4","0.2","","","","","0.0685056185","0.1734870435","0.3384437455","0.380986593","","","","","","","","72","H","0","img/none_selected.jpg","","61","main_expt"
"","bandit","141","615953","0.0-102.0-0.0","13187427","wem/bandit_either_2","ARTSG66V2MOJ6","either","8","239","","","","","","","0","0","1","0.04196312691","","0.8","0.6","0.4","0.2","","","","","0.04196312691","0.2056999461","0.3086389155","0.3928002855","","","","","","","","72","H","0","img/none_selected.jpg","","62","main_expt"
"","bandit","142","617593","0.0-103.0-0.0","13187427","wem/bandit_either_2","ARTSG66V2MOJ6","either","8","125","","","","","","","0","0","1","","0.2421495796","0.8","0.6","0.4","0.2","0.06524357318","0.2421495796","0.3098998428","0.4097838671","","","","","","","","","","","","74","J","1","","","63","main_expt"
"","bandit","143","619391","0.0-104.0-0.0","13187427","wem/bandit_either_2","ARTSG66V2MOJ6","either","8","282","","","","","","","0","0","1","0.2678986655","","0.8","0.6","0.4","0.2","","","","","0.04599317762","0.2678986655","0.2859800092","0.3942475769","","","","","","","","74","J","1","","","64","main_expt"
"","bandit","144","621094","0.0-105.0-0.0","13187427","wem/bandit_either_2","ARTSG66V2MOJ6","either","8","181","","","","","","","0","0","1","0.2780623804","","0.8","0.6","0.4","0.2","","","","","0.04738713632","0.2780805564","0.2780623804","0.3756823908","","","","","","","","75","K","2","","","65","main_expt"
"","bandit","145","622854","0.0-106.0-0.0","13187427","wem/bandit_either_2","ARTSG66V2MOJ6","either","8","241","","","","","","","0","0","1","","0.2740889186","0.8","0.6","0.4","0.2","0.02873144913","0.2923516192","0.2740889186","0.3780323226","","","","","","","","","","","","75","K","2","","","66","main_expt"
"","bandit","146","624608","0.0-107.0-0.0","13187427","wem/bandit_either_2","ARTSG66V2MOJ6","either","8","239","","","","","","","0","0","1","0.382091886","","0.8","0.6","0.4","0.2","","","","","0.0355516853","0.3481747094","0.3122756929","0.382091886","","","","","","","","76","L","3","","","67","main_expt"
"","bandit","147","626377","0.0-108.0-0.0","13187427","wem/bandit_either_2","ARTSG66V2MOJ6","either","8","252","","","","","","","0","0","1","0.4080562953","","0.8","0.6","0.4","0.2","","","","","0.04483006882","0.3540590834","0.3004294993","0.4080562953","","","","","","","","76","L","3","","","68","main_expt"
"","bandit","148","628154","0.0-109.0-0.0","13187427","wem/bandit_either_2","ARTSG66V2MOJ6","either","8","259","","","","","","","0","1","0","","0.419826639","0.8","0.6","0.4","0.2","0.04300650393","0.3348318208","0.3312842332","0.419826639","","","","","","","","","","","","76","L","3","","","69","main_expt"
"","bandit","149","629935","0.0-110.0-0.0","13187427","wem/bandit_either_2","ARTSG66V2MOJ6","either","8","265","","","","","","","0","0","1","","0.3889643965","0.8","0.6","0.4","0.2","0.03960880855","0.3844983113","0.2362018798","0.3889643965","","","","","","","","","","","","76","L","3","","","70","main_expt"
"","bandit","150","631736","0.0-111.0-0.0","13187427","wem/bandit_either_2","ARTSG66V2MOJ6","either","8","285","","","","","","","0","1","0","","0.3492343966","0.8","0.6","0.4","0.2","0.02401392238","0.3753843975","0.1838323472","0.3492343966","","","","","","","","","","","","76","L","3","","","71","main_expt"
"","bandit","151","633566","0.0-112.0-0.0","13187427","wem/bandit_either_2","ARTSG66V2MOJ6","either","8","313","","","","","","","0","1","0","","0.3502155883","0.8","0.6","0.4","0.2","0.008756159955","0.3861429343","0.1749810972","0.3502155883","","","","","","","","","","","","76","L","3","","","72","main_expt"
"","bandit","152","635411","0.0-113.0-0.0","13187427","wem/bandit_either_2","ARTSG66V2MOJ6","either","8","329","","","","","","","0","0","1","","0.3568691787","0.8","0.6","0.4","0.2","0.006257651783","0.3978436086","0.1664097112","0.3568691787","","","","","","","","","","","","76","L","3","","","73","main_expt"
"","bandit","153","637199","0.0-114.0-0.0","13187427","wem/bandit_either_2","ARTSG66V2MOJ6","either","8","272","","","","","","","0","1","0","","0.3303653739","0.8","0.6","0.4","0.2","0.004732084297","0.3847979518","0.2001176207","0.3303653739","","","","","","","","","","","","76","L","3","","","74","main_expt"
"","bandit","154","639056","0.0-115.0-0.0","13187427","wem/bandit_either_2","ARTSG66V2MOJ6","either","8","340","","","","","","","0","0","1","","0.3353283381","0.8","0.6","0.4","0.2","0.006967558871","0.3974319157","0.1848717924","0.3353283381","","","","","","","","","","","","76","L","3","","","75","main_expt"
"","bandit","155","640765","0.0-116.0-0.0","13187427","wem/bandit_either_2","ARTSG66V2MOJ6","either","8","189","","","","","","","0","0","1","","0.3009524994","0.8","0.6","0.4","0.2","0.004525860487","0.3987985884","0.1510178238","0.3009524994","","","","","","","","","","","","76","L","3","","","76","main_expt"
"","bandit","156","642553","0.0-117.0-0.0","13187427","wem/bandit_either_2","ARTSG66V2MOJ6","either","8","269","","","","","","","0","0","1","","0.3316028908","0.8","0.6","0.4","0.2","0.007245535115","0.4127312768","0.2089633591","0.3316028908","","","","","","","","","","","","76","L","3","","","77","main_expt"
"","bandit","157","644306","0.0-118.0-0.0","13187427","wem/bandit_either_2","ARTSG66V2MOJ6","either","8","235","","","","","","","0","1","0","","0.2285147345","0.8","0.6","0.4","0.2","0.00483057751","0.4257675477","0.2285147345","0.3571024926","","","","","","","","","","","","75","K","2","","","78","main_expt"
"","bandit","158","646117","0.0-119.0-0.0","13187427","wem/bandit_either_2","ARTSG66V2MOJ6","either","8","292","","","","","","","0","0","1","","0.2246975601","0.8","0.6","0.4","0.2","0.005956317848","0.4331167668","0.2246975601","0.3542776451","","","","","","","","","","","","75","K","2","","","79","main_expt"
"","bandit","159","647794","0.0-120.0-0.0","13187427","wem/bandit_either_2","ARTSG66V2MOJ6","either","8","160","","","","","","","0","0","1","","0.1878766281","0.8","0.6","0.4","0.2","0.0076590047","0.4294395537","0.1878766281","0.3201174307","","","","","","","","","","","","75","K","2","","","80","main_expt"
"","bandit","160","649470","0.0-121.0-0.0","13187427","wem/bandit_either_2","ARTSG66V2MOJ6","either","8","157","","","","","","","1","0","0","0.2436254364","","0.8","0.6","0.4","0.2","","","","","0.009115568074","0.4234249918","0.2436254364","0.3503003334","","","","","","","","75","K","2","","","81","main_expt"
"","bandit","161","651208","0.0-122.0-0.0","13187427","wem/bandit_either_2","ARTSG66V2MOJ6","either","8","222","","","","","","","0","0","1","0.2627531714","","0.8","0.6","0.4","0.2","","","","","0.01382977225","0.3956977209","0.2627531714","0.3509066846","","","","","","","","75","K","2","","","82","main_expt"
"","bandit","162","653193","0.0-123.0-0.0","13187427","wem/bandit_either_2","ARTSG66V2MOJ6","either","8","465","","","","","","","0","1","0","","0.2672212524","0.8","0.6","0.4","0.2","0.01500629599","0.4248650233","0.2672212524","0.3951868033","","","","","","","","","","","","75","K","2","","","83","main_expt"
"","bandit","163","655063","0.0-124.0-0.0","13187427","wem/bandit_either_2","ARTSG66V2MOJ6","either","8","354","","","","","","","0","0","1","","0.2817484998","0.8","0.6","0.4","0.2","0.02310127573","0.4196907627","0.2817484998","0.4131477378","","","","","","","","","","","","75","K","2","","","84","main_expt"
"","bandit","164","656790","0.0-125.0-0.0","13187427","wem/bandit_either_2","ARTSG66V2MOJ6","either","8","210","","","","","","","0","0","1","","0.3074775227","0.8","0.6","0.4","0.2","0.02639065846","0.435633498","0.3074775227","0.3889697292","","","","","","","","","","","","75","K","2","","","85","main_expt"
"","bandit","165","658481","0.0-126.0-0.0","13187427","wem/bandit_either_2","ARTSG66V2MOJ6","either","8","170","","","","","","","0","0","1","","0.2717847629","0.8","0.6","0.4","0.2","0.01746441632","0.4322222521","0.2717847629","0.3885636443","","","","","","","","","","","","75","K","2","","","86","main_expt"
"","bandit","166","660201","0.0-127.0-0.0","13187427","wem/bandit_either_2","ARTSG66V2MOJ6","either","8","201","","","","","","","0","0","1","0.4476119451","","0.8","0.6","0.4","0.2","","","","","0.01256144444","0.4476119451","0.2183858348","0.4028282504","","","","","","","","74","J","1","","","87","main_expt"
"","bandit","167","662167","0.0-128.0-0.0","13187427","wem/bandit_either_2","ARTSG66V2MOJ6","either","8","443","","","","","","","0","0","1","0.01178158386","","0.8","0.6","0.4","0.2","","","","","0.01178158386","0.4073123198","0.2054961256","0.4306890759","","","","","","","","72","H","0","img/none_selected.jpg","","88","main_expt"
"","bandit","168","664037","0.0-129.0-0.0","13187427","wem/bandit_either_2","ARTSG66V2MOJ6","either","8","353","","","","","","","1","0","0","0.3862301724","","0.8","0.6","0.4","0.2","","","","","0.008722555822","0.3862301724","0.1452714398","0.4103738654","","","","","","","","74","J","1","","","89","main_expt"
"","bandit","169","665895","0.0-130.0-0.0","13187427","wem/bandit_either_2","ARTSG66V2MOJ6","either","8","342","","","","","","","0","0","1","0.3596745144","","0.8","0.6","0.4","0.2","","","","","0.008232471735","0.3596745144","0.1077779513","0.3980827974","","","","","","","","74","J","1","","","90","main_expt"
"","bandit","170","667694","0.0-131.0-0.0","13187427","wem/bandit_either_2","ARTSG66V2MOJ6","either","8","281","","","","","","","0","0","1","","0.3082854458","0.8","0.6","0.4","0.2","0.01249180717","0.3082854458","0.1308407065","0.4040531024","","","","","","","","","","","","74","J","1","","","91","main_expt"
"","bandit","171","669495","0.0-132.0-0.0","13187427","wem/bandit_either_2","ARTSG66V2MOJ6","either","8","283","","","","","","","0","0","1","0.312225492","","0.8","0.6","0.4","0.2","","","","","0.01470986316","0.312225492","0.1652322036","0.3462944796","","","","","","","","74","J","1","","","92","main_expt"
"","bandit","172","671293","0.0-133.0-0.0","13187427","wem/bandit_either_2","ARTSG66V2MOJ6","either","8","280","","","","","","","0","1","0","","0.3671658277","0.8","0.6","0.4","0.2","0.02655281846","0.3671658277","0.1344678182","0.3411451966","","","","","","","","","","","","74","J","1","","","93","main_expt"
"","bandit","173","673171","0.0-134.0-0.0","13187427","wem/bandit_either_2","ARTSG66V2MOJ6","either","8","358","","","","","","","1","0","0","0.3401731108","","0.8","0.6","0.4","0.2","","","","","0.02575246025","0.3401731108","0.1301314301","0.3384154489","","","","","","","","74","J","1","","","94","main_expt"
"","bandit","174","674962","0.0-135.0-0.0","13187427","wem/bandit_either_2","ARTSG66V2MOJ6","either","8","273","","","","","","","0","0","1","0.3413923724","","0.8","0.6","0.4","0.2","","","","","0.02262355665","0.3413923724","0.1746055711","0.3126988266","","","","","","","","74","J","1","","","95","main_expt"
"","bandit","175","676743","0.0-136.0-0.0","13187427","wem/bandit_either_2","ARTSG66V2MOJ6","either","8","262","","","","","","","0","0","1","0.3570420485","","0.8","0.6","0.4","0.2","","","","","0.02047181149","0.3570420485","0.1994244555","0.3800019137","","","","","","","","74","J","1","","","96","main_expt"
"","bandit","176","678563","0.0-137.0-0.0","13187427","wem/bandit_either_2","ARTSG66V2MOJ6","either","8","302","","","","","","","1","0","0","0.3435474977","","0.8","0.6","0.4","0.2","","","","","0.0207754381","0.3435474977","0.1834602947","0.3328121005","","","","","","","","74","J","1","","","97","main_expt"
"","bandit","177","680338","0.0-138.0-0.0","13187427","wem/bandit_either_2","ARTSG66V2MOJ6","either","8","258","","","","","","","0","0","1","0.3614714926","","0.8","0.6","0.4","0.2","","","","","0.02955834597","0.3614714926","0.1719221531","0.332228596","","","","","","","","74","J","1","","","98","main_expt"
"","bandit","178","682168","0.0-139.0-0.0","13187427","wem/bandit_either_2","ARTSG66V2MOJ6","either","8","311","","","","","","","0","0","1","","0.3176405447","0.8","0.6","0.4","0.2","0.0383131093","0.3176405447","0.1183399241","0.2843854285","","","","","","","","","","","","74","J","1","","","99","main_expt"
"","bandit","179","684013","0.0-140.0-0.0","13187427","wem/bandit_either_2","ARTSG66V2MOJ6","either","8","327","","","","","","","0","1","0","","0.3586553183","0.8","0.6","0.4","0.2","0.03580757471","0.3586553183","0.1558635017","0.309751149","","","","","","","","","","","","74","J","1","","","100","main_expt"
"","bandit","180","685912","0.0-141.0-0.0","13187427","wem/bandit_either_2","ARTSG66V2MOJ6","either","8","381","","","","","","","0","0","1","0.2951503345","","0.8","0.6","0.4","0.2","","","","","0.04899620691","0.2951503345","0.1389665978","0.2993195944","","","","","","","","74","J","1","","","101","main_expt"
"","bandit","181","687505","0.0-142.0-0.0","13187427","wem/bandit_either_2","ARTSG66V2MOJ6","either","8","76","","","","","","","0","0","1","0.2998391809","","0.8","0.6","0.4","0.2","","","","","0.08055650644","0.2998391809","0.1377203561","0.3551890872","","","","","","","","74","J","1","","","102","main_expt"
"","bandit","182","689318","0.0-143.0-0.0","13187427","wem/bandit_either_2","ARTSG66V2MOJ6","either","8","294","","","","","","","0","1","0","","0.2791823827","0.8","0.6","0.4","0.2","0.1040447627","0.2791823827","0.1285548106","0.3148404956","","","","","","","","","","","","74","J","1","","","103","main_expt"
"","bandit","183","691093","0.0-144.0-0.0","13187427","wem/bandit_either_2","ARTSG66V2MOJ6","either","8","258","","","","","","","0","0","1","0.3382769334","","0.8","0.6","0.4","0.2","","","","","0.1143547335","0.3382769334","0.1555523735","0.3286912191","","","","","","","","74","J","1","","","104","main_expt"
"","bandit","184","692740","0.0-145.0-0.0","13187427","wem/bandit_either_2","ARTSG66V2MOJ6","either","8","128","","","","","","","0","0","1","","0.1775592141","0.8","0.6","0.4","0.2","0.1487676438","0.3339697125","0.1775592141","0.298340497","","","","","","","","","","","","75","K","2","","","105","main_expt"
"","bandit","185","694498","0.0-146.0-0.0","13187427","wem/bandit_either_2","ARTSG66V2MOJ6","either","8","242","","","","","","","1","0","0","0.2263451353","","0.8","0.6","0.4","0.2","","","","","0.152088545","0.3124129253","0.2263451353","0.3504464386","","","","","","","","75","K","2","","","106","main_expt"
"","bandit","186","696330","0.0-147.0-0.0","13187427","wem/bandit_either_2","ARTSG66V2MOJ6","either","8","312","","","","","","","0","1","0","","0.1679769802","0.8","0.6","0.4","0.2","0.2406734145","0.3400683723","0.1679769802","0.3510410077","","","","","","","","","","","","75","K","2","","","107","main_expt"
"","bandit","187","698188","0.0-148.0-0.0","13187427","wem/bandit_either_2","ARTSG66V2MOJ6","either","8","338","","","","","","","0","1","0","","0.1999870147","0.8","0.6","0.4","0.2","0.3048040024","0.3557340834","0.1999870147","0.3282766846","","","","","","","","","","","","75","K","2","","","108","main_expt"
"","bandit","188","700023","0.0-149.0-0.0","13187427","wem/bandit_either_2","ARTSG66V2MOJ6","either","8","316","","","","","","","0","0","1","0.208992856","","0.8","0.6","0.4","0.2","","","","","0.3418503096","0.3846418901","0.208992856","0.3561186451","","","","","","","","75","K","2","","","109","main_expt"
"","bandit","189","701737","0.0-150.0-0.0","13187427","wem/bandit_either_2","ARTSG66V2MOJ6","either","8","193","","","","","","","0","0","1","","0.1716040471","0.8","0.6","0.4","0.2","0.3198501315","0.4057962062","0.1716040471","0.3576445865","","","","","","","","","","","","75","K","2","","","110","main_expt"
"","bandit","190","703385","0.0-151.0-0.0","13187427","wem/bandit_either_2","ARTSG66V2MOJ6","either","8","130","","","","","","","0","0","1","","0.3377543854","0.8","0.6","0.4","0.2","0.3681534847","0.3692451483","0.08984071331","0.3377543854","","","","","","","","","","","","76","L","3","","","111","main_expt"
"","bandit","191","705062","0.0-152.0-0.0","13187427","wem/bandit_either_2","ARTSG66V2MOJ6","either","8","159","","","","","","","0","0","1","","0.3757830796","0.8","0.6","0.4","0.2","0.3757830796","0.3577317973","0.1243463141","0.286234052","","","","","","","","","","","","72","H","0","img/none_selected.jpg","","112","main_expt"
"","bandit","192","706925","0.0-153.0-0.0","13187427","wem/bandit_either_2","ARTSG66V2MOJ6","either","8","342","","","","","","","0","0","1","","0.3838999828","0.8","0.6","0.4","0.2","0.3838999828","0.3328808086","0.1433440675","0.1932674395","","","","","","","","","","","","72","H","0","img/none_selected.jpg","","113","main_expt"
"","bandit","193","708793","0.0-154.0-0.0","13187427","wem/bandit_either_2","ARTSG66V2MOJ6","either","8","348","","","","","","","0","0","1","0.4157938717","","0.8","0.6","0.4","0.2","","","","","0.4157938717","0.3416979579","0.1510662198","0.2403040534","","","","","","","","72","H","0","img/none_selected.jpg","","114","main_expt"
"","bandit","194","710667","0.0-155.0-0.0","13187427","wem/bandit_either_2","ARTSG66V2MOJ6","either","8","352","","","","","","","1","0","0","0.3377137281","","0.8","0.6","0.4","0.2","","","","","0.4055870595","0.3377137281","0.09845245139","0.254937398","","","","","","","","74","J","1","","","115","main_expt"
"","bandit","195","712449","0.0-156.0-0.0","13187427","wem/bandit_either_2","ARTSG66V2MOJ6","either","8","264","","","","","","","1","0","0","0.3039448029","","0.8","0.6","0.4","0.2","","","","","0.4161015278","0.3039448029","0.107393795","0.2605063941","","","","","","","","74","J","1","","","116","main_expt"
"","bandit","196","714293","0.0-157.0-0.0","13187427","wem/bandit_either_2","ARTSG66V2MOJ6","either","8","326","","","","","","","0","0","1","0.2974336912","","0.8","0.6","0.4","0.2","","","","","0.414877819","0.2974336912","0.07879800556","0.2161328783","","","","","","","","74","J","1","","","117","main_expt"
"","bandit","197","716049","0.0-158.0-0.0","13187427","wem/bandit_either_2","ARTSG66V2MOJ6","either","8","237","","","","","","","0","0","1","","0.2651867246","0.8","0.6","0.4","0.2","0.3968259953","0.2651867246","0.08383735875","0.1931197841","","","","","","","","","","","","74","J","1","","","118","main_expt"
"","bandit","198","717878","0.0-159.0-0.0","13187427","wem/bandit_either_2","ARTSG66V2MOJ6","either","8","310","","","","","","","1","0","0","0.3131666206","","0.8","0.6","0.4","0.2","","","","","0.4198241006","0.3131666206","0.1392474383","0.1638183597","","","","","","","","74","J","1","","","119","main_expt"
"","bandit","199","719678","0.0-160.0-0.0","13187427","wem/bandit_either_2","ARTSG66V2MOJ6","either","8","283","","","","","","","0","0","1","0.358829095","","0.8","0.6","0.4","0.2","","","","","0.4286088018","0.358829095","0.1649404926","0.1893282748","","","","","","","","74","J","1","","","120","main_expt"
"","bandit","200","721496","0.0-161.0-0.0","13187427","wem/bandit_either_2","ARTSG66V2MOJ6","either","8","297","","","","","","","1","0","0","0.3189860171","","0.8","0.6","0.4","0.2","","","","","0.4253829576","0.3189860171","0.1764152442","0.2290368179","","","","","","","","74","J","1","","","121","main_expt"
"","bandit","201","723340","0.0-162.0-0.0","13187427","wem/bandit_either_2","ARTSG66V2MOJ6","either","8","325","","","","","","","0","0","1","0.3011672979","","0.8","0.6","0.4","0.2","","","","","0.4235175979","0.3011672979","0.2092397698","0.2445441383","","","","","","","","74","J","1","","","122","main_expt"
"","bandit","202","725124","0.0-163.0-0.0","13187427","wem/bandit_either_2","ARTSG66V2MOJ6","either","8","266","","","","","","","0","0","1","","0.3037948063","0.8","0.6","0.4","0.2","0.4182090072","0.3037948063","0.1884058447","0.2091075756","","","","","","","","","","","","74","J","1","","","123","main_expt"
"","bandit","203","727037","0.0-164.0-0.0","13187427","wem/bandit_either_2","ARTSG66V2MOJ6","either","8","392","","","","","","","0","0","1","0.2446200253","","0.8","0.6","0.4","0.2","","","","","0.4356016004","0.2446200253","0.1876417206","0.2216111921","","","","","","","","74","J","1","","","124","main_expt"
"","bandit","204","728639","0.0-165.0-0.0","13187427","wem/bandit_either_2","ARTSG66V2MOJ6","either","8","82","","","","","","","0","0","1","0.1890564589","","0.8","0.6","0.4","0.2","","","","","0.403953628","0.2464628806","0.1890564589","0.1622020501","","","","","","","","75","K","2","","","125","main_expt"
"","bandit","205","730564","0.0-166.0-0.0","13187427","wem/bandit_either_2","ARTSG66V2MOJ6","either","8","405","","","","","","","0","0","1","","0.173533554","0.8","0.6","0.4","0.2","0.4020675328","0.281169445","0.1659850756","0.173533554","","","","","","","","","","","","76","L","3","","","126","main_expt"
"","bandit","206","732453","0.0-167.0-0.0","13187427","wem/bandit_either_2","ARTSG66V2MOJ6","either","8","365","","","","","","","0","0","1","0.338443572","","0.8","0.6","0.4","0.2","","","","","0.338443572","0.290080064","0.2006343121","0.189829559","","","","","","","","72","H","0","img/none_selected.jpg","","127","main_expt"
"","bandit","207","734451","0.0-168.0-0.0","13187427","wem/bandit_either_2","ARTSG66V2MOJ6","either","8","474","","","","","","","0","0","1","0.323123489","","0.8","0.6","0.4","0.2","","","","","0.323123489","0.3280989756","0.2637444583","0.1764696366","","","","","","","","72","H","0","img/none_selected.jpg","","128","main_expt"
"","bandit","208","736423","0.0-169.0-0.0","13187427","wem/bandit_either_2","ARTSG66V2MOJ6","either","8","452","","","","","","","0","0","1","0.3615310162","","0.8","0.6","0.4","0.2","","","","","0.3615310162","0.3052704822","0.2783394686","0.172709194","","","","","","","","72","H","0","img/none_selected.jpg","","129","main_expt"
"","bandit","209","738484","0.0-170.0-0.0","13187427","wem/bandit_either_2","ARTSG66V2MOJ6","either","8","544","","","","","","","0","0","1","","0.2674474002","0.8","0.6","0.4","0.2","0.3667448715","0.314718742","0.2674474002","0.1407460215","","","","","","","","","","","","75","K","2","","","130","main_expt"
"","bandit","210","740677","0.0-171.0-0.0","13187427","wem/bandit_either_2","ARTSG66V2MOJ6","either","8","673","","","","","","","0","0","1","","0.2492347367","0.8","0.6","0.4","0.2","0.341745941","0.2492347367","0.2122920843","0.143826562","","","","","","","","","","","","74","J","1","","","131","main_expt"
"","bandit","211","742902","0.0-172.0-0.0","13187427","wem/bandit_either_2","ARTSG66V2MOJ6","either","8","705","","","","","","","0","0","1","","0.2495736985","0.8","0.6","0.4","0.2","0.2615325727","0.2495736985","0.1969346152","0.1862992663","","","","","","","","","","","","74","J","1","","","132","main_expt"
"","bandit","212","744729","0.0-173.0-0.0","13187427","wem/bandit_either_2","ARTSG66V2MOJ6","either","8","308","","","","","","","0","0","1","0.2487120015","","0.8","0.6","0.4","0.2","","","","","0.27905624","0.2487120015","0.1390835973","0.185648564","","","","","","","","74","J","1","","","133","main_expt"
"","bandit","213","746653","0.0-174.0-0.0","13187427","wem/bandit_either_2","ARTSG66V2MOJ6","either","8","402","","","","","","","1","0","0","0.2002276213","","0.8","0.6","0.4","0.2","","","","","0.2751163123","0.3239420422","0.1437640715","0.2002276213","","","","","","","","76","L","3","","","134","main_expt"
"","bandit","214","748728","0.0-175.0-0.0","13187427","wem/bandit_either_2","ARTSG66V2MOJ6","either","8","557","","","","","","","1","0","0","0.2474552851","","0.8","0.6","0.4","0.2","","","","","0.2586507773","0.3903525049","0.1175999949","0.2474552851","","","","","","","","76","L","3","","","135","main_expt"
"","bandit","215","750678","0.0-176.0-0.0","13187427","wem/bandit_either_2","ARTSG66V2MOJ6","either","8","429","","","","","","","0","0","1","","0.2454982057","0.8","0.6","0.4","0.2","0.2385277364","0.3703049055","0.1108499649","0.2454982057","","","","","","","","","","","","76","L","3","","","136","main_expt"
"","bandit","216","752647","0.0-177.0-0.0","13187427","wem/bandit_either_2","ARTSG66V2MOJ6","either","8","449","","","","","","","0","0","1","0.2708690816","","0.8","0.6","0.4","0.2","","","","","0.1935782534","0.3657944308","0.1208727618","0.2708690816","","","","","","","","76","L","3","","","137","main_expt"
"","bandit","217","754564","0.0-178.0-0.0","13187427","wem/bandit_either_2","ARTSG66V2MOJ6","either","8","398","","","","","","","0","0","1","","0.2219039101","0.8","0.6","0.4","0.2","0.14087624","0.3452946514","0.1098805161","0.2219039101","","","","","","","","","","","","76","L","3","","","138","main_expt"
"","bandit","218","756476","0.0-179.0-0.0","13187427","wem/bandit_either_2","ARTSG66V2MOJ6","either","8","394","","","","","","","0","0","1","0.1340930794","","0.8","0.6","0.4","0.2","","","","","0.1340930794","0.3225052804","0.1359731218","0.2485571535","","","","","","","","72","H","0","img/none_selected.jpg","","139","main_expt"
"","bandit","219","758437","0.0-180.0-0.0","13187427","wem/bandit_either_2","ARTSG66V2MOJ6","either","8","438","","","","","","","1","0","0","0.1419248406","","0.8","0.6","0.4","0.2","","","","","0.1170750994","0.2997250911","0.1419248406","0.2605640439","","","","","","","","75","K","2","","","140","main_expt"
"","bandit","220","760352","0.0-181.0-0.0","13187427","wem/bandit_either_2","ARTSG66V2MOJ6","either","8","396","","","","","","","0","0","1","","0.1269577117","0.8","0.6","0.4","0.2","0.1316830279","0.311933389","0.1269577117","0.2260680923","","","","","","","","","","","","75","K","2","","","141","main_expt"
"","bandit","221","762308","0.0-182.0-0.0","13187427","wem/bandit_either_2","ARTSG66V2MOJ6","either","8","436","","","","","","","0","0","1","0.3442568425","","0.8","0.6","0.4","0.2","","","","","0.09490366034","0.3442568425","0.1073819056","0.2354846983","","","","","","","","74","J","1","","","142","main_expt"
"","bandit","222","764155","0.0-183.0-0.0","13187427","wem/bandit_either_2","ARTSG66V2MOJ6","either","8","326","","","","","","","0","0","1","","0.1152767294","0.8","0.6","0.4","0.2","0.1246024154","0.3117203045","0.1152767294","0.2089358464","","","","","","","","","","","","75","K","2","","","143","main_expt"
"","bandit","223","765999","0.0-184.0-0.0","13187427","wem/bandit_either_2","ARTSG66V2MOJ6","either","8","324","","","","","","","0","0","1","0.1179874238","","0.8","0.6","0.4","0.2","","","","","0.1179874238","0.3080771123","0.1317444946","0.1844607625","","","","","","","","72","H","0","img/none_selected.jpg","","144","main_expt"
"","bandit","224","767781","0.0-185.0-0.0","13187427","wem/bandit_either_2","ARTSG66V2MOJ6","either","8","264","","","","","","","0","1","0","","0.1940384654","0.8","0.6","0.4","0.2","0.1211842963","0.3146876691","0.1058600218","0.1940384654","","","","","","","","","","","","76","L","3","","","145","main_expt"
"","bandit","225","769697","0.0-186.0-0.0","13187427","wem/bandit_either_2","ARTSG66V2MOJ6","either","8","396","","","","","","","0","0","1","0.2532022814","","0.8","0.6","0.4","0.2","","","","","0.06212451067","0.3526806189","0.1862633901","0.2532022814","","","","","","","","76","L","3","","","146","main_expt"
"","bandit","226","771545","0.0-187.0-0.0","13187427","wem/bandit_either_2","ARTSG66V2MOJ6","either","8","329","","","","","","","0","0","1","","0.272856749","0.8","0.6","0.4","0.2","0.05826033827","0.3859334927","0.1944793183","0.272856749","","","","","","","","","","","","76","L","3","","","147","main_expt"
"","bandit","227","773395","0.0-188.0-0.0","13187427","wem/bandit_either_2","ARTSG66V2MOJ6","either","8","330","","","","","","","0","1","0","","0.2441255329","0.8","0.6","0.4","0.2","0.04847575149","0.4089873985","0.1572605535","0.2441255329","","","","","","","","","","","","76","L","3","","","148","main_expt"
"","bandit","228","775532","0.0-189.0-0.0","13187427","wem/bandit_either_2","ARTSG66V2MOJ6","either","8","613","","","","","","","0","1","0","","0.2304797635","0.8","0.6","0.4","0.2","0.07397138717","0.3317076441","0.1632070519","0.2304797635","","","","","","","","","","","","76","L","3","","","149","main_expt"
"","bandit","229","777422","0.0-190.0-0.0","13187427","wem/bandit_either_2","ARTSG66V2MOJ6","either","8","371","","","","","","","0","1","0","","0.2645424191","0.8","0.6","0.4","0.2","0.1178437277","0.2514439341","0.2162169298","0.2645424191","","","","","","","","","","","","76","L","3","","","150","main_expt"
"","bandit","230","779372","0.0-191.0-0.0","13187427","wem/bandit_either_2","ARTSG66V2MOJ6","either","8","431","","","","","","","0","1","0","","0.2919476008","0.8","0.6","0.4","0.2","0.1116740648","0.2209696772","0.2806681102","0.2919476008","","","","","","","","","","","","76","L","3","","","151","main_expt"
"","bandit","231","781285","0.0-192.0-0.0","13187427","wem/bandit_either_2","ARTSG66V2MOJ6","either","8","397","","","","","","","0","0","1","","0.3004198658","0.8","0.6","0.4","0.2","0.09681320826","0.2004300668","0.25223767","0.3004198658","","","","","","","","","","","","76","L","3","","","152","main_expt"
"","bandit","232","783249","0.0-193.0-0.0","13187427","wem/bandit_either_2","ARTSG66V2MOJ6","either","8","444","","","","","","","0","0","1","","0.2910243242","0.8","0.6","0.4","0.2","0.1162344283","0.1803159607","0.2259503681","0.2910243242","","","","","","","","","","","","76","L","3","","","153","main_expt"
"","bandit","233","785511","0.0-194.0-0.0","13187427","wem/bandit_either_2","ARTSG66V2MOJ6","either","8","741","","","","","","","0","0","1","0.2520515582","","0.8","0.6","0.4","0.2","","","","","0.1441765144","0.1793353988","0.2520515582","0.2858680692","","","","","","","","75","K","2","","","154","main_expt"
"","bandit","234","787317","0.0-195.0-0.0","13187427","wem/bandit_either_2","ARTSG66V2MOJ6","either","8","282","","","","","","","0","0","1","0.246895917","","0.8","0.6","0.4","0.2","","","","","0.1506434262","0.175125938","0.246895917","0.276906037","","","","","","","","75","K","2","","","155","main_expt"
"","bandit","235","789126","0.0-196.0-0.0","13187427","wem/bandit_either_2","ARTSG66V2MOJ6","either","8","292","","","","","","","0","0","1","","0.19004546","0.8","0.6","0.4","0.2","0.1691825384","0.19004546","0.2067462234","0.3087514371","","","","","","","","","","","","74","J","1","","","156","main_expt"
"","bandit","236","790963","0.0-197.0-0.0","13187427","wem/bandit_either_2","ARTSG66V2MOJ6","either","8","314","","","","","","","0","0","1","","0.1465267651","0.8","0.6","0.4","0.2","0.1465267651","0.1538528063","0.1736677602","0.3400763937","","","","","","","","","","","","72","H","0","img/none_selected.jpg","","157","main_expt"
"","bandit","237","792975","0.0-198.0-0.0","13187427","wem/bandit_either_2","ARTSG66V2MOJ6","either","8","492","","","","","","","0","0","1","0.1517260174","","0.8","0.6","0.4","0.2","","","","","0.1517260174","0.1624419901","0.2437422656","0.3388441277","","","","","","","","72","H","0","img/none_selected.jpg","","158","main_expt"
"","bandit","238","794884","0.0-199.0-0.0","13187427","wem/bandit_either_2","ARTSG66V2MOJ6","either","8","384","","","","","","","0","0","1","0.143579764","","0.8","0.6","0.4","0.2","","","","","0.143579764","0.1749682205","0.2627628197","0.3496437485","","","","","","","","72","H","0","img/none_selected.jpg","","159","main_expt"
"","bandit","239","796784","0.0-200.0-0.0","13187427","wem/bandit_either_2","ARTSG66V2MOJ6","either","8","377","","","","","","","0","0","1","","0.2227833177","0.8","0.6","0.4","0.2","0.1701049762","0.2227833177","0.2532756584","0.3347491532","","","","","","","","","","","","74","J","1","","","160","main_expt"
"","bandit","240","798620","0.0-201.0-0.0","13187427","wem/bandit_either_2","ARTSG66V2MOJ6","either","8","310","","","","","","","0","0","1","","0.2846030245","0.8","0.6","0.4","0.2","0.1596038406","0.1616195486","0.2846030245","0.3036625801","","","","","","","","","","","","75","K","2","","","161","main_expt"
"","bandit","241","800519","0.0-202.0-0.0","13187427","wem/bandit_either_2","ARTSG66V2MOJ6","either","8","375","","","","","","","0","0","1","","0.2735804545","0.8","0.6","0.4","0.2","0.1186271452","0.1440802068","0.2480450928","0.2735804545","","","","","","","","","","","","76","L","3","","","162","main_expt"
"","bandit","242","802383","0.0-203.0-0.0","13187427","wem/bandit_either_2","ARTSG66V2MOJ6","either","8","340","","","","","","","0","0","1","","0.2219233964","0.8","0.6","0.4","0.2","0.1460830151","0.1349250059","0.3217860246","0.2219233964","","","","","","","","","","","","76","L","3","","","163","main_expt"
"","bandit","243","804158","0.0-204.0-0.0","13187427","wem/bandit_either_2","ARTSG66V2MOJ6","either","8","256","","","","","","","0","0","1","","0.2489701673","0.8","0.6","0.4","0.2","0.1924179555","0.1482528248","0.3528623486","0.2489701673","","","","","","","","","","","","76","L","3","","","164","main_expt"
"","bandit","244","805910","0.0-205.0-0.0","13187427","wem/bandit_either_2","ARTSG66V2MOJ6","either","8","227","","","","","","","0","1","0","","0.2424219606","0.8","0.6","0.4","0.2","0.1909643941","0.1444116863","0.3113737792","0.2424219606","","","","","","","","","","","","76","L","3","","","165","main_expt"
"","bandit","245","807692","0.0-206.0-0.0","13187427","wem/bandit_either_2","ARTSG66V2MOJ6","either","8","260","","","","","","","0","0","1","0.1899742571","","0.8","0.6","0.4","0.2","","","","","0.1917506842","0.1621449425","0.2820045276","0.1899742571","","","","","","","","76","L","3","","","166","main_expt"
"","bandit","246","809486","0.0-207.0-0.0","13187427","wem/bandit_either_2","ARTSG66V2MOJ6","either","8","272","","","","","","","0","1","0","","0.2298880826","0.8","0.6","0.4","0.2","0.2238056512","0.1695256229","0.2539690707","0.2298880826","","","","","","","","","","","","76","L","3","","","167","main_expt"
"","bandit","247","811354","0.0-208.0-0.0","13187427","wem/bandit_either_2","ARTSG66V2MOJ6","either","8","345","","","","","","","0","0","1","","0.241220494","0.8","0.6","0.4","0.2","0.2132240521","0.1712445676","0.2177565821","0.241220494","","","","","","","","","","","","76","L","3","","","168","main_expt"
"","bandit","248","813134","0.0-209.0-0.0","13187427","wem/bandit_either_2","ARTSG66V2MOJ6","either","8","255","","","","","","","0","0","1","","0.2113351254","0.8","0.6","0.4","0.2","0.1363713625","0.191079104","0.183214586","0.2113351254","","","","","","","","","","","","76","L","3","","","169","main_expt"
"","bandit","249","814944","0.0-210.0-0.0","13187427","wem/bandit_either_2","ARTSG66V2MOJ6","either","8","288","","","","","","","0","0","1","0.2224744884","","0.8","0.6","0.4","0.2","","","","","0.2007690262","0.2227666825","0.1757282231","0.2224744884","","","","","","","","76","L","3","","","170","main_expt"
"","bandit","250","816916","0.0-211.0-0.0","13187427","wem/bandit_either_2","ARTSG66V2MOJ6","either","8","451","","","","","","","0","0","1","","0.1679331046","0.8","0.6","0.4","0.2","0.1238998316","0.2719914804","0.1679331046","0.262177911","","","","","","","","","","","","75","K","2","","","171","main_expt"
"","bandit","251","818700","0.0-212.0-0.0","13187427","wem/bandit_either_2","ARTSG66V2MOJ6","either","8","261","","","","","","","0","0","1","0.14560319","","0.8","0.6","0.4","0.2","","","","","0.09746419185","0.2330128459","0.14560319","0.2822992514","","","","","","","","75","K","2","","","172","main_expt"
"","bandit","252","820430","0.0-213.0-0.0","13187427","wem/bandit_either_2","ARTSG66V2MOJ6","either","8","207","","","","","","","0","0","1","","0.2840251313","0.8","0.6","0.4","0.2","0.1018164217","0.2840251313","0.1341549344","0.2545762091","","","","","","","","","","","","74","J","1","","","173","main_expt"
"","bandit","253","822166","0.0-214.0-0.0","13187427","wem/bandit_either_2","ARTSG66V2MOJ6","either","8","211","","","","","","","0","0","1","","0.2838184637","0.8","0.6","0.4","0.2","0.1401689619","0.2739042306","0.1471305278","0.2838184637","","","","","","","","","","","","76","L","3","","","174","main_expt"
"","bandit","254","824111","0.0-215.0-0.0","13187427","wem/bandit_either_2","ARTSG66V2MOJ6","either","8","424","","","","","","","0","1","0","","0.3002790513","0.8","0.6","0.4","0.2","0.1697524679","0.3444735506","0.173963405","0.3002790513","","","","","","","","","","","","76","L","3","","","175","main_expt"
"","bandit","255","826252","0.0-216.0-0.0","13187427","wem/bandit_either_2","ARTSG66V2MOJ6","either","8","622","","","","","","","0","0","1","","0.3771690292","0.8","0.6","0.4","0.2","0.1896898672","0.3223017316","0.1821857965","0.3771690292","","","","","","","","","","","","76","L","3","","","176","main_expt"
"","bandit","256","828024","0.0-217.0-0.0","13187427","wem/bandit_either_2","ARTSG66V2MOJ6","either","8","247","","","","","","","0","0","1","0.4047809956","","0.8","0.6","0.4","0.2","","","","","0.2441254625","0.2964924158","0.1444884472","0.4047809956","","","","","","","","76","L","3","","","177","main_expt"
"","bandit","257","829785","0.0-218.0-0.0","13187427","wem/bandit_either_2","ARTSG66V2MOJ6","either","8","241","","","","","","","1","0","0","0.2427722412","","0.8","0.6","0.4","0.2","","","","","0.2427722412","0.2780576925","0.1207783293","0.4344960837","","","","","","","","72","H","0","img/none_selected.jpg","","178","main_expt"
"","bandit","258","831596","0.0-219.0-0.0","13187427","wem/bandit_either_2","ARTSG66V2MOJ6","either","8","286","","","","","","","1","0","0","0.2284650367","","0.8","0.6","0.4","0.2","","","","","0.2284650367","0.2859751729","0.111585665","0.4287912686","","","","","","","","72","H","0","img/none_selected.jpg","","179","main_expt"
"","bandit","259","833403","0.0-220.0-0.0","13187427","wem/bandit_either_2","ARTSG66V2MOJ6","either","8","285","","","","","","","0","0","1","0.2694081366","","0.8","0.6","0.4","0.2","","","","","0.2694081366","0.283533164","0.06891525065","0.4294180747","","","","","","","","72","H","0","img/none_selected.jpg","","180","main_expt"
"","bandit","260","835185","0.0-221.0-0.0","13187427","wem/bandit_either_2","ARTSG66V2MOJ6","either","8","259","","","","","","","1","0","0","0.2471628034","","0.8","0.6","0.4","0.2","","","","","0.2471628034","0.2430023428","0.07407739619","0.3887332701","","","","","","","","72","H","0","img/none_selected.jpg","","181","main_expt"
"","bandit","261","836986","0.0-222.0-0.0","13187427","wem/bandit_either_2","ARTSG66V2MOJ6","either","8","281","","","","","","","0","0","1","0.275372354","","0.8","0.6","0.4","0.2","","","","","0.275372354","0.223254837","0.07501704201","0.3910635387","","","","","","","","72","H","0","img/none_selected.jpg","","182","main_expt"
"","bandit","262","838842","0.0-223.0-0.0","13187427","wem/bandit_either_2","ARTSG66V2MOJ6","either","8","330","","","","","","","0","0","1","","0.2378950907","0.8","0.6","0.4","0.2","0.2378950907","0.2274286797","0.09354103142","0.3957792538","","","","","","","","","","","","72","H","0","img/none_selected.jpg","","183","main_expt"
"","bandit","263","840631","0.0-224.0-0.0","13187427","wem/bandit_either_2","ARTSG66V2MOJ6","either","8","270","","","","","","","0","0","1","","0.2611999536","0.8","0.6","0.4","0.2","0.2611999536","0.2485964068","0.06673830493","0.3777829694","","","","","","","","","","","","72","H","0","img/none_selected.jpg","","184","main_expt"
"","bandit","264","842444","0.0-225.0-0.0","13187427","wem/bandit_either_2","ARTSG66V2MOJ6","either","8","289","","","","","","","0","0","1","0.2799245071","","0.8","0.6","0.4","0.2","","","","","0.2799245071","0.2080173303","0.08617836821","0.4130939835","","","","","","","","72","H","0","img/none_selected.jpg","","185","main_expt"
"","bandit","265","844153","0.0-226.0-0.0","13187427","wem/bandit_either_2","ARTSG66V2MOJ6","either","8","189","","","","","","","0","0","1","0.2275386122","","0.8","0.6","0.4","0.2","","","","","0.2275386122","0.2538883687","0.05054014018","0.376930599","","","","","","","","72","H","0","img/none_selected.jpg","","186","main_expt"
"","bandit","266","845965","0.0-227.0-0.0","13187427","wem/bandit_either_2","ARTSG66V2MOJ6","either","8","287","","","","","","","1","0","0","0.2558518805","","0.8","0.6","0.4","0.2","","","","","0.2558518805","0.2267652077","0.1101456656","0.3934592684","","","","","","","","72","H","0","img/none_selected.jpg","","187","main_expt"
"","bandit","267","847799","0.0-228.0-0.0","13187427","wem/bandit_either_2","ARTSG66V2MOJ6","either","8","308","","","","","","","1","0","0","0.2757393749","","0.8","0.6","0.4","0.2","","","","","0.2757393749","0.2583789709","0.1076418148","0.4086060551","","","","","","","","72","H","0","img/none_selected.jpg","","188","main_expt"
"","bandit","268","849625","0.0-229.0-0.0","13187427","wem/bandit_either_2","ARTSG66V2MOJ6","either","8","301","","","","","","","0","0","1","0.3326758055","","0.8","0.6","0.4","0.2","","","","","0.3326758055","0.2329768584","0.1230456027","0.447145564","","","","","","","","72","H","0","img/none_selected.jpg","","189","main_expt"
"","bandit","269","851450","0.0-230.0-0.0","13187427","wem/bandit_either_2","ARTSG66V2MOJ6","either","8","303","","","","","","","0","0","1","0.332927569","","0.8","0.6","0.4","0.2","","","","","0.332927569","0.2002510669","0.1872873117","0.386091063","","","","","","","","72","H","0","img/none_selected.jpg","","190","main_expt"
"","bandit","270","853208","0.0-231.0-0.0","13187427","wem/bandit_either_2","ARTSG66V2MOJ6","either","8","231","","","","","","","1","0","0","0.3859199101","","0.8","0.6","0.4","0.2","","","","","0.3859199101","0.2182600554","0.1413073252","0.4221145333","","","","","","","","72","H","0","img/none_selected.jpg","","191","main_expt"
"","bandit","271","855196","0.0-232.0-0.0","13187427","wem/bandit_either_2","ARTSG66V2MOJ6","either","8","468","","","","","","","0","1","0","","0.392668484","0.8","0.6","0.4","0.2","0.392668484","0.2681613901","0.1868627967","0.3913199708","","","","","","","","","","","","72","H","0","img/none_selected.jpg","","192","main_expt"
"","bandit","272","857045","0.0-233.0-0.0","13187427","wem/bandit_either_2","ARTSG66V2MOJ6","either","8","326","","","","","","","1","0","0","0.3789843676","","0.8","0.6","0.4","0.2","","","","","0.3789843676","0.3035027483","0.2312719224","0.4013624592","","","","","","","","72","H","0","img/none_selected.jpg","","193","main_expt"
"","bandit","273","858846","0.0-234.0-0.0","13187427","wem/bandit_either_2","ARTSG66V2MOJ6","either","8","280","","","","","","","0","0","1","0.3689216281","","0.8","0.6","0.4","0.2","","","","","0.3689216281","0.275531754","0.2585201677","0.3668237699","","","","","","","","72","H","0","img/none_selected.jpg","","194","main_expt"
"","bandit","274","860643","0.0-235.0-0.0","13187427","wem/bandit_either_2","ARTSG66V2MOJ6","either","8","272","","","","","","","1","0","0","0.4136905162","","0.8","0.6","0.4","0.2","","","","","0.4136905162","0.2716401532","0.2786104129","0.3856266791","","","","","","","","72","H","0","img/none_selected.jpg","","195","main_expt"
"","bandit","275","862430","0.0-236.0-0.0","13187427","wem/bandit_either_2","ARTSG66V2MOJ6","either","8","265","","","","","","","0","0","1","","0.4258575101","0.8","0.6","0.4","0.2","0.4258575101","0.2814611543","0.2407834285","0.3702439493","","","","","","","","","","","","72","H","0","img/none_selected.jpg","","196","main_expt"
"","bandit","276","864224","0.0-237.0-0.0","13187427","wem/bandit_either_2","ARTSG66V2MOJ6","either","8","270","","","","","","","1","0","0","0.3976178043","","0.8","0.6","0.4","0.2","","","","","0.3976178043","0.2588010394","0.2550568011","0.3665926528","","","","","","","","72","H","0","img/none_selected.jpg","","197","main_expt"
"","bandit","277","866065","0.0-238.0-0.0","13187427","wem/bandit_either_2","ARTSG66V2MOJ6","either","8","320","","","","","","","0","0","1","","0.3802378075","0.8","0.6","0.4","0.2","0.3802378075","0.3094610495","0.3094863904","0.3432124584","","","","","","","","","","","","72","H","0","img/none_selected.jpg","","198","main_expt"
"","bandit","278","867821","0.0-239.0-0.0","13187427","wem/bandit_either_2","ARTSG66V2MOJ6","either","8","228","","","","","","","1","0","0","0.3926800246","","0.8","0.6","0.4","0.2","","","","","0.3926800246","0.3139278769","0.3012985694","0.4096574544","","","","","","","","72","H","0","img/none_selected.jpg","","199","main_expt"
"","bandit","279","869635","0.0-240.0-0.0","13187427","wem/bandit_either_2","ARTSG66V2MOJ6","either","8","293","","","","","","","1","0","0","0.3814844917","","0.8","0.6","0.4","0.2","","","","","0.3814844917","0.3459706187","0.3149132519","0.3799023259","","","","","","","","72","H","0","img/none_selected.jpg","","200","main_expt"
"","bandit","280","871383","0.0-241.0-0.0","13187427","wem/bandit_either_2","ARTSG66V2MOJ6","either","8","225","","","","","","","0","0","1","","0.3831630738","0.8","0.6","0.4","0.2","0.3831630738","0.3038365479","0.3236307962","0.3513783521","","","","","","","","","","","","72","H","0","img/none_selected.jpg","","201","main_expt"
"","bandit","281","873237","0.0-242.0-0.0","13187427","wem/bandit_either_2","ARTSG66V2MOJ6","either","8","332","","","","","","","1","0","0","0.3957430938","","0.8","0.6","0.4","0.2","","","","","0.3957430938","0.2964599608","0.3163717903","0.3439351057","","","","","","","","72","H","0","img/none_selected.jpg","","202","main_expt"
"","bandit","282","875124","0.0-243.0-0.0","13187427","wem/bandit_either_2","ARTSG66V2MOJ6","either","8","359","","","","","","","0","0","1","0.4175506619","","0.8","0.6","0.4","0.2","","","","","0.4175506619","0.280336616","0.3165936227","0.2615327891","","","","","","","","72","H","0","img/none_selected.jpg","","203","main_expt"
"","bandit","283","876880","0.0-244.0-0.0","13187427","wem/bandit_either_2","ARTSG66V2MOJ6","either","8","231","","","","","","","1","0","0","0.4356800279","","0.8","0.6","0.4","0.2","","","","","0.4356800279","0.262900641","0.3166231072","0.2211517471","","","","","","","","72","H","0","img/none_selected.jpg","","204","main_expt"
"","bandit","284","878705","0.0-245.0-0.0","13187427","wem/bandit_either_2","ARTSG66V2MOJ6","either","8","300","","","","","","","1","0","0","0.4342993254","","0.8","0.6","0.4","0.2","","","","","0.4342993254","0.3403150927","0.2983153058","0.1955747294","","","","","","","","72","H","0","img/none_selected.jpg","","205","main_expt"
"","bandit","285","880697","0.0-246.0-0.0","13187427","wem/bandit_either_2","ARTSG66V2MOJ6","either","8","469","","","","","","","1","0","0","0.4515967499","","0.8","0.6","0.4","0.2","","","","","0.4515967499","0.3407188883","0.255573156","0.3137251184","","","","","","","","72","H","0","img/none_selected.jpg","","206","main_expt"
"","bandit","286","882804","0.0-247.0-0.0","13187427","wem/bandit_either_2","ARTSG66V2MOJ6","either","8","581","","","","","","","0","0","1","0.4559700358","","0.8","0.6","0.4","0.2","","","","","0.4559700358","0.2955601217","0.2816724171","0.2982459604","","","","","","","","72","H","0","img/none_selected.jpg","","207","main_expt"
"","bandit","287","884743","0.0-248.0-0.0","13187427","wem/bandit_either_2","ARTSG66V2MOJ6","either","8","416","","","","","","","0","0","1","0.4711787588","","0.8","0.6","0.4","0.2","","","","","0.4711787588","0.2832193826","0.2462622089","0.2359404152","","","","","","","","72","H","0","img/none_selected.jpg","","208","main_expt"
"","bandit","288","886614","0.0-249.0-0.0","13187427","wem/bandit_either_2","ARTSG66V2MOJ6","either","8","346","","","","","","","1","0","0","0.4859779177","","0.8","0.6","0.4","0.2","","","","","0.4859779177","0.25637755","0.2608633631","0.2396635106","","","","","","","","72","H","0","img/none_selected.jpg","","209","main_expt"
"","bandit","289","888603","0.0-250.0-0.0","13187427","wem/bandit_either_2","ARTSG66V2MOJ6","either","8","464","","","","","","","1","0","0","0.4798195452","","0.8","0.6","0.4","0.2","","","","","0.4798195452","0.2500912527","0.2649708152","0.2320506775","","","","","","","","72","H","0","img/none_selected.jpg","","210","main_expt"
"","bandit","290","890507","0.0-251.0-0.0","13187427","wem/bandit_either_2","ARTSG66V2MOJ6","either","8","378","","","","","","","0","0","1","0.4754072522","","0.8","0.6","0.4","0.2","","","","","0.4754072522","0.2481129288","0.2658594566","0.1894847828","","","","","","","","72","H","0","img/none_selected.jpg","","211","main_expt"
"","bandit","291","892435","0.0-252.0-0.0","13187427","wem/bandit_either_2","ARTSG66V2MOJ6","either","8","403","","","","","","","0","0","1","0.4780703898","","0.8","0.6","0.4","0.2","","","","","0.4780703898","0.3192168596","0.2648449814","0.2330804604","","","","","","","","72","H","0","img/none_selected.jpg","","212","main_expt"
"","bandit","292","894488","0.0-253.0-0.0","13187427","wem/bandit_either_2","ARTSG66V2MOJ6","either","8","526","","","","","","","1","0","0","0.4883488692","","0.8","0.6","0.4","0.2","","","","","0.4883488692","0.2361953268","0.286492297","0.2484053244","","","","","","","","72","H","0","img/none_selected.jpg","","213","main_expt"
"","bandit","293","896425","0.0-254.0-0.0","13187427","wem/bandit_either_2","ARTSG66V2MOJ6","either","8","413","","","","","","","1","0","0","0.4872562331","","0.8","0.6","0.4","0.2","","","","","0.4872562331","0.2308921763","0.2540339129","0.2182548364","","","","","","","","72","H","0","img/none_selected.jpg","","214","main_expt"
"","bandit","294","898282","0.0-255.0-0.0","13187427","wem/bandit_either_2","ARTSG66V2MOJ6","either","8","329","","","","","","","1","0","0","0.4749609167","","0.8","0.6","0.4","0.2","","","","","0.4749609167","0.2161033537","0.254651127","0.1824073789","","","","","","","","72","H","0","img/none_selected.jpg","","215","main_expt"
"","bandit","295","900126","0.0-256.0-0.0","13187427","wem/bandit_either_2","ARTSG66V2MOJ6","either","8","323","","","","","","","1","0","0","0.4798413464","","0.8","0.6","0.4","0.2","","","","","0.4798413464","0.1896756427","0.3140517816","0.1923730387","","","","","","","","72","H","0","img/none_selected.jpg","","216","main_expt"
"","bandit","296","902113","0.0-257.0-0.0","13187427","wem/bandit_either_2","ARTSG66V2MOJ6","either","8","462","","","","","","","1","0","0","0.4865144435","","0.8","0.6","0.4","0.2","","","","","0.4865144435","0.1724286307","0.3338676317","0.2266612446","","","","","","","","72","H","0","img/none_selected.jpg","","217","main_expt"
"","bandit","297","903961","0.0-258.0-0.0","13187427","wem/bandit_either_2","ARTSG66V2MOJ6","either","8","326","","","","","","","0","0","1","0.4789145001","","0.8","0.6","0.4","0.2","","","","","0.4789145001","0.161168334","0.3397001125","0.1702705737","","","","","","","","72","H","0","img/none_selected.jpg","","218","main_expt"
"","bandit","298","905783","0.0-259.0-0.0","13187427","wem/bandit_either_2","ARTSG66V2MOJ6","either","8","296","","","","","","","1","0","0","0.4834748692","","0.8","0.6","0.4","0.2","","","","","0.4834748692","0.2021763003","0.2982528089","0.1159766116","","","","","","","","72","H","0","img/none_selected.jpg","","219","main_expt"
"","bandit","299","907671","0.0-260.0-0.0","13187427","wem/bandit_either_2","ARTSG66V2MOJ6","either","8","366","","","","","","","1","0","0","0.4722371777","","0.8","0.6","0.4","0.2","","","","","0.4722371777","0.2142164272","0.2770934022","0.09529473055","","","","","","","","72","H","0","img/none_selected.jpg","","220","main_expt"
"","bandit","300","909473","0.0-261.0-0.0","13187427","wem/bandit_either_2","ARTSG66V2MOJ6","either","8","272","","","","","","","0","0","1","","0.4654689219","0.8","0.6","0.4","0.2","0.4654689219","0.189068297","0.2696770889","0.09060922323","","","","","","","","","","","","72","H","0","img/none_selected.jpg","","221","main_expt"
"","bandit","301","911307","0.0-262.0-0.0","13187427","wem/bandit_either_2","ARTSG66V2MOJ6","either","8","307","","","","","","","1","0","0","0.4533789701","","0.8","0.6","0.4","0.2","","","","","0.4533789701","0.2120997892","0.3103502417","0.1250772464","","","","","","","","72","H","0","img/none_selected.jpg","","222","main_expt"
"","bandit","302","913136","0.0-263.0-0.0","13187427","wem/bandit_either_2","ARTSG66V2MOJ6","either","8","306","","","","","","","0","0","1","0.4473019993","","0.8","0.6","0.4","0.2","","","","","0.4473019993","0.1937664477","0.3477728299","0.1177235221","","","","","","","","72","H","0","img/none_selected.jpg","","223","main_expt"
"","bandit","303","914988","0.0-264.0-0.0","13187427","wem/bandit_either_2","ARTSG66V2MOJ6","either","8","327","","","","","","","0","0","1","","0.4651086175","0.8","0.6","0.4","0.2","0.4651086175","0.2195846313","0.3230244909","0.1589673504","","","","","","","","","","","","72","H","0","img/none_selected.jpg","","224","main_expt"
"","bandit","304","916790","0.0-265.0-0.0","13187427","wem/bandit_either_2","ARTSG66V2MOJ6","either","8","280","","","","","","","1","0","0","0.4704934375","","0.8","0.6","0.4","0.2","","","","","0.4704934375","0.1973587738","0.3641913847","0.1582937281","","","","","","","","72","H","0","img/none_selected.jpg","","225","main_expt"
"","bandit","305","918610","0.0-266.0-0.0","13187427","wem/bandit_either_2","ARTSG66V2MOJ6","either","8","297","","","","","","","1","0","0","0.4545632724","","0.8","0.6","0.4","0.2","","","","","0.4545632724","0.2029059012","0.3211822138","0.1585786296","","","","","","","","72","H","0","img/none_selected.jpg","","226","main_expt"
"","bandit","306","920652","0.0-267.0-0.0","13187427","wem/bandit_either_2","ARTSG66V2MOJ6","either","8","514","","","","","","","1","0","0","0.4313330006","","0.8","0.6","0.4","0.2","","","","","0.4313330006","0.1677618241","0.3318596792","0.1614007709","","","","","","","","72","H","0","img/none_selected.jpg","","227","main_expt"
"","bandit","307","922509","0.0-268.0-0.0","13187427","wem/bandit_either_2","ARTSG66V2MOJ6","either","8","333","","","","","","","0","0","1","0.4253897179","","0.8","0.6","0.4","0.2","","","","","0.4253897179","0.2079318551","0.3715738924","0.1160982884","","","","","","","","72","H","0","img/none_selected.jpg","","228","main_expt"
"","bandit","308","924312","0.0-269.0-0.0","13187427","wem/bandit_either_2","ARTSG66V2MOJ6","either","8","274","","","","","","","0","0","1","","0.4416009531","0.8","0.6","0.4","0.2","0.4416009531","0.1860779256","0.3571583743","0.1327168588","","","","","","","","","","","","72","H","0","img/none_selected.jpg","","229","main_expt"
"","bandit","309","926100","0.0-270.0-0.0","13187427","wem/bandit_either_2","ARTSG66V2MOJ6","either","8","265","","","","","","","0","0","1","0.4612445757","","0.8","0.6","0.4","0.2","","","","","0.4612445757","0.1294985144","0.3455313741","0.1751239199","","","","","","","","72","H","0","img/none_selected.jpg","","230","main_expt"
"","bandit","310","927874","0.0-271.0-0.0","13187427","wem/bandit_either_2","ARTSG66V2MOJ6","either","8","249","","","","","","","0","0","1","","0.4455927364","0.8","0.6","0.4","0.2","0.4455927364","0.1424139305","0.3114256563","0.2080149414","","","","","","","","","","","","72","H","0","img/none_selected.jpg","","231","main_expt"
"","bandit","311","929657","0.0-272.0-0.0","13187427","wem/bandit_either_2","ARTSG66V2MOJ6","either","8","259","","","","","","","0","0","1","","0.4449483857","0.8","0.6","0.4","0.2","0.4449483857","0.1777617008","0.3127001645","0.2305008548","","","","","","","","","","","","72","H","0","img/none_selected.jpg","","232","main_expt"
"","bandit","312","931300","0.0-273.0-0.0","13187427","wem/bandit_either_2","ARTSG66V2MOJ6","either","8","120","","","","","","","1","0","0","0.4570404202","","0.8","0.6","0.4","0.2","","","","","0.4570404202","0.1408291819","0.2953609795","0.2331895239","","","","","","","","72","H","0","img/none_selected.jpg","","233","main_expt"
"","bandit","313","933069","0.0-274.0-0.0","13187427","wem/bandit_either_2","ARTSG66V2MOJ6","either","8","241","","","","","","","1","0","0","0.4785018613","","0.8","0.6","0.4","0.2","","","","","0.4785018613","0.09563300426","0.2743769666","0.2007149185","","","","","","","","72","H","0","img/none_selected.jpg","","234","main_expt"
"","bandit","314","934919","0.0-275.0-0.0","13187427","wem/bandit_either_2","ARTSG66V2MOJ6","either","8","328","","","","","","","0","0","1","0.4708517218","","0.8","0.6","0.4","0.2","","","","","0.4708517218","0.06508254785","0.2842570603","0.1428876463","","","","","","","","72","H","0","img/none_selected.jpg","","235","main_expt"
"","bandit","315","936663","0.0-276.0-0.0","13187427","wem/bandit_either_2","ARTSG66V2MOJ6","either","8","218","","","","","","","0","0","1","0.4721911582","","0.8","0.6","0.4","0.2","","","","","0.4721911582","0.05272484418","0.3536106974","0.1327756685","","","","","","","","72","H","0","img/none_selected.jpg","","236","main_expt"
"","bandit","316","938320","0.0-277.0-0.0","13187427","wem/bandit_either_2","ARTSG66V2MOJ6","either","8","132","","","","","","","1","0","0","0.4567984566","","0.8","0.6","0.4","0.2","","","","","0.4567984566","0.05000735717","0.3777879982","0.1969646424","","","","","","","","72","H","0","img/none_selected.jpg","","237","main_expt"
"","bandit","317","940170","0.0-278.0-0.0","13187427","wem/bandit_either_2","ARTSG66V2MOJ6","either","8","327","","","","","","","1","0","0","0.4601910044","","0.8","0.6","0.4","0.2","","","","","0.4601910044","0.03409798278","0.3819628943","0.2040955009","","","","","","","","72","H","0","img/none_selected.jpg","","238","main_expt"
"","bandit","318","942014","0.0-279.0-0.0","13187427","wem/bandit_either_2","ARTSG66V2MOJ6","either","8","315","","","","","","","0","0","1","0.4663275819","","0.8","0.6","0.4","0.2","","","","","0.4663275819","0.03555143528","0.3590612953","0.1885012088","","","","","","","","72","H","0","img/none_selected.jpg","","239","main_expt"
"","bandit","319","943806","0.0-280.0-0.0","13187427","wem/bandit_either_2","ARTSG66V2MOJ6","either","8","270","","","","","","","1","0","0","0.4781926851","","0.8","0.6","0.4","0.2","","","","","0.4781926851","0.06633834621","0.3943681209","0.1779850251","","","","","","","","72","H","0","img/none_selected.jpg","","240","main_expt"
"","bandit","320","945608","0.0-281.0-0.0","13187427","wem/bandit_either_2","ARTSG66V2MOJ6","either","8","278","","","","","","","1","0","0","0.4813407325","","0.8","0.6","0.4","0.2","","","","","0.4813407325","0.0332650027","0.4178476804","0.2132761508","","","","","","","","72","H","0","img/none_selected.jpg","","241","main_expt"
"","bandit","321","947396","0.0-282.0-0.0","13187427","wem/bandit_either_2","ARTSG66V2MOJ6","either","8","263","","","","","","","0","1","0","","0.4758201438","0.8","0.6","0.4","0.2","0.4758201438","0.03674005559","0.4083523659","0.2181708985","","","","","","","","","","","","72","H","0","img/none_selected.jpg","","242","main_expt"
"","bandit","322","949174","0.0-283.0-0.0","13187427","wem/bandit_either_2","ARTSG66V2MOJ6","either","8","252","","","","","","","1","0","0","0.4739127226","","0.8","0.6","0.4","0.2","","","","","0.4739127226","0.02732183546","0.4107673147","0.1880751836","","","","","","","","72","H","0","img/none_selected.jpg","","243","main_expt"
"","bandit","323","951000","0.0-284.0-0.0","13187427","wem/bandit_either_2","ARTSG66V2MOJ6","either","8","302","","","","","","","0","0","1","0.4467527753","","0.8","0.6","0.4","0.2","","","","","0.4467527753","0.02742276317","0.3914084711","0.2693527465","","","","","","","","72","H","0","img/none_selected.jpg","","244","main_expt"
"","bandit","324","952823","0.0-285.0-0.0","13187427","wem/bandit_either_2","ARTSG66V2MOJ6","either","8","294","","","","","","","1","0","0","0.4492118003","","0.8","0.6","0.4","0.2","","","","","0.4492118003","0.03322496416","0.4117032301","0.2474629182","","","","","","","","72","H","0","img/none_selected.jpg","","245","main_expt"
"","bandit","325","954658","0.0-286.0-0.0","13187427","wem/bandit_either_2","ARTSG66V2MOJ6","either","8","309","","","","","","","0","0","1","0.4702058379","","0.8","0.6","0.4","0.2","","","","","0.4702058379","0.0538648904","0.4225436654","0.3019125269","","","","","","","","72","H","0","img/none_selected.jpg","","246","main_expt"
