"consent","trial_type","trial_index","time_elapsed","internal_node_id","subjID","study","MID","cond","drift","rt","responses","key_press","expt_phase","like","value","connected","gems","bombs","no_reward","GemPrChosen","BombPrChosen","GainOverPainPr_0","GainOverPainPr_1","GainOverPainPr_2","GainOverPainPr_3","LosePr_0","LosePr_1","LosePr_2","LosePr_3","WinPr_0","WinPr_1","WinPr_2","WinPr_3","Q0","Q1","Q2","gender","age","ethnicity","target","respCharCode","respKey","respChoiceNum","respChoice","practice","trial_counter","trial_label"
"INL_behavioral_consent_30min_online.html","consent","0","56116","0.0-0.0","13517775","wem/bandit_either_2","A1V1JNPU0KOA3X","either","2","","","","","","","","","","","","","","","","","","","","","","","","","","","","","","","","","","","","","",""
"","survey-text","1","68977","0.0-1.0","13517775","wem/bandit_either_2","A1V1JNPU0KOA3X","either","2","11846","{""Q0"":""A1V1JNPU0KOA3X""}","","","","","","","","","","","","","","","","","","","","","","","","","","","","","","","","","","","",""
"","text","2","95519","0.0-2.0","13517775","wem/bandit_either_2","A1V1JNPU0KOA3X","either","2","25537","","32","","","","","","","","","","","","","","","","","","","","","","","","","","","","","","","","","","",""
"","text","3","101707","0.0-3.0","13517775","wem/bandit_either_2","A1V1JNPU0KOA3X","either","2","6187","","32","","","","","","","","","","","","","","","","","","","","","","","","","","","","","","","","","","",""
"","text","4","122404","0.0-4.0","13517775","wem/bandit_either_2","A1V1JNPU0KOA3X","either","2","20694","","32","","","","","","","","","","","","","","","","","","","","","","","","","","","","","","","","","","",""
"","text","5","146939","0.0-5.0","13517775","wem/bandit_either_2","A1V1JNPU0KOA3X","either","2","24531","","32","","","","","","","","","","","","","","","","","","","","","","","","","","","","","","","","","","",""
"","text","6","182311","0.0-6.0","13517775","wem/bandit_either_2","A1V1JNPU0KOA3X","either","2","35369","","32","","","","","","","","","","","","","","","","","","","","","","","","","","","","","","","","","","",""
"","text","7","193348","0.0-7.0","13517775","wem/bandit_either_2","A1V1JNPU0KOA3X","either","2","11034","","32","","","","","","","","","","","","","","","","","","","","","","","","","","","","","","","","","","",""
"","text","8","197737","0.0-8.0","13517775","wem/bandit_either_2","A1V1JNPU0KOA3X","either","2","4387","","32","","","","","","","","","","","","","","","","","","","","","","","","","","","","","","","","","","",""
"","identification","9","209849","0.0-9.0-0.0","13517775","wem/bandit_either_2","A1V1JNPU0KOA3X","either","2","12075","","","","2","2","2","","","","","","","","","","","","","","","","","","","","","","","","the village of Zur","","","","","","",""
"","identification","10","216050","0.0-9.0-1.0","13517775","wem/bandit_either_2","A1V1JNPU0KOA3X","either","2","5175","","","","4","4","4","","","","","","","","","","","","","","","","","","","","","","","","the village of Nyx","","","","","","",""
"","text","11","228395","0.0-10.0","13517775","wem/bandit_either_2","A1V1JNPU0KOA3X","either","2","11338","","32","","","","","","","","","","","","","","","","","","","","","","","","","","","","","","","","","","",""
"","text","12","232253","0.0-11.0","13517775","wem/bandit_either_2","A1V1JNPU0KOA3X","either","2","3855","","32","","","","","","","","","","","","","","","","","","","","","","","","","","","","","","","","","","",""
"","text","13","235559","0.0-12.0","13517775","wem/bandit_either_2","A1V1JNPU0KOA3X","either","2","3302","","32","","","","","","","","","","","","","","","","","","","","","","","","","","","","","","","","","","",""
"","text","14","244278","0.0-13.0","13517775","wem/bandit_either_2","A1V1JNPU0KOA3X","either","2","8717","","32","","","","","","","","","","","","","","","","","","","","","","","","","","","","","","","","","","",""
"","bandit","15","247487","0.0-14.0-0.0","13517775","wem/bandit_either_2","A1V1JNPU0KOA3X","either","2","1695","","","","","","","0","0","1","0","0","","","","","0","","","","0","","","","","","","","","","","74","J","0","img/none_selected_demo.jpg","true","0",""
"","bandit","16","250753","0.0-15.0-0.0","13517775","wem/bandit_either_2","A1V1JNPU0KOA3X","either","2","1756","","","","","","","0","0","1","0","0","","","","","0","","","","0","","","","","","","","","","","75","K","0","img/none_selected_demo.jpg","true","0",""
"","text","17","268630","0.0-16.0","13517775","wem/bandit_either_2","A1V1JNPU0KOA3X","either","2","17873","","32","","","","","","","","","","","","","","","","","","","","","","","","","","","","","","","","","","",""
"","text","18","294914","0.0-17.0","13517775","wem/bandit_either_2","A1V1JNPU0KOA3X","either","2","26280","","32","","","","","","","","","","","","","","","","","","","","","","","","","","","","","","","","","","",""
"","text","19","310395","0.0-18.0","13517775","wem/bandit_either_2","A1V1JNPU0KOA3X","either","2","15478","","32","","","","","","","","","","","","","","","","","","","","","","","","","","","","","","","","","","",""
"","text","20","322188","0.0-19.0","13517775","wem/bandit_either_2","A1V1JNPU0KOA3X","either","2","11790","","32","","","","","","","","","","","","","","","","","","","","","","","","","","","","","","","","","","",""
"","bandit","21","326137","0.0-20.0-0.0","13517775","wem/bandit_either_2","A1V1JNPU0KOA3X","either","2","2438","","","","","","","1","0","0","0.8","","0.5","0.5","","","","","","","0.8","0.2","","","","","","","","","","74","J","0","img/none_selected_demo.jpg","true","0","80_20_practice"
"","bandit","22","328155","0.0-20.0-1.0","13517775","wem/bandit_either_2","A1V1JNPU0KOA3X","either","2","508","","","","","","","0","0","1","0.8","","0.5","0.5","","","","","","","0.8","0.2","","","","","","","","","","74","J","0","img/none_selected_demo.jpg","true","0","80_20_practice"
"","bandit","23","330111","0.0-20.0-2.0","13517775","wem/bandit_either_2","A1V1JNPU0KOA3X","either","2","444","","","","","","","0","1","0","","0.8","0.5","0.5","","","0.8","0.2","","","","","","","","","","","","","","74","J","0","img/none_selected_demo.jpg","true","0","80_20_practice"
"","bandit","24","331991","0.0-20.0-3.0","13517775","wem/bandit_either_2","A1V1JNPU0KOA3X","either","2","370","","","","","","","0","0","1","0.8","","0.5","0.5","","","","","","","0.8","0.2","","","","","","","","","","74","J","0","img/none_selected_demo.jpg","true","0","80_20_practice"
"","bandit","25","333911","0.0-20.0-4.0","13517775","wem/bandit_either_2","A1V1JNPU0KOA3X","either","2","410","","","","","","","0","0","1","0.2","","0.5","0.5","","","","","","","0.8","0.2","","","","","","","","","","75","K","1","","true","0","80_20_practice"
"","bandit","26","335796","0.0-20.0-5.0","13517775","wem/bandit_either_2","A1V1JNPU0KOA3X","either","2","372","","","","","","","0","0","1","","0.2","0.5","0.5","","","0.8","0.2","","","","","","","","","","","","","","75","K","1","","true","0","80_20_practice"
"","bandit","27","337642","0.0-20.0-6.0","13517775","wem/bandit_either_2","A1V1JNPU0KOA3X","either","2","337","","","","","","","0","1","0","","0.8","0.5","0.5","","","0.8","0.2","","","","","","","","","","","","","","74","J","0","img/none_selected_demo.jpg","true","0","80_20_practice"
"","bandit","28","339482","0.0-20.0-7.0","13517775","wem/bandit_either_2","A1V1JNPU0KOA3X","either","2","328","","","","","","","0","0","1","0.8","","0.5","0.5","","","","","","","0.8","0.2","","","","","","","","","","74","J","0","img/none_selected_demo.jpg","true","0","80_20_practice"
"","bandit","29","341300","0.0-20.0-8.0","13517775","wem/bandit_either_2","A1V1JNPU0KOA3X","either","2","310","","","","","","","1","0","0","0.8","","0.5","0.5","","","","","","","0.8","0.2","","","","","","","","","","74","J","0","img/none_selected_demo.jpg","true","0","80_20_practice"
"","bandit","30","343220","0.0-20.0-9.0","13517775","wem/bandit_either_2","A1V1JNPU0KOA3X","either","2","407","","","","","","","1","0","0","0.8","","0.5","0.5","","","","","","","0.8","0.2","","","","","","","","","","74","J","0","img/none_selected_demo.jpg","true","0","80_20_practice"
"","bandit","31","345030","0.0-20.0-10.0","13517775","wem/bandit_either_2","A1V1JNPU0KOA3X","either","2","299","","","","","","","0","0","1","0.8","","0.5","0.5","","","","","","","0.8","0.2","","","","","","","","","","74","J","0","img/none_selected_demo.jpg","true","0","80_20_practice"
"","bandit","32","346543","0.0-20.0-11.0","13517775","wem/bandit_either_2","A1V1JNPU0KOA3X","either","2","2","","","","","","","1","0","0","0.8","","0.5","0.5","","","","","","","0.8","0.2","","","","","","","","","","74","J","0","img/none_selected_demo.jpg","true","0","80_20_practice"
"","bandit","33","348263","0.0-20.0-12.0","13517775","wem/bandit_either_2","A1V1JNPU0KOA3X","either","2","208","","","","","","","0","1","0","","0.8","0.5","0.5","","","0.8","0.2","","","","","","","","","","","","","","74","J","0","img/none_selected_demo.jpg","true","0","80_20_practice"
"","bandit","34","349989","0.0-20.0-13.0","13517775","wem/bandit_either_2","A1V1JNPU0KOA3X","either","2","213","","","","","","","0","1","0","","0.8","0.5","0.5","","","0.8","0.2","","","","","","","","","","","","","","74","J","0","img/none_selected_demo.jpg","true","0","80_20_practice"
"","bandit","35","351858","0.0-20.0-14.0","13517775","wem/bandit_either_2","A1V1JNPU0KOA3X","either","2","353","","","","","","","0","0","1","0.8","","0.5","0.5","","","","","","","0.8","0.2","","","","","","","","","","74","J","0","img/none_selected_demo.jpg","true","0","80_20_practice"
"","bandit","36","353587","0.0-20.0-15.0","13517775","wem/bandit_either_2","A1V1JNPU0KOA3X","either","2","220","","","","","","","1","0","0","0.8","","0.5","0.5","","","","","","","0.8","0.2","","","","","","","","","","74","J","0","img/none_selected_demo.jpg","true","0","80_20_practice"
"","bandit","37","355376","0.0-20.0-16.0","13517775","wem/bandit_either_2","A1V1JNPU0KOA3X","either","2","279","","","","","","","0","1","0","","0.8","0.5","0.5","","","0.8","0.2","","","","","","","","","","","","","","74","J","0","img/none_selected_demo.jpg","true","0","80_20_practice"
"","bandit","38","357183","0.0-20.0-17.0","13517775","wem/bandit_either_2","A1V1JNPU0KOA3X","either","2","293","","","","","","","0","0","1","","0.8","0.5","0.5","","","0.8","0.2","","","","","","","","","","","","","","74","J","0","img/none_selected_demo.jpg","true","0","80_20_practice"
"","bandit","39","358887","0.0-20.0-18.0","13517775","wem/bandit_either_2","A1V1JNPU0KOA3X","either","2","194","","","","","","","1","0","0","0.8","","0.5","0.5","","","","","","","0.8","0.2","","","","","","","","","","74","J","0","img/none_selected_demo.jpg","true","0","80_20_practice"
"","bandit","40","360707","0.0-20.0-19.0","13517775","wem/bandit_either_2","A1V1JNPU0KOA3X","either","2","309","","","","","","","0","1","0","","0.8","0.5","0.5","","","0.8","0.2","","","","","","","","","","","","","","74","J","0","img/none_selected_demo.jpg","true","0","80_20_practice"
"","text","41","376880","0.0-21.0","13517775","wem/bandit_either_2","A1V1JNPU0KOA3X","either","2","16169","","32","","","","","","","","","","","","","","","","","","","","","","","","","","","","","","","","","","",""
"","bandit","42","379842","0.0-22.0-0.0","13517775","wem/bandit_either_2","A1V1JNPU0KOA3X","either","2","1450","","","","","","","1","0","0","1","0","","","","","0","1","","","1","0","","","","","","","","","","74","J","0","img/none_selected_demo.jpg","true","0",""
"","text","43","398345","0.0-23.0","13517775","wem/bandit_either_2","A1V1JNPU0KOA3X","either","2","18496","","32","","","","","","","","","","","","","","","","","","","","","","","","","","","","","","","","","","",""
"","text","44","406134","0.0-24.0","13517775","wem/bandit_either_2","A1V1JNPU0KOA3X","either","2","7785","","32","","","","","","","","","","","","","","","","","","","","","","","","","","","","","","","","","","",""
"","text","45","411039","0.0-25.0","13517775","wem/bandit_either_2","A1V1JNPU0KOA3X","either","2","4901","","32","","","","","","","","","","","","","","","","","","","","","","","","","","","","","","","","","","",""
"","text","46","417163","0.0-26.0","13517775","wem/bandit_either_2","A1V1JNPU0KOA3X","either","2","6120","","32","","","","","","","","","","","","","","","","","","","","","","","","","","","","","","","","","","",""
"","text","47","426065","0.0-27.0","13517775","wem/bandit_either_2","A1V1JNPU0KOA3X","either","2","8899","","32","","","","","","","","","","","","","","","","","","","","","","","","","","","","","","","","","","",""
"","text","48","434175","0.0-28.0","13517775","wem/bandit_either_2","A1V1JNPU0KOA3X","either","2","8106","","32","","","","","","","","","","","","","","","","","","","","","","","","","","","","","","","","","","",""
"","text","49","439613","0.0-29.0","13517775","wem/bandit_either_2","A1V1JNPU0KOA3X","either","2","5432","","32","","","","","","","","","","","","","","","","","","","","","","","","","","","","","","","","","","",""
"","text","50","445077","0.0-30.0","13517775","wem/bandit_either_2","A1V1JNPU0KOA3X","either","2","5458","","32","","","","","","","","","","","","","","","","","","","","","","","","","","","","","","","","","","",""
"","text","51","453572","0.0-31.0","13517775","wem/bandit_either_2","A1V1JNPU0KOA3X","either","2","8491","","32","","","","","","","","","","","","","","","","","","","","","","","","","","","","","","","","","","",""
"","text","52","455814","0.0-32.0","13517775","wem/bandit_either_2","A1V1JNPU0KOA3X","either","2","2237","","32","","","","","","","","","","","","","","","","","","","","","","","","","","","","","","","","","","",""
"","text","53","464676","0.0-33.0","13517775","wem/bandit_either_2","A1V1JNPU0KOA3X","either","2","8859","","32","","","","","","","","","","","","","","","","","","","","","","","","","","","","","","","","","","",""
"","bandit","54","469535","0.0-34.0-0.0","13517775","wem/bandit_either_2","A1V1JNPU0KOA3X","either","2","3344","","","","","","","0","0","1","0.6","","0.5","0.5","0.5","0.5","","","","","0.8","0.2","0.6","0.2","","","","","","","","75","K","2","","true","0","full_practice"
"","bandit","55","472232","0.0-34.0-1.0","13517775","wem/bandit_either_2","A1V1JNPU0KOA3X","either","2","1183","","","","","","","0","0","1","","0.2","0.5","0.5","0.5","0.5","0.8","0.2","0.6","0.2","","","","","","","","","","","","76","L","3","","true","0","full_practice"
"","bandit","56","474534","0.0-34.0-2.0","13517775","wem/bandit_either_2","A1V1JNPU0KOA3X","either","2","790","","","","","","","1","0","0","0.8","","0.5","0.5","0.5","0.5","","","","","0.8","0.2","0.6","0.2","","","","","","","","72","H","0","img/none_selected.jpg","true","0","full_practice"
"","bandit","57","476491","0.0-34.0-3.0","13517775","wem/bandit_either_2","A1V1JNPU0KOA3X","either","2","445","","","","","","","0","1","0","","0.8","0.5","0.5","0.5","0.5","0.8","0.2","0.6","0.2","","","","","","","","","","","","72","H","0","img/none_selected.jpg","true","0","full_practice"
"","bandit","58","478370","0.0-34.0-4.0","13517775","wem/bandit_either_2","A1V1JNPU0KOA3X","either","2","366","","","","","","","0","0","1","0.8","","0.5","0.5","0.5","0.5","","","","","0.8","0.2","0.6","0.2","","","","","","","","72","H","0","img/none_selected.jpg","true","0","full_practice"
"","bandit","59","480236","0.0-34.0-5.0","13517775","wem/bandit_either_2","A1V1JNPU0KOA3X","either","2","351","","","","","","","0","0","1","","0.2","0.5","0.5","0.5","0.5","0.8","0.2","0.6","0.2","","","","","","","","","","","","74","J","1","","true","0","full_practice"
"","bandit","60","481815","0.0-34.0-6.0","13517775","wem/bandit_either_2","A1V1JNPU0KOA3X","either","2","65","","","","","","","1","0","0","0.8","","0.5","0.5","0.5","0.5","","","","","0.8","0.2","0.6","0.2","","","","","","","","72","H","0","img/none_selected.jpg","true","0","full_practice"
"","bandit","61","483672","0.0-34.0-7.0","13517775","wem/bandit_either_2","A1V1JNPU0KOA3X","either","2","342","","","","","","","0","1","0","","0.8","0.5","0.5","0.5","0.5","0.8","0.2","0.6","0.2","","","","","","","","","","","","72","H","0","img/none_selected.jpg","true","0","full_practice"
"","bandit","62","485524","0.0-34.0-8.0","13517775","wem/bandit_either_2","A1V1JNPU0KOA3X","either","2","340","","","","","","","0","1","0","","0.8","0.5","0.5","0.5","0.5","0.8","0.2","0.6","0.2","","","","","","","","","","","","72","H","0","img/none_selected.jpg","true","0","full_practice"
"","bandit","63","487217","0.0-34.0-9.0","13517775","wem/bandit_either_2","A1V1JNPU0KOA3X","either","2","176","","","","","","","0","0","1","0.8","","0.5","0.5","0.5","0.5","","","","","0.8","0.2","0.6","0.2","","","","","","","","72","H","0","img/none_selected.jpg","true","0","full_practice"
"","bandit","64","488804","0.0-34.0-10.0","13517775","wem/bandit_either_2","A1V1JNPU0KOA3X","either","2","74","","","","","","","0","1","0","","0.8","0.5","0.5","0.5","0.5","0.8","0.2","0.6","0.2","","","","","","","","","","","","72","H","0","img/none_selected.jpg","true","0","full_practice"
"","bandit","65","490678","0.0-34.0-11.0","13517775","wem/bandit_either_2","A1V1JNPU0KOA3X","either","2","361","","","","","","","0","1","0","","0.8","0.5","0.5","0.5","0.5","0.8","0.2","0.6","0.2","","","","","","","","","","","","72","H","0","img/none_selected.jpg","true","0","full_practice"
"","bandit","66","492246","0.0-34.0-12.0","13517775","wem/bandit_either_2","A1V1JNPU0KOA3X","either","2","54","","","","","","","0","1","0","","0.8","0.5","0.5","0.5","0.5","0.8","0.2","0.6","0.2","","","","","","","","","","","","72","H","0","img/none_selected.jpg","true","0","full_practice"
"","bandit","67","493969","0.0-34.0-13.0","13517775","wem/bandit_either_2","A1V1JNPU0KOA3X","either","2","208","","","","","","","1","0","0","0.8","","0.5","0.5","0.5","0.5","","","","","0.8","0.2","0.6","0.2","","","","","","","","72","H","0","img/none_selected.jpg","true","0","full_practice"
"","bandit","68","495830","0.0-34.0-14.0","13517775","wem/bandit_either_2","A1V1JNPU0KOA3X","either","2","347","","","","","","","0","1","0","","0.8","0.5","0.5","0.5","0.5","0.8","0.2","0.6","0.2","","","","","","","","","","","","72","H","0","img/none_selected.jpg","true","0","full_practice"
"","bandit","69","498211","0.0-34.0-15.0","13517775","wem/bandit_either_2","A1V1JNPU0KOA3X","either","2","870","","","","","","","0","0","1","0.8","","0.5","0.5","0.5","0.5","","","","","0.8","0.2","0.6","0.2","","","","","","","","72","H","0","img/none_selected.jpg","true","0","full_practice"
"","bandit","70","500709","0.0-34.0-16.0","13517775","wem/bandit_either_2","A1V1JNPU0KOA3X","either","2","981","","","","","","","0","0","1","0.8","","0.5","0.5","0.5","0.5","","","","","0.8","0.2","0.6","0.2","","","","","","","","72","H","0","img/none_selected.jpg","true","0","full_practice"
"","bandit","71","502571","0.0-34.0-17.0","13517775","wem/bandit_either_2","A1V1JNPU0KOA3X","either","2","347","","","","","","","1","0","0","0.2","","0.5","0.5","0.5","0.5","","","","","0.8","0.2","0.6","0.2","","","","","","","","74","J","1","","true","0","full_practice"
"","bandit","72","504396","0.0-34.0-18.0","13517775","wem/bandit_either_2","A1V1JNPU0KOA3X","either","2","309","","","","","","","0","1","0","","0.2","0.5","0.5","0.5","0.5","0.8","0.2","0.6","0.2","","","","","","","","","","","","74","J","1","","true","0","full_practice"
"","bandit","73","506020","0.0-34.0-19.0","13517775","wem/bandit_either_2","A1V1JNPU0KOA3X","either","2","110","","","","","","","0","0","1","0.2","","0.5","0.5","0.5","0.5","","","","","0.8","0.2","0.6","0.2","","","","","","","","74","J","1","","true","0","full_practice"
"","text","74","511375","0.0-35.0","13517775","wem/bandit_either_2","A1V1JNPU0KOA3X","either","2","5338","","32","","","","","","","","","","","","","","","","","","","","","","","","","","","","","","","","","","",""
"","text","75","530267","0.0-36.0","13517775","wem/bandit_either_2","A1V1JNPU0KOA3X","either","2","17886","","32","","","","","","","","","","","","","","","","","","","","","","","","","","","","","","","","","","",""
"","text","76","549330","0.0-37.0","13517775","wem/bandit_either_2","A1V1JNPU0KOA3X","either","2","19059","","32","","","","","","","","","","","","","","","","","","","","","","","","","","","","","","","","","","",""
"","text","77","556095","0.0-38.0","13517775","wem/bandit_either_2","A1V1JNPU0KOA3X","either","2","6757","","32","","","","","","","","","","","","","","","","","","","","","","","","","","","","","","","","","","",""
"","text","78","567235","0.0-39.0","13517775","wem/bandit_either_2","A1V1JNPU0KOA3X","either","2","11136","","32","","","","","","","","","","","","","","","","","","","","","","","","","","","","","","","","","","",""
"","text","79","574055","0.0-40.0","13517775","wem/bandit_either_2","A1V1JNPU0KOA3X","either","2","6815","","32","","","","","","","","","","","","","","","","","","","","","","","","","","","","","","","","","","",""
"","bandit","80","586356","0.0-41.0-0.0","13517775","wem/bandit_either_2","A1V1JNPU0KOA3X","either","2","10787","","","","","","","0","0","1","","0.4781977867","0.4","0.2","0.8","0.6","0.4781977867","0.362799796","0.3653736811","0.326135308","","","","","","","","","","","","72","H","0","img/none_selected.jpg","","1","main_expt"
"","bandit","81","588963","0.0-42.0-0.0","13517775","wem/bandit_either_2","A1V1JNPU0KOA3X","either","2","1090","","","","","","","0","0","1","","0.3999069229","0.4","0.2","0.8","0.6","0.4765481994","0.3891507205","0.3999069229","0.3564958201","","","","","","","","","","","","75","K","2","","","2","main_expt"
"","bandit","82","591036","0.0-43.0-0.0","13517775","wem/bandit_either_2","A1V1JNPU0KOA3X","either","2","557","","","","","","","0","1","0","","0.3309056029","0.4","0.2","0.8","0.6","0.4722158263","0.3151339382","0.4363582421","0.3309056029","","","","","","","","","","","","76","L","3","","","3","main_expt"
"","bandit","83","592982","0.0-44.0-0.0","13517775","wem/bandit_either_2","A1V1JNPU0KOA3X","either","2","431","","","","","","","1","0","0","0.308467875","","0.4","0.2","0.8","0.6","","","","","0.4609570051","0.250648122","0.4300921111","0.308467875","","","","","","","","76","L","3","","","4","main_expt"
"","bandit","84","594871","0.0-45.0-0.0","13517775","wem/bandit_either_2","A1V1JNPU0KOA3X","either","2","375","","","","","","","0","0","1","","0.3349995635","0.4","0.2","0.8","0.6","0.4707799186","0.2382585344","0.3863220662","0.3349995635","","","","","","","","","","","","76","L","3","","","5","main_expt"
"","bandit","85","596739","0.0-46.0-0.0","13517775","wem/bandit_either_2","A1V1JNPU0KOA3X","either","2","356","","","","","","","0","0","1","0.3743101545","","0.4","0.2","0.8","0.6","","","","","0.4676743975","0.2088101903","0.4192648028","0.3743101545","","","","","","","","76","L","3","","","6","main_expt"
"","bandit","86","598676","0.0-47.0-0.0","13517775","wem/bandit_either_2","A1V1JNPU0KOA3X","either","2","423","","","","","","","0","0","1","","0.377506125","0.4","0.2","0.8","0.6","0.4767364015","0.1884279889","0.4218548145","0.377506125","","","","","","","","","","","","76","L","3","","","7","main_expt"
"","bandit","87","602740","0.0-48.0-0.0","13517775","wem/bandit_either_2","A1V1JNPU0KOA3X","either","2","2552","","","","","","","0","1","0","","0.2297930851","0.4","0.2","0.8","0.6","0.4837409877","0.2297930851","0.4298914749","0.3452849142","","","","","","","","","","","","74","J","1","","","8","main_expt"
"","bandit","88","604684","0.0-49.0-0.0","13517775","wem/bandit_either_2","A1V1JNPU0KOA3X","either","2","430","","","","","","","0","0","1","","0.2219539873","0.4","0.2","0.8","0.6","0.4825212187","0.2219539873","0.4215440671","0.2713567333","","","","","","","","","","","","74","J","1","","","9","main_expt"
"","bandit","89","606593","0.0-50.0-0.0","13517775","wem/bandit_either_2","A1V1JNPU0KOA3X","either","2","393","","","","","","","0","0","1","","0.2398128751","0.4","0.2","0.8","0.6","0.4791264729","0.2398128751","0.3991616263","0.2712708503","","","","","","","","","","","","74","J","1","","","10","main_expt"
"","bandit","90","608686","0.0-51.0-0.0","13517775","wem/bandit_either_2","A1V1JNPU0KOA3X","either","2","580","","","","","","","0","0","1","","0.2635531688","0.4","0.2","0.8","0.6","0.4762013833","0.2551733424","0.4002673883","0.2635531688","","","","","","","","","","","","76","L","3","","","11","main_expt"
"","bandit","91","610658","0.0-52.0-0.0","13517775","wem/bandit_either_2","A1V1JNPU0KOA3X","either","2","459","","","","","","","0","1","0","","0.4729837645","0.4","0.2","0.8","0.6","0.4729837645","0.2593424883","0.368629831","0.2669056975","","","","","","","","","","","","72","H","0","img/none_selected.jpg","","12","main_expt"
"","bandit","92","612499","0.0-53.0-0.0","13517775","wem/bandit_either_2","A1V1JNPU0KOA3X","either","2","325","","","","","","","1","0","0","0.4749786695","","0.4","0.2","0.8","0.6","","","","","0.4749786695","0.2493591627","0.4189726289","0.3204456557","","","","","","","","72","H","0","img/none_selected.jpg","","13","main_expt"
"","bandit","93","614346","0.0-54.0-0.0","13517775","wem/bandit_either_2","A1V1JNPU0KOA3X","either","2","334","","","","","","","0","0","1","","0.4810115094","0.4","0.2","0.8","0.6","0.4810115094","0.2686446846","0.4352425359","0.3466526728","","","","","","","","","","","","72","H","0","img/none_selected.jpg","","14","main_expt"
"","bandit","94","616113","0.0-55.0-0.0","13517775","wem/bandit_either_2","A1V1JNPU0KOA3X","either","2","255","","","","","","","0","1","0","","0.4705329286","0.4","0.2","0.8","0.6","0.4705329286","0.2690169042","0.3819090161","0.3736671224","","","","","","","","","","","","72","H","0","img/none_selected.jpg","","15","main_expt"
"","bandit","95","617797","0.0-56.0-0.0","13517775","wem/bandit_either_2","A1V1JNPU0KOA3X","either","2","172","","","","","","","0","1","0","","0.4687419894","0.4","0.2","0.8","0.6","0.4687419894","0.2518303543","0.3737760256","0.3778143907","","","","","","","","","","","","72","H","0","img/none_selected.jpg","","16","main_expt"
"","bandit","96","619721","0.0-57.0-0.0","13517775","wem/bandit_either_2","A1V1JNPU0KOA3X","either","2","384","","","","","","","1","0","0","0.4594180265","","0.4","0.2","0.8","0.6","","","","","0.4594180265","0.2406549936","0.4151791473","0.3845750066","","","","","","","","72","H","0","img/none_selected.jpg","","17","main_expt"
"","bandit","97","621582","0.0-58.0-0.0","13517775","wem/bandit_either_2","A1V1JNPU0KOA3X","either","2","348","","","","","","","0","1","0","","0.425397146","0.4","0.2","0.8","0.6","0.425397146","0.2670149403","0.4137363134","0.4041286345","","","","","","","","","","","","72","H","0","img/none_selected.jpg","","18","main_expt"
"","bandit","98","623396","0.0-59.0-0.0","13517775","wem/bandit_either_2","A1V1JNPU0KOA3X","either","2","304","","","","","","","0","0","1","","0.4201246927","0.4","0.2","0.8","0.6","0.4201246927","0.2658482338","0.4084056464","0.4127350431","","","","","","","","","","","","72","H","0","img/none_selected.jpg","","19","main_expt"
"","bandit","99","625325","0.0-60.0-0.0","13517775","wem/bandit_either_2","A1V1JNPU0KOA3X","either","2","411","","","","","","","0","0","1","","0.3954271328","0.4","0.2","0.8","0.6","0.3954271328","0.2452433766","0.4129175496","0.4107359536","","","","","","","","","","","","72","H","0","img/none_selected.jpg","","20","main_expt"
"","bandit","100","627068","0.0-61.0-0.0","13517775","wem/bandit_either_2","A1V1JNPU0KOA3X","either","2","231","","","","","","","1","0","0","0.4196431029","","0.4","0.2","0.8","0.6","","","","","0.4196431029","0.2298761452","0.3888488162","0.3954861765","","","","","","","","72","H","0","img/none_selected.jpg","","21","main_expt"
"","bandit","101","628923","0.0-62.0-0.0","13517775","wem/bandit_either_2","A1V1JNPU0KOA3X","either","2","344","","","","","","","0","0","1","0.3843335182","","0.4","0.2","0.8","0.6","","","","","0.3843335182","0.266827693","0.3873149631","0.3805979297","","","","","","","","72","H","0","img/none_selected.jpg","","22","main_expt"
"","bandit","102","631019","0.0-63.0-0.0","13517775","wem/bandit_either_2","A1V1JNPU0KOA3X","either","2","579","","","","","","","0","0","1","0.425451992","","0.4","0.2","0.8","0.6","","","","","0.3839977458","0.2519769849","0.3659772031","0.425451992","","","","","","","","76","L","3","","","23","main_expt"
"","bandit","103","632596","0.0-64.0-0.0","13517775","wem/bandit_either_2","A1V1JNPU0KOA3X","either","2","58","","","","","","","0","0","1","","0.3594327093","0.4","0.2","0.8","0.6","0.3338939571","0.2447613107","0.3594327093","0.4699447661","","","","","","","","","","","","75","K","2","","","24","main_expt"
"","bandit","104","634330","0.0-65.0-0.0","13517775","wem/bandit_either_2","A1V1JNPU0KOA3X","either","2","220","","","","","","","0","0","1","0.2350413847","","0.4","0.2","0.8","0.6","","","","","0.324486952","0.2350413847","0.3719143394","0.4484050393","","","","","","","","74","J","1","","","25","main_expt"
"","bandit","105","637361","0.0-66.0-0.0","13517775","wem/bandit_either_2","A1V1JNPU0KOA3X","either","2","1517","","","","","","","0","0","1","","0.3095710384","0.4","0.2","0.8","0.6","0.3095710384","0.207774486","0.3690014044","0.4190234423","","","","","","","","","","","","72","H","0","img/none_selected.jpg","","26","main_expt"
"","bandit","106","639200","0.0-67.0-0.0","13517775","wem/bandit_either_2","A1V1JNPU0KOA3X","either","2","323","","","","","","","0","0","1","","0.3355629191","0.4","0.2","0.8","0.6","0.3355629191","0.2164182795","0.3940030818","0.4251478254","","","","","","","","","","","","72","H","0","img/none_selected.jpg","","27","main_expt"
"","bandit","107","641060","0.0-68.0-0.0","13517775","wem/bandit_either_2","A1V1JNPU0KOA3X","either","2","345","","","","","","","0","1","0","","0.3668681485","0.4","0.2","0.8","0.6","0.3668681485","0.2164031865","0.4111080327","0.4287328697","","","","","","","","","","","","72","H","0","img/none_selected.jpg","","28","main_expt"
"","bandit","108","642866","0.0-69.0-0.0","13517775","wem/bandit_either_2","A1V1JNPU0KOA3X","either","2","290","","","","","","","0","0","1","0.343198694","","0.4","0.2","0.8","0.6","","","","","0.343198694","0.2770000278","0.41290056","0.4106025245","","","","","","","","72","H","0","img/none_selected.jpg","","29","main_expt"
"","bandit","109","645357","0.0-70.0-0.0","13517775","wem/bandit_either_2","A1V1JNPU0KOA3X","either","2","977","","","","","","","0","0","1","0.3942494676","","0.4","0.2","0.8","0.6","","","","","0.326069126","0.2354797847","0.3937480262","0.3942494676","","","","","","","","76","L","3","","","30","main_expt"
"","bandit","110","647196","0.0-71.0-0.0","13517775","wem/bandit_either_2","A1V1JNPU0KOA3X","either","2","323","","","","","","","0","0","1","0.4285056211","","0.4","0.2","0.8","0.6","","","","","0.3390127419","0.2692030882","0.3997016236","0.4285056211","","","","","","","","76","L","3","","","31","main_expt"
"","bandit","111","649068","0.0-72.0-0.0","13517775","wem/bandit_either_2","A1V1JNPU0KOA3X","either","2","353","","","","","","","0","0","1","0.3574295763","","0.4","0.2","0.8","0.6","","","","","0.3360649894","0.2471118655","0.3574295763","0.4249454459","","","","","","","","75","K","2","","","32","main_expt"
"","bandit","112","650935","0.0-73.0-0.0","13517775","wem/bandit_either_2","A1V1JNPU0KOA3X","either","2","351","","","","","","","0","0","1","","0.3877818659","0.4","0.2","0.8","0.6","0.3052602024","0.2879199001","0.3877818659","0.416417765","","","","","","","","","","","","75","K","2","","","33","main_expt"
"","bandit","113","652902","0.0-74.0-0.0","13517775","wem/bandit_either_2","A1V1JNPU0KOA3X","either","2","457","","","","","","","0","1","0","","0.3180115212","0.4","0.2","0.8","0.6","0.3594788954","0.3180115212","0.3799496232","0.4623714429","","","","","","","","","","","","74","J","1","","","34","main_expt"
"","bandit","114","654913","0.0-75.0-0.0","13517775","wem/bandit_either_2","A1V1JNPU0KOA3X","either","2","495","","","","","","","1","0","0","0.2524306687","","0.4","0.2","0.8","0.6","","","","","0.380235832","0.2524306687","0.3577573403","0.4591977302","","","","","","","","74","J","1","","","35","main_expt"
"","bandit","115","656801","0.0-76.0-0.0","13517775","wem/bandit_either_2","A1V1JNPU0KOA3X","either","2","371","","","","","","","0","0","1","","0.2351869563","0.4","0.2","0.8","0.6","0.3459989602","0.2351869563","0.3895375856","0.4686235256","","","","","","","","","","","","74","J","1","","","36","main_expt"
"","bandit","116","658680","0.0-77.0-0.0","13517775","wem/bandit_either_2","A1V1JNPU0KOA3X","either","2","368","","","","","","","0","0","1","","0.2629170466","0.4","0.2","0.8","0.6","0.3320905149","0.2629170466","0.3783527007","0.4571547709","","","","","","","","","","","","74","J","1","","","37","main_expt"
"","bandit","117","660267","0.0-78.0-0.0","13517775","wem/bandit_either_2","A1V1JNPU0KOA3X","either","2","70","","","","","","","0","0","1","0.3090194305","","0.4","0.2","0.8","0.6","","","","","0.3471020919","0.3090194305","0.284076782","0.4688430709","","","","","","","","74","J","1","","","38","main_expt"
"","bandit","118","662163","0.0-79.0-0.0","13517775","wem/bandit_either_2","A1V1JNPU0KOA3X","either","2","380","","","","","","","0","0","1","","0.2845371228","0.4","0.2","0.8","0.6","0.3401763967","0.2845371228","0.3388972186","0.4612923778","","","","","","","","","","","","74","J","1","","","39","main_expt"
"","bandit","119","664323","0.0-80.0-0.0","13517775","wem/bandit_either_2","A1V1JNPU0KOA3X","either","2","646","","","","","","","1","0","0","0.3260487483","","0.4","0.2","0.8","0.6","","","","","0.3260487483","0.3076259244","0.2663655232","0.4576194683","","","","","","","","72","H","0","img/none_selected.jpg","","40","main_expt"
"","bandit","120","666206","0.0-81.0-0.0","13517775","wem/bandit_either_2","A1V1JNPU0KOA3X","either","2","368","","","","","","","1","0","0","0.3390218734","","0.4","0.2","0.8","0.6","","","","","0.3390218734","0.2888769276","0.2608266697","0.4473921051","","","","","","","","72","H","0","img/none_selected.jpg","","41","main_expt"
"","bandit","121","668180","0.0-82.0-0.0","13517775","wem/bandit_either_2","A1V1JNPU0KOA3X","either","2","460","","","","","","","0","0","1","","0.2889680017","0.4","0.2","0.8","0.6","0.2889680017","0.2639198141","0.2287676803","0.425470286","","","","","","","","","","","","72","H","0","img/none_selected.jpg","","42","main_expt"
"","bandit","122","670137","0.0-83.0-0.0","13517775","wem/bandit_either_2","A1V1JNPU0KOA3X","either","2","435","","","","","","","0","1","0","","0.2784828801","0.4","0.2","0.8","0.6","0.2784828801","0.2255441472","0.2043112358","0.4030522017","","","","","","","","","","","","72","H","0","img/none_selected.jpg","","43","main_expt"
"","bandit","123","672052","0.0-84.0-0.0","13517775","wem/bandit_either_2","A1V1JNPU0KOA3X","either","2","400","","","","","","","0","0","1","","0.2805729819","0.4","0.2","0.8","0.6","0.2805729819","0.2050272072","0.1957049551","0.4106315797","","","","","","","","","","","","72","H","0","img/none_selected.jpg","","44","main_expt"
"","bandit","124","673988","0.0-85.0-0.0","13517775","wem/bandit_either_2","A1V1JNPU0KOA3X","either","2","415","","","","","","","0","0","1","","0.2195119073","0.4","0.2","0.8","0.6","0.2195119073","0.239455925","0.2207366272","0.4258527362","","","","","","","","","","","","72","H","0","img/none_selected.jpg","","45","main_expt"
"","bandit","125","712820","0.0-86.0-0.0","13517775","wem/bandit_either_2","A1V1JNPU0KOA3X","either","2","37305","","","","","","","0","0","1","0.1727988076","","0.4","0.2","0.8","0.6","","","","","0.2657932304","0.2414778298","0.1727988076","0.4425966235","","","","","","","","75","K","2","","","46","main_expt"
"","bandit","126","715150","0.0-87.0-0.0","13517775","wem/bandit_either_2","A1V1JNPU0KOA3X","either","2","810","","","","","","","1","0","0","0.1884211613","","0.4","0.2","0.8","0.6","","","","","0.2678398397","0.1884211613","0.1446735631","0.4428977597","","","","","","","","74","J","1","","","47","main_expt"
"","bandit","127","717430","0.0-88.0-0.0","13517775","wem/bandit_either_2","A1V1JNPU0KOA3X","either","2","765","","","","","","","0","0","1","0.1755274282","","0.4","0.2","0.8","0.6","","","","","0.2866904938","0.1755274282","0.1681765936","0.4479964269","","","","","","","","74","J","1","","","48","main_expt"
"","bandit","128","719551","0.0-89.0-0.0","13517775","wem/bandit_either_2","A1V1JNPU0KOA3X","either","2","604","","","","","","","0","0","1","","0.1646396384","0.4","0.2","0.8","0.6","0.2803848884","0.1646396384","0.1473883531","0.4660387519","","","","","","","","","","","","74","J","1","","","49","main_expt"
"","bandit","129","721447","0.0-90.0-0.0","13517775","wem/bandit_either_2","A1V1JNPU0KOA3X","either","2","377","","","","","","","1","0","0","0.2587411269","","0.4","0.2","0.8","0.6","","","","","0.2587411269","0.2024226619","0.1378170987","0.4345757832","","","","","","","","72","H","0","img/none_selected.jpg","","50","main_expt"
"","bandit","130","723511","0.0-91.0-0.0","13517775","wem/bandit_either_2","A1V1JNPU0KOA3X","either","2","547","","","","","","","0","0","1","","0.2212901065","0.4","0.2","0.8","0.6","0.2212901065","0.1976760068","0.1430360168","0.4450950844","","","","","","","","","","","","72","H","0","img/none_selected.jpg","","51","main_expt"
"","bandit","131","725502","0.0-92.0-0.0","13517775","wem/bandit_either_2","A1V1JNPU0KOA3X","either","2","472","","","","","","","0","0","1","0.4475354499","","0.4","0.2","0.8","0.6","","","","","0.236006857","0.1796352224","0.1731798725","0.4475354499","","","","","","","","76","L","3","","","52","main_expt"
"","bandit","132","727367","0.0-93.0-0.0","13517775","wem/bandit_either_2","A1V1JNPU0KOA3X","either","2","356","","","","","","","0","1","0","","0.4627294295","0.4","0.2","0.8","0.6","0.2660825342","0.2451732725","0.1312409056","0.4627294295","","","","","","","","","","","","76","L","3","","","53","main_expt"
"","bandit","133","729299","0.0-94.0-0.0","13517775","wem/bandit_either_2","A1V1JNPU0KOA3X","either","2","420","","","","","","","0","0","1","0.44829207","","0.4","0.2","0.8","0.6","","","","","0.2458345041","0.2621482643","0.1862053218","0.44829207","","","","","","","","76","L","3","","","54","main_expt"
"","bandit","134","731808","0.0-95.0-0.0","13517775","wem/bandit_either_2","A1V1JNPU0KOA3X","either","2","995","","","","","","","0","0","1","0.2441780383","","0.4","0.2","0.8","0.6","","","","","0.2265690781","0.2441780383","0.1733563037","0.4505537928","","","","","","","","74","J","1","","","55","main_expt"
"","bandit","135","733533","0.0-96.0-0.0","13517775","wem/bandit_either_2","A1V1JNPU0KOA3X","either","2","211","","","","","","","0","0","1","","0.199729785","0.4","0.2","0.8","0.6","0.2741820357","0.199729785","0.1728369204","0.4686400132","","","","","","","","","","","","74","J","1","","","56","main_expt"
"","bandit","136","735146","0.0-97.0-0.0","13517775","wem/bandit_either_2","A1V1JNPU0KOA3X","either","2","98","","","","","","","0","0","1","0.2937641054","","0.4","0.2","0.8","0.6","","","","","0.2937641054","0.1945085845","0.09176359954","0.4572679106","","","","","","","","72","H","0","img/none_selected.jpg","","57","main_expt"
"","bandit","137","736972","0.0-98.0-0.0","13517775","wem/bandit_either_2","A1V1JNPU0KOA3X","either","2","309","","","","","","","0","0","1","0.2949827607","","0.4","0.2","0.8","0.6","","","","","0.2949827607","0.2614759052","0.04991422033","0.4300169527","","","","","","","","72","H","0","img/none_selected.jpg","","58","main_expt"
"","bandit","138","738568","0.0-99.0-0.0","13517775","wem/bandit_either_2","A1V1JNPU0KOA3X","either","2","84","","","","","","","0","0","1","","0.053239915","0.4","0.2","0.8","0.6","0.2710075273","0.2426118991","0.053239915","0.4050829606","","","","","","","","","","","","75","K","2","","","59","main_expt"
"","bandit","139","740381","0.0-100.0-0.0","13517775","wem/bandit_either_2","A1V1JNPU0KOA3X","either","2","296","","","","","","","0","0","1","0.06994226662","","0.4","0.2","0.8","0.6","","","","","0.2766623035","0.2623750897","0.06994226662","0.4070720156","","","","","","","","75","K","2","","","60","main_expt"
"","bandit","140","742245","0.0-101.0-0.0","13517775","wem/bandit_either_2","A1V1JNPU0KOA3X","either","2","345","","","","","","","0","0","1","","0.3895400789","0.4","0.2","0.8","0.6","0.2574592035","0.2139103784","0.07064832373","0.3895400789","","","","","","","","","","","","76","L","3","","","61","main_expt"
"","bandit","141","744121","0.0-102.0-0.0","13517775","wem/bandit_either_2","A1V1JNPU0KOA3X","either","2","356","","","","","","","1","0","0","0.4050708951","","0.4","0.2","0.8","0.6","","","","","0.2425209234","0.2566580444","0.08925217872","0.4050708951","","","","","","","","76","L","3","","","62","main_expt"
"","bandit","142","745980","0.0-103.0-0.0","13517775","wem/bandit_either_2","A1V1JNPU0KOA3X","either","2","337","","","","","","","0","0","1","0.3765761212","","0.4","0.2","0.8","0.6","","","","","0.2294211584","0.2393402704","0.08505035955","0.3765761212","","","","","","","","76","L","3","","","63","main_expt"
"","bandit","143","747976","0.0-104.0-0.0","13517775","wem/bandit_either_2","A1V1JNPU0KOA3X","either","2","480","","","","","","","0","0","1","","0.300105392","0.4","0.2","0.8","0.6","0.2350173232","0.300105392","0.09892528285","0.3859881554","","","","","","","","","","","","74","J","1","","","64","main_expt"
"","bandit","144","749834","0.0-105.0-0.0","13517775","wem/bandit_either_2","A1V1JNPU0KOA3X","either","2","339","","","","","","","0","0","1","","0.2584268813","0.4","0.2","0.8","0.6","0.2775473173","0.2584268813","0.1428545766","0.3817039273","","","","","","","","","","","","74","J","1","","","65","main_expt"
"","bandit","145","751652","0.0-106.0-0.0","13517775","wem/bandit_either_2","A1V1JNPU0KOA3X","either","2","302","","","","","","","0","0","1","0.2536378703","","0.4","0.2","0.8","0.6","","","","","0.298861572","0.2536378703","0.120440259","0.3622232449","","","","","","","","74","J","1","","","66","main_expt"
"","bandit","146","753609","0.0-107.0-0.0","13517775","wem/bandit_either_2","A1V1JNPU0KOA3X","either","2","444","","","","","","","0","0","1","","0.3043747659","0.4","0.2","0.8","0.6","0.3043747659","0.2548884231","0.2019700983","0.3768721334","","","","","","","","","","","","72","H","0","img/none_selected.jpg","","67","main_expt"
"","bandit","147","755707","0.0-108.0-0.0","13517775","wem/bandit_either_2","A1V1JNPU0KOA3X","either","2","581","","","","","","","0","0","1","","0.2533072519","0.4","0.2","0.8","0.6","0.2533072519","0.2105458193","0.1467862533","0.3826604183","","","","","","","","","","","","72","H","0","img/none_selected.jpg","","68","main_expt"
"","bandit","148","757660","0.0-109.0-0.0","13517775","wem/bandit_either_2","A1V1JNPU0KOA3X","either","2","441","","","","","","","0","0","1","0.09022805221","","0.4","0.2","0.8","0.6","","","","","0.2451677402","0.2901666962","0.09022805221","0.3981811202","","","","","","","","75","K","2","","","69","main_expt"
"","bandit","149","759502","0.0-110.0-0.0","13517775","wem/bandit_either_2","A1V1JNPU0KOA3X","either","2","320","","","","","","","0","0","1","","0.1128827508","0.4","0.2","0.8","0.6","0.2403061491","0.2973761433","0.1128827508","0.3936557204","","","","","","","","","","","","75","K","2","","","70","main_expt"
"","bandit","150","761329","0.0-111.0-0.0","13517775","wem/bandit_either_2","A1V1JNPU0KOA3X","either","2","310","","","","","","","0","0","1","","0.1184182172","0.4","0.2","0.8","0.6","0.1917576795","0.2737706179","0.1184182172","0.3949471057","","","","","","","","","","","","75","K","2","","","71","main_expt"
"","bandit","151","763169","0.0-112.0-0.0","13517775","wem/bandit_either_2","A1V1JNPU0KOA3X","either","2","322","","","","","","","0","0","1","","0.3888869603","0.4","0.2","0.8","0.6","0.1894079546","0.3005227265","0.1038133506","0.3888869603","","","","","","","","","","","","76","L","3","","","72","main_expt"
"","bandit","152","764954","0.0-113.0-0.0","13517775","wem/bandit_either_2","A1V1JNPU0KOA3X","either","2","270","","","","","","","1","0","0","0.4015056825","","0.4","0.2","0.8","0.6","","","","","0.235909594","0.3205676235","0.07830871569","0.4015056825","","","","","","","","76","L","3","","","73","main_expt"
"","bandit","153","766801","0.0-114.0-0.0","13517775","wem/bandit_either_2","A1V1JNPU0KOA3X","either","2","327","","","","","","","0","0","1","","0.4200542591","0.4","0.2","0.8","0.6","0.2772030277","0.3040473008","0.09226686474","0.4200542591","","","","","","","","","","","","76","L","3","","","74","main_expt"
"","bandit","154","768617","0.0-115.0-0.0","13517775","wem/bandit_either_2","A1V1JNPU0KOA3X","either","2","301","","","","","","","0","0","1","0.4353174817","","0.4","0.2","0.8","0.6","","","","","0.2237268092","0.2686744794","0.07948082514","0.4353174817","","","","","","","","76","L","3","","","75","main_expt"
"","bandit","155","770178","0.0-116.0-0.0","13517775","wem/bandit_either_2","A1V1JNPU0KOA3X","either","2","45","","","","","","","0","1","0","","0.4196821318","0.4","0.2","0.8","0.6","0.1739375455","0.258707356","0.1279570505","0.4196821318","","","","","","","","","","","","76","L","3","","","76","main_expt"
"","bandit","156","772008","0.0-117.0-0.0","13517775","wem/bandit_either_2","A1V1JNPU0KOA3X","either","2","318","","","","","","","0","0","1","0.3787369199","","0.4","0.2","0.8","0.6","","","","","0.1648796623","0.3010070056","0.1202820049","0.3787369199","","","","","","","","76","L","3","","","77","main_expt"
"","bandit","157","773745","0.0-118.0-0.0","13517775","wem/bandit_either_2","A1V1JNPU0KOA3X","either","2","216","","","","","","","0","0","1","","0.4314930014","0.4","0.2","0.8","0.6","0.1637798684","0.2648586626","0.1054071572","0.4314930014","","","","","","","","","","","","76","L","3","","","78","main_expt"
"","bandit","158","775538","0.0-119.0-0.0","13517775","wem/bandit_either_2","A1V1JNPU0KOA3X","either","2","276","","","","","","","0","1","0","","0.4155078174","0.4","0.2","0.8","0.6","0.1490076182","0.1984114041","0.1403095361","0.4155078174","","","","","","","","","","","","76","L","3","","","79","main_expt"
"","bandit","159","777411","0.0-120.0-0.0","13517775","wem/bandit_either_2","A1V1JNPU0KOA3X","either","2","356","","","","","","","1","0","0","0.4226243671","","0.4","0.2","0.8","0.6","","","","","0.1093198388","0.180325551","0.1891235553","0.4226243671","","","","","","","","76","L","3","","","80","main_expt"
"","bandit","160","779250","0.0-121.0-0.0","13517775","wem/bandit_either_2","A1V1JNPU0KOA3X","either","2","322","","","","","","","0","1","0","","0.4474166549","0.4","0.2","0.8","0.6","0.08868186825","0.224531153","0.1858030354","0.4474166549","","","","","","","","","","","","76","L","3","","","81","main_expt"
"","bandit","161","781022","0.0-122.0-0.0","13517775","wem/bandit_either_2","A1V1JNPU0KOA3X","either","2","256","","","","","","","1","0","0","0.4636297045","","0.4","0.2","0.8","0.6","","","","","0.1073880826","0.221125015","0.2476542501","0.4636297045","","","","","","","","76","L","3","","","82","main_expt"
"","bandit","162","782867","0.0-123.0-0.0","13517775","wem/bandit_either_2","A1V1JNPU0KOA3X","either","2","329","","","","","","","1","0","0","0.467509749","","0.4","0.2","0.8","0.6","","","","","0.1022587498","0.2143237207","0.2188241074","0.467509749","","","","","","","","76","L","3","","","83","main_expt"
"","bandit","163","784691","0.0-124.0-0.0","13517775","wem/bandit_either_2","A1V1JNPU0KOA3X","either","2","302","","","","","","","0","0","1","0.4551111531","","0.4","0.2","0.8","0.6","","","","","0.1085807699","0.2097367537","0.2754771977","0.4551111531","","","","","","","","76","L","3","","","84","main_expt"
"","bandit","164","786284","0.0-125.0-0.0","13517775","wem/bandit_either_2","A1V1JNPU0KOA3X","either","2","76","","","","","","","1","0","0","0.4621419017","","0.4","0.2","0.8","0.6","","","","","0.1263918358","0.1661536269","0.2965575968","0.4621419017","","","","","","","","76","L","3","","","85","main_expt"
"","bandit","165","787875","0.0-126.0-0.0","13517775","wem/bandit_either_2","A1V1JNPU0KOA3X","either","2","73","","","","","","","0","0","1","0.4612050897","","0.4","0.2","0.8","0.6","","","","","0.1481941301","0.1364458955","0.257129161","0.4612050897","","","","","","","","76","L","3","","","86","main_expt"
"","bandit","166","1233369","0.0-127.0-0.0","13517775","wem/bandit_either_2","A1V1JNPU0KOA3X","either","2","443959","","","","","","","0","0","1","0.4334675206","","0.4","0.2","0.8","0.6","","","","","0.1447872846","0.08235553135","0.2338967043","0.4334675206","","","","","","","","76","L","3","","","87","main_expt"
"","bandit","167","1235330","0.0-128.0-0.0","13517775","wem/bandit_either_2","A1V1JNPU0KOA3X","either","2","428","","","","","","","0","0","1","0.4397617206","","0.4","0.2","0.8","0.6","","","","","0.1391637727","0.0754832669","0.2161535794","0.4397617206","","","","","","","","76","L","3","","","88","main_expt"
"","bandit","168","1237168","0.0-129.0-0.0","13517775","wem/bandit_either_2","A1V1JNPU0KOA3X","either","2","327","","","","","","","1","0","0","0.4635478967","","0.4","0.2","0.8","0.6","","","","","0.1476089376","0.109361408","0.2043146745","0.4635478967","","","","","","","","76","L","3","","","89","main_expt"
"","bandit","169","1239098","0.0-130.0-0.0","13517775","wem/bandit_either_2","A1V1JNPU0KOA3X","either","2","416","","","","","","","0","1","0","","0.4234969579","0.4","0.2","0.8","0.6","0.2081489191","0.07391079866","0.2346009907","0.4234969579","","","","","","","","","","","","76","L","3","","","90","main_expt"
"","bandit","170","1241034","0.0-131.0-0.0","13517775","wem/bandit_either_2","A1V1JNPU0KOA3X","either","2","417","","","","","","","0","0","1","","0.4267507071","0.4","0.2","0.8","0.6","0.1834039029","0.1164594673","0.2333967219","0.4267507071","","","","","","","","","","","","76","L","3","","","91","main_expt"
"","bandit","171","1242570","0.0-132.0-0.0","13517775","wem/bandit_either_2","A1V1JNPU0KOA3X","either","2","20","","","","","","","0","0","1","","0.4089505196","0.4","0.2","0.8","0.6","0.2027314649","0.113043345","0.2150480475","0.4089505196","","","","","","","","","","","","76","L","3","","","92","main_expt"
"","bandit","172","1398109","0.0-133.0-0.0","13517775","wem/bandit_either_2","A1V1JNPU0KOA3X","either","2","154001","","","","","","","0","0","1","0.4112501448","","0.4","0.2","0.8","0.6","","","","","0.1738894496","0.1714352716","0.2588080464","0.4112501448","","","","","","","","76","L","3","","","93","main_expt"
"","bandit","173","1400647","0.0-134.0-0.0","13517775","wem/bandit_either_2","A1V1JNPU0KOA3X","either","2","1004","","","","","","","0","0","1","","0.1253024032","0.4","0.2","0.8","0.6","0.2484708832","0.1253024032","0.2748849181","0.452415855","","","","","","","","","","","","74","J","1","","","94","main_expt"
"","bandit","174","1402295","0.0-135.0-0.0","13517775","wem/bandit_either_2","A1V1JNPU0KOA3X","either","2","130","","","","","","","0","0","1","","0.1401284447","0.4","0.2","0.8","0.6","0.2914685715","0.1401284447","0.2791739054","0.4589197587","","","","","","","","","","","","74","J","1","","","95","main_expt"
"","bandit","175","1404976","0.0-136.0-0.0","13517775","wem/bandit_either_2","A1V1JNPU0KOA3X","either","2","1155","","","","","","","0","0","1","","0.2417524935","0.4","0.2","0.8","0.6","0.2417524935","0.1320491369","0.3149564315","0.4481870348","","","","","","","","","","","","72","H","0","img/none_selected.jpg","","96","main_expt"
"","bandit","176","1406934","0.0-137.0-0.0","13517775","wem/bandit_either_2","A1V1JNPU0KOA3X","either","2","435","","","","","","","0","0","1","","0.2492821404","0.4","0.2","0.8","0.6","0.2492821404","0.1518453759","0.372564007","0.4597072186","","","","","","","","","","","","72","H","0","img/none_selected.jpg","","97","main_expt"
"","bandit","177","1409030","0.0-138.0-0.0","13517775","wem/bandit_either_2","A1V1JNPU0KOA3X","either","2","565","","","","","","","1","0","0","0.3002958449","","0.4","0.2","0.8","0.6","","","","","0.3002958449","0.2173959583","0.393328365","0.4705619112","","","","","","","","72","H","0","img/none_selected.jpg","","98","main_expt"
"","bandit","178","1410934","0.0-139.0-0.0","13517775","wem/bandit_either_2","A1V1JNPU0KOA3X","either","2","390","","","","","","","1","0","0","0.3544832656","","0.4","0.2","0.8","0.6","","","","","0.3544832656","0.2618725657","0.421239771","0.4800968761","","","","","","","","72","H","0","img/none_selected.jpg","","99","main_expt"
"","bandit","179","1412821","0.0-140.0-0.0","13517775","wem/bandit_either_2","A1V1JNPU0KOA3X","either","2","360","","","","","","","0","1","0","","0.3810954338","0.4","0.2","0.8","0.6","0.3810954338","0.2487788848","0.4130759476","0.4780143146","","","","","","","","","","","","72","H","0","img/none_selected.jpg","","100","main_expt"
"","bandit","180","1414645","0.0-141.0-0.0","13517775","wem/bandit_either_2","A1V1JNPU0KOA3X","either","2","300","","","","","","","0","0","1","","0.4042362267","0.4","0.2","0.8","0.6","0.4042362267","0.2890792313","0.4089462913","0.4849002763","","","","","","","","","","","","72","H","0","img/none_selected.jpg","","101","main_expt"
"","bandit","181","1416579","0.0-142.0-0.0","13517775","wem/bandit_either_2","A1V1JNPU0KOA3X","either","2","410","","","","","","","1","0","0","0.4886078379","","0.4","0.2","0.8","0.6","","","","","0.4594696392","0.3136369757","0.370330464","0.4886078379","","","","","","","","76","L","3","","","102","main_expt"
"","bandit","182","1418445","0.0-143.0-0.0","13517775","wem/bandit_either_2","A1V1JNPU0KOA3X","either","2","348","","","","","","","1","0","0","0.4588766667","","0.4","0.2","0.8","0.6","","","","","0.4588766667","0.2364671533","0.3306315663","0.47121906","","","","","","","","72","H","0","img/none_selected.jpg","","103","main_expt"
"","bandit","183","1420209","0.0-144.0-0.0","13517775","wem/bandit_either_2","A1V1JNPU0KOA3X","either","2","244","","","","","","","0","1","0","","0.4760763377","0.4","0.2","0.8","0.6","0.4372785745","0.2202486688","0.354634178","0.4760763377","","","","","","","","","","","","76","L","3","","","104","main_expt"
"","bandit","184","1421909","0.0-145.0-0.0","13517775","wem/bandit_either_2","A1V1JNPU0KOA3X","either","2","184","","","","","","","0","0","1","0.4063887309","","0.4","0.2","0.8","0.6","","","","","0.4063887309","0.1854418088","0.3896605338","0.4701389446","","","","","","","","72","H","0","img/none_selected.jpg","","105","main_expt"
"","bandit","185","1483438","0.0-146.0-0.0","13517775","wem/bandit_either_2","A1V1JNPU0KOA3X","either","2","59994","","","","","","","0","0","1","0.471324938","","0.4","0.2","0.8","0.6","","","","","0.3778019321","0.1596754559","0.414339711","0.471324938","","","","","","","","76","L","3","","","106","main_expt"
"","bandit","186","1484968","0.0-147.0-0.0","13517775","wem/bandit_either_2","A1V1JNPU0KOA3X","either","2","3","","","","","","","0","0","1","","0.4786694594","0.4","0.2","0.8","0.6","0.3614143111","0.137099288","0.4164239898","0.4786694594","","","","","","","","","","","","76","L","3","","","107","main_expt"
"","bandit","187","1486926","0.0-148.0-0.0","13517775","wem/bandit_either_2","A1V1JNPU0KOA3X","either","2","441","","","","","","","0","0","1","","0.1443984823","0.4","0.2","0.8","0.6","0.3681250399","0.1443984823","0.3836571442","0.4810065258","","","","","","","","","","","","74","J","1","","","108","main_expt"
"","bandit","188","1488672","0.0-149.0-0.0","13517775","wem/bandit_either_2","A1V1JNPU0KOA3X","either","2","227","","","","","","","0","0","1","","0.3446081275","0.4","0.2","0.8","0.6","0.3446081275","0.1409511773","0.3881214568","0.4816764674","","","","","","","","","","","","72","H","0","img/none_selected.jpg","","109","main_expt"
"","bandit","189","1490479","0.0-150.0-0.0","13517775","wem/bandit_either_2","A1V1JNPU0KOA3X","either","2","290","","","","","","","1","0","0","0.4266873791","","0.4","0.2","0.8","0.6","","","","","0.3681270965","0.1787750665","0.4266873791","0.4882082215","","","","","","","","75","K","2","","","110","main_expt"
"","bandit","190","1493892","0.0-151.0-0.0","13517775","wem/bandit_either_2","A1V1JNPU0KOA3X","either","2","1894","","","","","","","0","0","1","0.4475699482","","0.4","0.2","0.8","0.6","","","","","0.391379093","0.1862786225","0.4475699482","0.478642168","","","","","","","","75","K","2","","","111","main_expt"
"","bandit","191","1495788","0.0-152.0-0.0","13517775","wem/bandit_either_2","A1V1JNPU0KOA3X","either","2","370","","","","","","","0","1","0","","0.4841415165","0.4","0.2","0.8","0.6","0.4131544452","0.1654620982","0.4190314983","0.4841415165","","","","","","","","","","","","76","L","3","","","112","main_expt"
"","bandit","192","1497673","0.0-153.0-0.0","13517775","wem/bandit_either_2","A1V1JNPU0KOA3X","either","2","355","","","","","","","0","1","0","","0.4883212127","0.4","0.2","0.8","0.6","0.3963985948","0.1582981878","0.3666128881","0.4883212127","","","","","","","","","","","","76","L","3","","","113","main_expt"
"","bandit","193","1499637","0.0-154.0-0.0","13517775","wem/bandit_either_2","A1V1JNPU0KOA3X","either","2","447","","","","","","","0","0","1","0.4883790739","","0.4","0.2","0.8","0.6","","","","","0.4117985871","0.1922757069","0.3866259854","0.4883790739","","","","","","","","76","L","3","","","114","main_expt"
"","bandit","194","1567061","0.0-155.0-0.0","13517775","wem/bandit_either_2","A1V1JNPU0KOA3X","either","2","65904","","","","","","","0","0","1","0.394381103","","0.4","0.2","0.8","0.6","","","","","0.394381103","0.185618385","0.354161152","0.4902011966","","","","","","","","72","H","0","img/none_selected.jpg","","115","main_expt"
"","bandit","195","1569078","0.0-156.0-0.0","13517775","wem/bandit_either_2","A1V1JNPU0KOA3X","either","2","501","","","","","","","0","0","1","0.3762408663","","0.4","0.2","0.8","0.6","","","","","0.3762408663","0.2057277395","0.3170745426","0.4844723045","","","","","","","","72","H","0","img/none_selected.jpg","","116","main_expt"
"","bandit","196","1571294","0.0-157.0-0.0","13517775","wem/bandit_either_2","A1V1JNPU0KOA3X","either","2","702","","","","","","","1","0","0","0.4895589844","","0.4","0.2","0.8","0.6","","","","","0.3823674378","0.2288411079","0.304536318","0.4895589844","","","","","","","","76","L","3","","","117","main_expt"
"","bandit","197","1573144","0.0-158.0-0.0","13517775","wem/bandit_either_2","A1V1JNPU0KOA3X","either","2","332","","","","","","","0","0","1","","0.4899729034","0.4","0.2","0.8","0.6","0.4050195855","0.2207517482","0.3411026949","0.4899729034","","","","","","","","","","","","76","L","3","","","118","main_expt"
"","bandit","198","1575035","0.0-159.0-0.0","13517775","wem/bandit_either_2","A1V1JNPU0KOA3X","either","2","367","","","","","","","0","0","1","0.3447942488","","0.4","0.2","0.8","0.6","","","","","0.4227562767","0.1955286499","0.3447942488","0.4947041593","","","","","","","","75","K","2","","","119","main_expt"
"","bandit","199","1576873","0.0-160.0-0.0","13517775","wem/bandit_either_2","A1V1JNPU0KOA3X","either","2","321","","","","","","","1","0","0","0.4916865355","","0.4","0.2","0.8","0.6","","","","","0.4163810796","0.2427950695","0.3686185352","0.4916865355","","","","","","","","76","L","3","","","120","main_expt"
"","bandit","200","1578669","0.0-161.0-0.0","13517775","wem/bandit_either_2","A1V1JNPU0KOA3X","either","2","276","","","","","","","1","0","0","0.4860386064","","0.4","0.2","0.8","0.6","","","","","0.406821829","0.2479682904","0.3547669752","0.4860386064","","","","","","","","76","L","3","","","121","main_expt"
"","bandit","201","1580537","0.0-162.0-0.0","13517775","wem/bandit_either_2","A1V1JNPU0KOA3X","either","2","353","","","","","","","0","1","0","","0.483083859","0.4","0.2","0.8","0.6","0.3999449125","0.3081985406","0.365994073","0.483083859","","","","","","","","","","","","76","L","3","","","122","main_expt"
"","bandit","202","1582358","0.0-163.0-0.0","13517775","wem/bandit_either_2","A1V1JNPU0KOA3X","either","2","295","","","","","","","1","0","0","0.4791491275","","0.4","0.2","0.8","0.6","","","","","0.366626489","0.3089359708","0.3120596142","0.4791491275","","","","","","","","76","L","3","","","123","main_expt"
"","bandit","203","1584176","0.0-164.0-0.0","13517775","wem/bandit_either_2","A1V1JNPU0KOA3X","either","2","297","","","","","","","0","0","1","0.4776777384","","0.4","0.2","0.8","0.6","","","","","0.3706278578","0.3298338218","0.302161917","0.4776777384","","","","","","","","76","L","3","","","124","main_expt"
"","bandit","204","1585998","0.0-165.0-0.0","13517775","wem/bandit_either_2","A1V1JNPU0KOA3X","either","2","295","","","","","","","0","0","1","0.478983255","","0.4","0.2","0.8","0.6","","","","","0.3545504723","0.2795250441","0.2794370347","0.478983255","","","","","","","","76","L","3","","","125","main_expt"
"","bandit","205","2065715","0.0-166.0-0.0","13517775","wem/bandit_either_2","A1V1JNPU0KOA3X","either","2","478192","","","","","","","0","1","0","","0.4724726719","0.4","0.2","0.8","0.6","0.3106298006","0.2184127205","0.2466154908","0.4724726719","","","","","","","","","","","","76","L","3","","","126","main_expt"
"","bandit","206","2067745","0.0-167.0-0.0","13517775","wem/bandit_either_2","A1V1JNPU0KOA3X","either","2","505","","","","","","","0","0","1","","0.4796244369","0.4","0.2","0.8","0.6","0.3351405197","0.2488858907","0.2712823261","0.4796244369","","","","","","","","","","","","76","L","3","","","127","main_expt"
"","bandit","207","2069810","0.0-168.0-0.0","13517775","wem/bandit_either_2","A1V1JNPU0KOA3X","either","2","543","","","","","","","0","0","1","0.2095517986","","0.4","0.2","0.8","0.6","","","","","0.2984422464","0.2850827173","0.2095517986","0.4825212971","","","","","","","","75","K","2","","","128","main_expt"
"","bandit","208","2072205","0.0-169.0-0.0","13517775","wem/bandit_either_2","A1V1JNPU0KOA3X","either","2","872","","","","","","","0","0","1","0.1986866195","","0.4","0.2","0.8","0.6","","","","","0.2027892291","0.2867242009","0.1986866195","0.4877535013","","","","","","","","75","K","2","","","129","main_expt"
"","bandit","209","2074410","0.0-170.0-0.0","13517775","wem/bandit_either_2","A1V1JNPU0KOA3X","either","2","671","","","","","","","0","0","1","0.13768179","","0.4","0.2","0.8","0.6","","","","","0.13768179","0.2509552002","0.172959111","0.4833646461","","","","","","","","72","H","0","img/none_selected.jpg","","130","main_expt"
"","bandit","210","2076388","0.0-171.0-0.0","13517775","wem/bandit_either_2","A1V1JNPU0KOA3X","either","2","459","","","","","","","0","0","1","","0.1352832961","0.4","0.2","0.8","0.6","0.1352832961","0.2172434631","0.163172462","0.4790990265","","","","","","","","","","","","72","H","0","img/none_selected.jpg","","131","main_expt"
"","bandit","211","2078252","0.0-172.0-0.0","13517775","wem/bandit_either_2","A1V1JNPU0KOA3X","either","2","348","","","","","","","1","0","0","0.4882311922","","0.4","0.2","0.8","0.6","","","","","0.08660982753","0.158295755","0.161148659","0.4882311922","","","","","","","","76","L","3","","","132","main_expt"
"","bandit","212","2080289","0.0-173.0-0.0","13517775","wem/bandit_either_2","A1V1JNPU0KOA3X","either","2","511","","","","","","","1","0","0","0.4889625365","","0.4","0.2","0.8","0.6","","","","","0.1020907376","0.185310911","0.1735641072","0.4889625365","","","","","","","","76","L","3","","","133","main_expt"
"","bandit","213","2082491","0.0-174.0-0.0","13517775","wem/bandit_either_2","A1V1JNPU0KOA3X","either","2","680","","","","","","","0","1","0","","0.4916783795","0.4","0.2","0.8","0.6","0.1231499397","0.1966535246","0.1597390633","0.4916783795","","","","","","","","","","","","76","L","3","","","134","main_expt"
"","bandit","214","2084507","0.0-175.0-0.0","13517775","wem/bandit_either_2","A1V1JNPU0KOA3X","either","2","495","","","","","","","1","0","0","0.4904315354","","0.4","0.2","0.8","0.6","","","","","0.1524236556","0.2290191974","0.1460070414","0.4904315354","","","","","","","","76","L","3","","","135","main_expt"
"","bandit","215","2086434","0.0-176.0-0.0","13517775","wem/bandit_either_2","A1V1JNPU0KOA3X","either","2","409","","","","","","","0","1","0","","0.491666595","0.4","0.2","0.8","0.6","0.1954247664","0.2929229053","0.105474526","0.491666595","","","","","","","","","","","","76","L","3","","","136","main_expt"
"","bandit","216","2088345","0.0-177.0-0.0","13517775","wem/bandit_either_2","A1V1JNPU0KOA3X","either","2","391","","","","","","","0","0","1","0.4917142499","","0.4","0.2","0.8","0.6","","","","","0.1833989084","0.2780805385","0.08835118593","0.4917142499","","","","","","","","76","L","3","","","137","main_expt"
"","bandit","217","2090256","0.0-178.0-0.0","13517775","wem/bandit_either_2","A1V1JNPU0KOA3X","either","2","386","","","","","","","0","0","1","0.4870170403","","0.4","0.2","0.8","0.6","","","","","0.1490533902","0.217224157","0.06418360449","0.4870170403","","","","","","","","76","L","3","","","138","main_expt"
"","bandit","218","2092080","0.0-179.0-0.0","13517775","wem/bandit_either_2","A1V1JNPU0KOA3X","either","2","304","","","","","","","0","1","0","","0.4834992155","0.4","0.2","0.8","0.6","0.1318817547","0.2323391466","0.03554325754","0.4834992155","","","","","","","","","","","","76","L","3","","","139","main_expt"
"","bandit","219","2094027","0.0-180.0-0.0","13517775","wem/bandit_either_2","A1V1JNPU0KOA3X","either","2","428","","","","","","","0","1","0","","0.4927392517","0.4","0.2","0.8","0.6","0.1877412345","0.244475209","0.04477370895","0.4927392517","","","","","","","","","","","","76","L","3","","","140","main_expt"
"","bandit","220","2095905","0.0-181.0-0.0","13517775","wem/bandit_either_2","A1V1JNPU0KOA3X","either","2","357","","","","","","","0","0","1","0.4872377518","","0.4","0.2","0.8","0.6","","","","","0.2363671377","0.232604034","0.03780119019","0.4872377518","","","","","","","","76","L","3","","","141","main_expt"
"","bandit","221","2097709","0.0-182.0-0.0","13517775","wem/bandit_either_2","A1V1JNPU0KOA3X","either","2","284","","","","","","","0","0","1","","0.4846254936","0.4","0.2","0.8","0.6","0.2546402356","0.2447345556","0.03149913875","0.4846254936","","","","","","","","","","","","76","L","3","","","142","main_expt"
"","bandit","222","2099458","0.0-183.0-0.0","13517775","wem/bandit_either_2","A1V1JNPU0KOA3X","either","2","224","","","","","","","0","0","1","0.4815328815","","0.4","0.2","0.8","0.6","","","","","0.2825544685","0.26413271","0.04191513266","0.4815328815","","","","","","","","76","L","3","","","143","main_expt"
"","bandit","223","2101184","0.0-184.0-0.0","13517775","wem/bandit_either_2","A1V1JNPU0KOA3X","either","2","212","","","","","","","0","1","0","","0.4854048375","0.4","0.2","0.8","0.6","0.2731230023","0.1988203511","0.05613120157","0.4854048375","","","","","","","","","","","","76","L","3","","","144","main_expt"
"","bandit","224","2103064","0.0-185.0-0.0","13517775","wem/bandit_either_2","A1V1JNPU0KOA3X","either","2","361","","","","","","","0","0","1","","0.4813029389","0.4","0.2","0.8","0.6","0.2943814715","0.217822638","0.03827589539","0.4813029389","","","","","","","","","","","","76","L","3","","","145","main_expt"
"","bandit","225","2104758","0.0-186.0-0.0","13517775","wem/bandit_either_2","A1V1JNPU0KOA3X","either","2","175","","","","","","","1","0","0","0.4884824202","","0.4","0.2","0.8","0.6","","","","","0.328634005","0.2009042904","0.02861175853","0.4884824202","","","","","","","","76","L","3","","","146","main_expt"
"","bandit","226","2106541","0.0-187.0-0.0","13517775","wem/bandit_either_2","A1V1JNPU0KOA3X","either","2","262","","","","","","","1","0","0","0.4835291327","","0.4","0.2","0.8","0.6","","","","","0.3511209141","0.2080446297","0.02140640811","0.4835291327","","","","","","","","76","L","3","","","147","main_expt"
"","bandit","227","2108463","0.0-188.0-0.0","13517775","wem/bandit_either_2","A1V1JNPU0KOA3X","either","2","402","","","","","","","1","0","0","0.4716003481","","0.4","0.2","0.8","0.6","","","","","0.3874996206","0.1536700415","0.0202041473","0.4716003481","","","","","","","","76","L","3","","","148","main_expt"
"","bandit","228","2110334","0.0-189.0-0.0","13517775","wem/bandit_either_2","A1V1JNPU0KOA3X","either","2","349","","","","","","","0","0","1","","0.4341886607","0.4","0.2","0.8","0.6","0.3476646045","0.1593661633","0.01154190459","0.4341886607","","","","","","","","","","","","76","L","3","","","149","main_expt"
"","bandit","229","2112265","0.0-190.0-0.0","13517775","wem/bandit_either_2","A1V1JNPU0KOA3X","either","2","402","","","","","","","1","0","0","0.4014438172","","0.4","0.2","0.8","0.6","","","","","0.3323010919","0.144955896","0.01291237021","0.4014438172","","","","","","","","76","L","3","","","150","main_expt"
"","bandit","230","2114170","0.0-191.0-0.0","13517775","wem/bandit_either_2","A1V1JNPU0KOA3X","either","2","383","","","","","","","0","0","1","0.3980713407","","0.4","0.2","0.8","0.6","","","","","0.3954477196","0.2123564028","0.0137789916","0.3980713407","","","","","","","","76","L","3","","","151","main_expt"
"","bandit","231","2115787","0.0-192.0-0.0","13517775","wem/bandit_either_2","A1V1JNPU0KOA3X","either","2","89","","","","","","","0","0","1","","0.4002357887","0.4","0.2","0.8","0.6","0.4186327087","0.2301890466","0.01985271471","0.4002357887","","","","","","","","","","","","76","L","3","","","152","main_expt"
"","bandit","232","2117364","0.0-193.0-0.0","13517775","wem/bandit_either_2","A1V1JNPU0KOA3X","either","2","56","","","","","","","0","0","1","","0.388677987","0.4","0.2","0.8","0.6","0.4029566754","0.2295153641","0.02951100453","0.388677987","","","","","","","","","","","","76","L","3","","","153","main_expt"
"","bandit","233","2119055","0.0-194.0-0.0","13517775","wem/bandit_either_2","A1V1JNPU0KOA3X","either","2","165","","","","","","","0","0","1","0.02325572033","","0.4","0.2","0.8","0.6","","","","","0.4037751878","0.2163321136","0.02325572033","0.3817747688","","","","","","","","75","K","2","","","154","main_expt"
"","bandit","234","2120703","0.0-195.0-0.0","13517775","wem/bandit_either_2","A1V1JNPU0KOA3X","either","2","125","","","","","","","0","0","1","","0.2257858177","0.4","0.2","0.8","0.6","0.4078727314","0.2257858177","0.03925092562","0.327727533","","","","","","","","","","","","74","J","1","","","155","main_expt"
"","bandit","235","2122398","0.0-196.0-0.0","13517775","wem/bandit_either_2","A1V1JNPU0KOA3X","either","2","172","","","","","","","0","0","1","","0.3941681487","0.4","0.2","0.8","0.6","0.3941681487","0.2077891775","0.05532081832","0.2821504166","","","","","","","","","","","","72","H","0","img/none_selected.jpg","","156","main_expt"
"","bandit","236","2124079","0.0-197.0-0.0","13517775","wem/bandit_either_2","A1V1JNPU0KOA3X","either","2","151","","","","","","","0","0","1","","0.3417147062","0.4","0.2","0.8","0.6","0.3417147062","0.1742908387","0.05983660039","0.2784527126","","","","","","","","","","","","72","H","0","img/none_selected.jpg","","157","main_expt"
"","bandit","237","2125659","0.0-198.0-0.0","13517775","wem/bandit_either_2","A1V1JNPU0KOA3X","either","2","54","","","","","","","0","0","1","","0.162057643","0.4","0.2","0.8","0.6","0.2963220618","0.162057643","0.09347744845","0.2857058734","","","","","","","","","","","","74","J","1","","","158","main_expt"
"","bandit","238","2127844","0.0-199.0-0.0","13517775","wem/bandit_either_2","A1V1JNPU0KOA3X","either","2","660","","","","","","","1","0","0","0.2349295223","","0.4","0.2","0.8","0.6","","","","","0.2961528309","0.1805514511","0.09649648717","0.2349295223","","","","","","","","76","L","3","","","159","main_expt"
"","bandit","239","2129630","0.0-200.0-0.0","13517775","wem/bandit_either_2","A1V1JNPU0KOA3X","either","2","260","","","","","","","0","0","1","","0.2275717407","0.4","0.2","0.8","0.6","0.2842772575","0.1724629995","0.08382429791","0.2275717407","","","","","","","","","","","","76","L","3","","","160","main_expt"
"","bandit","240","2131274","0.0-201.0-0.0","13517775","wem/bandit_either_2","A1V1JNPU0KOA3X","either","2","123","","","","","","","0","0","1","","0.2559884592","0.4","0.2","0.8","0.6","0.2747674873","0.1660992999","0.1466352983","0.2559884592","","","","","","","","","","","","76","L","3","","","161","main_expt"
"","bandit","241","2134579","0.0-202.0-0.0","13517775","wem/bandit_either_2","A1V1JNPU0KOA3X","either","2","1778","","","","","","","0","0","1","0.2670526618","","0.4","0.2","0.8","0.6","","","","","0.2993190406","0.2281832109","0.1569467617","0.2670526618","","","","","","","","76","L","3","","","162","main_expt"
"","bandit","242","2136472","0.0-203.0-0.0","13517775","wem/bandit_either_2","A1V1JNPU0KOA3X","either","2","372","","","","","","","0","0","1","","0.2618894379","0.4","0.2","0.8","0.6","0.3102408377","0.2144285545","0.1437935099","0.2618894379","","","","","","","","","","","","76","L","3","","","163","main_expt"
"","bandit","243","2138104","0.0-204.0-0.0","13517775","wem/bandit_either_2","A1V1JNPU0KOA3X","either","2","116","","","","","","","0","0","1","0.2977476978","","0.4","0.2","0.8","0.6","","","","","0.2607878409","0.2131293933","0.1503677763","0.2977476978","","","","","","","","76","L","3","","","164","main_expt"
"","bandit","244","2139875","0.0-205.0-0.0","13517775","wem/bandit_either_2","A1V1JNPU0KOA3X","either","2","245","","","","","","","0","0","1","0.1574825995","","0.4","0.2","0.8","0.6","","","","","0.2470054868","0.251698227","0.1574825995","0.3138636066","","","","","","","","75","K","2","","","165","main_expt"
"","bandit","245","2141413","0.0-206.0-0.0","13517775","wem/bandit_either_2","A1V1JNPU0KOA3X","either","2","24","","","","","","","0","0","1","0.1500633275","","0.4","0.2","0.8","0.6","","","","","0.2629624785","0.2831539445","0.1500633275","0.3204338644","","","","","","","","75","K","2","","","166","main_expt"
"","bandit","246","2143081","0.0-207.0-0.0","13517775","wem/bandit_either_2","A1V1JNPU0KOA3X","either","2","146","","","","","","","0","0","1","0.1137242654","","0.4","0.2","0.8","0.6","","","","","0.2745713682","0.2496169508","0.1137242654","0.3600517585","","","","","","","","75","K","2","","","167","main_expt"
"","bandit","247","2145326","0.0-208.0-0.0","13517775","wem/bandit_either_2","A1V1JNPU0KOA3X","either","2","730","","","","","","","0","0","1","","0.2315540067","0.4","0.2","0.8","0.6","0.2557249153","0.2315540067","0.145192941","0.3678373827","","","","","","","","","","","","74","J","1","","","168","main_expt"
"","bandit","248","2147139","0.0-209.0-0.0","13517775","wem/bandit_either_2","A1V1JNPU0KOA3X","either","2","293","","","","","","","0","0","1","","0.2016321063","0.4","0.2","0.8","0.6","0.2016321063","0.1825517174","0.1863479632","0.3421512568","","","","","","","","","","","","72","H","0","img/none_selected.jpg","","169","main_expt"
"","bandit","249","2149033","0.0-210.0-0.0","13517775","wem/bandit_either_2","A1V1JNPU0KOA3X","either","2","373","","","","","","","0","0","1","","0.2210696627","0.4","0.2","0.8","0.6","0.2210696627","0.2535959064","0.142304713","0.3917895485","","","","","","","","","","","","72","H","0","img/none_selected.jpg","","170","main_expt"
"","bandit","250","2151140","0.0-211.0-0.0","13517775","wem/bandit_either_2","A1V1JNPU0KOA3X","either","2","585","","","","","","","0","1","0","","0.3004284576","0.4","0.2","0.8","0.6","0.1627904758","0.3004284576","0.1739768979","0.3206692194","","","","","","","","","","","","74","J","1","","","171","main_expt"
"","bandit","251","2153048","0.0-212.0-0.0","13517775","wem/bandit_either_2","A1V1JNPU0KOA3X","either","2","384","","","","","","","0","0","1","","0.2716191145","0.4","0.2","0.8","0.6","0.1421076649","0.2716191145","0.2172659048","0.3198600846","","","","","","","","","","","","74","J","1","","","172","main_expt"
"","bandit","252","2154925","0.0-213.0-0.0","13517775","wem/bandit_either_2","A1V1JNPU0KOA3X","either","2","358","","","","","","","0","0","1","","0.3253138029","0.4","0.2","0.8","0.6","0.165050165","0.3253138029","0.2419731025","0.2641483633","","","","","","","","","","","","74","J","1","","","173","main_expt"
"","bandit","253","2156869","0.0-214.0-0.0","13517775","wem/bandit_either_2","A1V1JNPU0KOA3X","either","2","422","","","","","","","0","0","1","0.2248062597","","0.4","0.2","0.8","0.6","","","","","0.1406738207","0.3419591401","0.2239571331","0.2248062597","","","","","","","","76","L","3","","","174","main_expt"
"","bandit","254","2158663","0.0-215.0-0.0","13517775","wem/bandit_either_2","A1V1JNPU0KOA3X","either","2","271","","","","","","","0","0","1","","0.2370379408","0.4","0.2","0.8","0.6","0.138310495","0.3442692367","0.2311410243","0.2370379408","","","","","","","","","","","","76","L","3","","","175","main_expt"
"","bandit","255","2160446","0.0-216.0-0.0","13517775","wem/bandit_either_2","A1V1JNPU0KOA3X","either","2","258","","","","","","","0","1","0","","0.2157433706","0.4","0.2","0.8","0.6","0.1675243642","0.3397266539","0.2610077479","0.2157433706","","","","","","","","","","","","76","L","3","","","176","main_expt"
"","bandit","256","2162283","0.0-217.0-0.0","13517775","wem/bandit_either_2","A1V1JNPU0KOA3X","either","2","319","","","","","","","0","0","1","","0.2014791824","0.4","0.2","0.8","0.6","0.1919885971","0.2997078274","0.2780938204","0.2014791824","","","","","","","","","","","","76","L","3","","","177","main_expt"
"","bandit","257","2164037","0.0-218.0-0.0","13517775","wem/bandit_either_2","A1V1JNPU0KOA3X","either","2","231","","","","","","","0","0","1","0.1913564418","","0.4","0.2","0.8","0.6","","","","","0.2365392944","0.3064007527","0.3151752793","0.1913564418","","","","","","","","76","L","3","","","178","main_expt"
"","bandit","258","2165903","0.0-219.0-0.0","13517775","wem/bandit_either_2","A1V1JNPU0KOA3X","either","2","340","","","","","","","0","0","1","0.1980728016","","0.4","0.2","0.8","0.6","","","","","0.2509455726","0.3533432679","0.2799621139","0.1980728016","","","","","","","","76","L","3","","","179","main_expt"
"","bandit","259","2167730","0.0-220.0-0.0","13517775","wem/bandit_either_2","A1V1JNPU0KOA3X","either","2","304","","","","","","","0","0","1","0.1833491223","","0.4","0.2","0.8","0.6","","","","","0.2767223981","0.3652522579","0.3170936092","0.1833491223","","","","","","","","76","L","3","","","180","main_expt"
"","bandit","260","2169609","0.0-221.0-0.0","13517775","wem/bandit_either_2","A1V1JNPU0KOA3X","either","2","353","","","","","","","0","0","1","","0.314600373","0.4","0.2","0.8","0.6","0.314600373","0.3383156657","0.28101752","0.1342686697","","","","","","","","","","","","72","H","0","img/none_selected.jpg","","181","main_expt"
"","bandit","261","2171438","0.0-222.0-0.0","13517775","wem/bandit_either_2","A1V1JNPU0KOA3X","either","2","306","","","","","","","0","0","1","","0.3943610609","0.4","0.2","0.8","0.6","0.3943610609","0.2902116232","0.3043342224","0.1636660304","","","","","","","","","","","","72","H","0","img/none_selected.jpg","","182","main_expt"
"","bandit","262","2173428","0.0-223.0-0.0","13517775","wem/bandit_either_2","A1V1JNPU0KOA3X","either","2","459","","","","","","","0","0","1","0.3192524042","","0.4","0.2","0.8","0.6","","","","","0.3586422101","0.3026157476","0.3192524042","0.136761637","","","","","","","","75","K","2","","","183","main_expt"
"","bandit","263","2175328","0.0-224.0-0.0","13517775","wem/bandit_either_2","A1V1JNPU0KOA3X","either","2","377","","","","","","","1","0","0","0.3332516821","","0.4","0.2","0.8","0.6","","","","","0.3879999062","0.3360229169","0.3332516821","0.1685989701","","","","","","","","75","K","2","","","184","main_expt"
"","bandit","264","2177223","0.0-225.0-0.0","13517775","wem/bandit_either_2","A1V1JNPU0KOA3X","either","2","370","","","","","","","1","0","0","0.3228184693","","0.4","0.2","0.8","0.6","","","","","0.3831340227","0.3336456265","0.3228184693","0.1663529744","","","","","","","","75","K","2","","","185","main_expt"
"","bandit","265","2179137","0.0-226.0-0.0","13517775","wem/bandit_either_2","A1V1JNPU0KOA3X","either","2","390","","","","","","","0","0","1","","0.3111703144","0.4","0.2","0.8","0.6","0.3999004662","0.3308881938","0.3111703144","0.1916836285","","","","","","","","","","","","75","K","2","","","186","main_expt"
"","bandit","266","2181060","0.0-227.0-0.0","13517775","wem/bandit_either_2","A1V1JNPU0KOA3X","either","2","395","","","","","","","0","0","1","0.3353611299","","0.4","0.2","0.8","0.6","","","","","0.3875363153","0.325530054","0.3353611299","0.1686829448","","","","","","","","75","K","2","","","187","main_expt"
"","bandit","267","2182999","0.0-228.0-0.0","13517775","wem/bandit_either_2","A1V1JNPU0KOA3X","either","2","422","","","","","","","0","0","1","0.3646937268","","0.4","0.2","0.8","0.6","","","","","0.3875691392","0.3055482451","0.3646937268","0.1461675531","","","","","","","","75","K","2","","","188","main_expt"
"","bandit","268","2184853","0.0-229.0-0.0","13517775","wem/bandit_either_2","A1V1JNPU0KOA3X","either","2","325","","","","","","","0","0","1","","0.3002345065","0.4","0.2","0.8","0.6","0.4166866882","0.3002345065","0.3891323825","0.1382971047","","","","","","","","","","","","74","J","1","","","189","main_expt"
"","bandit","269","2186648","0.0-230.0-0.0","13517775","wem/bandit_either_2","A1V1JNPU0KOA3X","either","2","273","","","","","","","0","1","0","","0.2693931213","0.4","0.2","0.8","0.6","0.4124474499","0.2693931213","0.3860741766","0.1898135375","","","","","","","","","","","","74","J","1","","","190","main_expt"
"","bandit","270","2188514","0.0-231.0-0.0","13517775","wem/bandit_either_2","A1V1JNPU0KOA3X","either","2","340","","","","","","","0","0","1","","0.3009284261","0.4","0.2","0.8","0.6","0.3638199534","0.3009284261","0.3864243721","0.1264917812","","","","","","","","","","","","74","J","1","","","191","main_expt"
"","bandit","271","2190373","0.0-232.0-0.0","13517775","wem/bandit_either_2","A1V1JNPU0KOA3X","either","2","340","","","","","","","1","0","0","0.3157917784","","0.4","0.2","0.8","0.6","","","","","0.3711146034","0.3157917784","0.400448014","0.1185409567","","","","","","","","74","J","1","","","192","main_expt"
"","bandit","272","2192223","0.0-233.0-0.0","13517775","wem/bandit_either_2","A1V1JNPU0KOA3X","either","2","326","","","","","","","0","1","0","","0.2999212614","0.4","0.2","0.8","0.6","0.3654165885","0.2999212614","0.3895367297","0.09837948322","","","","","","","","","","","","74","J","1","","","193","main_expt"
"","bandit","273","2194098","0.0-234.0-0.0","13517775","wem/bandit_either_2","A1V1JNPU0KOA3X","either","2","349","","","","","","","0","0","1","","0.3287494418","0.4","0.2","0.8","0.6","0.3537818584","0.3287494418","0.4032313792","0.137690802","","","","","","","","","","","","74","J","1","","","194","main_expt"
"","bandit","274","2195849","0.0-235.0-0.0","13517775","wem/bandit_either_2","A1V1JNPU0KOA3X","either","2","228","","","","","","","0","0","1","","0.3031978913","0.4","0.2","0.8","0.6","0.3597494918","0.3031978913","0.337234763","0.1683354775","","","","","","","","","","","","74","J","1","","","195","main_expt"
"","bandit","275","2197593","0.0-236.0-0.0","13517775","wem/bandit_either_2","A1V1JNPU0KOA3X","either","2","221","","","","","","","0","0","1","","0.2901303692","0.4","0.2","0.8","0.6","0.3479121901","0.2901303692","0.3950764453","0.1561951964","","","","","","","","","","","","74","J","1","","","196","main_expt"
"","bandit","276","2199594","0.0-237.0-0.0","13517775","wem/bandit_either_2","A1V1JNPU0KOA3X","either","2","471","","","","","","","0","0","1","","0.2444781728","0.4","0.2","0.8","0.6","0.3596292454","0.2444781728","0.4193743727","0.1329868482","","","","","","","","","","","","74","J","1","","","197","main_expt"
"","bandit","277","2201499","0.0-238.0-0.0","13517775","wem/bandit_either_2","A1V1JNPU0KOA3X","either","2","381","","","","","","","0","0","1","","0.1730826789","0.4","0.2","0.8","0.6","0.3555371828","0.2140047665","0.4375347816","0.1730826789","","","","","","","","","","","","76","L","3","","","198","main_expt"
"","bandit","278","2203437","0.0-239.0-0.0","13517775","wem/bandit_either_2","A1V1JNPU0KOA3X","either","2","408","","","","","","","0","0","1","","0.1385649096","0.4","0.2","0.8","0.6","0.4016486285","0.2077842613","0.4315030007","0.1385649096","","","","","","","","","","","","76","L","3","","","199","main_expt"
"","bandit","279","2205068","0.0-240.0-0.0","13517775","wem/bandit_either_2","A1V1JNPU0KOA3X","either","2","109","","","","","","","1","0","0","0.1941139053","","0.4","0.2","0.8","0.6","","","","","0.3871107612","0.180488049","0.4340108373","0.1941139053","","","","","","","","76","L","3","","","200","main_expt"
"","bandit","280","2206944","0.0-241.0-0.0","13517775","wem/bandit_either_2","A1V1JNPU0KOA3X","either","2","356","","","","","","","0","0","1","0.1825013029","","0.4","0.2","0.8","0.6","","","","","0.3856539452","0.2084987087","0.441078118","0.1825013029","","","","","","","","76","L","3","","","201","main_expt"
"","bandit","281","2208633","0.0-242.0-0.0","13517775","wem/bandit_either_2","A1V1JNPU0KOA3X","either","2","159","","","","","","","0","0","1","0.4143682719","","0.4","0.2","0.8","0.6","","","","","0.358588673","0.1869669721","0.4143682719","0.162440572","","","","","","","","75","K","2","","","202","main_expt"
"","bandit","282","2210303","0.0-243.0-0.0","13517775","wem/bandit_either_2","A1V1JNPU0KOA3X","either","2","142","","","","","","","0","0","1","0.4280720422","","0.4","0.2","0.8","0.6","","","","","0.3460881607","0.1383076553","0.4280720422","0.1914238456","","","","","","","","75","K","2","","","203","main_expt"
"","bandit","283","2211921","0.0-244.0-0.0","13517775","wem/bandit_either_2","A1V1JNPU0KOA3X","either","2","94","","","","","","","0","0","1","0.4113524858","","0.4","0.2","0.8","0.6","","","","","0.3091432968","0.1656187697","0.4113524858","0.1849793247","","","","","","","","75","K","2","","","204","main_expt"
"","bandit","284","2213833","0.0-245.0-0.0","13517775","wem/bandit_either_2","A1V1JNPU0KOA3X","either","2","382","","","","","","","0","0","1","","0.1699285253","0.4","0.2","0.8","0.6","0.3016396897","0.1699285253","0.4151465815","0.1722293799","","","","","","","","","","","","74","J","1","","","205","main_expt"
"","bandit","285","2215730","0.0-246.0-0.0","13517775","wem/bandit_either_2","A1V1JNPU0KOA3X","either","2","373","","","","","","","0","0","1","","0.161732949","0.4","0.2","0.8","0.6","0.3300702997","0.161732949","0.4002359997","0.1625694713","","","","","","","","","","","","74","J","1","","","206","main_expt"
"","bandit","286","2217547","0.0-247.0-0.0","13517775","wem/bandit_either_2","A1V1JNPU0KOA3X","either","2","299","","","","","","","0","0","1","0.1699017951","","0.4","0.2","0.8","0.6","","","","","0.2648848683","0.1699017951","0.3692387261","0.1079769143","","","","","","","","74","J","1","","","207","main_expt"
"","bandit","287","2219205","0.0-248.0-0.0","13517775","wem/bandit_either_2","A1V1JNPU0KOA3X","either","2","141","","","","","","","0","1","0","","0.2502792914","0.4","0.2","0.8","0.6","0.2502792914","0.1592107695","0.3283471685","0.1380178959","","","","","","","","","","","","72","H","0","img/none_selected.jpg","","208","main_expt"
"","bandit","288","2221036","0.0-249.0-0.0","13517775","wem/bandit_either_2","A1V1JNPU0KOA3X","either","2","302","","","","","","","0","0","1","","0.2770073026","0.4","0.2","0.8","0.6","0.2770073026","0.1659907122","0.2924758898","0.1538506734","","","","","","","","","","","","72","H","0","img/none_selected.jpg","","209","main_expt"
"","bandit","289","2222944","0.0-250.0-0.0","13517775","wem/bandit_either_2","A1V1JNPU0KOA3X","either","2","383","","","","","","","0","0","1","","0.3451435735","0.4","0.2","0.8","0.6","0.3451435735","0.229525517","0.2279470939","0.1406222791","","","","","","","","","","","","72","H","0","img/none_selected.jpg","","210","main_expt"
"","bandit","290","2225020","0.0-251.0-0.0","13517775","wem/bandit_either_2","A1V1JNPU0KOA3X","either","2","550","","","","","","","0","1","0","","0.3514478275","0.4","0.2","0.8","0.6","0.3514478275","0.2434605193","0.2131844406","0.08987887408","","","","","","","","","","","","72","H","0","img/none_selected.jpg","","211","main_expt"
"","bandit","291","2226933","0.0-252.0-0.0","13517775","wem/bandit_either_2","A1V1JNPU0KOA3X","either","2","386","","","","","","","0","1","0","","0.3579324364","0.4","0.2","0.8","0.6","0.3579324364","0.1633214123","0.1601793481","0.1277875359","","","","","","","","","","","","72","H","0","img/none_selected.jpg","","212","main_expt"
"","bandit","292","2228770","0.0-253.0-0.0","13517775","wem/bandit_either_2","A1V1JNPU0KOA3X","either","2","307","","","","","","","0","1","0","","0.3231243524","0.4","0.2","0.8","0.6","0.3231243524","0.1014835246","0.1354109392","0.134271297","","","","","","","","","","","","72","H","0","img/none_selected.jpg","","213","main_expt"
"","bandit","293","2230578","0.0-254.0-0.0","13517775","wem/bandit_either_2","A1V1JNPU0KOA3X","either","2","286","","","","","","","1","0","0","0.2798540136","","0.4","0.2","0.8","0.6","","","","","0.2798540136","0.09587264096","0.1142105534","0.1385204111","","","","","","","","72","H","0","img/none_selected.jpg","","214","main_expt"
"","bandit","294","2232410","0.0-255.0-0.0","13517775","wem/bandit_either_2","A1V1JNPU0KOA3X","either","2","302","","","","","","","1","0","0","0.2469391402","","0.4","0.2","0.8","0.6","","","","","0.2469391402","0.08342689115","0.1031311673","0.1089132689","","","","","","","","72","H","0","img/none_selected.jpg","","215","main_expt"
"","bandit","295","2234216","0.0-256.0-0.0","13517775","wem/bandit_either_2","A1V1JNPU0KOA3X","either","2","277","","","","","","","0","1","0","","0.3211823944","0.4","0.2","0.8","0.6","0.3211823944","0.05361264496","0.1031732366","0.1299508563","","","","","","","","","","","","72","H","0","img/none_selected.jpg","","216","main_expt"
"","bandit","296","2236038","0.0-257.0-0.0","13517775","wem/bandit_either_2","A1V1JNPU0KOA3X","either","2","297","","","","","","","0","0","1","","0.3545519007","0.4","0.2","0.8","0.6","0.3545519007","0.09912420903","0.1188097379","0.131109262","","","","","","","","","","","","72","H","0","img/none_selected.jpg","","217","main_expt"
"","bandit","297","2237778","0.0-258.0-0.0","13517775","wem/bandit_either_2","A1V1JNPU0KOA3X","either","2","218","","","","","","","0","0","1","0.3781539282","","0.4","0.2","0.8","0.6","","","","","0.3781539282","0.1021137889","0.1096623481","0.1039495344","","","","","","","","72","H","0","img/none_selected.jpg","","218","main_expt"
"","bandit","298","2239389","0.0-259.0-0.0","13517775","wem/bandit_either_2","A1V1JNPU0KOA3X","either","2","86","","","","","","","0","0","1","0.3674409598","","0.4","0.2","0.8","0.6","","","","","0.3674409598","0.1025207236","0.08679630722","0.09488552944","","","","","","","","72","H","0","img/none_selected.jpg","","219","main_expt"
"","bandit","299","2241183","0.0-260.0-0.0","13517775","wem/bandit_either_2","A1V1JNPU0KOA3X","either","2","267","","","","","","","0","1","0","","0.315237632","0.4","0.2","0.8","0.6","0.315237632","0.1049734862","0.1482089448","0.1311925698","","","","","","","","","","","","72","H","0","img/none_selected.jpg","","220","main_expt"
"","bandit","300","2242921","0.0-261.0-0.0","13517775","wem/bandit_either_2","A1V1JNPU0KOA3X","either","2","213","","","","","","","1","0","0","0.3572442142","","0.4","0.2","0.8","0.6","","","","","0.3572442142","0.08244295151","0.217172314","0.08224132258","","","","","","","","72","H","0","img/none_selected.jpg","","221","main_expt"
"","bandit","301","2244607","0.0-262.0-0.0","13517775","wem/bandit_either_2","A1V1JNPU0KOA3X","either","2","154","","","","","","","0","0","1","","0.2796125419","0.4","0.2","0.8","0.6","0.2796125419","0.09815111748","0.2227738938","0.06870998364","","","","","","","","","","","","72","H","0","img/none_selected.jpg","","222","main_expt"
"","bandit","302","2246423","0.0-263.0-0.0","13517775","wem/bandit_either_2","A1V1JNPU0KOA3X","either","2","288","","","","","","","0","0","1","","0.2265565182","0.4","0.2","0.8","0.6","0.2265565182","0.09925351505","0.2768694491","0.111762886","","","","","","","","","","","","72","H","0","img/none_selected.jpg","","223","main_expt"
"","bandit","303","2248154","0.0-264.0-0.0","13517775","wem/bandit_either_2","A1V1JNPU0KOA3X","either","2","208","","","","","","","0","0","1","0.1727872262","","0.4","0.2","0.8","0.6","","","","","0.1727872262","0.07842644678","0.2895694018","0.09652303785","","","","","","","","72","H","0","img/none_selected.jpg","","224","main_expt"
"","bandit","304","2250155","0.0-265.0-0.0","13517775","wem/bandit_either_2","A1V1JNPU0KOA3X","either","2","477","","","","","","","0","0","1","","0.09424892582","0.4","0.2","0.8","0.6","0.1580797834","0.05284632075","0.3515154126","0.09424892582","","","","","","","","","","","","76","L","3","","","225","main_expt"
"","bandit","305","2251946","0.0-266.0-0.0","13517775","wem/bandit_either_2","A1V1JNPU0KOA3X","either","2","263","","","","","","","0","0","1","","0.1206031336","0.4","0.2","0.8","0.6","0.1206031336","0.06788221328","0.3960872924","0.1094697254","","","","","","","","","","","","72","H","0","img/none_selected.jpg","","226","main_expt"
"","bandit","306","2254000","0.0-267.0-0.0","13517775","wem/bandit_either_2","A1V1JNPU0KOA3X","either","2","520","","","","","","","0","0","1","0.1055794081","","0.4","0.2","0.8","0.6","","","","","0.1218099769","0.04226868229","0.3301105445","0.1055794081","","","","","","","","76","L","3","","","227","main_expt"
"","bandit","307","2256069","0.0-268.0-0.0","13517775","wem/bandit_either_2","A1V1JNPU0KOA3X","either","2","552","","","","","","","1","0","0","0.3679650562","","0.4","0.2","0.8","0.6","","","","","0.08458740206","0.06174471126","0.3679650562","0.1210232629","","","","","","","","75","K","2","","","228","main_expt"
"","bandit","308","2258143","0.0-269.0-0.0","13517775","wem/bandit_either_2","A1V1JNPU0KOA3X","either","2","548","","","","","","","0","0","1","0.3413725311","","0.4","0.2","0.8","0.6","","","","","0.06311990622","0.06122033102","0.3413725311","0.1249199002","","","","","","","","75","K","2","","","229","main_expt"
"","bandit","309","2260063","0.0-270.0-0.0","13517775","wem/bandit_either_2","A1V1JNPU0KOA3X","either","2","402","","","","","","","0","0","1","","0.04674316758","0.4","0.2","0.8","0.6","0.04674316758","0.09369367087","0.3652503211","0.1423167866","","","","","","","","","","","","72","H","0","img/none_selected.jpg","","230","main_expt"
"","bandit","310","2261956","0.0-271.0-0.0","13517775","wem/bandit_either_2","A1V1JNPU0KOA3X","either","2","366","","","","","","","0","0","1","","0.3774172636","0.4","0.2","0.8","0.6","0.06697327866","0.1378364932","0.3774172636","0.1441411413","","","","","","","","","","","","75","K","2","","","231","main_expt"
"","bandit","311","2263999","0.0-272.0-0.0","13517775","wem/bandit_either_2","A1V1JNPU0KOA3X","either","2","512","","","","","","","1","0","0","0.3507397895","","0.4","0.2","0.8","0.6","","","","","0.08617656909","0.1138343256","0.3507397895","0.1132866493","","","","","","","","75","K","2","","","232","main_expt"
"","bandit","312","2265952","0.0-273.0-0.0","13517775","wem/bandit_either_2","A1V1JNPU0KOA3X","either","2","431","","","","","","","0","0","1","0.3228668676","","0.4","0.2","0.8","0.6","","","","","0.08388286328","0.1602674987","0.3228668676","0.07587191469","","","","","","","","75","K","2","","","233","main_expt"
"","bandit","313","2267832","0.0-274.0-0.0","13517775","wem/bandit_either_2","A1V1JNPU0KOA3X","either","2","353","","","","","","","0","0","1","","0.08303297831","0.4","0.2","0.8","0.6","0.08303297831","0.1399599793","0.3219168209","0.08330376307","","","","","","","","","","","","72","H","0","img/none_selected.jpg","","234","main_expt"
"","bandit","314","2269689","0.0-275.0-0.0","13517775","wem/bandit_either_2","A1V1JNPU0KOA3X","either","2","332","","","","","","","0","0","1","0.08228619446","","0.4","0.2","0.8","0.6","","","","","0.08228619446","0.1577883936","0.2907257894","0.07960395758","","","","","","","","72","H","0","img/none_selected.jpg","","235","main_expt"
"","bandit","315","2271565","0.0-276.0-0.0","13517775","wem/bandit_either_2","A1V1JNPU0KOA3X","either","2","353","","","","","","","0","0","1","","0.1206463377","0.4","0.2","0.8","0.6","0.07856112713","0.1206463377","0.2879125653","0.06703487678","","","","","","","","","","","","74","J","1","","","236","main_expt"
"","bandit","316","2273554","0.0-277.0-0.0","13517775","wem/bandit_either_2","A1V1JNPU0KOA3X","either","2","465","","","","","","","0","0","1","","0.1224948263","0.4","0.2","0.8","0.6","0.09394336493","0.1224948263","0.3055933028","0.07970276757","","","","","","","","","","","","74","J","1","","","237","main_expt"
"","bandit","317","2275509","0.0-278.0-0.0","13517775","wem/bandit_either_2","A1V1JNPU0KOA3X","either","2","429","","","","","","","0","0","1","","0.05589422377","0.4","0.2","0.8","0.6","0.1044036833","0.1163601633","0.3197806133","0.05589422377","","","","","","","","","","","","76","L","3","","","238","main_expt"
"","bandit","318","2277267","0.0-279.0-0.0","13517775","wem/bandit_either_2","A1V1JNPU0KOA3X","either","2","233","","","","","","","0","0","1","0.07304711058","","0.4","0.2","0.8","0.6","","","","","0.1010835707","0.09302868556","0.2699970134","0.07304711058","","","","","","","","76","L","3","","","239","main_expt"
"","bandit","319","2279084","0.0-280.0-0.0","13517775","wem/bandit_either_2","A1V1JNPU0KOA3X","either","2","293","","","","","","","0","0","1","0.1142909623","","0.4","0.2","0.8","0.6","","","","","0.1196592177","0.1142909623","0.2594796501","0.05193691484","","","","","","","","74","J","1","","","240","main_expt"
"","bandit","320","2280989","0.0-281.0-0.0","13517775","wem/bandit_either_2","A1V1JNPU0KOA3X","either","2","375","","","","","","","0","0","1","","0.1694552561","0.4","0.2","0.8","0.6","0.127320561","0.1694552561","0.252227353","0.06844812817","","","","","","","","","","","","74","J","1","","","241","main_expt"
"","bandit","321","2282842","0.0-282.0-0.0","13517775","wem/bandit_either_2","A1V1JNPU0KOA3X","either","2","325","","","","","","","0","0","1","","0.10641745","0.4","0.2","0.8","0.6","0.10641745","0.1828807391","0.301231011","0.07869989264","","","","","","","","","","","","72","H","0","img/none_selected.jpg","","242","main_expt"
"","bandit","322","2284584","0.0-283.0-0.0","13517775","wem/bandit_either_2","A1V1JNPU0KOA3X","either","2","212","","","","","","","0","0","1","0.131785075","","0.4","0.2","0.8","0.6","","","","","0.131785075","0.1236361748","0.2903867436","0.06084245892","","","","","","","","72","H","0","img/none_selected.jpg","","243","main_expt"
"","bandit","323","2286382","0.0-284.0-0.0","13517775","wem/bandit_either_2","A1V1JNPU0KOA3X","either","2","281","","","","","","","0","0","1","0.1150513838","","0.4","0.2","0.8","0.6","","","","","0.1150513838","0.1131162958","0.2659167858","0.04982625113","","","","","","","","72","H","0","img/none_selected.jpg","","244","main_expt"
"","bandit","324","2288191","0.0-285.0-0.0","13517775","wem/bandit_either_2","A1V1JNPU0KOA3X","either","2","284","","","","","","","0","0","1","0.1651966394","","0.4","0.2","0.8","0.6","","","","","0.1651966394","0.08611006768","0.254087564","0.04708965441","","","","","","","","72","H","0","img/none_selected.jpg","","245","main_expt"
