"consent","trial_type","trial_index","time_elapsed","internal_node_id","subjID","study","MID","cond","drift","rt","responses","key_press","expt_phase","like","value","connected","gems","bombs","no_reward","GemPrChosen","BombPrChosen","GainOverPainPr_0","GainOverPainPr_1","GainOverPainPr_2","GainOverPainPr_3","LosePr_0","LosePr_1","LosePr_2","LosePr_3","WinPr_0","WinPr_1","WinPr_2","WinPr_3","Q0","Q1","Q2","gender","age","ethnicity","target","respCharCode","respKey","respChoiceNum","respChoice","practice","trial_counter","trial_label"
"INL_behavioral_consent_30min_online.html","consent","0","154908","0.0-0.0","15056030","wem/bandit_either_2","A3UV9UAE6MP36J","either","3","","","","","","","","","","","","","","","","","","","","","","","","","","","","","","","","","","","","","",""
"","survey-text","1","167380","0.0-1.0","15056030","wem/bandit_either_2","A3UV9UAE6MP36J","either","3","11436","{""Q0"":""A3UV9UAE6MP36J""}","","","","","","","","","","","","","","","","","","","","","","","","","","","","","","","","","","","",""
"","text","2","181758","0.0-2.0","15056030","wem/bandit_either_2","A3UV9UAE6MP36J","either","3","13369","","32","","","","","","","","","","","","","","","","","","","","","","","","","","","","","","","","","","",""
"","text","3","194962","0.0-3.0","15056030","wem/bandit_either_2","A3UV9UAE6MP36J","either","3","13202","","32","","","","","","","","","","","","","","","","","","","","","","","","","","","","","","","","","","",""
"","text","4","232192","0.0-4.0","15056030","wem/bandit_either_2","A3UV9UAE6MP36J","either","3","37227","","32","","","","","","","","","","","","","","","","","","","","","","","","","","","","","","","","","","",""
"","text","5","249100","0.0-5.0","15056030","wem/bandit_either_2","A3UV9UAE6MP36J","either","3","16899","","32","","","","","","","","","","","","","","","","","","","","","","","","","","","","","","","","","","",""
"","text","6","274139","0.0-6.0","15056030","wem/bandit_either_2","A3UV9UAE6MP36J","either","3","25035","","32","","","","","","","","","","","","","","","","","","","","","","","","","","","","","","","","","","",""
"","text","7","281854","0.0-7.0","15056030","wem/bandit_either_2","A3UV9UAE6MP36J","either","3","7712","","32","","","","","","","","","","","","","","","","","","","","","","","","","","","","","","","","","","",""
"","text","8","287959","0.0-8.0","15056030","wem/bandit_either_2","A3UV9UAE6MP36J","either","3","6103","","32","","","","","","","","","","","","","","","","","","","","","","","","","","","","","","","","","","",""
"","identification","9","299245","0.0-9.0-0.0","15056030","wem/bandit_either_2","A3UV9UAE6MP36J","either","3","11270","","","","4","5","3","","","","","","","","","","","","","","","","","","","","","","","","the village of Zur","","","","","","",""
"","identification","10","310290","0.0-9.0-1.0","15056030","wem/bandit_either_2","A3UV9UAE6MP36J","either","3","10015","","","","2","1","0","","","","","","","","","","","","","","","","","","","","","","","","the village of Nyx","","","","","","",""
"","text","11","317641","0.0-10.0","15056030","wem/bandit_either_2","A3UV9UAE6MP36J","either","3","6349","","32","","","","","","","","","","","","","","","","","","","","","","","","","","","","","","","","","","",""
"","text","12","321660","0.0-11.0","15056030","wem/bandit_either_2","A3UV9UAE6MP36J","either","3","4014","","32","","","","","","","","","","","","","","","","","","","","","","","","","","","","","","","","","","",""
"","text","13","325662","0.0-12.0","15056030","wem/bandit_either_2","A3UV9UAE6MP36J","either","3","3998","","32","","","","","","","","","","","","","","","","","","","","","","","","","","","","","","","","","","",""
"","text","14","333007","0.0-13.0","15056030","wem/bandit_either_2","A3UV9UAE6MP36J","either","3","7343","","32","","","","","","","","","","","","","","","","","","","","","","","","","","","","","","","","","","",""
"","bandit","15","337806","0.0-14.0-0.0","15056030","wem/bandit_either_2","A3UV9UAE6MP36J","either","3","3275","","","","","","","0","0","1","0","0","","","","","0","","","","0","","","","","","","","","","","74","J","0","img/none_selected_demo.jpg","true","0",""
"","bandit","16","341612","0.0-15.0-0.0","15056030","wem/bandit_either_2","A3UV9UAE6MP36J","either","3","2289","","","","","","","0","0","1","0","0","","","","","0","","","","0","","","","","","","","","","","75","K","0","img/none_selected_demo.jpg","true","0",""
"","text","17","356155","0.0-16.0","15056030","wem/bandit_either_2","A3UV9UAE6MP36J","either","3","14539","","32","","","","","","","","","","","","","","","","","","","","","","","","","","","","","","","","","","",""
"","text","18","367196","0.0-17.0","15056030","wem/bandit_either_2","A3UV9UAE6MP36J","either","3","11037","","32","","","","","","","","","","","","","","","","","","","","","","","","","","","","","","","","","","",""
"","text","19","376873","0.0-18.0","15056030","wem/bandit_either_2","A3UV9UAE6MP36J","either","3","9671","","32","","","","","","","","","","","","","","","","","","","","","","","","","","","","","","","","","","",""
"","text","20","382496","0.0-19.0","15056030","wem/bandit_either_2","A3UV9UAE6MP36J","either","3","5615","","32","","","","","","","","","","","","","","","","","","","","","","","","","","","","","","","","","","",""
"","bandit","21","384880","0.0-20.0-0.0","15056030","wem/bandit_either_2","A3UV9UAE6MP36J","either","3","854","","","","","","","0","1","0","","0.8","0.5","0.5","","","0.8","0.2","","","","","","","","","","","","","","74","J","0","img/none_selected_demo.jpg","true","0","80_20_practice"
"","bandit","22","387550","0.0-20.0-1.0","15056030","wem/bandit_either_2","A3UV9UAE6MP36J","either","3","1165","","","","","","","1","0","0","0.8","","0.5","0.5","","","","","","","0.8","0.2","","","","","","","","","","74","J","0","img/none_selected_demo.jpg","true","0","80_20_practice"
"","bandit","23","389514","0.0-20.0-2.0","15056030","wem/bandit_either_2","A3UV9UAE6MP36J","either","3","451","","","","","","","0","1","0","","0.8","0.5","0.5","","","0.8","0.2","","","","","","","","","","","","","","74","J","0","img/none_selected_demo.jpg","true","0","80_20_practice"
"","bandit","24","391886","0.0-20.0-3.0","15056030","wem/bandit_either_2","A3UV9UAE6MP36J","either","3","865","","","","","","","0","0","1","","0.8","0.5","0.5","","","0.8","0.2","","","","","","","","","","","","","","74","J","0","img/none_selected_demo.jpg","true","0","80_20_practice"
"","bandit","25","393711","0.0-20.0-4.0","15056030","wem/bandit_either_2","A3UV9UAE6MP36J","either","3","313","","","","","","","0","0","1","0.2","","0.5","0.5","","","","","","","0.8","0.2","","","","","","","","","","75","K","1","","true","0","80_20_practice"
"","bandit","26","395645","0.0-20.0-5.0","15056030","wem/bandit_either_2","A3UV9UAE6MP36J","either","3","421","","","","","","","0","0","1","0.2","","0.5","0.5","","","","","","","0.8","0.2","","","","","","","","","","75","K","1","","true","0","80_20_practice"
"","bandit","27","397777","0.0-20.0-6.0","15056030","wem/bandit_either_2","A3UV9UAE6MP36J","either","3","619","","","","","","","0","0","1","0.2","","0.5","0.5","","","","","","","0.8","0.2","","","","","","","","","","75","K","1","","true","0","80_20_practice"
"","bandit","28","399732","0.0-20.0-7.0","15056030","wem/bandit_either_2","A3UV9UAE6MP36J","either","3","430","","","","","","","0","1","0","","0.8","0.5","0.5","","","0.8","0.2","","","","","","","","","","","","","","74","J","0","img/none_selected_demo.jpg","true","0","80_20_practice"
"","bandit","29","401610","0.0-20.0-8.0","15056030","wem/bandit_either_2","A3UV9UAE6MP36J","either","3","355","","","","","","","0","1","0","","0.8","0.5","0.5","","","0.8","0.2","","","","","","","","","","","","","","74","J","0","img/none_selected_demo.jpg","true","0","80_20_practice"
"","bandit","30","403504","0.0-20.0-9.0","15056030","wem/bandit_either_2","A3UV9UAE6MP36J","either","3","380","","","","","","","1","0","0","0.8","","0.5","0.5","","","","","","","0.8","0.2","","","","","","","","","","74","J","0","img/none_selected_demo.jpg","true","0","80_20_practice"
"","bandit","31","405400","0.0-20.0-10.0","15056030","wem/bandit_either_2","A3UV9UAE6MP36J","either","3","377","","","","","","","1","0","0","0.8","","0.5","0.5","","","","","","","0.8","0.2","","","","","","","","","","74","J","0","img/none_selected_demo.jpg","true","0","80_20_practice"
"","bandit","32","407179","0.0-20.0-11.0","15056030","wem/bandit_either_2","A3UV9UAE6MP36J","either","3","265","","","","","","","0","1","0","","0.8","0.5","0.5","","","0.8","0.2","","","","","","","","","","","","","","74","J","0","img/none_selected_demo.jpg","true","0","80_20_practice"
"","bandit","33","409177","0.0-20.0-12.0","15056030","wem/bandit_either_2","A3UV9UAE6MP36J","either","3","469","","","","","","","1","0","0","0.8","","0.5","0.5","","","","","","","0.8","0.2","","","","","","","","","","74","J","0","img/none_selected_demo.jpg","true","0","80_20_practice"
"","bandit","34","411100","0.0-20.0-13.0","15056030","wem/bandit_either_2","A3UV9UAE6MP36J","either","3","411","","","","","","","0","1","0","","0.8","0.5","0.5","","","0.8","0.2","","","","","","","","","","","","","","74","J","0","img/none_selected_demo.jpg","true","0","80_20_practice"
"","bandit","35","413023","0.0-20.0-14.0","15056030","wem/bandit_either_2","A3UV9UAE6MP36J","either","3","409","","","","","","","1","0","0","0.8","","0.5","0.5","","","","","","","0.8","0.2","","","","","","","","","","74","J","0","img/none_selected_demo.jpg","true","0","80_20_practice"
"","bandit","36","414832","0.0-20.0-15.0","15056030","wem/bandit_either_2","A3UV9UAE6MP36J","either","3","291","","","","","","","0","1","0","","0.8","0.5","0.5","","","0.8","0.2","","","","","","","","","","","","","","74","J","0","img/none_selected_demo.jpg","true","0","80_20_practice"
"","bandit","37","416510","0.0-20.0-16.0","15056030","wem/bandit_either_2","A3UV9UAE6MP36J","either","3","171","","","","","","","0","1","0","","0.8","0.5","0.5","","","0.8","0.2","","","","","","","","","","","","","","74","J","0","img/none_selected_demo.jpg","true","0","80_20_practice"
"","bandit","38","418601","0.0-20.0-17.0","15056030","wem/bandit_either_2","A3UV9UAE6MP36J","either","3","574","","","","","","","1","0","0","0.8","","0.5","0.5","","","","","","","0.8","0.2","","","","","","","","","","74","J","0","img/none_selected_demo.jpg","true","0","80_20_practice"
"","bandit","39","420511","0.0-20.0-18.0","15056030","wem/bandit_either_2","A3UV9UAE6MP36J","either","3","407","","","","","","","0","1","0","","0.8","0.5","0.5","","","0.8","0.2","","","","","","","","","","","","","","74","J","0","img/none_selected_demo.jpg","true","0","80_20_practice"
"","bandit","40","422543","0.0-20.0-19.0","15056030","wem/bandit_either_2","A3UV9UAE6MP36J","either","3","524","","","","","","","1","0","0","0.8","","0.5","0.5","","","","","","","0.8","0.2","","","","","","","","","","74","J","0","img/none_selected_demo.jpg","true","0","80_20_practice"
"","text","41","427511","0.0-21.0","15056030","wem/bandit_either_2","A3UV9UAE6MP36J","either","3","4955","","32","","","","","","","","","","","","","","","","","","","","","","","","","","","","","","","","","","",""
"","bandit","42","431029","0.0-22.0-0.0","15056030","wem/bandit_either_2","A3UV9UAE6MP36J","either","3","2012","","","","","","","1","0","0","1","0","","","","","0","1","","","1","0","","","","","","","","","","74","J","0","img/none_selected_demo.jpg","true","0",""
"","text","43","439731","0.0-23.0","15056030","wem/bandit_either_2","A3UV9UAE6MP36J","either","3","8698","","32","","","","","","","","","","","","","","","","","","","","","","","","","","","","","","","","","","",""
"","text","44","444409","0.0-24.0","15056030","wem/bandit_either_2","A3UV9UAE6MP36J","either","3","4670","","32","","","","","","","","","","","","","","","","","","","","","","","","","","","","","","","","","","",""
"","text","45","448904","0.0-25.0","15056030","wem/bandit_either_2","A3UV9UAE6MP36J","either","3","4487","","32","","","","","","","","","","","","","","","","","","","","","","","","","","","","","","","","","","",""
"","text","46","454847","0.0-26.0","15056030","wem/bandit_either_2","A3UV9UAE6MP36J","either","3","5938","","32","","","","","","","","","","","","","","","","","","","","","","","","","","","","","","","","","","",""
"","text","47","469432","0.0-27.0","15056030","wem/bandit_either_2","A3UV9UAE6MP36J","either","3","14583","","32","","","","","","","","","","","","","","","","","","","","","","","","","","","","","","","","","","",""
"","text","48","474054","0.0-28.0","15056030","wem/bandit_either_2","A3UV9UAE6MP36J","either","3","4620","","32","","","","","","","","","","","","","","","","","","","","","","","","","","","","","","","","","","",""
"","text","49","481386","0.0-29.0","15056030","wem/bandit_either_2","A3UV9UAE6MP36J","either","3","7329","","32","","","","","","","","","","","","","","","","","","","","","","","","","","","","","","","","","","",""
"","text","50","488950","0.0-30.0","15056030","wem/bandit_either_2","A3UV9UAE6MP36J","either","3","7559","","32","","","","","","","","","","","","","","","","","","","","","","","","","","","","","","","","","","",""
"","text","51","496642","0.0-31.0","15056030","wem/bandit_either_2","A3UV9UAE6MP36J","either","3","7690","","32","","","","","","","","","","","","","","","","","","","","","","","","","","","","","","","","","","",""
"","text","52","499822","0.0-32.0","15056030","wem/bandit_either_2","A3UV9UAE6MP36J","either","3","3162","","32","","","","","","","","","","","","","","","","","","","","","","","","","","","","","","","","","","",""
"","text","53","504566","0.0-33.0","15056030","wem/bandit_either_2","A3UV9UAE6MP36J","either","3","4727","","32","","","","","","","","","","","","","","","","","","","","","","","","","","","","","","","","","","",""
"","bandit","54","506887","0.0-34.0-0.0","15056030","wem/bandit_either_2","A3UV9UAE6MP36J","either","3","799","","","","","","","0","1","0","","0.8","0.5","0.5","0.5","0.5","0.8","0.2","0.6","0.2","","","","","","","","","","","","72","H","0","img/none_selected.jpg","true","0","full_practice"
"","bandit","55","508904","0.0-34.0-1.0","15056030","wem/bandit_either_2","A3UV9UAE6MP36J","either","3","511","","","","","","","0","0","1","","0.2","0.5","0.5","0.5","0.5","0.8","0.2","0.6","0.2","","","","","","","","","","","","74","J","1","","true","0","full_practice"
"","bandit","56","510839","0.0-34.0-2.0","15056030","wem/bandit_either_2","A3UV9UAE6MP36J","either","3","409","","","","","","","0","0","1","0.6","","0.5","0.5","0.5","0.5","","","","","0.8","0.2","0.6","0.2","","","","","","","","75","K","2","","true","0","full_practice"
"","bandit","57","512690","0.0-34.0-3.0","15056030","wem/bandit_either_2","A3UV9UAE6MP36J","either","3","340","","","","","","","0","0","1","","0.2","0.5","0.5","0.5","0.5","0.8","0.2","0.6","0.2","","","","","","","","","","","","76","L","3","","true","0","full_practice"
"","bandit","58","514539","0.0-34.0-4.0","15056030","wem/bandit_either_2","A3UV9UAE6MP36J","either","3","329","","","","","","","1","0","0","0.8","","0.5","0.5","0.5","0.5","","","","","0.8","0.2","0.6","0.2","","","","","","","","72","H","0","img/none_selected.jpg","true","0","full_practice"
"","bandit","59","516387","0.0-34.0-5.0","15056030","wem/bandit_either_2","A3UV9UAE6MP36J","either","3","338","","","","","","","0","1","0","","0.8","0.5","0.5","0.5","0.5","0.8","0.2","0.6","0.2","","","","","","","","","","","","72","H","0","img/none_selected.jpg","true","0","full_practice"
"","bandit","60","518207","0.0-34.0-6.0","15056030","wem/bandit_either_2","A3UV9UAE6MP36J","either","3","289","","","","","","","0","0","1","0.8","","0.5","0.5","0.5","0.5","","","","","0.8","0.2","0.6","0.2","","","","","","","","72","H","0","img/none_selected.jpg","true","0","full_practice"
"","bandit","61","520392","0.0-34.0-7.0","15056030","wem/bandit_either_2","A3UV9UAE6MP36J","either","3","670","","","","","","","0","0","1","0.8","","0.5","0.5","0.5","0.5","","","","","0.8","0.2","0.6","0.2","","","","","","","","72","H","0","img/none_selected.jpg","true","0","full_practice"
"","bandit","62","522603","0.0-34.0-8.0","15056030","wem/bandit_either_2","A3UV9UAE6MP36J","either","3","681","","","","","","","0","0","1","0.2","","0.5","0.5","0.5","0.5","","","","","0.8","0.2","0.6","0.2","","","","","","","","74","J","1","","true","0","full_practice"
"","bandit","63","524569","0.0-34.0-9.0","15056030","wem/bandit_either_2","A3UV9UAE6MP36J","either","3","451","","","","","","","0","0","1","","0.6","0.5","0.5","0.5","0.5","0.8","0.2","0.6","0.2","","","","","","","","","","","","75","K","2","","true","0","full_practice"
"","bandit","64","526390","0.0-34.0-10.0","15056030","wem/bandit_either_2","A3UV9UAE6MP36J","either","3","298","","","","","","","0","0","1","0.2","","0.5","0.5","0.5","0.5","","","","","0.8","0.2","0.6","0.2","","","","","","","","76","L","3","","true","0","full_practice"
"","bandit","65","528319","0.0-34.0-11.0","15056030","wem/bandit_either_2","A3UV9UAE6MP36J","either","3","406","","","","","","","0","1","0","","0.8","0.5","0.5","0.5","0.5","0.8","0.2","0.6","0.2","","","","","","","","","","","","72","H","0","img/none_selected.jpg","true","0","full_practice"
"","bandit","66","530191","0.0-34.0-12.0","15056030","wem/bandit_either_2","A3UV9UAE6MP36J","either","3","342","","","","","","","1","0","0","0.8","","0.5","0.5","0.5","0.5","","","","","0.8","0.2","0.6","0.2","","","","","","","","72","H","0","img/none_selected.jpg","true","0","full_practice"
"","bandit","67","532089","0.0-34.0-13.0","15056030","wem/bandit_either_2","A3UV9UAE6MP36J","either","3","367","","","","","","","1","0","0","0.8","","0.5","0.5","0.5","0.5","","","","","0.8","0.2","0.6","0.2","","","","","","","","72","H","0","img/none_selected.jpg","true","0","full_practice"
"","bandit","68","533952","0.0-34.0-14.0","15056030","wem/bandit_either_2","A3UV9UAE6MP36J","either","3","338","","","","","","","1","0","0","0.8","","0.5","0.5","0.5","0.5","","","","","0.8","0.2","0.6","0.2","","","","","","","","72","H","0","img/none_selected.jpg","true","0","full_practice"
"","bandit","69","535697","0.0-34.0-15.0","15056030","wem/bandit_either_2","A3UV9UAE6MP36J","either","3","221","","","","","","","1","0","0","0.8","","0.5","0.5","0.5","0.5","","","","","0.8","0.2","0.6","0.2","","","","","","","","72","H","0","img/none_selected.jpg","true","0","full_practice"
"","bandit","70","538348","0.0-34.0-16.0","15056030","wem/bandit_either_2","A3UV9UAE6MP36J","either","3","1139","","","","","","","0","0","1","0.8","","0.5","0.5","0.5","0.5","","","","","0.8","0.2","0.6","0.2","","","","","","","","72","H","0","img/none_selected.jpg","true","0","full_practice"
"","bandit","71","540275","0.0-34.0-17.0","15056030","wem/bandit_either_2","A3UV9UAE6MP36J","either","3","414","","","","","","","1","0","0","0.8","","0.5","0.5","0.5","0.5","","","","","0.8","0.2","0.6","0.2","","","","","","","","72","H","0","img/none_selected.jpg","true","0","full_practice"
"","bandit","72","542143","0.0-34.0-18.0","15056030","wem/bandit_either_2","A3UV9UAE6MP36J","either","3","360","","","","","","","0","1","0","","0.8","0.5","0.5","0.5","0.5","0.8","0.2","0.6","0.2","","","","","","","","","","","","72","H","0","img/none_selected.jpg","true","0","full_practice"
"","bandit","73","543915","0.0-34.0-19.0","15056030","wem/bandit_either_2","A3UV9UAE6MP36J","either","3","229","","","","","","","0","1","0","","0.8","0.5","0.5","0.5","0.5","0.8","0.2","0.6","0.2","","","","","","","","","","","","72","H","0","img/none_selected.jpg","true","0","full_practice"
"","text","74","547176","0.0-35.0","15056030","wem/bandit_either_2","A3UV9UAE6MP36J","either","3","3224","","32","","","","","","","","","","","","","","","","","","","","","","","","","","","","","","","","","","",""
"","text","75","564698","0.0-36.0","15056030","wem/bandit_either_2","A3UV9UAE6MP36J","either","3","16514","","32","","","","","","","","","","","","","","","","","","","","","","","","","","","","","","","","","","",""
"","text","76","577178","0.0-37.0","15056030","wem/bandit_either_2","A3UV9UAE6MP36J","either","3","12478","","32","","","","","","","","","","","","","","","","","","","","","","","","","","","","","","","","","","",""
"","text","77","583815","0.0-38.0","15056030","wem/bandit_either_2","A3UV9UAE6MP36J","either","3","6616","","32","","","","","","","","","","","","","","","","","","","","","","","","","","","","","","","","","","",""
"","text","78","590360","0.0-39.0","15056030","wem/bandit_either_2","A3UV9UAE6MP36J","either","3","6542","","32","","","","","","","","","","","","","","","","","","","","","","","","","","","","","","","","","","",""
"","text","79","601432","0.0-40.0","15056030","wem/bandit_either_2","A3UV9UAE6MP36J","either","3","11070","","32","","","","","","","","","","","","","","","","","","","","","","","","","","","","","","","","","","",""
"","bandit","80","604157","0.0-41.0-0.0","15056030","wem/bandit_either_2","A3UV9UAE6MP36J","either","3","1213","","","","","","","0","0","1","","0.07685641067","0.6","0.8","0.2","0.4","0.07685641067","0.4870892339","0.1646489015","0.1426046982","","","","","","","","","","","","72","H","0","img/none_selected.jpg","","1","main_expt"
"","bandit","81","606157","0.0-42.0-0.0","15056030","wem/bandit_either_2","A3UV9UAE6MP36J","either","3","485","","","","","","","0","0","1","0.4875162112","","0.6","0.8","0.2","0.4","","","","","0.08388143876","0.4875162112","0.2180431119","0.1597004976","","","","","","","","74","J","1","","","2","main_expt"
"","bandit","82","608101","0.0-43.0-0.0","15056030","wem/bandit_either_2","A3UV9UAE6MP36J","either","3","425","","","","","","","0","0","1","","0.2294217256","0.6","0.8","0.2","0.4","0.06528774038","0.4909945117","0.2294217256","0.1381850853","","","","","","","","","","","","75","K","2","","","3","main_expt"
"","bandit","83","609929","0.0-44.0-0.0","15056030","wem/bandit_either_2","A3UV9UAE6MP36J","either","3","304","","","","","","","0","0","1","","0.1787932262","0.6","0.8","0.2","0.4","0.07987899881","0.482579304","0.2162119515","0.1787932262","","","","","","","","","","","","76","L","3","","","4","main_expt"
"","bandit","84","611833","0.0-45.0-0.0","15056030","wem/bandit_either_2","A3UV9UAE6MP36J","either","3","376","","","","","","","0","0","1","","0.2246316054","0.6","0.8","0.2","0.4","0.0432391811","0.4887913002","0.2246316054","0.1795032464","","","","","","","","","","","","75","K","2","","","5","main_expt"
"","bandit","85","613751","0.0-46.0-0.0","15056030","wem/bandit_either_2","A3UV9UAE6MP36J","either","3","397","","","","","","","0","0","1","","0.164375756","0.6","0.8","0.2","0.4","0.03467601655","0.4887860333","0.2061018479","0.164375756","","","","","","","","","","","","76","L","3","","","6","main_expt"
"","bandit","86","615629","0.0-47.0-0.0","15056030","wem/bandit_either_2","A3UV9UAE6MP36J","either","3","363","","","","","","","0","0","1","0.4901971563","","0.6","0.8","0.2","0.4","","","","","0.05033951668","0.4901971563","0.1795347326","0.204957223","","","","","","","","74","J","1","","","7","main_expt"
"","bandit","87","617465","0.0-48.0-0.0","15056030","wem/bandit_either_2","A3UV9UAE6MP36J","either","3","317","","","","","","","0","0","1","0.07676355645","","0.6","0.8","0.2","0.4","","","","","0.07676355645","0.4862230721","0.1290452752","0.2162036531","","","","","","","","72","H","0","img/none_selected.jpg","","8","main_expt"
"","bandit","88","619533","0.0-49.0-0.0","15056030","wem/bandit_either_2","A3UV9UAE6MP36J","either","3","554","","","","","","","0","0","1","","0.08620859221","0.6","0.8","0.2","0.4","0.08620859221","0.4759730645","0.1559184374","0.2167418122","","","","","","","","","","","","72","H","0","img/none_selected.jpg","","9","main_expt"
"","bandit","89","621381","0.0-50.0-0.0","15056030","wem/bandit_either_2","A3UV9UAE6MP36J","either","3","324","","","","","","","0","0","1","","0.4560980466","0.6","0.8","0.2","0.4","0.1103839657","0.4560980466","0.1381514788","0.1607923637","","","","","","","","","","","","74","J","1","","","10","main_expt"
"","bandit","90","623148","0.0-51.0-0.0","15056030","wem/bandit_either_2","A3UV9UAE6MP36J","either","3","246","","","","","","","0","0","1","","0.1271140015","0.6","0.8","0.2","0.4","0.1334948588","0.4775116046","0.1271140015","0.1386410957","","","","","","","","","","","","75","K","2","","","11","main_expt"
"","bandit","91","624953","0.0-52.0-0.0","15056030","wem/bandit_either_2","A3UV9UAE6MP36J","either","3","296","","","","","","","0","0","1","","0.1718380738","0.6","0.8","0.2","0.4","0.1535602519","0.4705073552","0.1854664659","0.1718380738","","","","","","","","","","","","76","L","3","","","12","main_expt"
"","bandit","92","626909","0.0-53.0-0.0","15056030","wem/bandit_either_2","A3UV9UAE6MP36J","either","3","434","","","","","","","0","1","0","","0.1686303413","0.6","0.8","0.2","0.4","0.127854239","0.4851887342","0.1869952656","0.1686303413","","","","","","","","","","","","76","L","3","","","13","main_expt"
"","bandit","93","628839","0.0-54.0-0.0","15056030","wem/bandit_either_2","A3UV9UAE6MP36J","either","3","396","","","","","","","1","0","0","0.1460019496","","0.6","0.8","0.2","0.4","","","","","0.1507911491","0.4731273917","0.2035171393","0.1460019496","","","","","","","","76","L","3","","","14","main_expt"
"","bandit","94","630692","0.0-55.0-0.0","15056030","wem/bandit_either_2","A3UV9UAE6MP36J","either","3","327","","","","","","","0","0","1","","0.1667614464","0.6","0.8","0.2","0.4","0.1741212098","0.4585867004","0.2800299461","0.1667614464","","","","","","","","","","","","76","L","3","","","15","main_expt"
"","bandit","95","632557","0.0-56.0-0.0","15056030","wem/bandit_either_2","A3UV9UAE6MP36J","either","3","345","","","","","","","1","0","0","0.1973644546","","0.6","0.8","0.2","0.4","","","","","0.1918308831","0.4366533258","0.2725454461","0.1973644546","","","","","","","","76","L","3","","","16","main_expt"
"","bandit","96","634453","0.0-57.0-0.0","15056030","wem/bandit_either_2","A3UV9UAE6MP36J","either","3","374","","","","","","","1","0","0","0.1873415792","","0.6","0.8","0.2","0.4","","","","","0.1950212473","0.4405228744","0.1570621471","0.1873415792","","","","","","","","76","L","3","","","17","main_expt"
"","bandit","97","636339","0.0-58.0-0.0","15056030","wem/bandit_either_2","A3UV9UAE6MP36J","either","3","365","","","","","","","1","0","0","0.1875860444","","0.6","0.8","0.2","0.4","","","","","0.2094813194","0.4678551263","0.1968188506","0.1875860444","","","","","","","","76","L","3","","","18","main_expt"
"","bandit","98","638289","0.0-59.0-0.0","15056030","wem/bandit_either_2","A3UV9UAE6MP36J","either","3","423","","","","","","","0","1","0","","0.1988439388","0.6","0.8","0.2","0.4","0.2628959394","0.466140525","0.2439518204","0.1988439388","","","","","","","","","","","","76","L","3","","","19","main_expt"
"","bandit","99","640170","0.0-60.0-0.0","15056030","wem/bandit_either_2","A3UV9UAE6MP36J","either","3","370","","","","","","","0","0","1","","0.1813993393","0.6","0.8","0.2","0.4","0.2116504525","0.4094087999","0.2806117898","0.1813993393","","","","","","","","","","","","76","L","3","","","20","main_expt"
"","bandit","100","641702","0.0-61.0-0.0","15056030","wem/bandit_either_2","A3UV9UAE6MP36J","either","3","25","","","","","","","0","0","1","0.2012004452","","0.6","0.8","0.2","0.4","","","","","0.1904426465","0.4386974508","0.2658005831","0.2012004452","","","","","","","","76","L","3","","","21","main_expt"
"","bandit","101","643573","0.0-62.0-0.0","15056030","wem/bandit_either_2","A3UV9UAE6MP36J","either","3","348","","","","","","","0","0","1","","0.1958646163","0.6","0.8","0.2","0.4","0.1581796968","0.4505723784","0.2774390086","0.1958646163","","","","","","","","","","","","76","L","3","","","22","main_expt"
"","bandit","102","645599","0.0-63.0-0.0","15056030","wem/bandit_either_2","A3UV9UAE6MP36J","either","3","501","","","","","","","0","0","1","0.2626819079","","0.6","0.8","0.2","0.4","","","","","0.2039009352","0.4568000239","0.2795917474","0.2626819079","","","","","","","","76","L","3","","","23","main_expt"
"","bandit","103","647502","0.0-64.0-0.0","15056030","wem/bandit_either_2","A3UV9UAE6MP36J","either","3","398","","","","","","","0","0","1","0.2906682881","","0.6","0.8","0.2","0.4","","","","","0.228339491","0.4518339256","0.2981059477","0.2906682881","","","","","","","","76","L","3","","","24","main_expt"
"","bandit","104","649330","0.0-65.0-0.0","15056030","wem/bandit_either_2","A3UV9UAE6MP36J","either","3","308","","","","","","","0","0","1","","0.3272059922","0.6","0.8","0.2","0.4","0.2602465224","0.4120159309","0.3272059922","0.3270173502","","","","","","","","","","","","75","K","2","","","25","main_expt"
"","bandit","105","651228","0.0-66.0-0.0","15056030","wem/bandit_either_2","A3UV9UAE6MP36J","either","3","377","","","","","","","0","1","0","","0.3369826645","0.6","0.8","0.2","0.4","0.1939420306","0.4134154185","0.3369826645","0.2951289915","","","","","","","","","","","","75","K","2","","","26","main_expt"
"","bandit","106","653113","0.0-67.0-0.0","15056030","wem/bandit_either_2","A3UV9UAE6MP36J","either","3","375","","","","","","","0","1","0","","0.2531212506","0.6","0.8","0.2","0.4","0.2387331149","0.4031068294","0.2531212506","0.3520126272","","","","","","","","","","","","75","K","2","","","27","main_expt"
"","bandit","107","654983","0.0-68.0-0.0","15056030","wem/bandit_either_2","A3UV9UAE6MP36J","either","3","361","","","","","","","0","0","1","","0.2170461037","0.6","0.8","0.2","0.4","0.2183458617","0.4305883772","0.2170461037","0.3369287003","","","","","","","","","","","","75","K","2","","","28","main_expt"
"","bandit","108","656895","0.0-69.0-0.0","15056030","wem/bandit_either_2","A3UV9UAE6MP36J","either","3","379","","","","","","","0","0","1","","0.2346211465","0.6","0.8","0.2","0.4","0.2151501268","0.4383329838","0.2346211465","0.3591799128","","","","","","","","","","","","75","K","2","","","29","main_expt"
"","bandit","109","658731","0.0-70.0-0.0","15056030","wem/bandit_either_2","A3UV9UAE6MP36J","either","3","311","","","","","","","0","0","1","","0.4233276099","0.6","0.8","0.2","0.4","0.2267233056","0.4233276099","0.2450860663","0.3324285477","","","","","","","","","","","","74","J","1","","","30","main_expt"
"","bandit","110","660549","0.0-71.0-0.0","15056030","wem/bandit_either_2","A3UV9UAE6MP36J","either","3","313","","","","","","","1","0","0","0.4016185005","","0.6","0.8","0.2","0.4","","","","","0.2663701676","0.4016185005","0.2141169407","0.327032362","","","","","","","","74","J","1","","","31","main_expt"
"","bandit","111","662449","0.0-72.0-0.0","15056030","wem/bandit_either_2","A3UV9UAE6MP36J","either","3","390","","","","","","","0","0","1","0.4134940178","","0.6","0.8","0.2","0.4","","","","","0.275969473","0.4134940178","0.2347854155","0.3230905041","","","","","","","","74","J","1","","","32","main_expt"
"","bandit","112","664344","0.0-73.0-0.0","15056030","wem/bandit_either_2","A3UV9UAE6MP36J","either","3","386","","","","","","","0","0","1","0.4331174495","","0.6","0.8","0.2","0.4","","","","","0.3365270118","0.4331174495","0.246596708","0.2969008969","","","","","","","","74","J","1","","","33","main_expt"
"","bandit","113","666130","0.0-74.0-0.0","15056030","wem/bandit_either_2","A3UV9UAE6MP36J","either","3","267","","","","","","","0","0","1","0.2916301021","","0.6","0.8","0.2","0.4","","","","","0.2916301021","0.4454497031","0.1914370393","0.2536392951","","","","","","","","72","H","0","img/none_selected.jpg","","34","main_expt"
"","bandit","114","668046","0.0-75.0-0.0","15056030","wem/bandit_either_2","A3UV9UAE6MP36J","either","3","397","","","","","","","0","0","1","0.3236538836","","0.6","0.8","0.2","0.4","","","","","0.3236538836","0.4419706984","0.1408207185","0.2336030597","","","","","","","","72","H","0","img/none_selected.jpg","","35","main_expt"
"","bandit","115","669883","0.0-76.0-0.0","15056030","wem/bandit_either_2","A3UV9UAE6MP36J","either","3","322","","","","","","","0","0","1","","0.3110392291","0.6","0.8","0.2","0.4","0.3317439785","0.4205940312","0.09539735145","0.3110392291","","","","","","","","","","","","76","L","3","","","36","main_expt"
"","bandit","116","671657","0.0-77.0-0.0","15056030","wem/bandit_either_2","A3UV9UAE6MP36J","either","3","256","","","","","","","0","0","1","0.3354302382","","0.6","0.8","0.2","0.4","","","","","0.3620900841","0.4227305347","0.08867332122","0.3354302382","","","","","","","","76","L","3","","","37","main_expt"
"","bandit","117","673476","0.0-78.0-0.0","15056030","wem/bandit_either_2","A3UV9UAE6MP36J","either","3","288","","","","","","","0","0","1","0.3359947902","","0.6","0.8","0.2","0.4","","","","","0.3649119955","0.3904174821","0.0804097964","0.3359947902","","","","","","","","76","L","3","","","38","main_expt"
"","bandit","118","675591","0.0-79.0-0.0","15056030","wem/bandit_either_2","A3UV9UAE6MP36J","either","3","599","","","","","","","0","0","1","","0.1092906338","0.6","0.8","0.2","0.4","0.3993258453","0.3704092514","0.1092906338","0.3719467902","","","","","","","","","","","","75","K","2","","","39","main_expt"
"","bandit","119","677418","0.0-80.0-0.0","15056030","wem/bandit_either_2","A3UV9UAE6MP36J","either","3","305","","","","","","","0","0","1","","0.08771014895","0.6","0.8","0.2","0.4","0.43145226","0.3250394812","0.08771014895","0.37180955","","","","","","","","","","","","75","K","2","","","40","main_expt"
"","bandit","120","679208","0.0-81.0-0.0","15056030","wem/bandit_either_2","A3UV9UAE6MP36J","either","3","279","","","","","","","0","0","1","","0.3633775572","0.6","0.8","0.2","0.4","0.3925837484","0.3633775572","0.1065106481","0.3972707938","","","","","","","","","","","","74","J","1","","","41","main_expt"
"","bandit","121","681101","0.0-82.0-0.0","15056030","wem/bandit_either_2","A3UV9UAE6MP36J","either","3","373","","","","","","","0","0","1","0.3708570881","","0.6","0.8","0.2","0.4","","","","","0.4020613291","0.3708570881","0.0926848955","0.3981555674","","","","","","","","74","J","1","","","42","main_expt"
"","bandit","122","682825","0.0-83.0-0.0","15056030","wem/bandit_either_2","A3UV9UAE6MP36J","either","3","213","","","","","","","0","1","0","","0.4199094288","0.6","0.8","0.2","0.4","0.4199094288","0.3852030547","0.09213729174","0.3698022864","","","","","","","","","","","","72","H","0","img/none_selected.jpg","","43","main_expt"
"","bandit","123","684749","0.0-84.0-0.0","15056030","wem/bandit_either_2","A3UV9UAE6MP36J","either","3","397","","","","","","","0","0","1","","0.4362917367","0.6","0.8","0.2","0.4","0.4362917367","0.3653477133","0.0950319608","0.3278340923","","","","","","","","","","","","72","H","0","img/none_selected.jpg","","44","main_expt"
"","bandit","124","686699","0.0-85.0-0.0","15056030","wem/bandit_either_2","A3UV9UAE6MP36J","either","3","397","","","","","","","0","0","1","0.4310393502","","0.6","0.8","0.2","0.4","","","","","0.4310393502","0.3423722135","0.07917944011","0.4004869948","","","","","","","","72","H","0","img/none_selected.jpg","","45","main_expt"
"","bandit","125","688500","0.0-86.0-0.0","15056030","wem/bandit_either_2","A3UV9UAE6MP36J","either","3","295","","","","","","","0","0","1","","0.4301719659","0.6","0.8","0.2","0.4","0.4301719659","0.2713785315","0.08528552535","0.4389658195","","","","","","","","","","","","72","H","0","img/none_selected.jpg","","46","main_expt"
"","bandit","126","690268","0.0-87.0-0.0","15056030","wem/bandit_either_2","A3UV9UAE6MP36J","either","3","246","","","","","","","0","1","0","","0.4274268526","0.6","0.8","0.2","0.4","0.4274268526","0.2675382036","0.08303267599","0.4294918489","","","","","","","","","","","","72","H","0","img/none_selected.jpg","","47","main_expt"
"","bandit","127","692128","0.0-88.0-0.0","15056030","wem/bandit_either_2","A3UV9UAE6MP36J","either","3","339","","","","","","","0","0","1","0.4559220927","","0.6","0.8","0.2","0.4","","","","","0.4559220927","0.3006553151","0.1183490009","0.3948346084","","","","","","","","72","H","0","img/none_selected.jpg","","48","main_expt"
"","bandit","128","693940","0.0-89.0-0.0","15056030","wem/bandit_either_2","A3UV9UAE6MP36J","either","3","293","","","","","","","0","1","0","","0.4226663974","0.6","0.8","0.2","0.4","0.4362936898","0.2865645246","0.09831357925","0.4226663974","","","","","","","","","","","","76","L","3","","","49","main_expt"
"","bandit","129","695713","0.0-90.0-0.0","15056030","wem/bandit_either_2","A3UV9UAE6MP36J","either","3","262","","","","","","","0","0","1","","0.3943232949","0.6","0.8","0.2","0.4","0.4001593617","0.2842330123","0.0896163698","0.3943232949","","","","","","","","","","","","76","L","3","","","50","main_expt"
"","bandit","130","697553","0.0-91.0-0.0","15056030","wem/bandit_either_2","A3UV9UAE6MP36J","either","3","332","","","","","","","0","0","1","","0.3911898034","0.6","0.8","0.2","0.4","0.3737598101","0.2933637591","0.08239790895","0.3911898034","","","","","","","","","","","","76","L","3","","","51","main_expt"
"","bandit","131","699434","0.0-92.0-0.0","15056030","wem/bandit_either_2","A3UV9UAE6MP36J","either","3","359","","","","","","","1","0","0","0.3897106723","","0.6","0.8","0.2","0.4","","","","","0.3490564905","0.2802127762","0.06509061927","0.3897106723","","","","","","","","76","L","3","","","52","main_expt"
"","bandit","132","701298","0.0-93.0-0.0","15056030","wem/bandit_either_2","A3UV9UAE6MP36J","either","3","333","","","","","","","0","1","0","","0.3977919118","0.6","0.8","0.2","0.4","0.3606416198","0.2567133084","0.05503049918","0.3977919118","","","","","","","","","","","","76","L","3","","","53","main_expt"
"","bandit","133","703169","0.0-94.0-0.0","15056030","wem/bandit_either_2","A3UV9UAE6MP36J","either","3","356","","","","","","","0","1","0","","0.3803623479","0.6","0.8","0.2","0.4","0.3920172378","0.304436262","0.06606451817","0.3803623479","","","","","","","","","","","","76","L","3","","","54","main_expt"
"","bandit","134","705044","0.0-95.0-0.0","15056030","wem/bandit_either_2","A3UV9UAE6MP36J","either","3","363","","","","","","","0","0","1","0.3898030924","","0.6","0.8","0.2","0.4","","","","","0.3841867886","0.3050376594","0.0812436444","0.3898030924","","","","","","","","76","L","3","","","55","main_expt"
"","bandit","135","706942","0.0-96.0-0.0","15056030","wem/bandit_either_2","A3UV9UAE6MP36J","either","3","379","","","","","","","0","0","1","","0.4332266089","0.6","0.8","0.2","0.4","0.3752679739","0.2874076515","0.05752214818","0.4332266089","","","","","","","","","","","","76","L","3","","","56","main_expt"
"","bandit","136","708728","0.0-97.0-0.0","15056030","wem/bandit_either_2","A3UV9UAE6MP36J","either","3","266","","","","","","","0","1","0","","0.4598680415","0.6","0.8","0.2","0.4","0.3595388075","0.2633226407","0.05957573693","0.4598680415","","","","","","","","","","","","76","L","3","","","57","main_expt"
"","bandit","137","710573","0.0-98.0-0.0","15056030","wem/bandit_either_2","A3UV9UAE6MP36J","either","3","314","","","","","","","0","0","1","0.4510058242","","0.6","0.8","0.2","0.4","","","","","0.2926617498","0.282557186","0.08347810371","0.4510058242","","","","","","","","76","L","3","","","58","main_expt"
"","bandit","138","712219","0.0-99.0-0.0","15056030","wem/bandit_either_2","A3UV9UAE6MP36J","either","3","111","","","","","","","1","0","0","0.4587464736","","0.6","0.8","0.2","0.4","","","","","0.2854140482","0.2675679041","0.1166757522","0.4587464736","","","","","","","","76","L","3","","","59","main_expt"
"","bandit","139","714538","0.0-100.0-0.0","15056030","wem/bandit_either_2","A3UV9UAE6MP36J","either","3","810","","","","","","","0","0","1","","0.4534111386","0.6","0.8","0.2","0.4","0.2767785787","0.2654645802","0.1223048521","0.4534111386","","","","","","","","","","","","76","L","3","","","60","main_expt"
"","bandit","140","716405","0.0-101.0-0.0","15056030","wem/bandit_either_2","A3UV9UAE6MP36J","either","3","360","","","","","","","0","0","1","0.4581751116","","0.6","0.8","0.2","0.4","","","","","0.3110110239","0.2326588137","0.1341525672","0.4581751116","","","","","","","","76","L","3","","","61","main_expt"
"","bandit","141","718241","0.0-102.0-0.0","15056030","wem/bandit_either_2","A3UV9UAE6MP36J","either","3","313","","","","","","","0","0","1","0.4447189615","","0.6","0.8","0.2","0.4","","","","","0.2739379344","0.2430345153","0.1748443247","0.4447189615","","","","","","","","76","L","3","","","62","main_expt"
"","bandit","142","720056","0.0-103.0-0.0","15056030","wem/bandit_either_2","A3UV9UAE6MP36J","either","3","293","","","","","","","0","1","0","","0.4351057758","0.6","0.8","0.2","0.4","0.2518438402","0.2682261916","0.1872250423","0.4351057758","","","","","","","","","","","","76","L","3","","","63","main_expt"
"","bandit","143","721932","0.0-104.0-0.0","15056030","wem/bandit_either_2","A3UV9UAE6MP36J","either","3","351","","","","","","","0","1","0","","0.4559228662","0.6","0.8","0.2","0.4","0.216118181","0.3136585585","0.1592276408","0.4559228662","","","","","","","","","","","","76","L","3","","","64","main_expt"
"","bandit","144","723817","0.0-105.0-0.0","15056030","wem/bandit_either_2","A3UV9UAE6MP36J","either","3","358","","","","","","","1","0","0","0.4526438492","","0.6","0.8","0.2","0.4","","","","","0.1961712117","0.3208042698","0.1881419285","0.4526438492","","","","","","","","76","L","3","","","65","main_expt"
"","bandit","145","725686","0.0-106.0-0.0","15056030","wem/bandit_either_2","A3UV9UAE6MP36J","either","3","344","","","","","","","0","1","0","","0.4604690516","0.6","0.8","0.2","0.4","0.1821057022","0.3550213758","0.2075830042","0.4604690516","","","","","","","","","","","","76","L","3","","","66","main_expt"
"","bandit","146","727571","0.0-107.0-0.0","15056030","wem/bandit_either_2","A3UV9UAE6MP36J","either","3","365","","","","","","","0","0","1","","0.4479534522","0.6","0.8","0.2","0.4","0.2221692745","0.2883445083","0.210321401","0.4479534522","","","","","","","","","","","","76","L","3","","","67","main_expt"
"","bandit","147","729378","0.0-108.0-0.0","15056030","wem/bandit_either_2","A3UV9UAE6MP36J","either","3","295","","","","","","","0","1","0","","0.4420076102","0.6","0.8","0.2","0.4","0.2385328342","0.2492112051","0.1740681144","0.4420076102","","","","","","","","","","","","76","L","3","","","68","main_expt"
"","bandit","148","731305","0.0-109.0-0.0","15056030","wem/bandit_either_2","A3UV9UAE6MP36J","either","3","411","","","","","","","0","0","1","","0.3840886122","0.6","0.8","0.2","0.4","0.2693988132","0.1725364023","0.1495678232","0.3840886122","","","","","","","","","","","","76","L","3","","","69","main_expt"
"","bandit","149","733078","0.0-110.0-0.0","15056030","wem/bandit_either_2","A3UV9UAE6MP36J","either","3","236","","","","","","","0","1","0","","0.3764426572","0.6","0.8","0.2","0.4","0.2633889128","0.2081322216","0.1594524764","0.3764426572","","","","","","","","","","","","76","L","3","","","70","main_expt"
"","bandit","150","734900","0.0-111.0-0.0","15056030","wem/bandit_either_2","A3UV9UAE6MP36J","either","3","281","","","","","","","0","0","1","","0.3925575972","0.6","0.8","0.2","0.4","0.2881785301","0.2222096595","0.1308665948","0.3925575972","","","","","","","","","","","","76","L","3","","","71","main_expt"
"","bandit","151","736740","0.0-112.0-0.0","15056030","wem/bandit_either_2","A3UV9UAE6MP36J","either","3","308","","","","","","","0","0","1","0.4055717031","","0.6","0.8","0.2","0.4","","","","","0.3496752211","0.2276413934","0.1413665491","0.4055717031","","","","","","","","76","L","3","","","72","main_expt"
"","bandit","152","738601","0.0-113.0-0.0","15056030","wem/bandit_either_2","A3UV9UAE6MP36J","either","3","329","","","","","","","0","1","0","","0.4313753627","0.6","0.8","0.2","0.4","0.3662649551","0.202726327","0.1562096843","0.4313753627","","","","","","","","","","","","76","L","3","","","73","main_expt"
"","bandit","153","740413","0.0-114.0-0.0","15056030","wem/bandit_either_2","A3UV9UAE6MP36J","either","3","287","","","","","","","0","1","0","","0.4294283137","0.6","0.8","0.2","0.4","0.3318597218","0.2465356434","0.1601549975","0.4294283137","","","","","","","","","","","","76","L","3","","","74","main_expt"
"","bandit","154","742307","0.0-115.0-0.0","15056030","wem/bandit_either_2","A3UV9UAE6MP36J","either","3","359","","","","","","","0","0","1","","0.4114775526","0.6","0.8","0.2","0.4","0.3129946244","0.2780880013","0.1962365409","0.4114775526","","","","","","","","","","","","76","L","3","","","75","main_expt"
"","bandit","155","743844","0.0-116.0-0.0","15056030","wem/bandit_either_2","A3UV9UAE6MP36J","either","3","17","","","","","","","0","0","1","0.4038916894","","0.6","0.8","0.2","0.4","","","","","0.3299880354","0.230570622","0.2315068675","0.4038916894","","","","","","","","76","L","3","","","76","main_expt"
"","bandit","156","745652","0.0-117.0-0.0","15056030","wem/bandit_either_2","A3UV9UAE6MP36J","either","3","293","","","","","","","0","0","1","","0.4028298088","0.6","0.8","0.2","0.4","0.2704336052","0.1747897532","0.1749603823","0.4028298088","","","","","","","","","","","","76","L","3","","","77","main_expt"
"","bandit","157","747349","0.0-118.0-0.0","15056030","wem/bandit_either_2","A3UV9UAE6MP36J","either","3","160","","","","","","","0","1","0","","0.4004321452","0.6","0.8","0.2","0.4","0.2489008917","0.2009150394","0.2091975686","0.4004321452","","","","","","","","","","","","76","L","3","","","78","main_expt"
"","bandit","158","749266","0.0-119.0-0.0","15056030","wem/bandit_either_2","A3UV9UAE6MP36J","either","3","395","","","","","","","0","0","1","0.3909827091","","0.6","0.8","0.2","0.4","","","","","0.2182462247","0.2090883318","0.2699334682","0.3909827091","","","","","","","","76","L","3","","","79","main_expt"
"","bandit","159","751171","0.0-120.0-0.0","15056030","wem/bandit_either_2","A3UV9UAE6MP36J","either","3","380","","","","","","","0","0","1","","0.4289339141","0.6","0.8","0.2","0.4","0.1591694045","0.215522018","0.2712134299","0.4289339141","","","","","","","","","","","","76","L","3","","","80","main_expt"
"","bandit","160","752998","0.0-121.0-0.0","15056030","wem/bandit_either_2","A3UV9UAE6MP36J","either","3","303","","","","","","","0","1","0","","0.4256341571","0.6","0.8","0.2","0.4","0.1661146317","0.2655955182","0.2563236188","0.4256341571","","","","","","","","","","","","76","L","3","","","81","main_expt"
"","bandit","161","754881","0.0-122.0-0.0","15056030","wem/bandit_either_2","A3UV9UAE6MP36J","either","3","356","","","","","","","0","0","1","0.4153375647","","0.6","0.8","0.2","0.4","","","","","0.2249160828","0.2642342948","0.2474856626","0.4153375647","","","","","","","","76","L","3","","","82","main_expt"
"","bandit","162","756844","0.0-123.0-0.0","15056030","wem/bandit_either_2","A3UV9UAE6MP36J","either","3","435","","","","","","","1","0","0","0.4239102097","","0.6","0.8","0.2","0.4","","","","","0.2194800234","0.2615040017","0.2338037125","0.4239102097","","","","","","","","76","L","3","","","83","main_expt"
"","bandit","163","759100","0.0-124.0-0.0","15056030","wem/bandit_either_2","A3UV9UAE6MP36J","either","3","742","","","","","","","0","0","1","0.4021041833","","0.6","0.8","0.2","0.4","","","","","0.2020024956","0.3136368113","0.2929655049","0.4021041833","","","","","","","","76","L","3","","","84","main_expt"
"","bandit","164","760951","0.0-125.0-0.0","15056030","wem/bandit_either_2","A3UV9UAE6MP36J","either","3","330","","","","","","","0","0","1","","0.4322374594","0.6","0.8","0.2","0.4","0.1639230135","0.2433538552","0.2755572306","0.4322374594","","","","","","","","","","","","76","L","3","","","85","main_expt"
"","bandit","165","762671","0.0-126.0-0.0","15056030","wem/bandit_either_2","A3UV9UAE6MP36J","either","3","201","","","","","","","0","0","1","","0.4247618508","0.6","0.8","0.2","0.4","0.1423092638","0.2583740773","0.2706615249","0.4247618508","","","","","","","","","","","","76","L","3","","","86","main_expt"
"","bandit","166","764479","0.0-127.0-0.0","15056030","wem/bandit_either_2","A3UV9UAE6MP36J","either","3","285","","","","","","","0","0","1","0.4130492334","","0.6","0.8","0.2","0.4","","","","","0.1623313408","0.2656778135","0.3259805539","0.4130492334","","","","","","","","76","L","3","","","87","main_expt"
"","bandit","167","766333","0.0-128.0-0.0","15056030","wem/bandit_either_2","A3UV9UAE6MP36J","either","3","339","","","","","","","1","0","0","0.1459946163","","0.6","0.8","0.2","0.4","","","","","0.1459946163","0.2565525481","0.3471137027","0.3883747858","","","","","","","","72","H","0","img/none_selected.jpg","","88","main_expt"
"","bandit","168","768176","0.0-129.0-0.0","15056030","wem/bandit_either_2","A3UV9UAE6MP36J","either","3","317","","","","","","","0","0","1","0.1684807643","","0.6","0.8","0.2","0.4","","","","","0.1684807643","0.2471999074","0.3715311126","0.3950807547","","","","","","","","72","H","0","img/none_selected.jpg","","89","main_expt"
"","bandit","169","770055","0.0-130.0-0.0","15056030","wem/bandit_either_2","A3UV9UAE6MP36J","either","3","343","","","","","","","0","0","1","0.1937692241","","0.6","0.8","0.2","0.4","","","","","0.1937692241","0.2204199549","0.3571728809","0.420982679","","","","","","","","72","H","0","img/none_selected.jpg","","90","main_expt"
"","bandit","170","771935","0.0-131.0-0.0","15056030","wem/bandit_either_2","A3UV9UAE6MP36J","either","3","353","","","","","","","0","0","1","0.1670397906","","0.6","0.8","0.2","0.4","","","","","0.1670397906","0.2013548925","0.3348642023","0.4012606491","","","","","","","","72","H","0","img/none_selected.jpg","","91","main_expt"
"","bandit","171","773555","0.0-132.0-0.0","15056030","wem/bandit_either_2","A3UV9UAE6MP36J","either","3","92","","","","","","","0","0","1","0.174921714","","0.6","0.8","0.2","0.4","","","","","0.1936095216","0.174921714","0.3551195155","0.3950870333","","","","","","","","74","J","1","","","92","main_expt"
"","bandit","172","775461","0.0-133.0-0.0","15056030","wem/bandit_either_2","A3UV9UAE6MP36J","either","3","366","","","","","","","0","0","1","0.1972058505","","0.6","0.8","0.2","0.4","","","","","0.2399824117","0.1972058505","0.3494458231","0.3797372222","","","","","","","","74","J","1","","","93","main_expt"
"","bandit","173","777369","0.0-134.0-0.0","15056030","wem/bandit_either_2","A3UV9UAE6MP36J","either","3","383","","","","","","","0","0","1","0.2144007407","","0.6","0.8","0.2","0.4","","","","","0.242536602","0.2144007407","0.3759818745","0.3346339076","","","","","","","","74","J","1","","","94","main_expt"
"","bandit","174","779219","0.0-135.0-0.0","15056030","wem/bandit_either_2","A3UV9UAE6MP36J","either","3","314","","","","","","","0","0","1","0.2025691914","","0.6","0.8","0.2","0.4","","","","","0.3081296623","0.2025691914","0.3467088588","0.3433005441","","","","","","","","74","J","1","","","95","main_expt"
"","bandit","175","781052","0.0-136.0-0.0","15056030","wem/bandit_either_2","A3UV9UAE6MP36J","either","3","305","","","","","","","0","0","1","0.3520186383","","0.6","0.8","0.2","0.4","","","","","0.371766452","0.1750118246","0.3520186383","0.2900415689","","","","","","","","75","K","2","","","96","main_expt"
"","bandit","176","782752","0.0-137.0-0.0","15056030","wem/bandit_either_2","A3UV9UAE6MP36J","either","3","185","","","","","","","0","0","1","","0.342216001","0.6","0.8","0.2","0.4","0.3737721809","0.2433812568","0.342216001","0.3136050561","","","","","","","","","","","","75","K","2","","","97","main_expt"
"","bandit","177","784595","0.0-138.0-0.0","15056030","wem/bandit_either_2","A3UV9UAE6MP36J","either","3","329","","","","","","","0","1","0","","0.3775958225","0.6","0.8","0.2","0.4","0.3662625892","0.1834100281","0.3775958225","0.3236610102","","","","","","","","","","","","75","K","2","","","98","main_expt"
"","bandit","178","786452","0.0-139.0-0.0","15056030","wem/bandit_either_2","A3UV9UAE6MP36J","either","3","325","","","","","","","0","0","1","","0.3490624926","0.6","0.8","0.2","0.4","0.3912879072","0.146161558","0.3490624926","0.3116662608","","","","","","","","","","","","75","K","2","","","99","main_expt"
"","bandit","179","788224","0.0-140.0-0.0","15056030","wem/bandit_either_2","A3UV9UAE6MP36J","either","3","252","","","","","","","0","1","0","","0.3418910903","0.6","0.8","0.2","0.4","0.3916888764","0.1186266926","0.3418910903","0.3806420769","","","","","","","","","","","","75","K","2","","","100","main_expt"
"","bandit","180","790050","0.0-141.0-0.0","15056030","wem/bandit_either_2","A3UV9UAE6MP36J","either","3","304","","","","","","","0","0","1","","0.3544055354","0.6","0.8","0.2","0.4","0.3803758031","0.1467879228","0.3544055354","0.3825052475","","","","","","","","","","","","75","K","2","","","101","main_expt"
"","bandit","181","791861","0.0-142.0-0.0","15056030","wem/bandit_either_2","A3UV9UAE6MP36J","either","3","285","","","","","","","1","0","0","0.3580864163","","0.6","0.8","0.2","0.4","","","","","0.3685266224","0.1336514036","0.3580864163","0.3799327693","","","","","","","","75","K","2","","","102","main_expt"
"","bandit","182","793591","0.0-143.0-0.0","15056030","wem/bandit_either_2","A3UV9UAE6MP36J","either","3","216","","","","","","","0","0","1","","0.336528594","0.6","0.8","0.2","0.4","0.3754978655","0.1325092095","0.336528594","0.3502018886","","","","","","","","","","","","75","K","2","","","103","main_expt"
"","bandit","183","795168","0.0-144.0-0.0","15056030","wem/bandit_either_2","A3UV9UAE6MP36J","either","3","52","","","","","","","0","0","1","","0.3190078166","0.6","0.8","0.2","0.4","0.4033056484","0.1162839287","0.3190078166","0.3443431466","","","","","","","","","","","","75","K","2","","","104","main_expt"
"","bandit","184","797810","0.0-145.0-0.0","15056030","wem/bandit_either_2","A3UV9UAE6MP36J","either","3","1118","","","","","","","0","1","0","","0.3100940773","0.6","0.8","0.2","0.4","0.3617388181","0.115620258","0.3100940773","0.3551378046","","","","","","","","","","","","75","K","2","","","105","main_expt"
"","bandit","185","799891","0.0-146.0-0.0","15056030","wem/bandit_either_2","A3UV9UAE6MP36J","either","3","545","","","","","","","0","1","0","","0.2964842485","0.6","0.8","0.2","0.4","0.3656875331","0.1102569517","0.2964842485","0.3177956882","","","","","","","","","","","","75","K","2","","","106","main_expt"
"","bandit","186","801787","0.0-147.0-0.0","15056030","wem/bandit_either_2","A3UV9UAE6MP36J","either","3","368","","","","","","","0","0","1","","0.3224579283","0.6","0.8","0.2","0.4","0.3478183852","0.110599846","0.3224579283","0.3463124521","","","","","","","","","","","","75","K","2","","","107","main_expt"
"","bandit","187","803771","0.0-148.0-0.0","15056030","wem/bandit_either_2","A3UV9UAE6MP36J","either","3","449","","","","","","","0","0","1","","0.3365568187","0.6","0.8","0.2","0.4","0.3715517583","0.1647947233","0.3365568187","0.330790185","","","","","","","","","","","","75","K","2","","","108","main_expt"
"","bandit","188","805641","0.0-149.0-0.0","15056030","wem/bandit_either_2","A3UV9UAE6MP36J","either","3","330","","","","","","","0","0","1","0.3200824859","","0.6","0.8","0.2","0.4","","","","","0.3713851569","0.146095753","0.3200824859","0.3259779601","","","","","","","","75","K","2","","","109","main_expt"
"","bandit","189","807389","0.0-150.0-0.0","15056030","wem/bandit_either_2","A3UV9UAE6MP36J","either","3","230","","","","","","","0","0","1","","0.3179471713","0.6","0.8","0.2","0.4","0.3401672382","0.1691954855","0.3179471713","0.3169053314","","","","","","","","","","","","75","K","2","","","110","main_expt"
"","bandit","190","809227","0.0-151.0-0.0","15056030","wem/bandit_either_2","A3UV9UAE6MP36J","either","3","312","","","","","","","0","1","0","","0.3168158386","0.6","0.8","0.2","0.4","0.3242328008","0.1690298198","0.3168158386","0.342138516","","","","","","","","","","","","75","K","2","","","111","main_expt"
"","bandit","191","810967","0.0-152.0-0.0","15056030","wem/bandit_either_2","A3UV9UAE6MP36J","either","3","220","","","","","","","1","0","0","0.3551606626","","0.6","0.8","0.2","0.4","","","","","0.2991119965","0.2196992501","0.3551606626","0.3597886873","","","","","","","","75","K","2","","","112","main_expt"
"","bandit","192","812872","0.0-153.0-0.0","15056030","wem/bandit_either_2","A3UV9UAE6MP36J","either","3","379","","","","","","","1","0","0","0.3615444015","","0.6","0.8","0.2","0.4","","","","","0.3364281798","0.2723467559","0.3615444015","0.3580549124","","","","","","","","75","K","2","","","113","main_expt"
"","bandit","193","814740","0.0-154.0-0.0","15056030","wem/bandit_either_2","A3UV9UAE6MP36J","either","3","330","","","","","","","0","1","0","","0.4043222556","0.6","0.8","0.2","0.4","0.3495122724","0.2470985199","0.4043222556","0.3556181037","","","","","","","","","","","","75","K","2","","","114","main_expt"
"","bandit","194","816595","0.0-155.0-0.0","15056030","wem/bandit_either_2","A3UV9UAE6MP36J","either","3","340","","","","","","","0","0","1","0.4179696435","","0.6","0.8","0.2","0.4","","","","","0.324938203","0.2482590513","0.4179696435","0.3489042174","","","","","","","","75","K","2","","","115","main_expt"
"","bandit","195","818436","0.0-156.0-0.0","15056030","wem/bandit_either_2","A3UV9UAE6MP36J","either","3","297","","","","","","","0","0","1","","0.4324393975","0.6","0.8","0.2","0.4","0.3227512736","0.1992012358","0.4324393975","0.3466245191","","","","","","","","","","","","75","K","2","","","116","main_expt"
"","bandit","196","820016","0.0-157.0-0.0","15056030","wem/bandit_either_2","A3UV9UAE6MP36J","either","3","61","","","","","","","0","0","1","","0.4290779421","0.6","0.8","0.2","0.4","0.2585209305","0.216355905","0.4290779421","0.3581754781","","","","","","","","","","","","75","K","2","","","117","main_expt"
"","bandit","197","821649","0.0-158.0-0.0","15056030","wem/bandit_either_2","A3UV9UAE6MP36J","either","3","95","","","","","","","1","0","0","0.4459264202","","0.6","0.8","0.2","0.4","","","","","0.2817260076","0.1715453935","0.4459264202","0.283939031","","","","","","","","75","K","2","","","118","main_expt"
"","bandit","198","823298","0.0-159.0-0.0","15056030","wem/bandit_either_2","A3UV9UAE6MP36J","either","3","130","","","","","","","0","0","1","","0.436995295","0.6","0.8","0.2","0.4","0.328214026","0.1843456939","0.436995295","0.2992634423","","","","","","","","","","","","75","K","2","","","119","main_expt"
"","bandit","199","824953","0.0-160.0-0.0","15056030","wem/bandit_either_2","A3UV9UAE6MP36J","either","3","138","","","","","","","0","1","0","","0.4151314625","0.6","0.8","0.2","0.4","0.3355603121","0.1848061615","0.4151314625","0.1878150733","","","","","","","","","","","","75","K","2","","","120","main_expt"
"","bandit","200","827290","0.0-161.0-0.0","15056030","wem/bandit_either_2","A3UV9UAE6MP36J","either","3","823","","","","","","","0","0","1","0.4384064527","","0.6","0.8","0.2","0.4","","","","","0.3829587724","0.1679578636","0.4384064527","0.1447458933","","","","","","","","75","K","2","","","121","main_expt"
"","bandit","201","829150","0.0-162.0-0.0","15056030","wem/bandit_either_2","A3UV9UAE6MP36J","either","3","350","","","","","","","0","0","1","0.4417589501","","0.6","0.8","0.2","0.4","","","","","0.3995678287","0.197295971","0.4417589501","0.1176060398","","","","","","","","75","K","2","","","122","main_expt"
"","bandit","202","830920","0.0-163.0-0.0","15056030","wem/bandit_either_2","A3UV9UAE6MP36J","either","3","237","","","","","","","0","1","0","","0.4017154396","0.6","0.8","0.2","0.4","0.3656739583","0.2184653352","0.4017154396","0.1097677055","","","","","","","","","","","","75","K","2","","","123","main_expt"
"","bandit","203","832795","0.0-164.0-0.0","15056030","wem/bandit_either_2","A3UV9UAE6MP36J","either","3","344","","","","","","","0","0","1","","0.3619070526","0.6","0.8","0.2","0.4","0.3862549257","0.2147868977","0.3619070526","0.08048168986","","","","","","","","","","","","75","K","2","","","124","main_expt"
"","bandit","204","834689","0.0-165.0-0.0","15056030","wem/bandit_either_2","A3UV9UAE6MP36J","either","3","357","","","","","","","0","0","1","","0.3567490645","0.6","0.8","0.2","0.4","0.3593796239","0.1667936559","0.3567490645","0.07842900555","","","","","","","","","","","","75","K","2","","","125","main_expt"
"","bandit","205","836549","0.0-166.0-0.0","15056030","wem/bandit_either_2","A3UV9UAE6MP36J","either","3","346","","","","","","","0","1","0","","0.3558473019","0.6","0.8","0.2","0.4","0.3413194209","0.1453295256","0.3558473019","0.08318363027","","","","","","","","","","","","75","K","2","","","126","main_expt"
"","bandit","206","838460","0.0-167.0-0.0","15056030","wem/bandit_either_2","A3UV9UAE6MP36J","either","3","395","","","","","","","0","1","0","","0.3543069734","0.6","0.8","0.2","0.4","0.3369929262","0.1635755653","0.3543069734","0.06812438963","","","","","","","","","","","","75","K","2","","","127","main_expt"
"","bandit","207","840275","0.0-168.0-0.0","15056030","wem/bandit_either_2","A3UV9UAE6MP36J","either","3","290","","","","","","","0","0","1","","0.3328374851","0.6","0.8","0.2","0.4","0.2922989636","0.1872639566","0.3328374851","0.08303766286","","","","","","","","","","","","75","K","2","","","128","main_expt"
"","bandit","208","842189","0.0-169.0-0.0","15056030","wem/bandit_either_2","A3UV9UAE6MP36J","either","3","375","","","","","","","0","1","0","","0.3238683282","0.6","0.8","0.2","0.4","0.3095146075","0.2032718864","0.3238683282","0.09047360051","","","","","","","","","","","","75","K","2","","","129","main_expt"
"","bandit","209","844048","0.0-170.0-0.0","15056030","wem/bandit_either_2","A3UV9UAE6MP36J","either","3","329","","","","","","","0","0","1","","0.2750329062","0.6","0.8","0.2","0.4","0.3068425872","0.2025864764","0.2750329062","0.131542256","","","","","","","","","","","","75","K","2","","","130","main_expt"
"","bandit","210","845851","0.0-171.0-0.0","15056030","wem/bandit_either_2","A3UV9UAE6MP36J","either","3","282","","","","","","","0","0","1","","0.2751886228","0.6","0.8","0.2","0.4","0.3112504131","0.2158584071","0.2751886228","0.1492019489","","","","","","","","","","","","75","K","2","","","131","main_expt"
"","bandit","211","847449","0.0-172.0-0.0","15056030","wem/bandit_either_2","A3UV9UAE6MP36J","either","3","86","","","","","","","0","0","1","","0.2729729886","0.6","0.8","0.2","0.4","0.3595653039","0.2105840197","0.2729729886","0.1571188116","","","","","","","","","","","","75","K","2","","","132","main_expt"
"","bandit","212","849334","0.0-173.0-0.0","15056030","wem/bandit_either_2","A3UV9UAE6MP36J","either","3","376","","","","","","","0","1","0","","0.3248088544","0.6","0.8","0.2","0.4","0.3873527377","0.2328486735","0.3248088544","0.2021073832","","","","","","","","","","","","75","K","2","","","133","main_expt"
"","bandit","213","851152","0.0-174.0-0.0","15056030","wem/bandit_either_2","A3UV9UAE6MP36J","either","3","290","","","","","","","0","0","1","","0.3596446835","0.6","0.8","0.2","0.4","0.3973884711","0.2589092944","0.3596446835","0.2693148074","","","","","","","","","","","","75","K","2","","","134","main_expt"
"","bandit","214","853020","0.0-175.0-0.0","15056030","wem/bandit_either_2","A3UV9UAE6MP36J","either","3","332","","","","","","","0","1","0","","0.318377279","0.6","0.8","0.2","0.4","0.4080523157","0.2637326353","0.318377279","0.2625780805","","","","","","","","","","","","75","K","2","","","135","main_expt"
"","bandit","215","854843","0.0-176.0-0.0","15056030","wem/bandit_either_2","A3UV9UAE6MP36J","either","3","295","","","","","","","0","0","1","","0.3160887017","0.6","0.8","0.2","0.4","0.4176503084","0.2718680576","0.3160887017","0.2981707722","","","","","","","","","","","","75","K","2","","","136","main_expt"
"","bandit","216","856634","0.0-177.0-0.0","15056030","wem/bandit_either_2","A3UV9UAE6MP36J","either","3","274","","","","","","","0","1","0","","0.2883225013","0.6","0.8","0.2","0.4","0.3859803947","0.2919957672","0.2883225013","0.3148158286","","","","","","","","","","","","75","K","2","","","137","main_expt"
"","bandit","217","858506","0.0-178.0-0.0","15056030","wem/bandit_either_2","A3UV9UAE6MP36J","either","3","351","","","","","","","0","1","0","","0.3009152141","0.6","0.8","0.2","0.4","0.358492916","0.3193993407","0.3009152141","0.3111523267","","","","","","","","","","","","75","K","2","","","138","main_expt"
"","bandit","218","860339","0.0-179.0-0.0","15056030","wem/bandit_either_2","A3UV9UAE6MP36J","either","3","318","","","","","","","0","0","1","","0.293720077","0.6","0.8","0.2","0.4","0.3608756281","0.3404434035","0.293720077","0.3034593298","","","","","","","","","","","","75","K","2","","","139","main_expt"
"","bandit","219","862144","0.0-180.0-0.0","15056030","wem/bandit_either_2","A3UV9UAE6MP36J","either","3","275","","","","","","","0","0","1","","0.286059761","0.6","0.8","0.2","0.4","0.3421836092","0.3278052243","0.286059761","0.2507495005","","","","","","","","","","","","75","K","2","","","140","main_expt"
"","bandit","220","864032","0.0-181.0-0.0","15056030","wem/bandit_either_2","A3UV9UAE6MP36J","either","3","354","","","","","","","0","1","0","","0.2931724706","0.6","0.8","0.2","0.4","0.3737340371","0.3038906839","0.2931724706","0.2220694513","","","","","","","","","","","","75","K","2","","","141","main_expt"
"","bandit","221","865823","0.0-182.0-0.0","15056030","wem/bandit_either_2","A3UV9UAE6MP36J","either","3","271","","","","","","","0","0","1","0.2182180164","","0.6","0.8","0.2","0.4","","","","","0.3461121542","0.2924195757","0.2182180164","0.2119249064","","","","","","","","75","K","2","","","142","main_expt"
"","bandit","222","867721","0.0-183.0-0.0","15056030","wem/bandit_either_2","A3UV9UAE6MP36J","either","3","352","","","","","","","0","0","1","","0.2015475508","0.6","0.8","0.2","0.4","0.3305931074","0.2816149275","0.2015475508","0.2665135591","","","","","","","","","","","","75","K","2","","","143","main_expt"
"","bandit","223","869505","0.0-184.0-0.0","15056030","wem/bandit_either_2","A3UV9UAE6MP36J","either","3","258","","","","","","","0","0","1","0.2074070562","","0.6","0.8","0.2","0.4","","","","","0.3561039987","0.2355525614","0.2074070562","0.2854155153","","","","","","","","75","K","2","","","144","main_expt"
"","bandit","224","871402","0.0-185.0-0.0","15056030","wem/bandit_either_2","A3UV9UAE6MP36J","either","3","382","","","","","","","0","0","1","","0.3648023512","0.6","0.8","0.2","0.4","0.3648023512","0.2185662272","0.1415368311","0.2521048148","","","","","","","","","","","","72","H","0","img/none_selected.jpg","","145","main_expt"
"","bandit","225","873159","0.0-186.0-0.0","15056030","wem/bandit_either_2","A3UV9UAE6MP36J","either","3","228","","","","","","","1","0","0","0.3450315","","0.6","0.8","0.2","0.4","","","","","0.3450315","0.2209315791","0.1549520657","0.2321266643","","","","","","","","72","H","0","img/none_selected.jpg","","146","main_expt"
"","bandit","226","875046","0.0-187.0-0.0","15056030","wem/bandit_either_2","A3UV9UAE6MP36J","either","3","371","","","","","","","0","0","1","","0.2720321141","0.6","0.8","0.2","0.4","0.2720321141","0.2889766311","0.1469310363","0.3159383216","","","","","","","","","","","","72","H","0","img/none_selected.jpg","","147","main_expt"
"","bandit","227","876711","0.0-188.0-0.0","15056030","wem/bandit_either_2","A3UV9UAE6MP36J","either","3","114","","","","","","","0","0","1","0.2598972664","","0.6","0.8","0.2","0.4","","","","","0.2598972664","0.2859466156","0.1332828417","0.2673485129","","","","","","","","72","H","0","img/none_selected.jpg","","148","main_expt"
"","bandit","228","878531","0.0-189.0-0.0","15056030","wem/bandit_either_2","A3UV9UAE6MP36J","either","3","291","","","","","","","0","0","1","0.2343157719","","0.6","0.8","0.2","0.4","","","","","0.2343157719","0.2588478233","0.1102010463","0.3348600541","","","","","","","","72","H","0","img/none_selected.jpg","","149","main_expt"
"","bandit","229","880572","0.0-190.0-0.0","15056030","wem/bandit_either_2","A3UV9UAE6MP36J","either","3","511","","","","","","","0","0","1","","0.2451363599","0.6","0.8","0.2","0.4","0.2451363599","0.2224653457","0.1356103494","0.3659656834","","","","","","","","","","","","72","H","0","img/none_selected.jpg","","150","main_expt"
"","bandit","230","882639","0.0-191.0-0.0","15056030","wem/bandit_either_2","A3UV9UAE6MP36J","either","3","546","","","","","","","1","0","0","0.2387237716","","0.6","0.8","0.2","0.4","","","","","0.2053737132","0.2387237716","0.1621229287","0.36397653","","","","","","","","74","J","1","","","151","main_expt"
"","bandit","231","884445","0.0-192.0-0.0","15056030","wem/bandit_either_2","A3UV9UAE6MP36J","either","3","295","","","","","","","0","0","1","","0.2519133504","0.6","0.8","0.2","0.4","0.2396242378","0.2519133504","0.1412745606","0.3710672623","","","","","","","","","","","","74","J","1","","","152","main_expt"
"","bandit","232","886399","0.0-193.0-0.0","15056030","wem/bandit_either_2","A3UV9UAE6MP36J","either","3","420","","","","","","","0","0","1","0.3078499427","","0.6","0.8","0.2","0.4","","","","","0.2923277395","0.3078499427","0.1707580034","0.3828607765","","","","","","","","74","J","1","","","153","main_expt"
"","bandit","233","888284","0.0-194.0-0.0","15056030","wem/bandit_either_2","A3UV9UAE6MP36J","either","3","351","","","","","","","0","0","1","0.3283820497","","0.6","0.8","0.2","0.4","","","","","0.3166515581","0.3283820497","0.1717455462","0.3526468527","","","","","","","","74","J","1","","","154","main_expt"
"","bandit","234","890113","0.0-195.0-0.0","15056030","wem/bandit_either_2","A3UV9UAE6MP36J","either","3","298","","","","","","","0","0","1","0.3303057687","","0.6","0.8","0.2","0.4","","","","","0.3194616596","0.3303057687","0.1785539081","0.3865981945","","","","","","","","74","J","1","","","155","main_expt"
"","bandit","235","891851","0.0-196.0-0.0","15056030","wem/bandit_either_2","A3UV9UAE6MP36J","either","3","216","","","","","","","0","0","1","0.3178912443","","0.6","0.8","0.2","0.4","","","","","0.3767011333","0.3178912443","0.2175815231","0.4328422877","","","","","","","","74","J","1","","","156","main_expt"
"","bandit","236","893823","0.0-197.0-0.0","15056030","wem/bandit_either_2","A3UV9UAE6MP36J","either","3","444","","","","","","","0","0","1","0.3853144204","","0.6","0.8","0.2","0.4","","","","","0.3853144204","0.3236874272","0.216674397","0.4224906378","","","","","","","","72","H","0","img/none_selected.jpg","","157","main_expt"
"","bandit","237","895668","0.0-198.0-0.0","15056030","wem/bandit_either_2","A3UV9UAE6MP36J","either","3","318","","","","","","","0","0","1","","0.3519128793","0.6","0.8","0.2","0.4","0.3519128793","0.3731337511","0.2184316938","0.4428847078","","","","","","","","","","","","72","H","0","img/none_selected.jpg","","158","main_expt"
"","bandit","238","897509","0.0-199.0-0.0","15056030","wem/bandit_either_2","A3UV9UAE6MP36J","either","3","316","","","","","","","0","0","1","","0.3255157266","0.6","0.8","0.2","0.4","0.3255157266","0.3758107074","0.2603966468","0.4498083842","","","","","","","","","","","","72","H","0","img/none_selected.jpg","","159","main_expt"
"","bandit","239","899370","0.0-200.0-0.0","15056030","wem/bandit_either_2","A3UV9UAE6MP36J","either","3","330","","","","","","","0","0","1","","0.2242017374","0.6","0.8","0.2","0.4","0.379238532","0.3494215766","0.2242017374","0.4319550234","","","","","","","","","","","","75","K","2","","","160","main_expt"
"","bandit","240","901196","0.0-201.0-0.0","15056030","wem/bandit_either_2","A3UV9UAE6MP36J","either","3","301","","","","","","","0","1","0","","0.2014027125","0.6","0.8","0.2","0.4","0.3776335756","0.3327111917","0.2014027125","0.4417514389","","","","","","","","","","","","75","K","2","","","161","main_expt"
"","bandit","241","903090","0.0-202.0-0.0","15056030","wem/bandit_either_2","A3UV9UAE6MP36J","either","3","357","","","","","","","0","0","1","0.2038621466","","0.6","0.8","0.2","0.4","","","","","0.2955751891","0.3171011618","0.2038621466","0.4081293495","","","","","","","","75","K","2","","","162","main_expt"
"","bandit","242","905049","0.0-203.0-0.0","15056030","wem/bandit_either_2","A3UV9UAE6MP36J","either","3","436","","","","","","","1","0","0","0.1238136799","","0.6","0.8","0.2","0.4","","","","","0.30851492","0.364183239","0.1238136799","0.4265776113","","","","","","","","75","K","2","","","163","main_expt"
"","bandit","243","906753","0.0-204.0-0.0","15056030","wem/bandit_either_2","A3UV9UAE6MP36J","either","3","173","","","","","","","0","0","1","","0.1104941302","0.6","0.8","0.2","0.4","0.3074756362","0.3917374524","0.1104941302","0.427472809","","","","","","","","","","","","75","K","2","","","164","main_expt"
"","bandit","244","908371","0.0-205.0-0.0","15056030","wem/bandit_either_2","A3UV9UAE6MP36J","either","3","94","","","","","","","0","0","1","","0.1099358877","0.6","0.8","0.2","0.4","0.2743039079","0.3629360172","0.1099358877","0.4016343469","","","","","","","","","","","","75","K","2","","","165","main_expt"
"","bandit","245","910042","0.0-206.0-0.0","15056030","wem/bandit_either_2","A3UV9UAE6MP36J","either","3","134","","","","","","","0","0","1","","0.08082918558","0.6","0.8","0.2","0.4","0.2900226329","0.3697042915","0.08082918558","0.3578169927","","","","","","","","","","","","75","K","2","","","166","main_expt"
"","bandit","246","911697","0.0-207.0-0.0","15056030","wem/bandit_either_2","A3UV9UAE6MP36J","either","3","143","","","","","","","0","0","1","","0.08539074978","0.6","0.8","0.2","0.4","0.3444017494","0.3626443337","0.08539074978","0.3346076013","","","","","","","","","","","","75","K","2","","","167","main_expt"
"","bandit","247","913231","0.0-208.0-0.0","15056030","wem/bandit_either_2","A3UV9UAE6MP36J","either","3","3","","","","","","","1","0","0","0.36326211","","0.6","0.8","0.2","0.4","","","","","0.3934904689","0.3488380128","0.1307687804","0.36326211","","","","","","","","76","L","3","","","168","main_expt"
"","bandit","248","915003","0.0-209.0-0.0","15056030","wem/bandit_either_2","A3UV9UAE6MP36J","either","3","232","","","","","","","0","1","0","","0.3389060657","0.6","0.8","0.2","0.4","0.3712778229","0.3338465455","0.09435724838","0.3389060657","","","","","","","","","","","","76","L","3","","","169","main_expt"
"","bandit","249","916856","0.0-210.0-0.0","15056030","wem/bandit_either_2","A3UV9UAE6MP36J","either","3","306","","","","","","","0","0","1","","0.3820287301","0.6","0.8","0.2","0.4","0.3348119161","0.3675902536","0.09371103674","0.3820287301","","","","","","","","","","","","76","L","3","","","170","main_expt"
"","bandit","250","918714","0.0-211.0-0.0","15056030","wem/bandit_either_2","A3UV9UAE6MP36J","either","3","329","","","","","","","1","0","0","0.3738350687","","0.6","0.8","0.2","0.4","","","","","0.3697689907","0.3663425941","0.0912992704","0.3738350687","","","","","","","","76","L","3","","","171","main_expt"
"","bandit","251","920583","0.0-212.0-0.0","15056030","wem/bandit_either_2","A3UV9UAE6MP36J","either","3","348","","","","","","","0","0","1","0.3449486646","","0.6","0.8","0.2","0.4","","","","","0.3438364448","0.3571019768","0.1053216192","0.3449486646","","","","","","","","76","L","3","","","172","main_expt"
"","bandit","252","922360","0.0-213.0-0.0","15056030","wem/bandit_either_2","A3UV9UAE6MP36J","either","3","248","","","","","","","0","0","1","","0.3754463001","0.6","0.8","0.2","0.4","0.4064517123","0.383943734","0.1119971747","0.3754463001","","","","","","","","","","","","76","L","3","","","173","main_expt"
"","bandit","253","924123","0.0-214.0-0.0","15056030","wem/bandit_either_2","A3UV9UAE6MP36J","either","3","239","","","","","","","0","0","1","0.3983783957","","0.6","0.8","0.2","0.4","","","","","0.4266345201","0.378453819","0.1049574405","0.3983783957","","","","","","","","76","L","3","","","174","main_expt"
"","bandit","254","925905","0.0-215.0-0.0","15056030","wem/bandit_either_2","A3UV9UAE6MP36J","either","3","258","","","","","","","0","0","1","0.4176958341","","0.6","0.8","0.2","0.4","","","","","0.4413212306","0.3577460836","0.07351671593","0.4176958341","","","","","","","","76","L","3","","","175","main_expt"
"","bandit","255","927699","0.0-216.0-0.0","15056030","wem/bandit_either_2","A3UV9UAE6MP36J","either","3","251","","","","","","","0","1","0","","0.4336280271","0.6","0.8","0.2","0.4","0.438548454","0.3346789668","0.06097876817","0.4336280271","","","","","","","","","","","","76","L","3","","","176","main_expt"
"","bandit","256","929458","0.0-217.0-0.0","15056030","wem/bandit_either_2","A3UV9UAE6MP36J","either","3","246","","","","","","","0","1","0","","0.3863917124","0.6","0.8","0.2","0.4","0.4350726265","0.3720341948","0.05873143133","0.3863917124","","","","","","","","","","","","76","L","3","","","177","main_expt"
"","bandit","257","931248","0.0-218.0-0.0","15056030","wem/bandit_either_2","A3UV9UAE6MP36J","either","3","259","","","","","","","0","1","0","","0.3826512014","0.6","0.8","0.2","0.4","0.4029859975","0.4243236705","0.07829718294","0.3826512014","","","","","","","","","","","","76","L","3","","","178","main_expt"
"","bandit","258","933099","0.0-219.0-0.0","15056030","wem/bandit_either_2","A3UV9UAE6MP36J","either","3","313","","","","","","","0","0","1","","0.3681046487","0.6","0.8","0.2","0.4","0.3738585124","0.4396564102","0.05868413977","0.3681046487","","","","","","","","","","","","76","L","3","","","179","main_expt"
"","bandit","259","934918","0.0-220.0-0.0","15056030","wem/bandit_either_2","A3UV9UAE6MP36J","either","3","300","","","","","","","0","0","1","0.374340785","","0.6","0.8","0.2","0.4","","","","","0.3884150149","0.4501825932","0.04540529238","0.374340785","","","","","","","","76","L","3","","","180","main_expt"
"","bandit","260","936746","0.0-221.0-0.0","15056030","wem/bandit_either_2","A3UV9UAE6MP36J","either","3","314","","","","","","","0","0","1","0.4527537228","","0.6","0.8","0.2","0.4","","","","","0.3977335033","0.4527537228","0.04810206047","0.3844034803","","","","","","","","74","J","1","","","181","main_expt"
"","bandit","261","938612","0.0-222.0-0.0","15056030","wem/bandit_either_2","A3UV9UAE6MP36J","either","3","333","","","","","","","0","1","0","","0.4194204302","0.6","0.8","0.2","0.4","0.4194204302","0.4733821952","0.0564969073","0.3569363444","","","","","","","","","","","","72","H","0","img/none_selected.jpg","","182","main_expt"
"","bandit","262","940470","0.0-223.0-0.0","15056030","wem/bandit_either_2","A3UV9UAE6MP36J","either","3","320","","","","","","","0","0","1","0.4050300101","","0.6","0.8","0.2","0.4","","","","","0.4050300101","0.4741352064","0.06674959941","0.3930074682","","","","","","","","72","H","0","img/none_selected.jpg","","183","main_expt"
"","bandit","263","942191","0.0-224.0-0.0","15056030","wem/bandit_either_2","A3UV9UAE6MP36J","either","3","187","","","","","","","0","0","1","","0.4272992256","0.6","0.8","0.2","0.4","0.4272992256","0.4835015011","0.05730522946","0.4105724965","","","","","","","","","","","","72","H","0","img/none_selected.jpg","","184","main_expt"
"","bandit","264","943929","0.0-225.0-0.0","15056030","wem/bandit_either_2","A3UV9UAE6MP36J","either","3","221","","","","","","","1","0","0","0.4230276401","","0.6","0.8","0.2","0.4","","","","","0.4213026748","0.4907566516","0.0759668512","0.4230276401","","","","","","","","76","L","3","","","185","main_expt"
"","bandit","265","945742","0.0-226.0-0.0","15056030","wem/bandit_either_2","A3UV9UAE6MP36J","either","3","300","","","","","","","0","0","1","0.4243078066","","0.6","0.8","0.2","0.4","","","","","0.3729626057","0.4777100538","0.0736669194","0.4243078066","","","","","","","","76","L","3","","","186","main_expt"
"","bandit","266","947603","0.0-227.0-0.0","15056030","wem/bandit_either_2","A3UV9UAE6MP36J","either","3","311","","","","","","","0","0","1","","0.419104652","0.6","0.8","0.2","0.4","0.4022080601","0.4751658893","0.1020870739","0.419104652","","","","","","","","","","","","76","L","3","","","187","main_expt"
"","bandit","267","949372","0.0-228.0-0.0","15056030","wem/bandit_either_2","A3UV9UAE6MP36J","either","3","248","","","","","","","0","0","1","0.3917910895","","0.6","0.8","0.2","0.4","","","","","0.4218987807","0.4711403756","0.110066606","0.3917910895","","","","","","","","76","L","3","","","188","main_expt"
"","bandit","268","951123","0.0-229.0-0.0","15056030","wem/bandit_either_2","A3UV9UAE6MP36J","either","3","240","","","","","","","0","0","1","","0.3696037293","0.6","0.8","0.2","0.4","0.4284519853","0.4848283219","0.1616324423","0.3696037293","","","","","","","","","","","","76","L","3","","","189","main_expt"
"","bandit","269","953954","0.0-230.0-0.0","15056030","wem/bandit_either_2","A3UV9UAE6MP36J","either","3","1278","","","","","","","0","1","0","","0.3722688899","0.6","0.8","0.2","0.4","0.4104863902","0.4906713727","0.1401199573","0.3722688899","","","","","","","","","","","","76","L","3","","","190","main_expt"
"","bandit","270","955857","0.0-231.0-0.0","15056030","wem/bandit_either_2","A3UV9UAE6MP36J","either","3","370","","","","","","","0","0","1","","0.3956575009","0.6","0.8","0.2","0.4","0.4071825693","0.4944082075","0.1782786715","0.3956575009","","","","","","","","","","","","76","L","3","","","191","main_expt"
"","bandit","271","957738","0.0-232.0-0.0","15056030","wem/bandit_either_2","A3UV9UAE6MP36J","either","3","355","","","","","","","0","0","1","","0.3843500594","0.6","0.8","0.2","0.4","0.4172763132","0.4922337742","0.203517815","0.3843500594","","","","","","","","","","","","76","L","3","","","192","main_expt"
"","bandit","272","959550","0.0-233.0-0.0","15056030","wem/bandit_either_2","A3UV9UAE6MP36J","either","3","293","","","","","","","0","0","1","","0.172030281","0.6","0.8","0.2","0.4","0.3965334946","0.4887356563","0.172030281","0.3801723293","","","","","","","","","","","","75","K","2","","","193","main_expt"
"","bandit","273","961433","0.0-234.0-0.0","15056030","wem/bandit_either_2","A3UV9UAE6MP36J","either","3","356","","","","","","","0","0","1","0.4850955297","","0.6","0.8","0.2","0.4","","","","","0.383316574","0.4850955297","0.1813301739","0.3871645121","","","","","","","","74","J","1","","","194","main_expt"
"","bandit","274","963144","0.0-235.0-0.0","15056030","wem/bandit_either_2","A3UV9UAE6MP36J","either","3","198","","","","","","","0","0","1","","0.3633903175","0.6","0.8","0.2","0.4","0.3965345796","0.4848341758","0.2284295163","0.3633903175","","","","","","","","","","","","76","L","3","","","195","main_expt"
"","bandit","275","965071","0.0-236.0-0.0","15056030","wem/bandit_either_2","A3UV9UAE6MP36J","either","3","378","","","","","","","0","0","1","0.3978469093","","0.6","0.8","0.2","0.4","","","","","0.3978469093","0.490049139","0.2501246714","0.3811675741","","","","","","","","72","H","0","img/none_selected.jpg","","196","main_expt"
"","bandit","276","966879","0.0-237.0-0.0","15056030","wem/bandit_either_2","A3UV9UAE6MP36J","either","3","278","","","","","","","1","0","0","0.3150809007","","0.6","0.8","0.2","0.4","","","","","0.3172926233","0.4912643012","0.3150809007","0.3487868089","","","","","","","","75","K","2","","","197","main_expt"
"","bandit","277","968707","0.0-238.0-0.0","15056030","wem/bandit_either_2","A3UV9UAE6MP36J","either","3","313","","","","","","","0","0","1","","0.3442077965","0.6","0.8","0.2","0.4","0.3113170709","0.4793615714","0.3442077965","0.2986771554","","","","","","","","","","","","75","K","2","","","198","main_expt"
"","bandit","278","970591","0.0-239.0-0.0","15056030","wem/bandit_either_2","A3UV9UAE6MP36J","either","3","366","","","","","","","1","0","0","0.4661622676","","0.6","0.8","0.2","0.4","","","","","0.3066116159","0.4661622676","0.3675051223","0.3481418533","","","","","","","","74","J","1","","","199","main_expt"
"","bandit","279","972538","0.0-240.0-0.0","15056030","wem/bandit_either_2","A3UV9UAE6MP36J","either","3","423","","","","","","","1","0","0","0.4479238565","","0.6","0.8","0.2","0.4","","","","","0.2521122026","0.4479238565","0.3044821291","0.353319573","","","","","","","","74","J","1","","","200","main_expt"
"","bandit","280","974358","0.0-241.0-0.0","15056030","wem/bandit_either_2","A3UV9UAE6MP36J","either","3","309","","","","","","","1","0","0","0.4429166455","","0.6","0.8","0.2","0.4","","","","","0.2679963248","0.4429166455","0.3013824411","0.3676338631","","","","","","","","74","J","1","","","201","main_expt"
"","bandit","281","976238","0.0-242.0-0.0","15056030","wem/bandit_either_2","A3UV9UAE6MP36J","either","3","354","","","","","","","0","0","1","0.442820363","","0.6","0.8","0.2","0.4","","","","","0.2076546236","0.442820363","0.3001954661","0.311657493","","","","","","","","74","J","1","","","202","main_expt"
"","bandit","282","978198","0.0-243.0-0.0","15056030","wem/bandit_either_2","A3UV9UAE6MP36J","either","3","408","","","","","","","1","0","0","0.4539008368","","0.6","0.8","0.2","0.4","","","","","0.1881707852","0.4539008368","0.3189156814","0.3364041998","","","","","","","","74","J","1","","","203","main_expt"
"","bandit","283","979998","0.0-244.0-0.0","15056030","wem/bandit_either_2","A3UV9UAE6MP36J","either","3","287","","","","","","","0","0","1","0.4163307037","","0.6","0.8","0.2","0.4","","","","","0.2057853427","0.4163307037","0.3162062407","0.3148670147","","","","","","","","74","J","1","","","204","main_expt"
"","bandit","284","981825","0.0-245.0-0.0","15056030","wem/bandit_either_2","A3UV9UAE6MP36J","either","3","301","","","","","","","1","0","0","0.4045388199","","0.6","0.8","0.2","0.4","","","","","0.2564451259","0.4045388199","0.347278619","0.3293187519","","","","","","","","74","J","1","","","205","main_expt"
"","bandit","285","983780","0.0-246.0-0.0","15056030","wem/bandit_either_2","A3UV9UAE6MP36J","either","3","411","","","","","","","1","0","0","0.4083422121","","0.6","0.8","0.2","0.4","","","","","0.3082896296","0.4083422121","0.2970129147","0.2705077244","","","","","","","","74","J","1","","","206","main_expt"
"","bandit","286","985665","0.0-247.0-0.0","15056030","wem/bandit_either_2","A3UV9UAE6MP36J","either","3","360","","","","","","","0","0","1","0.4033585138","","0.6","0.8","0.2","0.4","","","","","0.3235103938","0.4033585138","0.3331481178","0.3083591011","","","","","","","","74","J","1","","","207","main_expt"
"","bandit","287","987513","0.0-248.0-0.0","15056030","wem/bandit_either_2","A3UV9UAE6MP36J","either","3","316","","","","","","","0","0","1","0.3753320851","","0.6","0.8","0.2","0.4","","","","","0.3563539536","0.3753320851","0.3195917859","0.2489273718","","","","","","","","74","J","1","","","208","main_expt"
"","bandit","288","989348","0.0-249.0-0.0","15056030","wem/bandit_either_2","A3UV9UAE6MP36J","either","3","319","","","","","","","0","1","0","","0.3864970555","0.6","0.8","0.2","0.4","0.3821305916","0.3864970555","0.3642345195","0.2224321457","","","","","","","","","","","","74","J","1","","","209","main_expt"
"","bandit","289","991281","0.0-250.0-0.0","15056030","wem/bandit_either_2","A3UV9UAE6MP36J","either","3","401","","","","","","","1","0","0","0.3894881908","","0.6","0.8","0.2","0.4","","","","","0.4067483812","0.3894881908","0.3518797164","0.2184729634","","","","","","","","74","J","1","","","210","main_expt"
"","bandit","290","993224","0.0-251.0-0.0","15056030","wem/bandit_either_2","A3UV9UAE6MP36J","either","3","421","","","","","","","0","0","1","0.4052823736","","0.6","0.8","0.2","0.4","","","","","0.376825818","0.4052823736","0.3781537602","0.2178464352","","","","","","","","74","J","1","","","211","main_expt"
"","bandit","291","995241","0.0-252.0-0.0","15056030","wem/bandit_either_2","A3UV9UAE6MP36J","either","3","476","","","","","","","1","0","0","0.3783189977","","0.6","0.8","0.2","0.4","","","","","0.3481764155","0.3783189977","0.3773353051","0.1644702768","","","","","","","","74","J","1","","","212","main_expt"
"","bandit","292","997448","0.0-253.0-0.0","15056030","wem/bandit_either_2","A3UV9UAE6MP36J","either","3","672","","","","","","","0","0","1","0.3804187243","","0.6","0.8","0.2","0.4","","","","","0.3239198888","0.3804187243","0.3448860985","0.1271660564","","","","","","","","74","J","1","","","213","main_expt"
"","bandit","293","999374","0.0-254.0-0.0","15056030","wem/bandit_either_2","A3UV9UAE6MP36J","either","3","395","","","","","","","0","0","1","","0.3964056757","0.6","0.8","0.2","0.4","0.3592643085","0.3964056757","0.3622000499","0.1368129038","","","","","","","","","","","","74","J","1","","","214","main_expt"
"","bandit","294","1001293","0.0-255.0-0.0","15056030","wem/bandit_either_2","A3UV9UAE6MP36J","either","3","406","","","","","","","0","0","1","","0.3939862607","0.6","0.8","0.2","0.4","0.3482739819","0.3939862607","0.3408682726","0.07615368859","","","","","","","","","","","","74","J","1","","","215","main_expt"
"","bandit","295","1003222","0.0-256.0-0.0","15056030","wem/bandit_either_2","A3UV9UAE6MP36J","either","3","376","","","","","","","0","0","1","0.4062496234","","0.6","0.8","0.2","0.4","","","","","0.2972527025","0.4062496234","0.328819006","0.07711559412","","","","","","","","74","J","1","","","216","main_expt"
"","bandit","296","1005072","0.0-257.0-0.0","15056030","wem/bandit_either_2","A3UV9UAE6MP36J","either","3","283","","","","","","","0","0","1","0.3440498305","","0.6","0.8","0.2","0.4","","","","","0.2850944341","0.3440498305","0.3229374792","0.07728173513","","","","","","","","74","J","1","","","217","main_expt"
"","bandit","297","1006993","0.0-258.0-0.0","15056030","wem/bandit_either_2","A3UV9UAE6MP36J","either","3","397","","","","","","","0","0","1","","0.3198020565","0.6","0.8","0.2","0.4","0.2483413171","0.3198020565","0.3616220652","0.07919919155","","","","","","","","","","","","74","J","1","","","218","main_expt"
"","bandit","298","1008578","0.0-259.0-0.0","15056030","wem/bandit_either_2","A3UV9UAE6MP36J","either","3","55","","","","","","","0","0","1","0.3078290176","","0.6","0.8","0.2","0.4","","","","","0.2680513607","0.3078290176","0.3591176528","0.1270410367","","","","","","","","74","J","1","","","219","main_expt"
"","bandit","299","1010444","0.0-260.0-0.0","15056030","wem/bandit_either_2","A3UV9UAE6MP36J","either","3","348","","","","","","","0","0","1","","0.2758994579","0.6","0.8","0.2","0.4","0.304668496","0.2961895162","0.2758994579","0.1117499599","","","","","","","","","","","","75","K","2","","","220","main_expt"
"","bandit","300","1012238","0.0-261.0-0.0","15056030","wem/bandit_either_2","A3UV9UAE6MP36J","either","3","263","","","","","","","0","0","1","0.1186324211","","0.6","0.8","0.2","0.4","","","","","0.2773284289","0.2658603678","0.3119987931","0.1186324211","","","","","","","","76","L","3","","","221","main_expt"
"","bandit","301","1014412","0.0-262.0-0.0","15056030","wem/bandit_either_2","A3UV9UAE6MP36J","either","3","630","","","","","","","0","1","0","","0.3106374463","0.6","0.8","0.2","0.4","0.2152506718","0.274695037","0.3106374463","0.1141050397","","","","","","","","","","","","75","K","2","","","222","main_expt"
"","bandit","302","1016480","0.0-263.0-0.0","15056030","wem/bandit_either_2","A3UV9UAE6MP36J","either","3","535","","","","","","","0","0","1","0.2210940289","","0.6","0.8","0.2","0.4","","","","","0.2445797097","0.2210940289","0.3131570504","0.1007228699","","","","","","","","74","J","1","","","223","main_expt"
"","bandit","303","1018312","0.0-264.0-0.0","15056030","wem/bandit_either_2","A3UV9UAE6MP36J","either","3","318","","","","","","","0","0","1","","0.3025994915","0.6","0.8","0.2","0.4","0.2559263424","0.1843933297","0.3025994915","0.1380584308","","","","","","","","","","","","75","K","2","","","224","main_expt"
"","bandit","304","1020118","0.0-265.0-0.0","15056030","wem/bandit_either_2","A3UV9UAE6MP36J","either","3","272","","","","","","","1","0","0","0.212211923","","0.6","0.8","0.2","0.4","","","","","0.2702522324","0.212211923","0.2994132709","0.1393521225","","","","","","","","74","J","1","","","225","main_expt"
"","bandit","305","1021946","0.0-266.0-0.0","15056030","wem/bandit_either_2","A3UV9UAE6MP36J","either","3","316","","","","","","","0","0","1","0.2315036379","","0.6","0.8","0.2","0.4","","","","","0.2646860425","0.2315036379","0.2866794375","0.2094269877","","","","","","","","74","J","1","","","226","main_expt"
"","bandit","306","1023832","0.0-267.0-0.0","15056030","wem/bandit_either_2","A3UV9UAE6MP36J","either","3","348","","","","","","","1","0","0","0.2646353212","","0.6","0.8","0.2","0.4","","","","","0.269556559","0.2646353212","0.2299222882","0.2959232149","","","","","","","","74","J","1","","","227","main_expt"
"","bandit","307","1025891","0.0-268.0-0.0","15056030","wem/bandit_either_2","A3UV9UAE6MP36J","either","3","527","","","","","","","0","0","1","0.2443517867","","0.6","0.8","0.2","0.4","","","","","0.2498152532","0.2443517867","0.2991813551","0.374355758","","","","","","","","74","J","1","","","228","main_expt"
"","bandit","308","1027733","0.0-269.0-0.0","15056030","wem/bandit_either_2","A3UV9UAE6MP36J","either","3","293","","","","","","","0","0","1","0.2569692975","","0.6","0.8","0.2","0.4","","","","","0.2495566458","0.2569692975","0.3295538921","0.3876740502","","","","","","","","74","J","1","","","229","main_expt"
"","bandit","309","1029552","0.0-270.0-0.0","15056030","wem/bandit_either_2","A3UV9UAE6MP36J","either","3","296","","","","","","","1","0","0","0.2490290172","","0.6","0.8","0.2","0.4","","","","","0.2134382902","0.2490290172","0.2713593359","0.3341674595","","","","","","","","74","J","1","","","230","main_expt"
"","bandit","310","1031419","0.0-271.0-0.0","15056030","wem/bandit_either_2","A3UV9UAE6MP36J","either","3","330","","","","","","","0","0","1","","0.2368643707","0.6","0.8","0.2","0.4","0.2099205747","0.2368643707","0.2746975787","0.3558281537","","","","","","","","","","","","74","J","1","","","231","main_expt"
"","bandit","311","1033153","0.0-272.0-0.0","15056030","wem/bandit_either_2","A3UV9UAE6MP36J","either","3","202","","","","","","","0","0","1","0.2857324616","","0.6","0.8","0.2","0.4","","","","","0.1598609145","0.2857324616","0.2817934899","0.3293076861","","","","","","","","74","J","1","","","232","main_expt"
"","bandit","312","1035053","0.0-273.0-0.0","15056030","wem/bandit_either_2","A3UV9UAE6MP36J","either","3","381","","","","","","","0","0","1","0.226619475","","0.6","0.8","0.2","0.4","","","","","0.1472569172","0.226619475","0.3139736629","0.3271309306","","","","","","","","74","J","1","","","233","main_expt"
"","bandit","313","1036953","0.0-274.0-0.0","15056030","wem/bandit_either_2","A3UV9UAE6MP36J","either","3","368","","","","","","","0","0","1","","0.2448251662","0.6","0.8","0.2","0.4","0.1123375355","0.2448251662","0.3332560948","0.3510228885","","","","","","","","","","","","74","J","1","","","234","main_expt"
"","bandit","314","1038932","0.0-275.0-0.0","15056030","wem/bandit_either_2","A3UV9UAE6MP36J","either","3","451","","","","","","","0","0","1","0.1562424728","","0.6","0.8","0.2","0.4","","","","","0.1562424728","0.2996798263","0.3475281657","0.3346663699","","","","","","","","72","H","0","img/none_selected.jpg","","235","main_expt"
"","bandit","315","1040765","0.0-276.0-0.0","15056030","wem/bandit_either_2","A3UV9UAE6MP36J","either","3","300","","","","","","","0","0","1","","0.1623269298","0.6","0.8","0.2","0.4","0.1623269298","0.3220329496","0.3170984437","0.332043614","","","","","","","","","","","","72","H","0","img/none_selected.jpg","","236","main_expt"
"","bandit","316","1042442","0.0-277.0-0.0","15056030","wem/bandit_either_2","A3UV9UAE6MP36J","either","3","128","","","","","","","0","0","1","","0.3611259067","0.6","0.8","0.2","0.4","0.1362759337","0.3672390457","0.3611259067","0.2780661838","","","","","","","","","","","","75","K","2","","","237","main_expt"
"","bandit","317","1044264","0.0-278.0-0.0","15056030","wem/bandit_either_2","A3UV9UAE6MP36J","either","3","290","","","","","","","0","0","1","","0.3449339383","0.6","0.8","0.2","0.4","0.1282223372","0.3702030288","0.3449339383","0.3071002506","","","","","","","","","","","","75","K","2","","","238","main_expt"
"","bandit","318","1045875","0.0-279.0-0.0","15056030","wem/bandit_either_2","A3UV9UAE6MP36J","either","3","74","","","","","","","1","0","0","0.3101279526","","0.6","0.8","0.2","0.4","","","","","0.08262393641","0.3486367063","0.3006984684","0.3101279526","","","","","","","","76","L","3","","","239","main_expt"
"","bandit","319","1047673","0.0-280.0-0.0","15056030","wem/bandit_either_2","A3UV9UAE6MP36J","either","3","268","","","","","","","0","0","1","","0.3071576631","0.6","0.8","0.2","0.4","0.09366491666","0.3422639114","0.3355390738","0.3071576631","","","","","","","","","","","","76","L","3","","","240","main_expt"
"","bandit","320","1049378","0.0-281.0-0.0","15056030","wem/bandit_either_2","A3UV9UAE6MP36J","either","3","178","","","","","","","0","0","1","0.3213727252","","0.6","0.8","0.2","0.4","","","","","0.09778426954","0.3703795114","0.3513118525","0.3213727252","","","","","","","","76","L","3","","","241","main_expt"
"","bandit","321","1051290","0.0-282.0-0.0","15056030","wem/bandit_either_2","A3UV9UAE6MP36J","either","3","385","","","","","","","0","0","1","0.3303042821","","0.6","0.8","0.2","0.4","","","","","0.0684580113","0.3362310887","0.2871404103","0.3303042821","","","","","","","","76","L","3","","","242","main_expt"
"","bandit","322","1053173","0.0-283.0-0.0","15056030","wem/bandit_either_2","A3UV9UAE6MP36J","either","3","341","","","","","","","1","0","0","0.3855302341","","0.6","0.8","0.2","0.4","","","","","0.05756719403","0.3855302341","0.2582353252","0.386578507","","","","","","","","74","J","1","","","243","main_expt"
"","bandit","323","1055034","0.0-284.0-0.0","15056030","wem/bandit_either_2","A3UV9UAE6MP36J","either","3","337","","","","","","","0","0","1","","0.3504604058","0.6","0.8","0.2","0.4","0.07954378931","0.3504604058","0.2108553612","0.3582196724","","","","","","","","","","","","74","J","1","","","244","main_expt"
"","bandit","324","1057013","0.0-285.0-0.0","15056030","wem/bandit_either_2","A3UV9UAE6MP36J","either","3","459","","","","","","","0","0","1","","0.3586275713","0.6","0.8","0.2","0.4","0.07668718344","0.3586275713","0.190308294","0.3626170977","","","","","","","","","","","","74","J","1","","","245","main_expt"
"","bandit","325","1058996","0.0-286.0-0.0","15056030","wem/bandit_either_2","A3UV9UAE6MP36J","either","3","461","","","","","","","0","1","0","","0.3202710015","0.6","0.8","0.2","0.4","0.08627194322","0.3202710015","0.2079876503","0.2778980274","","","","","","","","","","","","74","J","1","","","246","main_expt"
"","bandit","326","1060800","0.0-287.0-0.0","15056030","wem/bandit_either_2","A3UV9UAE6MP36J","either","3","280","","","","","","","1","0","0","0.2874587678","","0.6","0.8","0.2","0.4","","","","","0.1009858539","0.2874587678","0.2053262284","0.2864864277","","","","","","","","74","J","1","","","247","main_expt"
"","bandit","327","1062693","0.0-288.0-0.0","15056030","wem/bandit_either_2","A3UV9UAE6MP36J","either","3","352","","","","","","","1","0","0","0.2703076155","","0.6","0.8","0.2","0.4","","","","","0.1044033157","0.2703076155","0.2699327364","0.2883304048","","","","","","","","74","J","1","","","248","main_expt"
"","bandit","328","1065106","0.0-289.0-0.0","15056030","wem/bandit_either_2","A3UV9UAE6MP36J","either","3","874","","","","","","","0","0","1","0.2212833967","","0.6","0.8","0.2","0.4","","","","","0.07254640656","0.2212833967","0.2917851334","0.3034325887","","","","","","","","74","J","1","","","249","main_expt"
