"consent","trial_type","trial_index","time_elapsed","internal_node_id","subjID","study","MID","cond","drift","rt","responses","key_press","expt_phase","like","value","connected","gems","bombs","no_reward","GemPrChosen","BombPrChosen","GainOverPainPr_0","GainOverPainPr_1","GainOverPainPr_2","GainOverPainPr_3","LosePr_0","LosePr_1","LosePr_2","LosePr_3","WinPr_0","WinPr_1","WinPr_2","WinPr_3","Q0","Q1","Q2","gender","age","ethnicity","target","respCharCode","respKey","respChoiceNum","respChoice","practice","trial_counter","trial_label"
"INL_behavioral_consent_30min_online.html","consent","0","28728","0.0-0.0","15958249","wem/bandit_either_2","AEI5USUUPBU2G","either","2","","","","","","","","","","","","","","","","","","","","","","","","","","","","","","","","","","","","","",""
"","survey-text","1","37128","0.0-1.0","15958249","wem/bandit_either_2","AEI5USUUPBU2G","either","2","7385","{""Q0"":""AEI5USUUPBU2G""}","","","","","","","","","","","","","","","","","","","","","","","","","","","","","","","","","","","",""
"","text","2","48027","0.0-2.0","15958249","wem/bandit_either_2","AEI5USUUPBU2G","either","2","9893","","32","","","","","","","","","","","","","","","","","","","","","","","","","","","","","","","","","","",""
"","text","3","58106","0.0-3.0","15958249","wem/bandit_either_2","AEI5USUUPBU2G","either","2","10077","","32","","","","","","","","","","","","","","","","","","","","","","","","","","","","","","","","","","",""
"","text","4","79799","0.0-4.0","15958249","wem/bandit_either_2","AEI5USUUPBU2G","either","2","21690","","32","","","","","","","","","","","","","","","","","","","","","","","","","","","","","","","","","","",""
"","text","5","96786","0.0-5.0","15958249","wem/bandit_either_2","AEI5USUUPBU2G","either","2","16986","","32","","","","","","","","","","","","","","","","","","","","","","","","","","","","","","","","","","",""
"","text","6","124498","0.0-6.0","15958249","wem/bandit_either_2","AEI5USUUPBU2G","either","2","27710","","32","","","","","","","","","","","","","","","","","","","","","","","","","","","","","","","","","","",""
"","text","7","132222","0.0-7.0","15958249","wem/bandit_either_2","AEI5USUUPBU2G","either","2","7722","","32","","","","","","","","","","","","","","","","","","","","","","","","","","","","","","","","","","",""
"","text","8","137273","0.0-8.0","15958249","wem/bandit_either_2","AEI5USUUPBU2G","either","2","5047","","32","","","","","","","","","","","","","","","","","","","","","","","","","","","","","","","","","","",""
"","identification","9","146279","0.0-9.0-0.0","15958249","wem/bandit_either_2","AEI5USUUPBU2G","either","2","8978","","","","5","4","6","","","","","","","","","","","","","","","","","","","","","","","","the village of Zur","","","","","","",""
"","identification","10","156322","0.0-9.0-1.0","15958249","wem/bandit_either_2","AEI5USUUPBU2G","either","2","9022","","","","1","2","1","","","","","","","","","","","","","","","","","","","","","","","","the village of Nyx","","","","","","",""
"","text","11","171372","0.0-10.0","15958249","wem/bandit_either_2","AEI5USUUPBU2G","either","2","14045","","32","","","","","","","","","","","","","","","","","","","","","","","","","","","","","","","","","","",""
"","text","12","176903","0.0-11.0","15958249","wem/bandit_either_2","AEI5USUUPBU2G","either","2","5530","","32","","","","","","","","","","","","","","","","","","","","","","","","","","","","","","","","","","",""
"","text","13","179189","0.0-12.0","15958249","wem/bandit_either_2","AEI5USUUPBU2G","either","2","2284","","32","","","","","","","","","","","","","","","","","","","","","","","","","","","","","","","","","","",""
"","text","14","185409","0.0-13.0","15958249","wem/bandit_either_2","AEI5USUUPBU2G","either","2","6218","","32","","","","","","","","","","","","","","","","","","","","","","","","","","","","","","","","","","",""
"","bandit","15","188709","0.0-14.0-0.0","15958249","wem/bandit_either_2","AEI5USUUPBU2G","either","2","1786","","","","","","","0","0","1","0","0","","","","","0","","","","0","","","","","","","","","","","74","J","0","img/none_selected_demo.jpg","true","0",""
"","bandit","16","191194","0.0-15.0-0.0","15958249","wem/bandit_either_2","AEI5USUUPBU2G","either","2","975","","","","","","","0","0","1","0","0","","","","","0","","","","0","","","","","","","","","","","75","K","0","img/none_selected_demo.jpg","true","0",""
"","text","17","202210","0.0-16.0","15958249","wem/bandit_either_2","AEI5USUUPBU2G","either","2","11013","","32","","","","","","","","","","","","","","","","","","","","","","","","","","","","","","","","","","",""
"","text","18","211415","0.0-17.0","15958249","wem/bandit_either_2","AEI5USUUPBU2G","either","2","9203","","32","","","","","","","","","","","","","","","","","","","","","","","","","","","","","","","","","","",""
"","text","19","222146","0.0-18.0","15958249","wem/bandit_either_2","AEI5USUUPBU2G","either","2","10729","","32","","","","","","","","","","","","","","","","","","","","","","","","","","","","","","","","","","",""
"","text","20","227375","0.0-19.0","15958249","wem/bandit_either_2","AEI5USUUPBU2G","either","2","5227","","32","","","","","","","","","","","","","","","","","","","","","","","","","","","","","","","","","","",""
"","bandit","21","229976","0.0-20.0-0.0","15958249","wem/bandit_either_2","AEI5USUUPBU2G","either","2","1092","","","","","","","0","1","0","","0.8","0.5","0.5","","","0.8","0.2","","","","","","","","","","","","","","74","J","0","img/none_selected_demo.jpg","true","0","80_20_practice"
"","bandit","22","232450","0.0-20.0-1.0","15958249","wem/bandit_either_2","AEI5USUUPBU2G","either","2","964","","","","","","","0","1","0","","0.8","0.5","0.5","","","0.8","0.2","","","","","","","","","","","","","","74","J","0","img/none_selected_demo.jpg","true","0","80_20_practice"
"","bandit","23","234393","0.0-20.0-2.0","15958249","wem/bandit_either_2","AEI5USUUPBU2G","either","2","435","","","","","","","0","1","0","","0.8","0.5","0.5","","","0.8","0.2","","","","","","","","","","","","","","74","J","0","img/none_selected_demo.jpg","true","0","80_20_practice"
"","bandit","24","236888","0.0-20.0-3.0","15958249","wem/bandit_either_2","AEI5USUUPBU2G","either","2","986","","","","","","","0","0","1","","0.2","0.5","0.5","","","0.8","0.2","","","","","","","","","","","","","","75","K","1","","true","0","80_20_practice"
"","bandit","25","238881","0.0-20.0-4.0","15958249","wem/bandit_either_2","AEI5USUUPBU2G","either","2","483","","","","","","","0","0","1","0.2","","0.5","0.5","","","","","","","0.8","0.2","","","","","","","","","","75","K","1","","true","0","80_20_practice"
"","bandit","26","240794","0.0-20.0-5.0","15958249","wem/bandit_either_2","AEI5USUUPBU2G","either","2","401","","","","","","","0","0","1","","0.2","0.5","0.5","","","0.8","0.2","","","","","","","","","","","","","","75","K","1","","true","0","80_20_practice"
"","bandit","27","242633","0.0-20.0-6.0","15958249","wem/bandit_either_2","AEI5USUUPBU2G","either","2","329","","","","","","","0","0","1","","0.2","0.5","0.5","","","0.8","0.2","","","","","","","","","","","","","","75","K","1","","true","0","80_20_practice"
"","bandit","28","244468","0.0-20.0-7.0","15958249","wem/bandit_either_2","AEI5USUUPBU2G","either","2","325","","","","","","","0","0","1","0.2","","0.5","0.5","","","","","","","0.8","0.2","","","","","","","","","","75","K","1","","true","0","80_20_practice"
"","bandit","29","246832","0.0-20.0-8.0","15958249","wem/bandit_either_2","AEI5USUUPBU2G","either","2","855","","","","","","","1","0","0","0.2","","0.5","0.5","","","","","","","0.8","0.2","","","","","","","","","","75","K","1","","true","0","80_20_practice"
"","bandit","30","248856","0.0-20.0-9.0","15958249","wem/bandit_either_2","AEI5USUUPBU2G","either","2","515","","","","","","","0","0","1","","0.2","0.5","0.5","","","0.8","0.2","","","","","","","","","","","","","","75","K","1","","true","0","80_20_practice"
"","bandit","31","250774","0.0-20.0-10.0","15958249","wem/bandit_either_2","AEI5USUUPBU2G","either","2","409","","","","","","","1","0","0","0.2","","0.5","0.5","","","","","","","0.8","0.2","","","","","","","","","","75","K","1","","true","0","80_20_practice"
"","bandit","32","252706","0.0-20.0-11.0","15958249","wem/bandit_either_2","AEI5USUUPBU2G","either","2","420","","","","","","","0","0","1","","0.2","0.5","0.5","","","0.8","0.2","","","","","","","","","","","","","","75","K","1","","true","0","80_20_practice"
"","bandit","33","254627","0.0-20.0-12.0","15958249","wem/bandit_either_2","AEI5USUUPBU2G","either","2","410","","","","","","","0","0","1","","0.2","0.5","0.5","","","0.8","0.2","","","","","","","","","","","","","","75","K","1","","true","0","80_20_practice"
"","bandit","34","256522","0.0-20.0-13.0","15958249","wem/bandit_either_2","AEI5USUUPBU2G","either","2","382","","","","","","","1","0","0","0.8","","0.5","0.5","","","","","","","0.8","0.2","","","","","","","","","","74","J","0","img/none_selected_demo.jpg","true","0","80_20_practice"
"","bandit","35","258457","0.0-20.0-14.0","15958249","wem/bandit_either_2","AEI5USUUPBU2G","either","2","422","","","","","","","0","0","1","","0.8","0.5","0.5","","","0.8","0.2","","","","","","","","","","","","","","74","J","0","img/none_selected_demo.jpg","true","0","80_20_practice"
"","bandit","36","259999","0.0-20.0-15.0","15958249","wem/bandit_either_2","AEI5USUUPBU2G","either","2","32","","","","","","","1","0","0","0.8","","0.5","0.5","","","","","","","0.8","0.2","","","","","","","","","","74","J","0","img/none_selected_demo.jpg","true","0","80_20_practice"
"","bandit","37","261896","0.0-20.0-16.0","15958249","wem/bandit_either_2","AEI5USUUPBU2G","either","2","389","","","","","","","1","0","0","0.8","","0.5","0.5","","","","","","","0.8","0.2","","","","","","","","","","74","J","0","img/none_selected_demo.jpg","true","0","80_20_practice"
"","bandit","38","263788","0.0-20.0-17.0","15958249","wem/bandit_either_2","AEI5USUUPBU2G","either","2","378","","","","","","","0","0","1","0.8","","0.5","0.5","","","","","","","0.8","0.2","","","","","","","","","","74","J","0","img/none_selected_demo.jpg","true","0","80_20_practice"
"","bandit","39","265824","0.0-20.0-18.0","15958249","wem/bandit_either_2","AEI5USUUPBU2G","either","2","527","","","","","","","1","0","0","0.8","","0.5","0.5","","","","","","","0.8","0.2","","","","","","","","","","74","J","0","img/none_selected_demo.jpg","true","0","80_20_practice"
"","bandit","40","267473","0.0-20.0-19.0","15958249","wem/bandit_either_2","AEI5USUUPBU2G","either","2","137","","","","","","","0","1","0","","0.8","0.5","0.5","","","0.8","0.2","","","","","","","","","","","","","","74","J","0","img/none_selected_demo.jpg","true","0","80_20_practice"
"","text","41","270196","0.0-21.0","15958249","wem/bandit_either_2","AEI5USUUPBU2G","either","2","2719","","32","","","","","","","","","","","","","","","","","","","","","","","","","","","","","","","","","","",""
"","bandit","42","272927","0.0-22.0-0.0","15958249","wem/bandit_either_2","AEI5USUUPBU2G","either","2","1221","","","","","","","1","0","0","1","0","","","","","0","1","","","1","0","","","","","","","","","","74","J","0","img/none_selected_demo.jpg","true","0",""
"","text","43","279447","0.0-23.0","15958249","wem/bandit_either_2","AEI5USUUPBU2G","either","2","6517","","32","","","","","","","","","","","","","","","","","","","","","","","","","","","","","","","","","","",""
"","text","44","284375","0.0-24.0","15958249","wem/bandit_either_2","AEI5USUUPBU2G","either","2","4926","","32","","","","","","","","","","","","","","","","","","","","","","","","","","","","","","","","","","",""
"","text","45","287071","0.0-25.0","15958249","wem/bandit_either_2","AEI5USUUPBU2G","either","2","2693","","32","","","","","","","","","","","","","","","","","","","","","","","","","","","","","","","","","","",""
"","text","46","290755","0.0-26.0","15958249","wem/bandit_either_2","AEI5USUUPBU2G","either","2","3681","","32","","","","","","","","","","","","","","","","","","","","","","","","","","","","","","","","","","",""
"","text","47","302899","0.0-27.0","15958249","wem/bandit_either_2","AEI5USUUPBU2G","either","2","12140","","32","","","","","","","","","","","","","","","","","","","","","","","","","","","","","","","","","","",""
"","text","48","307682","0.0-28.0","15958249","wem/bandit_either_2","AEI5USUUPBU2G","either","2","4781","","32","","","","","","","","","","","","","","","","","","","","","","","","","","","","","","","","","","",""
"","text","49","313597","0.0-29.0","15958249","wem/bandit_either_2","AEI5USUUPBU2G","either","2","5912","","32","","","","","","","","","","","","","","","","","","","","","","","","","","","","","","","","","","",""
"","text","50","319411","0.0-30.0","15958249","wem/bandit_either_2","AEI5USUUPBU2G","either","2","5811","","32","","","","","","","","","","","","","","","","","","","","","","","","","","","","","","","","","","",""
"","text","51","326145","0.0-31.0","15958249","wem/bandit_either_2","AEI5USUUPBU2G","either","2","6731","","32","","","","","","","","","","","","","","","","","","","","","","","","","","","","","","","","","","",""
"","text","52","328424","0.0-32.0","15958249","wem/bandit_either_2","AEI5USUUPBU2G","either","2","2275","","32","","","","","","","","","","","","","","","","","","","","","","","","","","","","","","","","","","",""
"","text","53","332528","0.0-33.0","15958249","wem/bandit_either_2","AEI5USUUPBU2G","either","2","4099","","32","","","","","","","","","","","","","","","","","","","","","","","","","","","","","","","","","","",""
"","bandit","54","334719","0.0-34.0-0.0","15958249","wem/bandit_either_2","AEI5USUUPBU2G","either","2","673","","","","","","","0","0","1","","0.8","0.5","0.5","0.5","0.5","0.8","0.2","0.6","0.2","","","","","","","","","","","","72","H","0","img/none_selected.jpg","true","0","full_practice"
"","bandit","55","336580","0.0-34.0-1.0","15958249","wem/bandit_either_2","AEI5USUUPBU2G","either","2","349","","","","","","","1","0","0","0.8","","0.5","0.5","0.5","0.5","","","","","0.8","0.2","0.6","0.2","","","","","","","","72","H","0","img/none_selected.jpg","true","0","full_practice"
"","bandit","56","338556","0.0-34.0-2.0","15958249","wem/bandit_either_2","AEI5USUUPBU2G","either","2","465","","","","","","","0","0","1","0.2","","0.5","0.5","0.5","0.5","","","","","0.8","0.2","0.6","0.2","","","","","","","","74","J","1","","true","0","full_practice"
"","bandit","57","340426","0.0-34.0-3.0","15958249","wem/bandit_either_2","AEI5USUUPBU2G","either","2","359","","","","","","","0","0","1","0.2","","0.5","0.5","0.5","0.5","","","","","0.8","0.2","0.6","0.2","","","","","","","","74","J","1","","true","0","full_practice"
"","bandit","58","342297","0.0-34.0-4.0","15958249","wem/bandit_either_2","AEI5USUUPBU2G","either","2","360","","","","","","","1","0","0","0.6","","0.5","0.5","0.5","0.5","","","","","0.8","0.2","0.6","0.2","","","","","","","","75","K","2","","true","0","full_practice"
"","bandit","59","344233","0.0-34.0-5.0","15958249","wem/bandit_either_2","AEI5USUUPBU2G","either","2","426","","","","","","","0","1","0","","0.6","0.5","0.5","0.5","0.5","0.8","0.2","0.6","0.2","","","","","","","","","","","","75","K","2","","true","0","full_practice"
"","bandit","60","346225","0.0-34.0-6.0","15958249","wem/bandit_either_2","AEI5USUUPBU2G","either","2","480","","","","","","","0","0","1","","0.2","0.5","0.5","0.5","0.5","0.8","0.2","0.6","0.2","","","","","","","","","","","","76","L","3","","true","0","full_practice"
"","bandit","61","348178","0.0-34.0-7.0","15958249","wem/bandit_either_2","AEI5USUUPBU2G","either","2","442","","","","","","","0","0","1","0.2","","0.5","0.5","0.5","0.5","","","","","0.8","0.2","0.6","0.2","","","","","","","","76","L","3","","true","0","full_practice"
"","bandit","62","350122","0.0-34.0-8.0","15958249","wem/bandit_either_2","AEI5USUUPBU2G","either","2","433","","","","","","","1","0","0","0.6","","0.5","0.5","0.5","0.5","","","","","0.8","0.2","0.6","0.2","","","","","","","","75","K","2","","true","0","full_practice"
"","bandit","63","352031","0.0-34.0-9.0","15958249","wem/bandit_either_2","AEI5USUUPBU2G","either","2","399","","","","","","","0","0","1","0.6","","0.5","0.5","0.5","0.5","","","","","0.8","0.2","0.6","0.2","","","","","","","","75","K","2","","true","0","full_practice"
"","bandit","64","354201","0.0-34.0-10.0","15958249","wem/bandit_either_2","AEI5USUUPBU2G","either","2","658","","","","","","","1","0","0","0.6","","0.5","0.5","0.5","0.5","","","","","0.8","0.2","0.6","0.2","","","","","","","","75","K","2","","true","0","full_practice"
"","bandit","65","356089","0.0-34.0-11.0","15958249","wem/bandit_either_2","AEI5USUUPBU2G","either","2","378","","","","","","","1","0","0","0.6","","0.5","0.5","0.5","0.5","","","","","0.8","0.2","0.6","0.2","","","","","","","","75","K","2","","true","0","full_practice"
"","bandit","66","358122","0.0-34.0-12.0","15958249","wem/bandit_either_2","AEI5USUUPBU2G","either","2","521","","","","","","","0","1","0","","0.6","0.5","0.5","0.5","0.5","0.8","0.2","0.6","0.2","","","","","","","","","","","","75","K","2","","true","0","full_practice"
"","bandit","67","361090","0.0-34.0-13.0","15958249","wem/bandit_either_2","AEI5USUUPBU2G","either","2","1458","","","","","","","1","0","0","0.6","","0.5","0.5","0.5","0.5","","","","","0.8","0.2","0.6","0.2","","","","","","","","75","K","2","","true","0","full_practice"
"","bandit","68","363545","0.0-34.0-14.0","15958249","wem/bandit_either_2","AEI5USUUPBU2G","either","2","946","","","","","","","1","0","0","0.6","","0.5","0.5","0.5","0.5","","","","","0.8","0.2","0.6","0.2","","","","","","","","75","K","2","","true","0","full_practice"
"","bandit","69","366369","0.0-34.0-15.0","15958249","wem/bandit_either_2","AEI5USUUPBU2G","either","2","1312","","","","","","","1","0","0","0.6","","0.5","0.5","0.5","0.5","","","","","0.8","0.2","0.6","0.2","","","","","","","","75","K","2","","true","0","full_practice"
"","bandit","70","368434","0.0-34.0-16.0","15958249","wem/bandit_either_2","AEI5USUUPBU2G","either","2","555","","","","","","","0","0","1","0.6","","0.5","0.5","0.5","0.5","","","","","0.8","0.2","0.6","0.2","","","","","","","","75","K","2","","true","0","full_practice"
"","bandit","71","370377","0.0-34.0-17.0","15958249","wem/bandit_either_2","AEI5USUUPBU2G","either","2","431","","","","","","","1","0","0","0.6","","0.5","0.5","0.5","0.5","","","","","0.8","0.2","0.6","0.2","","","","","","","","75","K","2","","true","0","full_practice"
"","bandit","72","372434","0.0-34.0-18.0","15958249","wem/bandit_either_2","AEI5USUUPBU2G","either","2","546","","","","","","","0","1","0","","0.6","0.5","0.5","0.5","0.5","0.8","0.2","0.6","0.2","","","","","","","","","","","","75","K","2","","true","0","full_practice"
"","bandit","73","374367","0.0-34.0-19.0","15958249","wem/bandit_either_2","AEI5USUUPBU2G","either","2","422","","","","","","","0","0","1","0.6","","0.5","0.5","0.5","0.5","","","","","0.8","0.2","0.6","0.2","","","","","","","","75","K","2","","true","0","full_practice"
"","text","74","378223","0.0-35.0","15958249","wem/bandit_either_2","AEI5USUUPBU2G","either","2","3846","","32","","","","","","","","","","","","","","","","","","","","","","","","","","","","","","","","","","",""
"","text","75","394522","0.0-36.0","15958249","wem/bandit_either_2","AEI5USUUPBU2G","either","2","15294","","32","","","","","","","","","","","","","","","","","","","","","","","","","","","","","","","","","","",""
"","text","76","409601","0.0-37.0","15958249","wem/bandit_either_2","AEI5USUUPBU2G","either","2","15073","","32","","","","","","","","","","","","","","","","","","","","","","","","","","","","","","","","","","",""
"","text","77","416214","0.0-38.0","15958249","wem/bandit_either_2","AEI5USUUPBU2G","either","2","6610","","32","","","","","","","","","","","","","","","","","","","","","","","","","","","","","","","","","","",""
"","text","78","427823","0.0-39.0","15958249","wem/bandit_either_2","AEI5USUUPBU2G","either","2","11604","","32","","","","","","","","","","","","","","","","","","","","","","","","","","","","","","","","","","",""
"","text","79","434942","0.0-40.0","15958249","wem/bandit_either_2","AEI5USUUPBU2G","either","2","7115","","32","","","","","","","","","","","","","","","","","","","","","","","","","","","","","","","","","","",""
"","bandit","80","437489","0.0-41.0-0.0","15958249","wem/bandit_either_2","AEI5USUUPBU2G","either","2","1034","","","","","","","0","0","1","","0.4781977867","0.4","0.6","0.2","0.8","0.4781977867","0.3653736811","0.362799796","0.326135308","","","","","","","","","","","","72","H","0","img/none_selected.jpg","","1","main_expt"
"","bandit","81","440205","0.0-42.0-0.0","15958249","wem/bandit_either_2","AEI5USUUPBU2G","either","2","1203","","","","","","","0","0","1","","0.4765481994","0.4","0.6","0.2","0.8","0.4765481994","0.3999069229","0.3891507205","0.3564958201","","","","","","","","","","","","72","H","0","img/none_selected.jpg","","2","main_expt"
"","bandit","82","442087","0.0-43.0-0.0","15958249","wem/bandit_either_2","AEI5USUUPBU2G","either","2","371","","","","","","","1","0","0","0.4363582421","","0.4","0.6","0.2","0.8","","","","","0.4722158263","0.4363582421","0.3151339382","0.3309056029","","","","","","","","74","J","1","","","3","main_expt"
"","bandit","83","444271","0.0-44.0-0.0","15958249","wem/bandit_either_2","AEI5USUUPBU2G","either","2","672","","","","","","","1","0","0","0.4300921111","","0.4","0.6","0.2","0.8","","","","","0.4609570051","0.4300921111","0.250648122","0.308467875","","","","","","","","74","J","1","","","4","main_expt"
"","bandit","84","446271","0.0-45.0-0.0","15958249","wem/bandit_either_2","AEI5USUUPBU2G","either","2","488","","","","","","","1","0","0","0.3863220662","","0.4","0.6","0.2","0.8","","","","","0.4707799186","0.3863220662","0.2382585344","0.3349995635","","","","","","","","74","J","1","","","5","main_expt"
"","bandit","85","448583","0.0-46.0-0.0","15958249","wem/bandit_either_2","AEI5USUUPBU2G","either","2","802","","","","","","","0","0","1","0.4192648028","","0.4","0.6","0.2","0.8","","","","","0.4676743975","0.4192648028","0.2088101903","0.3743101545","","","","","","","","74","J","1","","","6","main_expt"
"","bandit","86","450587","0.0-47.0-0.0","15958249","wem/bandit_either_2","AEI5USUUPBU2G","either","2","491","","","","","","","0","1","0","","0.4218548145","0.4","0.6","0.2","0.8","0.4767364015","0.4218548145","0.1884279889","0.377506125","","","","","","","","","","","","74","J","1","","","7","main_expt"
"","bandit","87","452806","0.0-48.0-0.0","15958249","wem/bandit_either_2","AEI5USUUPBU2G","either","2","709","","","","","","","1","0","0","0.4298914749","","0.4","0.6","0.2","0.8","","","","","0.4837409877","0.4298914749","0.2297930851","0.3452849142","","","","","","","","74","J","1","","","8","main_expt"
"","bandit","88","455448","0.0-49.0-0.0","15958249","wem/bandit_either_2","AEI5USUUPBU2G","either","2","1128","","","","","","","0","1","0","","0.4215440671","0.4","0.6","0.2","0.8","0.4825212187","0.4215440671","0.2219539873","0.2713567333","","","","","","","","","","","","74","J","1","","","9","main_expt"
"","bandit","89","457629","0.0-50.0-0.0","15958249","wem/bandit_either_2","AEI5USUUPBU2G","either","2","671","","","","","","","0","0","1","","0.3991616263","0.4","0.6","0.2","0.8","0.4791264729","0.3991616263","0.2398128751","0.2712708503","","","","","","","","","","","","74","J","1","","","10","main_expt"
"","bandit","90","459597","0.0-51.0-0.0","15958249","wem/bandit_either_2","AEI5USUUPBU2G","either","2","457","","","","","","","0","0","1","0.4002673883","","0.4","0.6","0.2","0.8","","","","","0.4762013833","0.4002673883","0.2551733424","0.2635531688","","","","","","","","74","J","1","","","11","main_expt"
"","bandit","91","461504","0.0-52.0-0.0","15958249","wem/bandit_either_2","AEI5USUUPBU2G","either","2","394","","","","","","","0","0","1","","0.368629831","0.4","0.6","0.2","0.8","0.4729837645","0.368629831","0.2593424883","0.2669056975","","","","","","","","","","","","74","J","1","","","12","main_expt"
"","bandit","92","464095","0.0-53.0-0.0","15958249","wem/bandit_either_2","AEI5USUUPBU2G","either","2","1079","","","","","","","0","0","1","","0.2493591627","0.4","0.6","0.2","0.8","0.4749786695","0.4189726289","0.2493591627","0.3204456557","","","","","","","","","","","","75","K","2","","","13","main_expt"
"","bandit","93","466096","0.0-54.0-0.0","15958249","wem/bandit_either_2","AEI5USUUPBU2G","either","2","489","","","","","","","0","0","1","0.3466526728","","0.4","0.6","0.2","0.8","","","","","0.4810115094","0.4352425359","0.2686446846","0.3466526728","","","","","","","","76","L","3","","","14","main_expt"
"","bandit","94","468093","0.0-55.0-0.0","15958249","wem/bandit_either_2","AEI5USUUPBU2G","either","2","486","","","","","","","1","0","0","0.3736671224","","0.4","0.6","0.2","0.8","","","","","0.4705329286","0.3819090161","0.2690169042","0.3736671224","","","","","","","","76","L","3","","","15","main_expt"
"","bandit","95","470037","0.0-56.0-0.0","15958249","wem/bandit_either_2","AEI5USUUPBU2G","either","2","432","","","","","","","0","0","1","0.3778143907","","0.4","0.6","0.2","0.8","","","","","0.4687419894","0.3737760256","0.2518303543","0.3778143907","","","","","","","","76","L","3","","","16","main_expt"
"","bandit","96","472255","0.0-57.0-0.0","15958249","wem/bandit_either_2","AEI5USUUPBU2G","either","2","708","","","","","","","0","0","1","0.4594180265","","0.4","0.6","0.2","0.8","","","","","0.4594180265","0.4151791473","0.2406549936","0.3845750066","","","","","","","","72","H","0","img/none_selected.jpg","","17","main_expt"
"","bandit","97","474269","0.0-58.0-0.0","15958249","wem/bandit_either_2","AEI5USUUPBU2G","either","2","501","","","","","","","0","0","1","0.4137363134","","0.4","0.6","0.2","0.8","","","","","0.425397146","0.4137363134","0.2670149403","0.4041286345","","","","","","","","74","J","1","","","18","main_expt"
"","bandit","98","476151","0.0-59.0-0.0","15958249","wem/bandit_either_2","AEI5USUUPBU2G","either","2","369","","","","","","","0","0","1","","0.2658482338","0.4","0.6","0.2","0.8","0.4201246927","0.4084056464","0.2658482338","0.4127350431","","","","","","","","","","","","75","K","2","","","19","main_expt"
"","bandit","99","478047","0.0-60.0-0.0","15958249","wem/bandit_either_2","AEI5USUUPBU2G","either","2","383","","","","","","","1","0","0","0.2452433766","","0.4","0.6","0.2","0.8","","","","","0.3954271328","0.4129175496","0.2452433766","0.4107359536","","","","","","","","75","K","2","","","20","main_expt"
"","bandit","100","480031","0.0-61.0-0.0","15958249","wem/bandit_either_2","AEI5USUUPBU2G","either","2","470","","","","","","","0","0","1","0.2298761452","","0.4","0.6","0.2","0.8","","","","","0.4196431029","0.3888488162","0.2298761452","0.3954861765","","","","","","","","75","K","2","","","21","main_expt"
"","bandit","101","482005","0.0-62.0-0.0","15958249","wem/bandit_either_2","AEI5USUUPBU2G","either","2","462","","","","","","","0","0","1","","0.266827693","0.4","0.6","0.2","0.8","0.3843335182","0.3873149631","0.266827693","0.3805979297","","","","","","","","","","","","75","K","2","","","22","main_expt"
"","bandit","102","483888","0.0-63.0-0.0","15958249","wem/bandit_either_2","AEI5USUUPBU2G","either","2","372","","","","","","","1","0","0","0.425451992","","0.4","0.6","0.2","0.8","","","","","0.3839977458","0.3659772031","0.2519769849","0.425451992","","","","","","","","76","L","3","","","23","main_expt"
"","bandit","103","485863","0.0-64.0-0.0","15958249","wem/bandit_either_2","AEI5USUUPBU2G","either","2","460","","","","","","","0","0","1","0.4699447661","","0.4","0.6","0.2","0.8","","","","","0.3338939571","0.3594327093","0.2447613107","0.4699447661","","","","","","","","76","L","3","","","24","main_expt"
"","bandit","104","487813","0.0-65.0-0.0","15958249","wem/bandit_either_2","AEI5USUUPBU2G","either","2","439","","","","","","","1","0","0","0.4484050393","","0.4","0.6","0.2","0.8","","","","","0.324486952","0.3719143394","0.2350413847","0.4484050393","","","","","","","","76","L","3","","","25","main_expt"
"","bandit","105","489880","0.0-66.0-0.0","15958249","wem/bandit_either_2","AEI5USUUPBU2G","either","2","556","","","","","","","0","0","1","0.4190234423","","0.4","0.6","0.2","0.8","","","","","0.3095710384","0.3690014044","0.207774486","0.4190234423","","","","","","","","76","L","3","","","26","main_expt"
"","bandit","106","491830","0.0-67.0-0.0","15958249","wem/bandit_either_2","AEI5USUUPBU2G","either","2","438","","","","","","","0","0","1","","0.4251478254","0.4","0.6","0.2","0.8","0.3355629191","0.3940030818","0.2164182795","0.4251478254","","","","","","","","","","","","76","L","3","","","27","main_expt"
"","bandit","107","493569","0.0-68.0-0.0","15958249","wem/bandit_either_2","AEI5USUUPBU2G","either","2","226","","","","","","","0","0","1","0.4111080327","","0.4","0.6","0.2","0.8","","","","","0.3668681485","0.4111080327","0.2164031865","0.4287328697","","","","","","","","74","J","1","","","28","main_expt"
"","bandit","108","495439","0.0-69.0-0.0","15958249","wem/bandit_either_2","AEI5USUUPBU2G","either","2","358","","","","","","","0","0","1","0.41290056","","0.4","0.6","0.2","0.8","","","","","0.343198694","0.41290056","0.2770000278","0.4106025245","","","","","","","","74","J","1","","","29","main_expt"
"","bandit","109","497461","0.0-70.0-0.0","15958249","wem/bandit_either_2","AEI5USUUPBU2G","either","2","510","","","","","","","0","0","1","0.326069126","","0.4","0.6","0.2","0.8","","","","","0.326069126","0.3937480262","0.2354797847","0.3942494676","","","","","","","","72","H","0","img/none_selected.jpg","","30","main_expt"
"","bandit","110","499343","0.0-71.0-0.0","15958249","wem/bandit_either_2","AEI5USUUPBU2G","either","2","369","","","","","","","0","0","1","","0.3390127419","0.4","0.6","0.2","0.8","0.3390127419","0.3997016236","0.2692030882","0.4285056211","","","","","","","","","","","","72","H","0","img/none_selected.jpg","","31","main_expt"
"","bandit","111","500965","0.0-72.0-0.0","15958249","wem/bandit_either_2","AEI5USUUPBU2G","either","2","111","","","","","","","0","0","1","","0.2471118655","0.4","0.6","0.2","0.8","0.3360649894","0.3574295763","0.2471118655","0.4249454459","","","","","","","","","","","","75","K","2","","","32","main_expt"
"","bandit","112","502910","0.0-73.0-0.0","15958249","wem/bandit_either_2","AEI5USUUPBU2G","either","2","432","","","","","","","0","0","1","","0.2879199001","0.4","0.6","0.2","0.8","0.3052602024","0.3877818659","0.2879199001","0.416417765","","","","","","","","","","","","75","K","2","","","33","main_expt"
"","bandit","113","504750","0.0-74.0-0.0","15958249","wem/bandit_either_2","AEI5USUUPBU2G","either","2","327","","","","","","","0","0","1","","0.3180115212","0.4","0.6","0.2","0.8","0.3594788954","0.3799496232","0.3180115212","0.4623714429","","","","","","","","","","","","75","K","2","","","34","main_expt"
"","bandit","114","506682","0.0-75.0-0.0","15958249","wem/bandit_either_2","AEI5USUUPBU2G","either","2","417","","","","","","","0","0","1","0.4591977302","","0.4","0.6","0.2","0.8","","","","","0.380235832","0.3577573403","0.2524306687","0.4591977302","","","","","","","","76","L","3","","","35","main_expt"
"","bandit","115","508429","0.0-76.0-0.0","15958249","wem/bandit_either_2","AEI5USUUPBU2G","either","2","235","","","","","","","0","0","1","0.4686235256","","0.4","0.6","0.2","0.8","","","","","0.3459989602","0.3895375856","0.2351869563","0.4686235256","","","","","","","","76","L","3","","","36","main_expt"
"","bandit","116","510495","0.0-77.0-0.0","15958249","wem/bandit_either_2","AEI5USUUPBU2G","either","2","553","","","","","","","0","0","1","0.4571547709","","0.4","0.6","0.2","0.8","","","","","0.3320905149","0.3783527007","0.2629170466","0.4571547709","","","","","","","","76","L","3","","","37","main_expt"
"","bandit","117","512412","0.0-78.0-0.0","15958249","wem/bandit_either_2","AEI5USUUPBU2G","either","2","403","","","","","","","1","0","0","0.284076782","","0.4","0.6","0.2","0.8","","","","","0.3471020919","0.284076782","0.3090194305","0.4688430709","","","","","","","","74","J","1","","","38","main_expt"
"","bandit","118","514623","0.0-79.0-0.0","15958249","wem/bandit_either_2","AEI5USUUPBU2G","either","2","699","","","","","","","0","0","1","","0.3388972186","0.4","0.6","0.2","0.8","0.3401763967","0.3388972186","0.2845371228","0.4612923778","","","","","","","","","","","","74","J","1","","","39","main_expt"
"","bandit","119","516566","0.0-80.0-0.0","15958249","wem/bandit_either_2","AEI5USUUPBU2G","either","2","428","","","","","","","0","0","1","","0.2663655232","0.4","0.6","0.2","0.8","0.3260487483","0.2663655232","0.3076259244","0.4576194683","","","","","","","","","","","","74","J","1","","","40","main_expt"
"","bandit","120","518336","0.0-81.0-0.0","15958249","wem/bandit_either_2","AEI5USUUPBU2G","either","2","256","","","","","","","0","0","1","0.2608266697","","0.4","0.6","0.2","0.8","","","","","0.3390218734","0.2608266697","0.2888769276","0.4473921051","","","","","","","","74","J","1","","","41","main_expt"
"","bandit","121","520335","0.0-82.0-0.0","15958249","wem/bandit_either_2","AEI5USUUPBU2G","either","2","484","","","","","","","0","0","1","","0.2889680017","0.4","0.6","0.2","0.8","0.2889680017","0.2287676803","0.2639198141","0.425470286","","","","","","","","","","","","72","H","0","img/none_selected.jpg","","42","main_expt"
"","bandit","122","522220","0.0-83.0-0.0","15958249","wem/bandit_either_2","AEI5USUUPBU2G","either","2","373","","","","","","","0","0","1","0.2784828801","","0.4","0.6","0.2","0.8","","","","","0.2784828801","0.2043112358","0.2255441472","0.4030522017","","","","","","","","72","H","0","img/none_selected.jpg","","43","main_expt"
"","bandit","123","523941","0.0-84.0-0.0","15958249","wem/bandit_either_2","AEI5USUUPBU2G","either","2","209","","","","","","","0","0","1","0.2805729819","","0.4","0.6","0.2","0.8","","","","","0.2805729819","0.1957049551","0.2050272072","0.4106315797","","","","","","","","72","H","0","img/none_selected.jpg","","44","main_expt"
"","bandit","124","525832","0.0-85.0-0.0","15958249","wem/bandit_either_2","AEI5USUUPBU2G","either","2","375","","","","","","","0","0","1","","0.239455925","0.4","0.6","0.2","0.8","0.2195119073","0.2207366272","0.239455925","0.4258527362","","","","","","","","","","","","75","K","2","","","45","main_expt"
"","bandit","125","527758","0.0-86.0-0.0","15958249","wem/bandit_either_2","AEI5USUUPBU2G","either","2","412","","","","","","","0","0","1","","0.2414778298","0.4","0.6","0.2","0.8","0.2657932304","0.1727988076","0.2414778298","0.4425966235","","","","","","","","","","","","75","K","2","","","46","main_expt"
"","bandit","126","529656","0.0-87.0-0.0","15958249","wem/bandit_either_2","AEI5USUUPBU2G","either","2","383","","","","","","","0","0","1","","0.1884211613","0.4","0.6","0.2","0.8","0.2678398397","0.1446735631","0.1884211613","0.4428977597","","","","","","","","","","","","75","K","2","","","47","main_expt"
"","bandit","127","531517","0.0-88.0-0.0","15958249","wem/bandit_either_2","AEI5USUUPBU2G","either","2","349","","","","","","","0","1","0","","0.4479964269","0.4","0.6","0.2","0.8","0.2866904938","0.1681765936","0.1755274282","0.4479964269","","","","","","","","","","","","76","L","3","","","48","main_expt"
"","bandit","128","533812","0.0-89.0-0.0","15958249","wem/bandit_either_2","AEI5USUUPBU2G","either","2","781","","","","","","","0","0","1","0.4660387519","","0.4","0.6","0.2","0.8","","","","","0.2803848884","0.1473883531","0.1646396384","0.4660387519","","","","","","","","76","L","3","","","49","main_expt"
"","bandit","129","535772","0.0-90.0-0.0","15958249","wem/bandit_either_2","AEI5USUUPBU2G","either","2","448","","","","","","","0","0","1","0.4345757832","","0.4","0.6","0.2","0.8","","","","","0.2587411269","0.1378170987","0.2024226619","0.4345757832","","","","","","","","76","L","3","","","50","main_expt"
"","bandit","130","537680","0.0-91.0-0.0","15958249","wem/bandit_either_2","AEI5USUUPBU2G","either","2","393","","","","","","","1","0","0","0.4450950844","","0.4","0.6","0.2","0.8","","","","","0.2212901065","0.1430360168","0.1976760068","0.4450950844","","","","","","","","76","L","3","","","51","main_expt"
"","bandit","131","539704","0.0-92.0-0.0","15958249","wem/bandit_either_2","AEI5USUUPBU2G","either","2","509","","","","","","","0","1","0","","0.4475354499","0.4","0.6","0.2","0.8","0.236006857","0.1731798725","0.1796352224","0.4475354499","","","","","","","","","","","","76","L","3","","","52","main_expt"
"","bandit","132","541677","0.0-93.0-0.0","15958249","wem/bandit_either_2","AEI5USUUPBU2G","either","2","454","","","","","","","0","1","0","","0.4627294295","0.4","0.6","0.2","0.8","0.2660825342","0.1312409056","0.2451732725","0.4627294295","","","","","","","","","","","","76","L","3","","","53","main_expt"
"","bandit","133","543669","0.0-94.0-0.0","15958249","wem/bandit_either_2","AEI5USUUPBU2G","either","2","476","","","","","","","0","1","0","","0.44829207","0.4","0.6","0.2","0.8","0.2458345041","0.1862053218","0.2621482643","0.44829207","","","","","","","","","","","","76","L","3","","","54","main_expt"
"","bandit","134","545598","0.0-95.0-0.0","15958249","wem/bandit_either_2","AEI5USUUPBU2G","either","2","414","","","","","","","0","1","0","","0.4505537928","0.4","0.6","0.2","0.8","0.2265690781","0.1733563037","0.2441780383","0.4505537928","","","","","","","","","","","","76","L","3","","","55","main_expt"
"","bandit","135","547479","0.0-96.0-0.0","15958249","wem/bandit_either_2","AEI5USUUPBU2G","either","2","365","","","","","","","0","0","1","0.4686400132","","0.4","0.6","0.2","0.8","","","","","0.2741820357","0.1728369204","0.199729785","0.4686400132","","","","","","","","76","L","3","","","56","main_expt"
"","bandit","136","549076","0.0-97.0-0.0","15958249","wem/bandit_either_2","AEI5USUUPBU2G","either","2","84","","","","","","","1","0","0","0.4572679106","","0.4","0.6","0.2","0.8","","","","","0.2937641054","0.09176359954","0.1945085845","0.4572679106","","","","","","","","76","L","3","","","57","main_expt"
"","bandit","137","551193","0.0-98.0-0.0","15958249","wem/bandit_either_2","AEI5USUUPBU2G","either","2","602","","","","","","","0","0","1","0.4300169527","","0.4","0.6","0.2","0.8","","","","","0.2949827607","0.04991422033","0.2614759052","0.4300169527","","","","","","","","76","L","3","","","58","main_expt"
"","bandit","138","553079","0.0-99.0-0.0","15958249","wem/bandit_either_2","AEI5USUUPBU2G","either","2","371","","","","","","","1","0","0","0.4050829606","","0.4","0.6","0.2","0.8","","","","","0.2710075273","0.053239915","0.2426118991","0.4050829606","","","","","","","","76","L","3","","","59","main_expt"
"","bandit","139","555030","0.0-100.0-0.0","15958249","wem/bandit_either_2","AEI5USUUPBU2G","either","2","435","","","","","","","0","0","1","0.4070720156","","0.4","0.6","0.2","0.8","","","","","0.2766623035","0.06994226662","0.2623750897","0.4070720156","","","","","","","","76","L","3","","","60","main_expt"
"","bandit","140","556902","0.0-101.0-0.0","15958249","wem/bandit_either_2","AEI5USUUPBU2G","either","2","358","","","","","","","0","0","1","0.3895400789","","0.4","0.6","0.2","0.8","","","","","0.2574592035","0.07064832373","0.2139103784","0.3895400789","","","","","","","","76","L","3","","","61","main_expt"
"","bandit","141","558668","0.0-102.0-0.0","15958249","wem/bandit_either_2","AEI5USUUPBU2G","either","2","251","","","","","","","0","0","1","0.4050708951","","0.4","0.6","0.2","0.8","","","","","0.2425209234","0.08925217872","0.2566580444","0.4050708951","","","","","","","","76","L","3","","","62","main_expt"
"","bandit","142","560581","0.0-103.0-0.0","15958249","wem/bandit_either_2","AEI5USUUPBU2G","either","2","399","","","","","","","0","0","1","","0.2393402704","0.4","0.6","0.2","0.8","0.2294211584","0.08505035955","0.2393402704","0.3765761212","","","","","","","","","","","","75","K","2","","","63","main_expt"
"","bandit","143","562535","0.0-104.0-0.0","15958249","wem/bandit_either_2","AEI5USUUPBU2G","either","2","438","","","","","","","0","0","1","","0.300105392","0.4","0.6","0.2","0.8","0.2350173232","0.09892528285","0.300105392","0.3859881554","","","","","","","","","","","","75","K","2","","","64","main_expt"
"","bandit","144","564534","0.0-105.0-0.0","15958249","wem/bandit_either_2","AEI5USUUPBU2G","either","2","484","","","","","","","1","0","0","0.2775473173","","0.4","0.6","0.2","0.8","","","","","0.2775473173","0.1428545766","0.2584268813","0.3817039273","","","","","","","","72","H","0","img/none_selected.jpg","","65","main_expt"
"","bandit","145","566674","0.0-106.0-0.0","15958249","wem/bandit_either_2","AEI5USUUPBU2G","either","2","629","","","","","","","0","0","1","0.298861572","","0.4","0.6","0.2","0.8","","","","","0.298861572","0.120440259","0.2536378703","0.3622232449","","","","","","","","72","H","0","img/none_selected.jpg","","66","main_expt"
"","bandit","146","568627","0.0-107.0-0.0","15958249","wem/bandit_either_2","AEI5USUUPBU2G","either","2","440","","","","","","","0","0","1","","0.3043747659","0.4","0.6","0.2","0.8","0.3043747659","0.2019700983","0.2548884231","0.3768721334","","","","","","","","","","","","72","H","0","img/none_selected.jpg","","67","main_expt"
"","bandit","147","570534","0.0-108.0-0.0","15958249","wem/bandit_either_2","AEI5USUUPBU2G","either","2","393","","","","","","","0","0","1","","0.2533072519","0.4","0.6","0.2","0.8","0.2533072519","0.1467862533","0.2105458193","0.3826604183","","","","","","","","","","","","72","H","0","img/none_selected.jpg","","68","main_expt"
"","bandit","148","572420","0.0-109.0-0.0","15958249","wem/bandit_either_2","AEI5USUUPBU2G","either","2","372","","","","","","","0","0","1","","0.2901666962","0.4","0.6","0.2","0.8","0.2451677402","0.09022805221","0.2901666962","0.3981811202","","","","","","","","","","","","75","K","2","","","69","main_expt"
"","bandit","149","574524","0.0-110.0-0.0","15958249","wem/bandit_either_2","AEI5USUUPBU2G","either","2","589","","","","","","","0","0","1","0.1128827508","","0.4","0.6","0.2","0.8","","","","","0.2403061491","0.1128827508","0.2973761433","0.3936557204","","","","","","","","74","J","1","","","70","main_expt"
"","bandit","150","576420","0.0-111.0-0.0","15958249","wem/bandit_either_2","AEI5USUUPBU2G","either","2","383","","","","","","","0","0","1","0.1184182172","","0.4","0.6","0.2","0.8","","","","","0.1917576795","0.1184182172","0.2737706179","0.3949471057","","","","","","","","74","J","1","","","71","main_expt"
"","bandit","151","578292","0.0-112.0-0.0","15958249","wem/bandit_either_2","AEI5USUUPBU2G","either","2","357","","","","","","","0","0","1","0.3888869603","","0.4","0.6","0.2","0.8","","","","","0.1894079546","0.1038133506","0.3005227265","0.3888869603","","","","","","","","76","L","3","","","72","main_expt"
"","bandit","152","580252","0.0-113.0-0.0","15958249","wem/bandit_either_2","AEI5USUUPBU2G","either","2","445","","","","","","","1","0","0","0.4015056825","","0.4","0.6","0.2","0.8","","","","","0.235909594","0.07830871569","0.3205676235","0.4015056825","","","","","","","","76","L","3","","","73","main_expt"
"","bandit","153","582445","0.0-114.0-0.0","15958249","wem/bandit_either_2","AEI5USUUPBU2G","either","2","677","","","","","","","0","0","1","","0.4200542591","0.4","0.6","0.2","0.8","0.2772030277","0.09226686474","0.3040473008","0.4200542591","","","","","","","","","","","","76","L","3","","","74","main_expt"
"","bandit","154","584327","0.0-115.0-0.0","15958249","wem/bandit_either_2","AEI5USUUPBU2G","either","2","365","","","","","","","0","0","1","0.4353174817","","0.4","0.6","0.2","0.8","","","","","0.2237268092","0.07948082514","0.2686744794","0.4353174817","","","","","","","","76","L","3","","","75","main_expt"
"","bandit","155","586205","0.0-116.0-0.0","15958249","wem/bandit_either_2","AEI5USUUPBU2G","either","2","363","","","","","","","0","1","0","","0.258707356","0.4","0.6","0.2","0.8","0.1739375455","0.1279570505","0.258707356","0.4196821318","","","","","","","","","","","","75","K","2","","","76","main_expt"
"","bandit","156","588288","0.0-117.0-0.0","15958249","wem/bandit_either_2","AEI5USUUPBU2G","either","2","568","","","","","","","0","0","1","0.3010070056","","0.4","0.6","0.2","0.8","","","","","0.1648796623","0.1202820049","0.3010070056","0.3787369199","","","","","","","","75","K","2","","","77","main_expt"
"","bandit","157","590170","0.0-118.0-0.0","15958249","wem/bandit_either_2","AEI5USUUPBU2G","either","2","368","","","","","","","0","0","1","","0.2648586626","0.4","0.6","0.2","0.8","0.1637798684","0.1054071572","0.2648586626","0.4314930014","","","","","","","","","","","","75","K","2","","","78","main_expt"
"","bandit","158","591883","0.0-119.0-0.0","15958249","wem/bandit_either_2","AEI5USUUPBU2G","either","2","200","","","","","","","0","1","0","","0.1984114041","0.4","0.6","0.2","0.8","0.1490076182","0.1403095361","0.1984114041","0.4155078174","","","","","","","","","","","","75","K","2","","","79","main_expt"
"","bandit","159","594084","0.0-120.0-0.0","15958249","wem/bandit_either_2","AEI5USUUPBU2G","either","2","684","","","","","","","0","0","1","","0.180325551","0.4","0.6","0.2","0.8","0.1093198388","0.1891235553","0.180325551","0.4226243671","","","","","","","","","","","","75","K","2","","","80","main_expt"
"","bandit","160","595943","0.0-121.0-0.0","15958249","wem/bandit_either_2","AEI5USUUPBU2G","either","2","343","","","","","","","0","1","0","","0.224531153","0.4","0.6","0.2","0.8","0.08868186825","0.1858030354","0.224531153","0.4474166549","","","","","","","","","","","","75","K","2","","","81","main_expt"
"","bandit","161","598021","0.0-122.0-0.0","15958249","wem/bandit_either_2","AEI5USUUPBU2G","either","2","563","","","","","","","1","0","0","0.221125015","","0.4","0.6","0.2","0.8","","","","","0.1073880826","0.2476542501","0.221125015","0.4636297045","","","","","","","","75","K","2","","","82","main_expt"
"","bandit","162","599965","0.0-123.0-0.0","15958249","wem/bandit_either_2","AEI5USUUPBU2G","either","2","427","","","","","","","0","0","1","","0.2143237207","0.4","0.6","0.2","0.8","0.1022587498","0.2188241074","0.2143237207","0.467509749","","","","","","","","","","","","75","K","2","","","83","main_expt"
"","bandit","163","601860","0.0-124.0-0.0","15958249","wem/bandit_either_2","AEI5USUUPBU2G","either","2","381","","","","","","","0","0","1","","0.2097367537","0.4","0.6","0.2","0.8","0.1085807699","0.2754771977","0.2097367537","0.4551111531","","","","","","","","","","","","75","K","2","","","84","main_expt"
"","bandit","164","603746","0.0-125.0-0.0","15958249","wem/bandit_either_2","AEI5USUUPBU2G","either","2","372","","","","","","","0","1","0","","0.1661536269","0.4","0.6","0.2","0.8","0.1263918358","0.2965575968","0.1661536269","0.4621419017","","","","","","","","","","","","75","K","2","","","85","main_expt"
"","bandit","165","605947","0.0-126.0-0.0","15958249","wem/bandit_either_2","AEI5USUUPBU2G","either","2","688","","","","","","","0","0","1","","0.1364458955","0.4","0.6","0.2","0.8","0.1481941301","0.257129161","0.1364458955","0.4612050897","","","","","","","","","","","","75","K","2","","","86","main_expt"
"","bandit","166","607859","0.0-127.0-0.0","15958249","wem/bandit_either_2","AEI5USUUPBU2G","either","2","397","","","","","","","0","0","1","","0.08235553135","0.4","0.6","0.2","0.8","0.1447872846","0.2338967043","0.08235553135","0.4334675206","","","","","","","","","","","","75","K","2","","","87","main_expt"
"","bandit","167","609933","0.0-128.0-0.0","15958249","wem/bandit_either_2","AEI5USUUPBU2G","either","2","558","","","","","","","0","0","1","","0.0754832669","0.4","0.6","0.2","0.8","0.1391637727","0.2161535794","0.0754832669","0.4397617206","","","","","","","","","","","","75","K","2","","","88","main_expt"
"","bandit","168","612111","0.0-129.0-0.0","15958249","wem/bandit_either_2","AEI5USUUPBU2G","either","2","657","","","","","","","0","0","1","","0.109361408","0.4","0.6","0.2","0.8","0.1476089376","0.2043146745","0.109361408","0.4635478967","","","","","","","","","","","","75","K","2","","","89","main_expt"
"","bandit","169","614098","0.0-130.0-0.0","15958249","wem/bandit_either_2","AEI5USUUPBU2G","either","2","473","","","","","","","0","0","1","","0.2081489191","0.4","0.6","0.2","0.8","0.2081489191","0.2346009907","0.07391079866","0.4234969579","","","","","","","","","","","","72","H","0","img/none_selected.jpg","","90","main_expt"
"","bandit","170","616045","0.0-131.0-0.0","15958249","wem/bandit_either_2","AEI5USUUPBU2G","either","2","435","","","","","","","0","0","1","","0.1834039029","0.4","0.6","0.2","0.8","0.1834039029","0.2333967219","0.1164594673","0.4267507071","","","","","","","","","","","","72","H","0","img/none_selected.jpg","","91","main_expt"
"","bandit","171","618114","0.0-132.0-0.0","15958249","wem/bandit_either_2","AEI5USUUPBU2G","either","2","555","","","","","","","1","0","0","0.2027314649","","0.4","0.6","0.2","0.8","","","","","0.2027314649","0.2150480475","0.113043345","0.4089505196","","","","","","","","72","H","0","img/none_selected.jpg","","92","main_expt"
"","bandit","172","620238","0.0-133.0-0.0","15958249","wem/bandit_either_2","AEI5USUUPBU2G","either","2","606","","","","","","","1","0","0","0.1738894496","","0.4","0.6","0.2","0.8","","","","","0.1738894496","0.2588080464","0.1714352716","0.4112501448","","","","","","","","72","H","0","img/none_selected.jpg","","93","main_expt"
"","bandit","173","622419","0.0-134.0-0.0","15958249","wem/bandit_either_2","AEI5USUUPBU2G","either","2","667","","","","","","","0","0","1","0.2484708832","","0.4","0.6","0.2","0.8","","","","","0.2484708832","0.2748849181","0.1253024032","0.452415855","","","","","","","","72","H","0","img/none_selected.jpg","","94","main_expt"
"","bandit","174","624341","0.0-135.0-0.0","15958249","wem/bandit_either_2","AEI5USUUPBU2G","either","2","405","","","","","","","0","0","1","","0.2914685715","0.4","0.6","0.2","0.8","0.2914685715","0.2791739054","0.1401284447","0.4589197587","","","","","","","","","","","","72","H","0","img/none_selected.jpg","","95","main_expt"
"","bandit","175","626366","0.0-136.0-0.0","15958249","wem/bandit_either_2","AEI5USUUPBU2G","either","2","508","","","","","","","0","0","1","0.2417524935","","0.4","0.6","0.2","0.8","","","","","0.2417524935","0.3149564315","0.1320491369","0.4481870348","","","","","","","","72","H","0","img/none_selected.jpg","","96","main_expt"
"","bandit","176","628328","0.0-137.0-0.0","15958249","wem/bandit_either_2","AEI5USUUPBU2G","either","2","445","","","","","","","0","1","0","","0.2492821404","0.4","0.6","0.2","0.8","0.2492821404","0.372564007","0.1518453759","0.4597072186","","","","","","","","","","","","72","H","0","img/none_selected.jpg","","97","main_expt"
"","bandit","177","630244","0.0-138.0-0.0","15958249","wem/bandit_either_2","AEI5USUUPBU2G","either","2","400","","","","","","","0","0","1","0.3002958449","","0.4","0.6","0.2","0.8","","","","","0.3002958449","0.393328365","0.2173959583","0.4705619112","","","","","","","","72","H","0","img/none_selected.jpg","","98","main_expt"
"","bandit","178","631963","0.0-139.0-0.0","15958249","wem/bandit_either_2","AEI5USUUPBU2G","either","2","204","","","","","","","0","0","1","0.3544832656","","0.4","0.6","0.2","0.8","","","","","0.3544832656","0.421239771","0.2618725657","0.4800968761","","","","","","","","72","H","0","img/none_selected.jpg","","99","main_expt"
"","bandit","179","633836","0.0-140.0-0.0","15958249","wem/bandit_either_2","AEI5USUUPBU2G","either","2","355","","","","","","","0","0","1","","0.3810954338","0.4","0.6","0.2","0.8","0.3810954338","0.4130759476","0.2487788848","0.4780143146","","","","","","","","","","","","72","H","0","img/none_selected.jpg","","100","main_expt"
"","bandit","180","635764","0.0-141.0-0.0","15958249","wem/bandit_either_2","AEI5USUUPBU2G","either","2","413","","","","","","","0","0","1","","0.4089462913","0.4","0.6","0.2","0.8","0.4042362267","0.4089462913","0.2890792313","0.4849002763","","","","","","","","","","","","74","J","1","","","101","main_expt"
"","bandit","181","637685","0.0-142.0-0.0","15958249","wem/bandit_either_2","AEI5USUUPBU2G","either","2","406","","","","","","","0","1","0","","0.370330464","0.4","0.6","0.2","0.8","0.4594696392","0.370330464","0.3136369757","0.4886078379","","","","","","","","","","","","74","J","1","","","102","main_expt"
"","bandit","182","639660","0.0-143.0-0.0","15958249","wem/bandit_either_2","AEI5USUUPBU2G","either","2","459","","","","","","","0","0","1","","0.3306315663","0.4","0.6","0.2","0.8","0.4588766667","0.3306315663","0.2364671533","0.47121906","","","","","","","","","","","","74","J","1","","","103","main_expt"
"","bandit","183","641570","0.0-144.0-0.0","15958249","wem/bandit_either_2","AEI5USUUPBU2G","either","2","394","","","","","","","0","0","1","0.354634178","","0.4","0.6","0.2","0.8","","","","","0.4372785745","0.354634178","0.2202486688","0.4760763377","","","","","","","","74","J","1","","","104","main_expt"
"","bandit","184","643483","0.0-145.0-0.0","15958249","wem/bandit_either_2","AEI5USUUPBU2G","either","2","398","","","","","","","0","0","1","0.3896605338","","0.4","0.6","0.2","0.8","","","","","0.4063887309","0.3896605338","0.1854418088","0.4701389446","","","","","","","","74","J","1","","","105","main_expt"
"","bandit","185","645683","0.0-146.0-0.0","15958249","wem/bandit_either_2","AEI5USUUPBU2G","either","2","683","","","","","","","1","0","0","0.471324938","","0.4","0.6","0.2","0.8","","","","","0.3778019321","0.414339711","0.1596754559","0.471324938","","","","","","","","76","L","3","","","106","main_expt"
"","bandit","186","647827","0.0-147.0-0.0","15958249","wem/bandit_either_2","AEI5USUUPBU2G","either","2","628","","","","","","","0","0","1","","0.4786694594","0.4","0.6","0.2","0.8","0.3614143111","0.4164239898","0.137099288","0.4786694594","","","","","","","","","","","","76","L","3","","","107","main_expt"
"","bandit","187","649932","0.0-148.0-0.0","15958249","wem/bandit_either_2","AEI5USUUPBU2G","either","2","587","","","","","","","1","0","0","0.4810065258","","0.4","0.6","0.2","0.8","","","","","0.3681250399","0.3836571442","0.1443984823","0.4810065258","","","","","","","","76","L","3","","","108","main_expt"
"","bandit","188","652020","0.0-149.0-0.0","15958249","wem/bandit_either_2","AEI5USUUPBU2G","either","2","571","","","","","","","1","0","0","0.4816764674","","0.4","0.6","0.2","0.8","","","","","0.3446081275","0.3881214568","0.1409511773","0.4816764674","","","","","","","","76","L","3","","","109","main_expt"
"","bandit","189","654066","0.0-150.0-0.0","15958249","wem/bandit_either_2","AEI5USUUPBU2G","either","2","531","","","","","","","0","0","1","0.4882082215","","0.4","0.6","0.2","0.8","","","","","0.3681270965","0.4266873791","0.1787750665","0.4882082215","","","","","","","","76","L","3","","","110","main_expt"
"","bandit","190","656018","0.0-151.0-0.0","15958249","wem/bandit_either_2","AEI5USUUPBU2G","either","2","437","","","","","","","0","0","1","0.478642168","","0.4","0.6","0.2","0.8","","","","","0.391379093","0.4475699482","0.1862786225","0.478642168","","","","","","","","76","L","3","","","111","main_expt"
"","bandit","191","658060","0.0-152.0-0.0","15958249","wem/bandit_either_2","AEI5USUUPBU2G","either","2","528","","","","","","","0","0","1","0.4841415165","","0.4","0.6","0.2","0.8","","","","","0.4131544452","0.4190314983","0.1654620982","0.4841415165","","","","","","","","76","L","3","","","112","main_expt"
"","bandit","192","660135","0.0-153.0-0.0","15958249","wem/bandit_either_2","AEI5USUUPBU2G","either","2","564","","","","","","","0","0","1","","0.4883212127","0.4","0.6","0.2","0.8","0.3963985948","0.3666128881","0.1582981878","0.4883212127","","","","","","","","","","","","76","L","3","","","113","main_expt"
"","bandit","193","662107","0.0-154.0-0.0","15958249","wem/bandit_either_2","AEI5USUUPBU2G","either","2","454","","","","","","","1","0","0","0.4883790739","","0.4","0.6","0.2","0.8","","","","","0.4117985871","0.3866259854","0.1922757069","0.4883790739","","","","","","","","76","L","3","","","114","main_expt"
"","bandit","194","664348","0.0-155.0-0.0","15958249","wem/bandit_either_2","AEI5USUUPBU2G","either","2","722","","","","","","","0","0","1","0.4902011966","","0.4","0.6","0.2","0.8","","","","","0.394381103","0.354161152","0.185618385","0.4902011966","","","","","","","","76","L","3","","","115","main_expt"
"","bandit","195","666377","0.0-156.0-0.0","15958249","wem/bandit_either_2","AEI5USUUPBU2G","either","2","515","","","","","","","0","1","0","","0.4844723045","0.4","0.6","0.2","0.8","0.3762408663","0.3170745426","0.2057277395","0.4844723045","","","","","","","","","","","","76","L","3","","","116","main_expt"
"","bandit","196","668515","0.0-157.0-0.0","15958249","wem/bandit_either_2","AEI5USUUPBU2G","either","2","623","","","","","","","0","0","1","0.4895589844","","0.4","0.6","0.2","0.8","","","","","0.3823674378","0.304536318","0.2288411079","0.4895589844","","","","","","","","76","L","3","","","117","main_expt"
"","bandit","197","670442","0.0-158.0-0.0","15958249","wem/bandit_either_2","AEI5USUUPBU2G","either","2","410","","","","","","","0","0","1","0.4899729034","","0.4","0.6","0.2","0.8","","","","","0.4050195855","0.3411026949","0.2207517482","0.4899729034","","","","","","","","76","L","3","","","118","main_expt"
"","bandit","198","672362","0.0-159.0-0.0","15958249","wem/bandit_either_2","AEI5USUUPBU2G","either","2","402","","","","","","","1","0","0","0.4947041593","","0.4","0.6","0.2","0.8","","","","","0.4227562767","0.3447942488","0.1955286499","0.4947041593","","","","","","","","76","L","3","","","119","main_expt"
"","bandit","199","674443","0.0-160.0-0.0","15958249","wem/bandit_either_2","AEI5USUUPBU2G","either","2","563","","","","","","","0","0","1","0.4916865355","","0.4","0.6","0.2","0.8","","","","","0.4163810796","0.3686185352","0.2427950695","0.4916865355","","","","","","","","76","L","3","","","120","main_expt"
"","bandit","200","676364","0.0-161.0-0.0","15958249","wem/bandit_either_2","AEI5USUUPBU2G","either","2","402","","","","","","","0","0","1","","0.4860386064","0.4","0.6","0.2","0.8","0.406821829","0.3547669752","0.2479682904","0.4860386064","","","","","","","","","","","","76","L","3","","","121","main_expt"
"","bandit","201","678275","0.0-162.0-0.0","15958249","wem/bandit_either_2","AEI5USUUPBU2G","either","2","393","","","","","","","0","1","0","","0.483083859","0.4","0.6","0.2","0.8","0.3999449125","0.365994073","0.3081985406","0.483083859","","","","","","","","","","","","76","L","3","","","122","main_expt"
"","bandit","202","680324","0.0-163.0-0.0","15958249","wem/bandit_either_2","AEI5USUUPBU2G","either","2","530","","","","","","","1","0","0","0.4791491275","","0.4","0.6","0.2","0.8","","","","","0.366626489","0.3120596142","0.3089359708","0.4791491275","","","","","","","","76","L","3","","","123","main_expt"
"","bandit","203","682370","0.0-164.0-0.0","15958249","wem/bandit_either_2","AEI5USUUPBU2G","either","2","528","","","","","","","1","0","0","0.4776777384","","0.4","0.6","0.2","0.8","","","","","0.3706278578","0.302161917","0.3298338218","0.4776777384","","","","","","","","76","L","3","","","124","main_expt"
"","bandit","204","684342","0.0-165.0-0.0","15958249","wem/bandit_either_2","AEI5USUUPBU2G","either","2","455","","","","","","","1","0","0","0.478983255","","0.4","0.6","0.2","0.8","","","","","0.3545504723","0.2794370347","0.2795250441","0.478983255","","","","","","","","76","L","3","","","125","main_expt"
"","bandit","205","686417","0.0-166.0-0.0","15958249","wem/bandit_either_2","AEI5USUUPBU2G","either","2","559","","","","","","","1","0","0","0.4724726719","","0.4","0.6","0.2","0.8","","","","","0.3106298006","0.2466154908","0.2184127205","0.4724726719","","","","","","","","76","L","3","","","126","main_expt"
"","bandit","206","688720","0.0-167.0-0.0","15958249","wem/bandit_either_2","AEI5USUUPBU2G","either","2","789","","","","","","","0","0","1","0.4796244369","","0.4","0.6","0.2","0.8","","","","","0.3351405197","0.2712823261","0.2488858907","0.4796244369","","","","","","","","76","L","3","","","127","main_expt"
"","bandit","207","690667","0.0-168.0-0.0","15958249","wem/bandit_either_2","AEI5USUUPBU2G","either","2","432","","","","","","","1","0","0","0.4825212971","","0.4","0.6","0.2","0.8","","","","","0.2984422464","0.2095517986","0.2850827173","0.4825212971","","","","","","","","76","L","3","","","128","main_expt"
"","bandit","208","692682","0.0-169.0-0.0","15958249","wem/bandit_either_2","AEI5USUUPBU2G","either","2","500","","","","","","","0","0","1","0.4877535013","","0.4","0.6","0.2","0.8","","","","","0.2027892291","0.1986866195","0.2867242009","0.4877535013","","","","","","","","76","L","3","","","129","main_expt"
"","bandit","209","694570","0.0-170.0-0.0","15958249","wem/bandit_either_2","AEI5USUUPBU2G","either","2","372","","","","","","","1","0","0","0.4833646461","","0.4","0.6","0.2","0.8","","","","","0.13768179","0.172959111","0.2509552002","0.4833646461","","","","","","","","76","L","3","","","130","main_expt"
"","bandit","210","696548","0.0-171.0-0.0","15958249","wem/bandit_either_2","AEI5USUUPBU2G","either","2","460","","","","","","","0","0","1","0.4790990265","","0.4","0.6","0.2","0.8","","","","","0.1352832961","0.163172462","0.2172434631","0.4790990265","","","","","","","","76","L","3","","","131","main_expt"
"","bandit","211","698503","0.0-172.0-0.0","15958249","wem/bandit_either_2","AEI5USUUPBU2G","either","2","437","","","","","","","0","0","1","0.4882311922","","0.4","0.6","0.2","0.8","","","","","0.08660982753","0.161148659","0.158295755","0.4882311922","","","","","","","","76","L","3","","","132","main_expt"
"","bandit","212","700474","0.0-173.0-0.0","15958249","wem/bandit_either_2","AEI5USUUPBU2G","either","2","455","","","","","","","0","0","1","0.4889625365","","0.4","0.6","0.2","0.8","","","","","0.1020907376","0.1735641072","0.185310911","0.4889625365","","","","","","","","76","L","3","","","133","main_expt"
"","bandit","213","702615","0.0-174.0-0.0","15958249","wem/bandit_either_2","AEI5USUUPBU2G","either","2","625","","","","","","","1","0","0","0.4916783795","","0.4","0.6","0.2","0.8","","","","","0.1231499397","0.1597390633","0.1966535246","0.4916783795","","","","","","","","76","L","3","","","134","main_expt"
"","bandit","214","704539","0.0-175.0-0.0","15958249","wem/bandit_either_2","AEI5USUUPBU2G","either","2","404","","","","","","","1","0","0","0.4904315354","","0.4","0.6","0.2","0.8","","","","","0.1524236556","0.1460070414","0.2290191974","0.4904315354","","","","","","","","76","L","3","","","135","main_expt"
"","bandit","215","706482","0.0-176.0-0.0","15958249","wem/bandit_either_2","AEI5USUUPBU2G","either","2","426","","","","","","","1","0","0","0.491666595","","0.4","0.6","0.2","0.8","","","","","0.1954247664","0.105474526","0.2929229053","0.491666595","","","","","","","","76","L","3","","","136","main_expt"
"","bandit","216","708483","0.0-177.0-0.0","15958249","wem/bandit_either_2","AEI5USUUPBU2G","either","2","483","","","","","","","1","0","0","0.4917142499","","0.4","0.6","0.2","0.8","","","","","0.1833989084","0.08835118593","0.2780805385","0.4917142499","","","","","","","","76","L","3","","","137","main_expt"
"","bandit","217","710491","0.0-178.0-0.0","15958249","wem/bandit_either_2","AEI5USUUPBU2G","either","2","489","","","","","","","1","0","0","0.4870170403","","0.4","0.6","0.2","0.8","","","","","0.1490533902","0.06418360449","0.217224157","0.4870170403","","","","","","","","76","L","3","","","138","main_expt"
"","bandit","218","712498","0.0-179.0-0.0","15958249","wem/bandit_either_2","AEI5USUUPBU2G","either","2","490","","","","","","","1","0","0","0.4834992155","","0.4","0.6","0.2","0.8","","","","","0.1318817547","0.03554325754","0.2323391466","0.4834992155","","","","","","","","76","L","3","","","139","main_expt"
"","bandit","219","714545","0.0-180.0-0.0","15958249","wem/bandit_either_2","AEI5USUUPBU2G","either","2","533","","","","","","","1","0","0","0.4927392517","","0.4","0.6","0.2","0.8","","","","","0.1877412345","0.04477370895","0.244475209","0.4927392517","","","","","","","","76","L","3","","","140","main_expt"
"","bandit","220","716675","0.0-181.0-0.0","15958249","wem/bandit_either_2","AEI5USUUPBU2G","either","2","611","","","","","","","0","0","1","0.4872377518","","0.4","0.6","0.2","0.8","","","","","0.2363671377","0.03780119019","0.232604034","0.4872377518","","","","","","","","76","L","3","","","141","main_expt"
"","bandit","221","718691","0.0-182.0-0.0","15958249","wem/bandit_either_2","AEI5USUUPBU2G","either","2","499","","","","","","","0","0","1","0.4846254936","","0.4","0.6","0.2","0.8","","","","","0.2546402356","0.03149913875","0.2447345556","0.4846254936","","","","","","","","76","L","3","","","142","main_expt"
"","bandit","222","720593","0.0-183.0-0.0","15958249","wem/bandit_either_2","AEI5USUUPBU2G","either","2","385","","","","","","","1","0","0","0.4815328815","","0.4","0.6","0.2","0.8","","","","","0.2825544685","0.04191513266","0.26413271","0.4815328815","","","","","","","","76","L","3","","","143","main_expt"
"","bandit","223","722586","0.0-184.0-0.0","15958249","wem/bandit_either_2","AEI5USUUPBU2G","either","2","475","","","","","","","0","0","1","0.4854048375","","0.4","0.6","0.2","0.8","","","","","0.2731230023","0.05613120157","0.1988203511","0.4854048375","","","","","","","","76","L","3","","","144","main_expt"
"","bandit","224","724779","0.0-185.0-0.0","15958249","wem/bandit_either_2","AEI5USUUPBU2G","either","2","678","","","","","","","0","0","1","0.4813029389","","0.4","0.6","0.2","0.8","","","","","0.2943814715","0.03827589539","0.217822638","0.4813029389","","","","","","","","76","L","3","","","145","main_expt"
"","bandit","225","726794","0.0-186.0-0.0","15958249","wem/bandit_either_2","AEI5USUUPBU2G","either","2","499","","","","","","","0","0","1","0.4884824202","","0.4","0.6","0.2","0.8","","","","","0.328634005","0.02861175853","0.2009042904","0.4884824202","","","","","","","","76","L","3","","","146","main_expt"
"","bandit","226","728713","0.0-187.0-0.0","15958249","wem/bandit_either_2","AEI5USUUPBU2G","either","2","403","","","","","","","1","0","0","0.4835291327","","0.4","0.6","0.2","0.8","","","","","0.3511209141","0.02140640811","0.2080446297","0.4835291327","","","","","","","","76","L","3","","","147","main_expt"
"","bandit","227","730674","0.0-188.0-0.0","15958249","wem/bandit_either_2","AEI5USUUPBU2G","either","2","441","","","","","","","0","0","1","0.4716003481","","0.4","0.6","0.2","0.8","","","","","0.3874996206","0.0202041473","0.1536700415","0.4716003481","","","","","","","","76","L","3","","","148","main_expt"
"","bandit","228","732353","0.0-189.0-0.0","15958249","wem/bandit_either_2","AEI5USUUPBU2G","either","2","161","","","","","","","1","0","0","0.4341886607","","0.4","0.6","0.2","0.8","","","","","0.3476646045","0.01154190459","0.1593661633","0.4341886607","","","","","","","","76","L","3","","","149","main_expt"
"","bandit","229","734244","0.0-190.0-0.0","15958249","wem/bandit_either_2","AEI5USUUPBU2G","either","2","375","","","","","","","0","0","1","0.4014438172","","0.4","0.6","0.2","0.8","","","","","0.3323010919","0.01291237021","0.144955896","0.4014438172","","","","","","","","76","L","3","","","150","main_expt"
"","bandit","230","736195","0.0-191.0-0.0","15958249","wem/bandit_either_2","AEI5USUUPBU2G","either","2","434","","","","","","","0","1","0","","0.3980713407","0.4","0.6","0.2","0.8","0.3954477196","0.0137789916","0.2123564028","0.3980713407","","","","","","","","","","","","76","L","3","","","151","main_expt"
"","bandit","231","738449","0.0-192.0-0.0","15958249","wem/bandit_either_2","AEI5USUUPBU2G","either","2","737","","","","","","","0","0","1","0.4002357887","","0.4","0.6","0.2","0.8","","","","","0.4186327087","0.01985271471","0.2301890466","0.4002357887","","","","","","","","76","L","3","","","152","main_expt"
"","bandit","232","740417","0.0-193.0-0.0","15958249","wem/bandit_either_2","AEI5USUUPBU2G","either","2","451","","","","","","","0","0","1","0.388677987","","0.4","0.6","0.2","0.8","","","","","0.4029566754","0.02951100453","0.2295153641","0.388677987","","","","","","","","76","L","3","","","153","main_expt"
"","bandit","233","742386","0.0-194.0-0.0","15958249","wem/bandit_either_2","AEI5USUUPBU2G","either","2","451","","","","","","","0","0","1","0.3817747688","","0.4","0.6","0.2","0.8","","","","","0.4037751878","0.02325572033","0.2163321136","0.3817747688","","","","","","","","76","L","3","","","154","main_expt"
"","bandit","234","744291","0.0-195.0-0.0","15958249","wem/bandit_either_2","AEI5USUUPBU2G","either","2","386","","","","","","","0","0","1","0.327727533","","0.4","0.6","0.2","0.8","","","","","0.4078727314","0.03925092562","0.2257858177","0.327727533","","","","","","","","76","L","3","","","155","main_expt"
"","bandit","235","746179","0.0-196.0-0.0","15958249","wem/bandit_either_2","AEI5USUUPBU2G","either","2","369","","","","","","","0","0","1","0.2821504166","","0.4","0.6","0.2","0.8","","","","","0.3941681487","0.05532081832","0.2077891775","0.2821504166","","","","","","","","76","L","3","","","156","main_expt"
"","bandit","236","748043","0.0-197.0-0.0","15958249","wem/bandit_either_2","AEI5USUUPBU2G","either","2","345","","","","","","","0","1","0","","0.1742908387","0.4","0.6","0.2","0.8","0.3417147062","0.05983660039","0.1742908387","0.2784527126","","","","","","","","","","","","75","K","2","","","157","main_expt"
"","bandit","237","749985","0.0-198.0-0.0","15958249","wem/bandit_either_2","AEI5USUUPBU2G","either","2","425","","","","","","","0","0","1","0.162057643","","0.4","0.6","0.2","0.8","","","","","0.2963220618","0.09347744845","0.162057643","0.2857058734","","","","","","","","75","K","2","","","158","main_expt"
"","bandit","238","751938","0.0-199.0-0.0","15958249","wem/bandit_either_2","AEI5USUUPBU2G","either","2","437","","","","","","","0","0","1","","0.1805514511","0.4","0.6","0.2","0.8","0.2961528309","0.09649648717","0.1805514511","0.2349295223","","","","","","","","","","","","75","K","2","","","159","main_expt"
"","bandit","239","753808","0.0-200.0-0.0","15958249","wem/bandit_either_2","AEI5USUUPBU2G","either","2","356","","","","","","","0","0","1","","0.1724629995","0.4","0.6","0.2","0.8","0.2842772575","0.08382429791","0.1724629995","0.2275717407","","","","","","","","","","","","75","K","2","","","160","main_expt"
"","bandit","240","755867","0.0-201.0-0.0","15958249","wem/bandit_either_2","AEI5USUUPBU2G","either","2","541","","","","","","","0","0","1","","0.1660992999","0.4","0.6","0.2","0.8","0.2747674873","0.1466352983","0.1660992999","0.2559884592","","","","","","","","","","","","75","K","2","","","161","main_expt"
"","bandit","241","757769","0.0-202.0-0.0","15958249","wem/bandit_either_2","AEI5USUUPBU2G","either","2","386","","","","","","","0","1","0","","0.2281832109","0.4","0.6","0.2","0.8","0.2993190406","0.1569467617","0.2281832109","0.2670526618","","","","","","","","","","","","75","K","2","","","162","main_expt"
"","bandit","242","759714","0.0-203.0-0.0","15958249","wem/bandit_either_2","AEI5USUUPBU2G","either","2","428","","","","","","","0","0","1","","0.2144285545","0.4","0.6","0.2","0.8","0.3102408377","0.1437935099","0.2144285545","0.2618894379","","","","","","","","","","","","75","K","2","","","163","main_expt"
"","bandit","243","761576","0.0-204.0-0.0","15958249","wem/bandit_either_2","AEI5USUUPBU2G","either","2","347","","","","","","","0","0","1","0.2131293933","","0.4","0.6","0.2","0.8","","","","","0.2607878409","0.1503677763","0.2131293933","0.2977476978","","","","","","","","75","K","2","","","164","main_expt"
"","bandit","244","763489","0.0-205.0-0.0","15958249","wem/bandit_either_2","AEI5USUUPBU2G","either","2","394","","","","","","","0","0","1","0.1574825995","","0.4","0.6","0.2","0.8","","","","","0.2470054868","0.1574825995","0.251698227","0.3138636066","","","","","","","","74","J","1","","","165","main_expt"
"","bandit","245","765449","0.0-206.0-0.0","15958249","wem/bandit_either_2","AEI5USUUPBU2G","either","2","443","","","","","","","1","0","0","0.1500633275","","0.4","0.6","0.2","0.8","","","","","0.2629624785","0.1500633275","0.2831539445","0.3204338644","","","","","","","","74","J","1","","","166","main_expt"
"","bandit","246","767456","0.0-207.0-0.0","15958249","wem/bandit_either_2","AEI5USUUPBU2G","either","2","489","","","","","","","0","0","1","","0.1137242654","0.4","0.6","0.2","0.8","0.2745713682","0.1137242654","0.2496169508","0.3600517585","","","","","","","","","","","","74","J","1","","","167","main_expt"
"","bandit","247","769429","0.0-208.0-0.0","15958249","wem/bandit_either_2","AEI5USUUPBU2G","either","2","456","","","","","","","0","0","1","0.145192941","","0.4","0.6","0.2","0.8","","","","","0.2557249153","0.145192941","0.2315540067","0.3678373827","","","","","","","","74","J","1","","","168","main_expt"
"","bandit","248","771344","0.0-209.0-0.0","15958249","wem/bandit_either_2","AEI5USUUPBU2G","either","2","397","","","","","","","0","0","1","","0.1863479632","0.4","0.6","0.2","0.8","0.2016321063","0.1863479632","0.1825517174","0.3421512568","","","","","","","","","","","","74","J","1","","","169","main_expt"
"","bandit","249","773231","0.0-210.0-0.0","15958249","wem/bandit_either_2","AEI5USUUPBU2G","either","2","369","","","","","","","0","0","1","","0.2210696627","0.4","0.6","0.2","0.8","0.2210696627","0.142304713","0.2535959064","0.3917895485","","","","","","","","","","","","72","H","0","img/none_selected.jpg","","170","main_expt"
"","bandit","250","775228","0.0-211.0-0.0","15958249","wem/bandit_either_2","AEI5USUUPBU2G","either","2","476","","","","","","","0","0","1","","0.1627904758","0.4","0.6","0.2","0.8","0.1627904758","0.1739768979","0.3004284576","0.3206692194","","","","","","","","","","","","72","H","0","img/none_selected.jpg","","171","main_expt"
"","bandit","251","777105","0.0-212.0-0.0","15958249","wem/bandit_either_2","AEI5USUUPBU2G","either","2","359","","","","","","","0","0","1","","0.1421076649","0.4","0.6","0.2","0.8","0.1421076649","0.2172659048","0.2716191145","0.3198600846","","","","","","","","","","","","72","H","0","img/none_selected.jpg","","172","main_expt"
"","bandit","252","779017","0.0-213.0-0.0","15958249","wem/bandit_either_2","AEI5USUUPBU2G","either","2","394","","","","","","","0","0","1","","0.165050165","0.4","0.6","0.2","0.8","0.165050165","0.2419731025","0.3253138029","0.2641483633","","","","","","","","","","","","72","H","0","img/none_selected.jpg","","173","main_expt"
"","bandit","253","781081","0.0-214.0-0.0","15958249","wem/bandit_either_2","AEI5USUUPBU2G","either","2","544","","","","","","","0","0","1","0.2248062597","","0.4","0.6","0.2","0.8","","","","","0.1406738207","0.2239571331","0.3419591401","0.2248062597","","","","","","","","76","L","3","","","174","main_expt"
"","bandit","254","783097","0.0-215.0-0.0","15958249","wem/bandit_either_2","AEI5USUUPBU2G","either","2","499","","","","","","","0","0","1","0.2370379408","","0.4","0.6","0.2","0.8","","","","","0.138310495","0.2311410243","0.3442692367","0.2370379408","","","","","","","","76","L","3","","","175","main_expt"
"","bandit","255","785049","0.0-216.0-0.0","15958249","wem/bandit_either_2","AEI5USUUPBU2G","either","2","435","","","","","","","0","0","1","","0.2157433706","0.4","0.6","0.2","0.8","0.1675243642","0.2610077479","0.3397266539","0.2157433706","","","","","","","","","","","","76","L","3","","","176","main_expt"
"","bandit","256","786984","0.0-217.0-0.0","15958249","wem/bandit_either_2","AEI5USUUPBU2G","either","2","418","","","","","","","0","0","1","0.2014791824","","0.4","0.6","0.2","0.8","","","","","0.1919885971","0.2780938204","0.2997078274","0.2014791824","","","","","","","","76","L","3","","","177","main_expt"
"","bandit","257","788646","0.0-218.0-0.0","15958249","wem/bandit_either_2","AEI5USUUPBU2G","either","2","147","","","","","","","0","0","1","","0.3064007527","0.4","0.6","0.2","0.8","0.2365392944","0.3151752793","0.3064007527","0.1913564418","","","","","","","","","","","","75","K","2","","","178","main_expt"
"","bandit","258","790336","0.0-219.0-0.0","15958249","wem/bandit_either_2","AEI5USUUPBU2G","either","2","173","","","","","","","0","1","0","","0.3533432679","0.4","0.6","0.2","0.8","0.2509455726","0.2799621139","0.3533432679","0.1980728016","","","","","","","","","","","","75","K","2","","","179","main_expt"
"","bandit","259","792265","0.0-220.0-0.0","15958249","wem/bandit_either_2","AEI5USUUPBU2G","either","2","412","","","","","","","0","1","0","","0.3652522579","0.4","0.6","0.2","0.8","0.2767223981","0.3170936092","0.3652522579","0.1833491223","","","","","","","","","","","","75","K","2","","","180","main_expt"
"","bandit","260","794223","0.0-221.0-0.0","15958249","wem/bandit_either_2","AEI5USUUPBU2G","either","2","437","","","","","","","0","1","0","","0.3383156657","0.4","0.6","0.2","0.8","0.314600373","0.28101752","0.3383156657","0.1342686697","","","","","","","","","","","","75","K","2","","","181","main_expt"
"","bandit","261","796199","0.0-222.0-0.0","15958249","wem/bandit_either_2","AEI5USUUPBU2G","either","2","459","","","","","","","1","0","0","0.2902116232","","0.4","0.6","0.2","0.8","","","","","0.3943610609","0.3043342224","0.2902116232","0.1636660304","","","","","","","","75","K","2","","","182","main_expt"
"","bandit","262","798120","0.0-223.0-0.0","15958249","wem/bandit_either_2","AEI5USUUPBU2G","either","2","402","","","","","","","0","1","0","","0.3026157476","0.4","0.6","0.2","0.8","0.3586422101","0.3192524042","0.3026157476","0.136761637","","","","","","","","","","","","75","K","2","","","183","main_expt"
"","bandit","263","800072","0.0-224.0-0.0","15958249","wem/bandit_either_2","AEI5USUUPBU2G","either","2","435","","","","","","","0","1","0","","0.3360229169","0.4","0.6","0.2","0.8","0.3879999062","0.3332516821","0.3360229169","0.1685989701","","","","","","","","","","","","75","K","2","","","184","main_expt"
"","bandit","264","801960","0.0-225.0-0.0","15958249","wem/bandit_either_2","AEI5USUUPBU2G","either","2","368","","","","","","","0","1","0","","0.3336456265","0.4","0.6","0.2","0.8","0.3831340227","0.3228184693","0.3336456265","0.1663529744","","","","","","","","","","","","75","K","2","","","185","main_expt"
"","bandit","265","803879","0.0-226.0-0.0","15958249","wem/bandit_either_2","AEI5USUUPBU2G","either","2","401","","","","","","","0","0","1","","0.3308881938","0.4","0.6","0.2","0.8","0.3999004662","0.3111703144","0.3308881938","0.1916836285","","","","","","","","","","","","75","K","2","","","186","main_expt"
"","bandit","266","805763","0.0-227.0-0.0","15958249","wem/bandit_either_2","AEI5USUUPBU2G","either","2","364","","","","","","","0","0","1","","0.325530054","0.4","0.6","0.2","0.8","0.3875363153","0.3353611299","0.325530054","0.1686829448","","","","","","","","","","","","75","K","2","","","187","main_expt"
"","bandit","267","807628","0.0-228.0-0.0","15958249","wem/bandit_either_2","AEI5USUUPBU2G","either","2","345","","","","","","","0","0","1","","0.3055482451","0.4","0.6","0.2","0.8","0.3875691392","0.3646937268","0.3055482451","0.1461675531","","","","","","","","","","","","75","K","2","","","188","main_expt"
"","bandit","268","809568","0.0-229.0-0.0","15958249","wem/bandit_either_2","AEI5USUUPBU2G","either","2","423","","","","","","","0","0","1","","0.3002345065","0.4","0.6","0.2","0.8","0.4166866882","0.3891323825","0.3002345065","0.1382971047","","","","","","","","","","","","75","K","2","","","189","main_expt"
"","bandit","269","811568","0.0-230.0-0.0","15958249","wem/bandit_either_2","AEI5USUUPBU2G","either","2","483","","","","","","","0","1","0","","0.2693931213","0.4","0.6","0.2","0.8","0.4124474499","0.3860741766","0.2693931213","0.1898135375","","","","","","","","","","","","75","K","2","","","190","main_expt"
"","bandit","270","813615","0.0-231.0-0.0","15958249","wem/bandit_either_2","AEI5USUUPBU2G","either","2","528","","","","","","","0","1","0","","0.3009284261","0.4","0.6","0.2","0.8","0.3638199534","0.3864243721","0.3009284261","0.1264917812","","","","","","","","","","","","75","K","2","","","191","main_expt"
"","bandit","271","815521","0.0-232.0-0.0","15958249","wem/bandit_either_2","AEI5USUUPBU2G","either","2","386","","","","","","","0","0","1","","0.3157917784","0.4","0.6","0.2","0.8","0.3711146034","0.400448014","0.3157917784","0.1185409567","","","","","","","","","","","","75","K","2","","","192","main_expt"
"","bandit","272","817625","0.0-233.0-0.0","15958249","wem/bandit_either_2","AEI5USUUPBU2G","either","2","585","","","","","","","0","0","1","","0.2999212614","0.4","0.6","0.2","0.8","0.3654165885","0.3895367297","0.2999212614","0.09837948322","","","","","","","","","","","","75","K","2","","","193","main_expt"
"","bandit","273","819513","0.0-234.0-0.0","15958249","wem/bandit_either_2","AEI5USUUPBU2G","either","2","369","","","","","","","0","0","1","","0.3287494418","0.4","0.6","0.2","0.8","0.3537818584","0.4032313792","0.3287494418","0.137690802","","","","","","","","","","","","75","K","2","","","194","main_expt"
"","bandit","274","821201","0.0-235.0-0.0","15958249","wem/bandit_either_2","AEI5USUUPBU2G","either","2","169","","","","","","","0","1","0","","0.3031978913","0.4","0.6","0.2","0.8","0.3597494918","0.337234763","0.3031978913","0.1683354775","","","","","","","","","","","","75","K","2","","","195","main_expt"
"","bandit","275","823112","0.0-236.0-0.0","15958249","wem/bandit_either_2","AEI5USUUPBU2G","either","2","393","","","","","","","0","0","1","","0.2901303692","0.4","0.6","0.2","0.8","0.3479121901","0.3950764453","0.2901303692","0.1561951964","","","","","","","","","","","","75","K","2","","","196","main_expt"
"","bandit","276","824921","0.0-237.0-0.0","15958249","wem/bandit_either_2","AEI5USUUPBU2G","either","2","290","","","","","","","0","1","0","","0.2444781728","0.4","0.6","0.2","0.8","0.3596292454","0.4193743727","0.2444781728","0.1329868482","","","","","","","","","","","","75","K","2","","","197","main_expt"
"","bandit","277","826792","0.0-238.0-0.0","15958249","wem/bandit_either_2","AEI5USUUPBU2G","either","2","353","","","","","","","0","0","1","","0.2140047665","0.4","0.6","0.2","0.8","0.3555371828","0.4375347816","0.2140047665","0.1730826789","","","","","","","","","","","","75","K","2","","","198","main_expt"
"","bandit","278","828657","0.0-239.0-0.0","15958249","wem/bandit_either_2","AEI5USUUPBU2G","either","2","346","","","","","","","0","0","1","0.2077842613","","0.4","0.6","0.2","0.8","","","","","0.4016486285","0.4315030007","0.2077842613","0.1385649096","","","","","","","","75","K","2","","","199","main_expt"
"","bandit","279","830544","0.0-240.0-0.0","15958249","wem/bandit_either_2","AEI5USUUPBU2G","either","2","367","","","","","","","0","0","1","","0.180488049","0.4","0.6","0.2","0.8","0.3871107612","0.4340108373","0.180488049","0.1941139053","","","","","","","","","","","","75","K","2","","","200","main_expt"
"","bandit","280","832423","0.0-241.0-0.0","15958249","wem/bandit_either_2","AEI5USUUPBU2G","either","2","360","","","","","","","0","1","0","","0.2084987087","0.4","0.6","0.2","0.8","0.3856539452","0.441078118","0.2084987087","0.1825013029","","","","","","","","","","","","75","K","2","","","201","main_expt"
"","bandit","281","834255","0.0-242.0-0.0","15958249","wem/bandit_either_2","AEI5USUUPBU2G","either","2","314","","","","","","","0","1","0","","0.1869669721","0.4","0.6","0.2","0.8","0.358588673","0.4143682719","0.1869669721","0.162440572","","","","","","","","","","","","75","K","2","","","202","main_expt"
"","bandit","282","836142","0.0-243.0-0.0","15958249","wem/bandit_either_2","AEI5USUUPBU2G","either","2","370","","","","","","","0","0","1","","0.1383076553","0.4","0.6","0.2","0.8","0.3460881607","0.4280720422","0.1383076553","0.1914238456","","","","","","","","","","","","75","K","2","","","203","main_expt"
"","bandit","283","837984","0.0-244.0-0.0","15958249","wem/bandit_either_2","AEI5USUUPBU2G","either","2","324","","","","","","","0","0","1","","0.1656187697","0.4","0.6","0.2","0.8","0.3091432968","0.4113524858","0.1656187697","0.1849793247","","","","","","","","","","","","75","K","2","","","204","main_expt"
"","bandit","284","839952","0.0-245.0-0.0","15958249","wem/bandit_either_2","AEI5USUUPBU2G","either","2","450","","","","","","","0","0","1","","0.1699285253","0.4","0.6","0.2","0.8","0.3016396897","0.4151465815","0.1699285253","0.1722293799","","","","","","","","","","","","75","K","2","","","205","main_expt"
"","bandit","285","842008","0.0-246.0-0.0","15958249","wem/bandit_either_2","AEI5USUUPBU2G","either","2","536","","","","","","","0","1","0","","0.161732949","0.4","0.6","0.2","0.8","0.3300702997","0.4002359997","0.161732949","0.1625694713","","","","","","","","","","","","75","K","2","","","206","main_expt"
"","bandit","286","844521","0.0-247.0-0.0","15958249","wem/bandit_either_2","AEI5USUUPBU2G","either","2","993","","","","","","","0","0","1","","0.1699017951","0.4","0.6","0.2","0.8","0.2648848683","0.3692387261","0.1699017951","0.1079769143","","","","","","","","","","","","75","K","2","","","207","main_expt"
"","bandit","287","846425","0.0-248.0-0.0","15958249","wem/bandit_either_2","AEI5USUUPBU2G","either","2","384","","","","","","","0","0","1","","0.1592107695","0.4","0.6","0.2","0.8","0.2502792914","0.3283471685","0.1592107695","0.1380178959","","","","","","","","","","","","75","K","2","","","208","main_expt"
"","bandit","288","848376","0.0-249.0-0.0","15958249","wem/bandit_either_2","AEI5USUUPBU2G","either","2","430","","","","","","","0","0","1","0.1659907122","","0.4","0.6","0.2","0.8","","","","","0.2770073026","0.2924758898","0.1659907122","0.1538506734","","","","","","","","75","K","2","","","209","main_expt"
"","bandit","289","850263","0.0-250.0-0.0","15958249","wem/bandit_either_2","AEI5USUUPBU2G","either","2","370","","","","","","","0","0","1","0.229525517","","0.4","0.6","0.2","0.8","","","","","0.3451435735","0.2279470939","0.229525517","0.1406222791","","","","","","","","75","K","2","","","210","main_expt"
"","bandit","290","852198","0.0-251.0-0.0","15958249","wem/bandit_either_2","AEI5USUUPBU2G","either","2","418","","","","","","","0","0","1","","0.2434605193","0.4","0.6","0.2","0.8","0.3514478275","0.2131844406","0.2434605193","0.08987887408","","","","","","","","","","","","75","K","2","","","211","main_expt"
"","bandit","291","854154","0.0-252.0-0.0","15958249","wem/bandit_either_2","AEI5USUUPBU2G","either","2","433","","","","","","","0","0","1","0.1601793481","","0.4","0.6","0.2","0.8","","","","","0.3579324364","0.1601793481","0.1633214123","0.1277875359","","","","","","","","74","J","1","","","212","main_expt"
"","bandit","292","856166","0.0-253.0-0.0","15958249","wem/bandit_either_2","AEI5USUUPBU2G","either","2","493","","","","","","","0","0","1","0.1354109392","","0.4","0.6","0.2","0.8","","","","","0.3231243524","0.1354109392","0.1014835246","0.134271297","","","","","","","","74","J","1","","","213","main_expt"
"","bandit","293","858117","0.0-254.0-0.0","15958249","wem/bandit_either_2","AEI5USUUPBU2G","either","2","433","","","","","","","0","0","1","","0.1142105534","0.4","0.6","0.2","0.8","0.2798540136","0.1142105534","0.09587264096","0.1385204111","","","","","","","","","","","","74","J","1","","","214","main_expt"
"","bandit","294","860143","0.0-255.0-0.0","15958249","wem/bandit_either_2","AEI5USUUPBU2G","either","2","507","","","","","","","0","0","1","","0.1031311673","0.4","0.6","0.2","0.8","0.2469391402","0.1031311673","0.08342689115","0.1089132689","","","","","","","","","","","","74","J","1","","","215","main_expt"
"","bandit","295","862048","0.0-256.0-0.0","15958249","wem/bandit_either_2","AEI5USUUPBU2G","either","2","387","","","","","","","0","0","1","0.3211823944","","0.4","0.6","0.2","0.8","","","","","0.3211823944","0.1031732366","0.05361264496","0.1299508563","","","","","","","","72","H","0","img/none_selected.jpg","","216","main_expt"
"","bandit","296","863903","0.0-257.0-0.0","15958249","wem/bandit_either_2","AEI5USUUPBU2G","either","2","336","","","","","","","0","0","1","","0.3545519007","0.4","0.6","0.2","0.8","0.3545519007","0.1188097379","0.09912420903","0.131109262","","","","","","","","","","","","72","H","0","img/none_selected.jpg","","217","main_expt"
"","bandit","297","865854","0.0-258.0-0.0","15958249","wem/bandit_either_2","AEI5USUUPBU2G","either","2","425","","","","","","","0","1","0","","0.3781539282","0.4","0.6","0.2","0.8","0.3781539282","0.1096623481","0.1021137889","0.1039495344","","","","","","","","","","","","72","H","0","img/none_selected.jpg","","218","main_expt"
"","bandit","298","867798","0.0-259.0-0.0","15958249","wem/bandit_either_2","AEI5USUUPBU2G","either","2","423","","","","","","","0","0","1","","0.3674409598","0.4","0.6","0.2","0.8","0.3674409598","0.08679630722","0.1025207236","0.09488552944","","","","","","","","","","","","72","H","0","img/none_selected.jpg","","219","main_expt"
"","bandit","299","869753","0.0-260.0-0.0","15958249","wem/bandit_either_2","AEI5USUUPBU2G","either","2","434","","","","","","","0","0","1","0.315237632","","0.4","0.6","0.2","0.8","","","","","0.315237632","0.1482089448","0.1049734862","0.1311925698","","","","","","","","72","H","0","img/none_selected.jpg","","220","main_expt"
"","bandit","300","871621","0.0-261.0-0.0","15958249","wem/bandit_either_2","AEI5USUUPBU2G","either","2","350","","","","","","","0","0","1","","0.3572442142","0.4","0.6","0.2","0.8","0.3572442142","0.217172314","0.08244295151","0.08224132258","","","","","","","","","","","","72","H","0","img/none_selected.jpg","","221","main_expt"
"","bandit","301","873553","0.0-262.0-0.0","15958249","wem/bandit_either_2","AEI5USUUPBU2G","either","2","411","","","","","","","0","0","1","0.2796125419","","0.4","0.6","0.2","0.8","","","","","0.2796125419","0.2227738938","0.09815111748","0.06870998364","","","","","","","","72","H","0","img/none_selected.jpg","","222","main_expt"
"","bandit","302","875414","0.0-263.0-0.0","15958249","wem/bandit_either_2","AEI5USUUPBU2G","either","2","342","","","","","","","0","0","1","","0.111762886","0.4","0.6","0.2","0.8","0.2265565182","0.2768694491","0.09925351505","0.111762886","","","","","","","","","","","","76","L","3","","","223","main_expt"
"","bandit","303","877178","0.0-264.0-0.0","15958249","wem/bandit_either_2","AEI5USUUPBU2G","either","2","242","","","","","","","0","0","1","0.09652303785","","0.4","0.6","0.2","0.8","","","","","0.1727872262","0.2895694018","0.07842644678","0.09652303785","","","","","","","","76","L","3","","","224","main_expt"
"","bandit","304","879088","0.0-265.0-0.0","15958249","wem/bandit_either_2","AEI5USUUPBU2G","either","2","387","","","","","","","0","0","1","0.09424892582","","0.4","0.6","0.2","0.8","","","","","0.1580797834","0.3515154126","0.05284632075","0.09424892582","","","","","","","","76","L","3","","","225","main_expt"
"","bandit","305","880952","0.0-266.0-0.0","15958249","wem/bandit_either_2","AEI5USUUPBU2G","either","2","346","","","","","","","0","0","1","","0.1094697254","0.4","0.6","0.2","0.8","0.1206031336","0.3960872924","0.06788221328","0.1094697254","","","","","","","","","","","","76","L","3","","","226","main_expt"
"","bandit","306","882887","0.0-267.0-0.0","15958249","wem/bandit_either_2","AEI5USUUPBU2G","either","2","415","","","","","","","0","0","1","0.04226868229","","0.4","0.6","0.2","0.8","","","","","0.1218099769","0.3301105445","0.04226868229","0.1055794081","","","","","","","","75","K","2","","","227","main_expt"
"","bandit","307","884835","0.0-268.0-0.0","15958249","wem/bandit_either_2","AEI5USUUPBU2G","either","2","429","","","","","","","0","0","1","","0.06174471126","0.4","0.6","0.2","0.8","0.08458740206","0.3679650562","0.06174471126","0.1210232629","","","","","","","","","","","","75","K","2","","","228","main_expt"
"","bandit","308","886767","0.0-269.0-0.0","15958249","wem/bandit_either_2","AEI5USUUPBU2G","either","2","413","","","","","","","0","0","1","","0.06122033102","0.4","0.6","0.2","0.8","0.06311990622","0.3413725311","0.06122033102","0.1249199002","","","","","","","","","","","","75","K","2","","","229","main_expt"
"","bandit","309","888551","0.0-270.0-0.0","15958249","wem/bandit_either_2","AEI5USUUPBU2G","either","2","262","","","","","","","0","0","1","","0.09369367087","0.4","0.6","0.2","0.8","0.04674316758","0.3652503211","0.09369367087","0.1423167866","","","","","","","","","","","","75","K","2","","","230","main_expt"
"","bandit","310","890415","0.0-271.0-0.0","15958249","wem/bandit_either_2","AEI5USUUPBU2G","either","2","344","","","","","","","0","1","0","","0.1378364932","0.4","0.6","0.2","0.8","0.06697327866","0.3774172636","0.1378364932","0.1441411413","","","","","","","","","","","","75","K","2","","","231","main_expt"
"","bandit","311","892414","0.0-272.0-0.0","15958249","wem/bandit_either_2","AEI5USUUPBU2G","either","2","478","","","","","","","1","0","0","0.1138343256","","0.4","0.6","0.2","0.8","","","","","0.08617656909","0.3507397895","0.1138343256","0.1132866493","","","","","","","","75","K","2","","","232","main_expt"
"","bandit","312","894299","0.0-273.0-0.0","15958249","wem/bandit_either_2","AEI5USUUPBU2G","either","2","364","","","","","","","0","0","1","","0.1602674987","0.4","0.6","0.2","0.8","0.08388286328","0.3228668676","0.1602674987","0.07587191469","","","","","","","","","","","","75","K","2","","","233","main_expt"
"","bandit","313","896161","0.0-274.0-0.0","15958249","wem/bandit_either_2","AEI5USUUPBU2G","either","2","339","","","","","","","0","0","1","","0.1399599793","0.4","0.6","0.2","0.8","0.08303297831","0.3219168209","0.1399599793","0.08330376307","","","","","","","","","","","","75","K","2","","","234","main_expt"
"","bandit","314","897957","0.0-275.0-0.0","15958249","wem/bandit_either_2","AEI5USUUPBU2G","either","2","277","","","","","","","0","0","1","0.1577883936","","0.4","0.6","0.2","0.8","","","","","0.08228619446","0.2907257894","0.1577883936","0.07960395758","","","","","","","","75","K","2","","","235","main_expt"
"","bandit","315","899870","0.0-276.0-0.0","15958249","wem/bandit_either_2","AEI5USUUPBU2G","either","2","393","","","","","","","0","0","1","","0.1206463377","0.4","0.6","0.2","0.8","0.07856112713","0.2879125653","0.1206463377","0.06703487678","","","","","","","","","","","","75","K","2","","","236","main_expt"
"","bandit","316","901687","0.0-277.0-0.0","15958249","wem/bandit_either_2","AEI5USUUPBU2G","either","2","295","","","","","","","0","0","1","0.1224948263","","0.4","0.6","0.2","0.8","","","","","0.09394336493","0.3055933028","0.1224948263","0.07970276757","","","","","","","","75","K","2","","","237","main_expt"
"","bandit","317","903415","0.0-278.0-0.0","15958249","wem/bandit_either_2","AEI5USUUPBU2G","either","2","204","","","","","","","0","0","1","","0.1163601633","0.4","0.6","0.2","0.8","0.1044036833","0.3197806133","0.1163601633","0.05589422377","","","","","","","","","","","","75","K","2","","","238","main_expt"
"","bandit","318","905213","0.0-279.0-0.0","15958249","wem/bandit_either_2","AEI5USUUPBU2G","either","2","277","","","","","","","0","0","1","","0.2699970134","0.4","0.6","0.2","0.8","0.1010835707","0.2699970134","0.09302868556","0.07304711058","","","","","","","","","","","","74","J","1","","","239","main_expt"
"","bandit","319","906968","0.0-280.0-0.0","15958249","wem/bandit_either_2","AEI5USUUPBU2G","either","2","232","","","","","","","0","0","1","","0.1196592177","0.4","0.6","0.2","0.8","0.1196592177","0.2594796501","0.1142909623","0.05193691484","","","","","","","","","","","","72","H","0","img/none_selected.jpg","","240","main_expt"
"","bandit","320","908956","0.0-281.0-0.0","15958249","wem/bandit_either_2","AEI5USUUPBU2G","either","2","469","","","","","","","0","0","1","","0.06844812817","0.4","0.6","0.2","0.8","0.127320561","0.252227353","0.1694552561","0.06844812817","","","","","","","","","","","","76","L","3","","","241","main_expt"
"","bandit","321","910838","0.0-282.0-0.0","15958249","wem/bandit_either_2","AEI5USUUPBU2G","either","2","360","","","","","","","0","0","1","0.301231011","","0.4","0.6","0.2","0.8","","","","","0.10641745","0.301231011","0.1828807391","0.07869989264","","","","","","","","74","J","1","","","242","main_expt"
"","bandit","322","912798","0.0-283.0-0.0","15958249","wem/bandit_either_2","AEI5USUUPBU2G","either","2","438","","","","","","","0","0","1","","0.2903867436","0.4","0.6","0.2","0.8","0.131785075","0.2903867436","0.1236361748","0.06084245892","","","","","","","","","","","","74","J","1","","","243","main_expt"
"","bandit","323","914713","0.0-284.0-0.0","15958249","wem/bandit_either_2","AEI5USUUPBU2G","either","2","396","","","","","","","1","0","0","0.2659167858","","0.4","0.6","0.2","0.8","","","","","0.1150513838","0.2659167858","0.1131162958","0.04982625113","","","","","","","","74","J","1","","","244","main_expt"
"","bandit","324","916642","0.0-285.0-0.0","15958249","wem/bandit_either_2","AEI5USUUPBU2G","either","2","409","","","","","","","1","0","0","0.254087564","","0.4","0.6","0.2","0.8","","","","","0.1651966394","0.254087564","0.08611006768","0.04708965441","","","","","","","","74","J","1","","","245","main_expt"
"","bandit","325","918609","0.0-286.0-0.0","15958249","wem/bandit_either_2","AEI5USUUPBU2G","either","2","446","","","","","","","0","0","1","","0.2551799517","0.4","0.6","0.2","0.8","0.1555796254","0.2551799517","0.1123216353","0.0280961865","","","","","","","","","","","","74","J","1","","","246","main_expt"
"","bandit","326","920502","0.0-287.0-0.0","15958249","wem/bandit_either_2","AEI5USUUPBU2G","either","2","373","","","","","","","0","0","1","0.2629335529","","0.4","0.6","0.2","0.8","","","","","0.1703980626","0.2629335529","0.09475638668","0.04499456282","","","","","","","","74","J","1","","","247","main_expt"
"","bandit","327","922480","0.0-288.0-0.0","15958249","wem/bandit_either_2","AEI5USUUPBU2G","either","2","455","","","","","","","0","0","1","0.2393496224","","0.4","0.6","0.2","0.8","","","","","0.1502680902","0.2393496224","0.08309477664","0.03910304398","","","","","","","","74","J","1","","","248","main_expt"
"","bandit","328","924741","0.0-289.0-0.0","15958249","wem/bandit_either_2","AEI5USUUPBU2G","either","2","739","","","","","","","0","0","1","0.2612635012","","0.4","0.6","0.2","0.8","","","","","0.1515252412","0.2612635012","0.09118761135","0.02658952892","","","","","","","","74","J","1","","","249","main_expt"
"","bandit","329","926591","0.0-290.0-0.0","15958249","wem/bandit_either_2","AEI5USUUPBU2G","either","2","326","","","","","","","0","0","1","","0.2729339083","0.4","0.6","0.2","0.8","0.164479444","0.2729339083","0.1173751119","0.02715120894","","","","","","","","","","","","74","J","1","","","250","main_expt"
"","bandit","330","928606","0.0-291.0-0.0","15958249","wem/bandit_either_2","AEI5USUUPBU2G","either","2","496","","","","","","","0","0","1","","0.2394547858","0.4","0.6","0.2","0.8","0.1036013708","0.2394547858","0.10167128","0.02468122838","","","","","","","","","","","","74","J","1","","","251","main_expt"
