"consent","trial_type","trial_index","time_elapsed","internal_node_id","subjID","study","MID","cond","drift","rt","responses","key_press","expt_phase","like","value","connected","gems","bombs","no_reward","GemPrChosen","BombPrChosen","GainOverPainPr_0","GainOverPainPr_1","GainOverPainPr_2","GainOverPainPr_3","LosePr_0","LosePr_1","LosePr_2","LosePr_3","WinPr_0","WinPr_1","WinPr_2","WinPr_3","Q0","Q1","Q2","gender","age","ethnicity","target","respCharCode","respKey","respChoiceNum","respChoice","practice","trial_counter","trial_label"
"INL_behavioral_consent_30min_online.html","consent","0","38328","0.0-0.0","16062785","wem/bandit_either_2","ANK8K5WTHJ61C","either","5","","","","","","","","","","","","","","","","","","","","","","","","","","","","","","","","","","","","","",""
"","survey-text","1","79298","0.0-1.0","16062785","wem/bandit_either_2","ANK8K5WTHJ61C","either","5","39960","{""Q0"":""ANK8K5WTHJ61C""}","","","","","","","","","","","","","","","","","","","","","","","","","","","","","","","","","","","",""
"","text","2","96535","0.0-2.0","16062785","wem/bandit_either_2","ANK8K5WTHJ61C","either","5","16235","","32","","","","","","","","","","","","","","","","","","","","","","","","","","","","","","","","","","",""
"","text","3","116325","0.0-3.0","16062785","wem/bandit_either_2","ANK8K5WTHJ61C","either","5","19788","","32","","","","","","","","","","","","","","","","","","","","","","","","","","","","","","","","","","",""
"","text","4","147870","0.0-4.0","16062785","wem/bandit_either_2","ANK8K5WTHJ61C","either","5","31543","","32","","","","","","","","","","","","","","","","","","","","","","","","","","","","","","","","","","",""
"","text","5","177094","0.0-5.0","16062785","wem/bandit_either_2","ANK8K5WTHJ61C","either","5","29224","","32","","","","","","","","","","","","","","","","","","","","","","","","","","","","","","","","","","",""
"","text","6","206935","0.0-6.0","16062785","wem/bandit_either_2","ANK8K5WTHJ61C","either","5","29839","","32","","","","","","","","","","","","","","","","","","","","","","","","","","","","","","","","","","",""
"","text","7","248169","0.0-7.0","16062785","wem/bandit_either_2","ANK8K5WTHJ61C","either","5","41232","","32","","","","","","","","","","","","","","","","","","","","","","","","","","","","","","","","","","",""
"","text","8","255376","0.0-8.0","16062785","wem/bandit_either_2","ANK8K5WTHJ61C","either","5","7206","","32","","","","","","","","","","","","","","","","","","","","","","","","","","","","","","","","","","",""
"","identification","9","274162","0.0-9.0-0.0","16062785","wem/bandit_either_2","ANK8K5WTHJ61C","either","5","18768","","","","1","1","0","","","","","","","","","","","","","","","","","","","","","","","","the village of Zur","","","","","","",""
"","identification","10","281431","0.0-9.0-1.0","16062785","wem/bandit_either_2","ANK8K5WTHJ61C","either","5","6255","","","","1","1","0","","","","","","","","","","","","","","","","","","","","","","","","the village of Nyx","","","","","","",""
"","text","11","287577","0.0-10.0","16062785","wem/bandit_either_2","ANK8K5WTHJ61C","either","5","5143","","32","","","","","","","","","","","","","","","","","","","","","","","","","","","","","","","","","","",""
"","text","12","290730","0.0-11.0","16062785","wem/bandit_either_2","ANK8K5WTHJ61C","either","5","3152","","32","","","","","","","","","","","","","","","","","","","","","","","","","","","","","","","","","","",""
"","text","13","301345","0.0-12.0","16062785","wem/bandit_either_2","ANK8K5WTHJ61C","either","5","10615","","32","","","","","","","","","","","","","","","","","","","","","","","","","","","","","","","","","","",""
"","text","14","306241","0.0-13.0","16062785","wem/bandit_either_2","ANK8K5WTHJ61C","either","5","4894","","32","","","","","","","","","","","","","","","","","","","","","","","","","","","","","","","","","","",""
"","bandit","15","311713","0.0-14.0-0.0","16062785","wem/bandit_either_2","ANK8K5WTHJ61C","either","5","3964","","","","","","","0","0","1","0","0","","","","","0","","","","0","","","","","","","","","","","74","J","0","img/none_selected_demo.jpg","true","0",""
"","bandit","16","315386","0.0-15.0-0.0","16062785","wem/bandit_either_2","ANK8K5WTHJ61C","either","5","2165","","","","","","","0","0","1","0","0","","","","","0","","","","0","","","","","","","","","","","75","K","0","img/none_selected_demo.jpg","true","0",""
"","text","17","322289","0.0-16.0","16062785","wem/bandit_either_2","ANK8K5WTHJ61C","either","5","6901","","32","","","","","","","","","","","","","","","","","","","","","","","","","","","","","","","","","","",""
"","text","18","341651","0.0-17.0","16062785","wem/bandit_either_2","ANK8K5WTHJ61C","either","5","19360","","32","","","","","","","","","","","","","","","","","","","","","","","","","","","","","","","","","","",""
"","text","19","348402","0.0-18.0","16062785","wem/bandit_either_2","ANK8K5WTHJ61C","either","5","6750","","32","","","","","","","","","","","","","","","","","","","","","","","","","","","","","","","","","","",""
"","text","20","398348","0.0-19.0","16062785","wem/bandit_either_2","ANK8K5WTHJ61C","either","5","49944","","32","","","","","","","","","","","","","","","","","","","","","","","","","","","","","","","","","","",""
"","bandit","21","400771","0.0-20.0-0.0","16062785","wem/bandit_either_2","ANK8K5WTHJ61C","either","5","917","","","","","","","0","0","1","","0.8","0.5","0.5","","","0.8","0.2","","","","","","","","","","","","","","74","J","0","img/none_selected_demo.jpg","true","0","80_20_practice"
"","bandit","22","403412","0.0-20.0-1.0","16062785","wem/bandit_either_2","ANK8K5WTHJ61C","either","5","1134","","","","","","","0","0","1","0.2","","0.5","0.5","","","","","","","0.8","0.2","","","","","","","","","","75","K","1","","true","0","80_20_practice"
"","bandit","23","405371","0.0-20.0-2.0","16062785","wem/bandit_either_2","ANK8K5WTHJ61C","either","5","452","","","","","","","0","0","1","","0.2","0.5","0.5","","","0.8","0.2","","","","","","","","","","","","","","75","K","1","","true","0","80_20_practice"
"","bandit","24","408019","0.0-20.0-3.0","16062785","wem/bandit_either_2","ANK8K5WTHJ61C","either","5","1141","","","","","","","0","1","0","","0.8","0.5","0.5","","","0.8","0.2","","","","","","","","","","","","","","74","J","0","img/none_selected_demo.jpg","true","0","80_20_practice"
"","bandit","25","412453","0.0-20.0-4.0","16062785","wem/bandit_either_2","ANK8K5WTHJ61C","either","5","2926","","","","","","","0","0","1","","0.2","0.5","0.5","","","0.8","0.2","","","","","","","","","","","","","","75","K","1","","true","0","80_20_practice"
"","bandit","26","415404","0.0-20.0-5.0","16062785","wem/bandit_either_2","ANK8K5WTHJ61C","either","5","1445","","","","","","","0","1","0","","0.8","0.5","0.5","","","0.8","0.2","","","","","","","","","","","","","","74","J","0","img/none_selected_demo.jpg","true","0","80_20_practice"
"","bandit","27","421308","0.0-20.0-6.0","16062785","wem/bandit_either_2","ANK8K5WTHJ61C","either","5","4397","","","","","","","0","0","1","","0.2","0.5","0.5","","","0.8","0.2","","","","","","","","","","","","","","75","K","1","","true","0","80_20_practice"
"","bandit","28","423284","0.0-20.0-7.0","16062785","wem/bandit_either_2","ANK8K5WTHJ61C","either","5","470","","","","","","","0","0","1","","0.2","0.5","0.5","","","0.8","0.2","","","","","","","","","","","","","","75","K","1","","true","0","80_20_practice"
"","bandit","29","425436","0.0-20.0-8.0","16062785","wem/bandit_either_2","ANK8K5WTHJ61C","either","5","646","","","","","","","0","0","1","0.2","","0.5","0.5","","","","","","","0.8","0.2","","","","","","","","","","75","K","1","","true","0","80_20_practice"
"","bandit","30","427572","0.0-20.0-9.0","16062785","wem/bandit_either_2","ANK8K5WTHJ61C","either","5","629","","","","","","","0","0","1","0.8","","0.5","0.5","","","","","","","0.8","0.2","","","","","","","","","","74","J","0","img/none_selected_demo.jpg","true","0","80_20_practice"
"","bandit","31","429634","0.0-20.0-10.0","16062785","wem/bandit_either_2","ANK8K5WTHJ61C","either","5","557","","","","","","","0","0","1","","0.8","0.5","0.5","","","0.8","0.2","","","","","","","","","","","","","","74","J","0","img/none_selected_demo.jpg","true","0","80_20_practice"
"","bandit","32","431500","0.0-20.0-11.0","16062785","wem/bandit_either_2","ANK8K5WTHJ61C","either","5","358","","","","","","","0","0","1","0.2","","0.5","0.5","","","","","","","0.8","0.2","","","","","","","","","","75","K","1","","true","0","80_20_practice"
"","bandit","33","433365","0.0-20.0-12.0","16062785","wem/bandit_either_2","ANK8K5WTHJ61C","either","5","359","","","","","","","0","0","1","","0.2","0.5","0.5","","","0.8","0.2","","","","","","","","","","","","","","75","K","1","","true","0","80_20_practice"
"","bandit","34","435556","0.0-20.0-13.0","16062785","wem/bandit_either_2","ANK8K5WTHJ61C","either","5","684","","","","","","","0","1","0","","0.2","0.5","0.5","","","0.8","0.2","","","","","","","","","","","","","","75","K","1","","true","0","80_20_practice"
"","bandit","35","437637","0.0-20.0-14.0","16062785","wem/bandit_either_2","ANK8K5WTHJ61C","either","5","572","","","","","","","0","1","0","","0.8","0.5","0.5","","","0.8","0.2","","","","","","","","","","","","","","74","J","0","img/none_selected_demo.jpg","true","0","80_20_practice"
"","bandit","36","440909","0.0-20.0-15.0","16062785","wem/bandit_either_2","ANK8K5WTHJ61C","either","5","1765","","","","","","","1","0","0","0.8","","0.5","0.5","","","","","","","0.8","0.2","","","","","","","","","","74","J","0","img/none_selected_demo.jpg","true","0","80_20_practice"
"","bandit","37","443733","0.0-20.0-16.0","16062785","wem/bandit_either_2","ANK8K5WTHJ61C","either","5","1318","","","","","","","0","1","0","","0.8","0.5","0.5","","","0.8","0.2","","","","","","","","","","","","","","74","J","0","img/none_selected_demo.jpg","true","0","80_20_practice"
"","bandit","38","446318","0.0-20.0-17.0","16062785","wem/bandit_either_2","ANK8K5WTHJ61C","either","5","1075","","","","","","","0","1","0","","0.8","0.5","0.5","","","0.8","0.2","","","","","","","","","","","","","","74","J","0","img/none_selected_demo.jpg","true","0","80_20_practice"
"","bandit","39","449116","0.0-20.0-18.0","16062785","wem/bandit_either_2","ANK8K5WTHJ61C","either","5","1292","","","","","","","0","1","0","","0.8","0.5","0.5","","","0.8","0.2","","","","","","","","","","","","","","74","J","0","img/none_selected_demo.jpg","true","0","80_20_practice"
"","bandit","40","451325","0.0-20.0-19.0","16062785","wem/bandit_either_2","ANK8K5WTHJ61C","either","5","702","","","","","","","1","0","0","0.8","","0.5","0.5","","","","","","","0.8","0.2","","","","","","","","","","74","J","0","img/none_selected_demo.jpg","true","0","80_20_practice"
"","text","41","460381","0.0-21.0","16062785","wem/bandit_either_2","ANK8K5WTHJ61C","either","5","9054","","32","","","","","","","","","","","","","","","","","","","","","","","","","","","","","","","","","","",""
"","bandit","42","462789","0.0-22.0-0.0","16062785","wem/bandit_either_2","ANK8K5WTHJ61C","either","5","901","","","","","","","1","0","0","1","0","","","","","0","1","","","1","0","","","","","","","","","","74","J","0","img/none_selected_demo.jpg","true","0",""
"","text","43","471000","0.0-23.0","16062785","wem/bandit_either_2","ANK8K5WTHJ61C","either","5","8209","","32","","","","","","","","","","","","","","","","","","","","","","","","","","","","","","","","","","",""
"","text","44","476103","0.0-24.0","16062785","wem/bandit_either_2","ANK8K5WTHJ61C","either","5","5100","","32","","","","","","","","","","","","","","","","","","","","","","","","","","","","","","","","","","",""
"","text","45","478743","0.0-25.0","16062785","wem/bandit_either_2","ANK8K5WTHJ61C","either","5","2639","","32","","","","","","","","","","","","","","","","","","","","","","","","","","","","","","","","","","",""
"","text","46","481664","0.0-26.0","16062785","wem/bandit_either_2","ANK8K5WTHJ61C","either","5","2920","","32","","","","","","","","","","","","","","","","","","","","","","","","","","","","","","","","","","",""
"","text","47","489968","0.0-27.0","16062785","wem/bandit_either_2","ANK8K5WTHJ61C","either","5","8302","","32","","","","","","","","","","","","","","","","","","","","","","","","","","","","","","","","","","",""
"","text","48","493920","0.0-28.0","16062785","wem/bandit_either_2","ANK8K5WTHJ61C","either","5","3951","","32","","","","","","","","","","","","","","","","","","","","","","","","","","","","","","","","","","",""
"","text","49","497608","0.0-29.0","16062785","wem/bandit_either_2","ANK8K5WTHJ61C","either","5","3686","","32","","","","","","","","","","","","","","","","","","","","","","","","","","","","","","","","","","",""
"","text","50","501472","0.0-30.0","16062785","wem/bandit_either_2","ANK8K5WTHJ61C","either","5","3862","","32","","","","","","","","","","","","","","","","","","","","","","","","","","","","","","","","","","",""
"","text","51","509801","0.0-31.0","16062785","wem/bandit_either_2","ANK8K5WTHJ61C","either","5","8327","","32","","","","","","","","","","","","","","","","","","","","","","","","","","","","","","","","","","",""
"","text","52","511777","0.0-32.0","16062785","wem/bandit_either_2","ANK8K5WTHJ61C","either","5","1974","","32","","","","","","","","","","","","","","","","","","","","","","","","","","","","","","","","","","",""
"","text","53","518624","0.0-33.0","16062785","wem/bandit_either_2","ANK8K5WTHJ61C","either","5","6845","","32","","","","","","","","","","","","","","","","","","","","","","","","","","","","","","","","","","",""
"","bandit","54","521008","0.0-34.0-0.0","16062785","wem/bandit_either_2","ANK8K5WTHJ61C","either","5","877","","","","","","","0","0","1","","0.8","0.5","0.5","0.5","0.5","0.8","0.2","0.6","0.2","","","","","","","","","","","","72","H","0","img/none_selected.jpg","true","0","full_practice"
"","bandit","55","523066","0.0-34.0-1.0","16062785","wem/bandit_either_2","ANK8K5WTHJ61C","either","5","551","","","","","","","0","0","1","0.2","","0.5","0.5","0.5","0.5","","","","","0.8","0.2","0.6","0.2","","","","","","","","74","J","1","","true","0","full_practice"
"","bandit","56","525032","0.0-34.0-2.0","16062785","wem/bandit_either_2","ANK8K5WTHJ61C","either","5","460","","","","","","","1","0","0","0.6","","0.5","0.5","0.5","0.5","","","","","0.8","0.2","0.6","0.2","","","","","","","","75","K","2","","true","0","full_practice"
"","bandit","57","526905","0.0-34.0-3.0","16062785","wem/bandit_either_2","ANK8K5WTHJ61C","either","5","366","","","","","","","1","0","0","0.6","","0.5","0.5","0.5","0.5","","","","","0.8","0.2","0.6","0.2","","","","","","","","75","K","2","","true","0","full_practice"
"","bandit","58","528968","0.0-34.0-4.0","16062785","wem/bandit_either_2","ANK8K5WTHJ61C","either","5","556","","","","","","","0","1","0","","0.6","0.5","0.5","0.5","0.5","0.8","0.2","0.6","0.2","","","","","","","","","","","","75","K","2","","true","0","full_practice"
"","bandit","59","530969","0.0-34.0-5.0","16062785","wem/bandit_either_2","ANK8K5WTHJ61C","either","5","494","","","","","","","0","1","0","","0.6","0.5","0.5","0.5","0.5","0.8","0.2","0.6","0.2","","","","","","","","","","","","75","K","2","","true","0","full_practice"
"","bandit","60","532937","0.0-34.0-6.0","16062785","wem/bandit_either_2","ANK8K5WTHJ61C","either","5","460","","","","","","","1","0","0","0.6","","0.5","0.5","0.5","0.5","","","","","0.8","0.2","0.6","0.2","","","","","","","","75","K","2","","true","0","full_practice"
"","bandit","61","534898","0.0-34.0-7.0","16062785","wem/bandit_either_2","ANK8K5WTHJ61C","either","5","452","","","","","","","0","0","1","0.6","","0.5","0.5","0.5","0.5","","","","","0.8","0.2","0.6","0.2","","","","","","","","75","K","2","","true","0","full_practice"
"","bandit","62","536793","0.0-34.0-8.0","16062785","wem/bandit_either_2","ANK8K5WTHJ61C","either","5","387","","","","","","","0","1","0","","0.6","0.5","0.5","0.5","0.5","0.8","0.2","0.6","0.2","","","","","","","","","","","","75","K","2","","true","0","full_practice"
"","bandit","63","538625","0.0-34.0-9.0","16062785","wem/bandit_either_2","ANK8K5WTHJ61C","either","5","324","","","","","","","1","0","0","0.6","","0.5","0.5","0.5","0.5","","","","","0.8","0.2","0.6","0.2","","","","","","","","75","K","2","","true","0","full_practice"
"","bandit","64","540473","0.0-34.0-10.0","16062785","wem/bandit_either_2","ANK8K5WTHJ61C","either","5","340","","","","","","","0","0","1","0.6","","0.5","0.5","0.5","0.5","","","","","0.8","0.2","0.6","0.2","","","","","","","","75","K","2","","true","0","full_practice"
"","bandit","65","542353","0.0-34.0-11.0","16062785","wem/bandit_either_2","ANK8K5WTHJ61C","either","5","372","","","","","","","0","1","0","","0.6","0.5","0.5","0.5","0.5","0.8","0.2","0.6","0.2","","","","","","","","","","","","75","K","2","","true","0","full_practice"
"","bandit","66","544313","0.0-34.0-12.0","16062785","wem/bandit_either_2","ANK8K5WTHJ61C","either","5","452","","","","","","","0","0","1","","0.6","0.5","0.5","0.5","0.5","0.8","0.2","0.6","0.2","","","","","","","","","","","","75","K","2","","true","0","full_practice"
"","bandit","67","548353","0.0-34.0-13.0","16062785","wem/bandit_either_2","ANK8K5WTHJ61C","either","5","2531","","","","","","","0","0","1","","0.2","0.5","0.5","0.5","0.5","0.8","0.2","0.6","0.2","","","","","","","","","","","","76","L","3","","true","0","full_practice"
"","bandit","68","550218","0.0-34.0-14.0","16062785","wem/bandit_either_2","ANK8K5WTHJ61C","either","5","357","","","","","","","0","0","1","","0.6","0.5","0.5","0.5","0.5","0.8","0.2","0.6","0.2","","","","","","","","","","","","75","K","2","","true","0","full_practice"
"","bandit","69","552961","0.0-34.0-15.0","16062785","wem/bandit_either_2","ANK8K5WTHJ61C","either","5","1235","","","","","","","0","1","0","","0.6","0.5","0.5","0.5","0.5","0.8","0.2","0.6","0.2","","","","","","","","","","","","75","K","2","","true","0","full_practice"
"","bandit","70","555409","0.0-34.0-16.0","16062785","wem/bandit_either_2","ANK8K5WTHJ61C","either","5","941","","","","","","","1","0","0","0.6","","0.5","0.5","0.5","0.5","","","","","0.8","0.2","0.6","0.2","","","","","","","","75","K","2","","true","0","full_practice"
"","bandit","71","557762","0.0-34.0-17.0","16062785","wem/bandit_either_2","ANK8K5WTHJ61C","either","5","847","","","","","","","0","1","0","","0.6","0.5","0.5","0.5","0.5","0.8","0.2","0.6","0.2","","","","","","","","","","","","75","K","2","","true","0","full_practice"
"","bandit","72","559929","0.0-34.0-18.0","16062785","wem/bandit_either_2","ANK8K5WTHJ61C","either","5","660","","","","","","","0","0","1","","0.2","0.5","0.5","0.5","0.5","0.8","0.2","0.6","0.2","","","","","","","","","","","","76","L","3","","true","0","full_practice"
"","bandit","73","562098","0.0-34.0-19.0","16062785","wem/bandit_either_2","ANK8K5WTHJ61C","either","5","659","","","","","","","0","0","1","0.6","","0.5","0.5","0.5","0.5","","","","","0.8","0.2","0.6","0.2","","","","","","","","75","K","2","","true","0","full_practice"
"","text","74","565458","0.0-35.0","16062785","wem/bandit_either_2","ANK8K5WTHJ61C","either","5","3355","","32","","","","","","","","","","","","","","","","","","","","","","","","","","","","","","","","","","",""
"","text","75","580819","0.0-36.0","16062785","wem/bandit_either_2","ANK8K5WTHJ61C","either","5","14359","","32","","","","","","","","","","","","","","","","","","","","","","","","","","","","","","","","","","",""
"","text","76","592979","0.0-37.0","16062785","wem/bandit_either_2","ANK8K5WTHJ61C","either","5","12156","","32","","","","","","","","","","","","","","","","","","","","","","","","","","","","","","","","","","",""
"","text","77","597530","0.0-38.0","16062785","wem/bandit_either_2","ANK8K5WTHJ61C","either","5","4549","","32","","","","","","","","","","","","","","","","","","","","","","","","","","","","","","","","","","",""
"","text","78","613428","0.0-39.0","16062785","wem/bandit_either_2","ANK8K5WTHJ61C","either","5","15896","","32","","","","","","","","","","","","","","","","","","","","","","","","","","","","","","","","","","",""
"","text","79","673013","0.0-40.0","16062785","wem/bandit_either_2","ANK8K5WTHJ61C","either","5","59582","","32","","","","","","","","","","","","","","","","","","","","","","","","","","","","","","","","","","",""
"","bandit","80","675484","0.0-41.0-0.0","16062785","wem/bandit_either_2","ANK8K5WTHJ61C","either","5","964","","","","","","","0","0","1","","0.3897275569","0.8","0.4","0.2","0.6","0.3340388524","0.1165465043","0.3897275569","0.4265570961","","","","","","","","","","","","75","K","2","","","1","main_expt"
"","bandit","81","677396","0.0-42.0-0.0","16062785","wem/bandit_either_2","ANK8K5WTHJ61C","either","5","404","","","","","","","0","0","1","","0.3911966266","0.8","0.4","0.2","0.6","0.3223834482","0.08371899021","0.3911966266","0.4177099958","","","","","","","","","","","","75","K","2","","","2","main_expt"
"","bandit","82","679461","0.0-43.0-0.0","16062785","wem/bandit_either_2","ANK8K5WTHJ61C","either","5","555","","","","","","","1","0","0","0.4192185534","","0.8","0.4","0.2","0.6","","","","","0.3585509001","0.04339790364","0.4074861021","0.4192185534","","","","","","","","76","L","3","","","3","main_expt"
"","bandit","83","681469","0.0-44.0-0.0","16062785","wem/bandit_either_2","ANK8K5WTHJ61C","either","5","501","","","","","","","0","0","1","0.4241610434","","0.8","0.4","0.2","0.6","","","","","0.3416436242","0.04073472785","0.3965638453","0.4241610434","","","","","","","","76","L","3","","","4","main_expt"
"","bandit","84","683389","0.0-45.0-0.0","16062785","wem/bandit_either_2","ANK8K5WTHJ61C","either","5","411","","","","","","","0","0","1","0.4284837315","","0.8","0.4","0.2","0.6","","","","","0.3444758892","0.04731773769","0.3688269119","0.4284837315","","","","","","","","76","L","3","","","5","main_expt"
"","bandit","85","686093","0.0-46.0-0.0","16062785","wem/bandit_either_2","ANK8K5WTHJ61C","either","5","1196","","","","","","","0","0","1","0.4328708062","","0.8","0.4","0.2","0.6","","","","","0.3574177426","0.05617088868","0.3865867917","0.4328708062","","","","","","","","76","L","3","","","6","main_expt"
"","bandit","86","688125","0.0-47.0-0.0","16062785","wem/bandit_either_2","ANK8K5WTHJ61C","either","5","523","","","","","","","1","0","0","0.3634052143","","0.8","0.4","0.2","0.6","","","","","0.3634052143","0.05606577856","0.4294719924","0.4176545671","","","","","","","","72","H","0","img/none_selected.jpg","","7","main_expt"
"","bandit","87","690397","0.0-48.0-0.0","16062785","wem/bandit_either_2","ANK8K5WTHJ61C","either","5","764","","","","","","","0","0","1","0.3675420607","","0.8","0.4","0.2","0.6","","","","","0.3675420607","0.09244853328","0.4210378118","0.4022395488","","","","","","","","72","H","0","img/none_selected.jpg","","8","main_expt"
"","bandit","88","692357","0.0-49.0-0.0","16062785","wem/bandit_either_2","ANK8K5WTHJ61C","either","5","451","","","","","","","1","0","0","0.3921196104","","0.8","0.4","0.2","0.6","","","","","0.3921196104","0.1271341085","0.4502112583","0.3929004949","","","","","","","","72","H","0","img/none_selected.jpg","","9","main_expt"
"","bandit","89","694341","0.0-50.0-0.0","16062785","wem/bandit_either_2","ANK8K5WTHJ61C","either","5","475","","","","","","","0","0","1","0.4026182126","","0.8","0.4","0.2","0.6","","","","","0.4026182126","0.1370717255","0.4452653155","0.3863711448","","","","","","","","72","H","0","img/none_selected.jpg","","10","main_expt"
"","bandit","90","696557","0.0-51.0-0.0","16062785","wem/bandit_either_2","ANK8K5WTHJ61C","either","5","708","","","","","","","0","1","0","","0.3543069494","0.8","0.4","0.2","0.6","0.3543069494","0.1275050207","0.4352349267","0.4205849279","","","","","","","","","","","","72","H","0","img/none_selected.jpg","","11","main_expt"
"","bandit","91","698989","0.0-52.0-0.0","16062785","wem/bandit_either_2","ANK8K5WTHJ61C","either","5","925","","","","","","","0","0","1","","0.3504097904","0.8","0.4","0.2","0.6","0.3504097904","0.122317004","0.4029030639","0.4525069231","","","","","","","","","","","","72","H","0","img/none_selected.jpg","","12","main_expt"
"","bandit","92","701501","0.0-53.0-0.0","16062785","wem/bandit_either_2","ANK8K5WTHJ61C","either","5","1004","","","","","","","0","0","1","0.2787441393","","0.8","0.4","0.2","0.6","","","","","0.2787441393","0.1251711411","0.4198147105","0.4485799753","","","","","","","","72","H","0","img/none_selected.jpg","","13","main_expt"
"","bandit","93","703989","0.0-54.0-0.0","16062785","wem/bandit_either_2","ANK8K5WTHJ61C","either","5","980","","","","","","","0","0","1","","0.1380641988","0.8","0.4","0.2","0.6","0.2723245106","0.1380641988","0.3761312174","0.4504049656","","","","","","","","","","","","74","J","1","","","14","main_expt"
"","bandit","94","706292","0.0-55.0-0.0","16062785","wem/bandit_either_2","ANK8K5WTHJ61C","either","5","795","","","","","","","0","0","1","0.2010812313","","0.8","0.4","0.2","0.6","","","","","0.3687644442","0.2010812313","0.4017507227","0.4281165459","","","","","","","","74","J","1","","","15","main_expt"
"","bandit","95","708478","0.0-56.0-0.0","16062785","wem/bandit_either_2","ANK8K5WTHJ61C","either","5","676","","","","","","","1","0","0","0.3992289848","","0.8","0.4","0.2","0.6","","","","","0.3992289848","0.1747275657","0.3859888637","0.4035101098","","","","","","","","72","H","0","img/none_selected.jpg","","16","main_expt"
"","bandit","96","710605","0.0-57.0-0.0","16062785","wem/bandit_either_2","ANK8K5WTHJ61C","either","5","619","","","","","","","0","0","1","0.4067061876","","0.8","0.4","0.2","0.6","","","","","0.4067061876","0.1816524112","0.3706978481","0.4063691663","","","","","","","","72","H","0","img/none_selected.jpg","","17","main_expt"
"","bandit","97","713022","0.0-58.0-0.0","16062785","wem/bandit_either_2","ANK8K5WTHJ61C","either","5","909","","","","","","","1","0","0","0.3969002131","","0.8","0.4","0.2","0.6","","","","","0.3969002131","0.1700798448","0.3323991027","0.4201618032","","","","","","","","72","H","0","img/none_selected.jpg","","18","main_expt"
"","bandit","98","715526","0.0-59.0-0.0","16062785","wem/bandit_either_2","ANK8K5WTHJ61C","either","5","996","","","","","","","0","0","1","0.3930099592","","0.8","0.4","0.2","0.6","","","","","0.3930099592","0.1998500639","0.3301718366","0.3868389751","","","","","","","","72","H","0","img/none_selected.jpg","","19","main_expt"
"","bandit","99","720590","0.0-60.0-0.0","16062785","wem/bandit_either_2","ANK8K5WTHJ61C","either","5","3557","","","","","","","0","0","1","0.3791602553","","0.8","0.4","0.2","0.6","","","","","0.3791602553","0.2418808817","0.3714618997","0.3868875991","","","","","","","","72","H","0","img/none_selected.jpg","","20","main_expt"
"","bandit","100","724214","0.0-61.0-0.0","16062785","wem/bandit_either_2","ANK8K5WTHJ61C","either","5","2115","","","","","","","0","0","1","","0.2293341009","0.8","0.4","0.2","0.6","0.4127515201","0.2293341009","0.3621694591","0.4253770554","","","","","","","","","","","","74","J","1","","","21","main_expt"
"","bandit","101","727838","0.0-62.0-0.0","16062785","wem/bandit_either_2","ANK8K5WTHJ61C","either","5","2116","","","","","","","0","0","1","0.2074184163","","0.8","0.4","0.2","0.6","","","","","0.4164833055","0.2074184163","0.3648829928","0.4285762007","","","","","","","","74","J","1","","","22","main_expt"
"","bandit","102","731502","0.0-63.0-0.0","16062785","wem/bandit_either_2","ANK8K5WTHJ61C","either","5","2157","","","","","","","0","0","1","0.2856994719","","0.8","0.4","0.2","0.6","","","","","0.4143027846","0.1832507358","0.2856994719","0.4082522222","","","","","","","","75","K","2","","","23","main_expt"
"","bandit","103","733910","0.0-64.0-0.0","16062785","wem/bandit_either_2","ANK8K5WTHJ61C","either","5","900","","","","","","","0","1","0","","0.3152516524","0.8","0.4","0.2","0.6","0.3649270698","0.1469425149","0.3152516524","0.4027270218","","","","","","","","","","","","75","K","2","","","24","main_expt"
"","bandit","104","737078","0.0-65.0-0.0","16062785","wem/bandit_either_2","ANK8K5WTHJ61C","either","5","1659","","","","","","","0","1","0","","0.2778145345","0.8","0.4","0.2","0.6","0.392676409","0.102794739","0.2778145345","0.4100212433","","","","","","","","","","","","75","K","2","","","25","main_expt"
"","bandit","105","740206","0.0-66.0-0.0","16062785","wem/bandit_either_2","ANK8K5WTHJ61C","either","5","1620","","","","","","","0","0","1","","0.3170506137","0.8","0.4","0.2","0.6","0.4031565401","0.1173732637","0.3170506137","0.4190791169","","","","","","","","","","","","75","K","2","","","26","main_expt"
"","bandit","106","742775","0.0-67.0-0.0","16062785","wem/bandit_either_2","ANK8K5WTHJ61C","either","5","1062","","","","","","","1","0","0","0.4245959001","","0.8","0.4","0.2","0.6","","","","","0.4245959001","0.08835016803","0.3223143746","0.4527212376","","","","","","","","72","H","0","img/none_selected.jpg","","27","main_expt"
"","bandit","107","745558","0.0-68.0-0.0","16062785","wem/bandit_either_2","ANK8K5WTHJ61C","either","5","1276","","","","","","","0","1","0","","0.3234472479","0.8","0.4","0.2","0.6","0.4232885055","0.1134440288","0.3234472479","0.4480998813","","","","","","","","","","","","75","K","2","","","28","main_expt"
"","bandit","108","747982","0.0-69.0-0.0","16062785","wem/bandit_either_2","ANK8K5WTHJ61C","either","5","916","","","","","","","0","1","0","","0.2881425904","0.8","0.4","0.2","0.6","0.4495512981","0.1982905849","0.2881425904","0.4628669208","","","","","","","","","","","","75","K","2","","","29","main_expt"
"","bandit","109","750303","0.0-70.0-0.0","16062785","wem/bandit_either_2","ANK8K5WTHJ61C","either","5","811","","","","","","","0","0","1","","0.2326555855","0.8","0.4","0.2","0.6","0.4485299892","0.2366655967","0.2326555855","0.4565655028","","","","","","","","","","","","75","K","2","","","30","main_expt"
"","bandit","110","752959","0.0-71.0-0.0","16062785","wem/bandit_either_2","ANK8K5WTHJ61C","either","5","1148","","","","","","","0","0","1","","0.2364604256","0.8","0.4","0.2","0.6","0.4599237238","0.1622470467","0.2364604256","0.4686031056","","","","","","","","","","","","75","K","2","","","31","main_expt"
"","bandit","111","755111","0.0-72.0-0.0","16062785","wem/bandit_either_2","ANK8K5WTHJ61C","either","5","644","","","","","","","0","0","1","0.4508116693","","0.8","0.4","0.2","0.6","","","","","0.4508116693","0.1771911602","0.2451982598","0.4659582456","","","","","","","","72","H","0","img/none_selected.jpg","","32","main_expt"
"","bandit","112","757551","0.0-73.0-0.0","16062785","wem/bandit_either_2","ANK8K5WTHJ61C","either","5","931","","","","","","","0","1","0","","0.45101727","0.8","0.4","0.2","0.6","0.45101727","0.1622836308","0.2360369815","0.4810757035","","","","","","","","","","","","72","H","0","img/none_selected.jpg","","33","main_expt"
"","bandit","113","760039","0.0-74.0-0.0","16062785","wem/bandit_either_2","ANK8K5WTHJ61C","either","5","980","","","","","","","0","0","1","0.4340174653","","0.8","0.4","0.2","0.6","","","","","0.4340174653","0.1655985557","0.2317763892","0.4842727378","","","","","","","","72","H","0","img/none_selected.jpg","","34","main_expt"
"","bandit","114","762519","0.0-75.0-0.0","16062785","wem/bandit_either_2","ANK8K5WTHJ61C","either","5","970","","","","","","","0","0","1","","0.2527891731","0.8","0.4","0.2","0.6","0.4040147441","0.1492797185","0.2527891731","0.4745470136","","","","","","","","","","","","75","K","2","","","35","main_expt"
"","bandit","115","764703","0.0-76.0-0.0","16062785","wem/bandit_either_2","ANK8K5WTHJ61C","either","5","677","","","","","","","0","0","1","","0.4268829696","0.8","0.4","0.2","0.6","0.4268829696","0.1504543003","0.2641283143","0.4440965139","","","","","","","","","","","","72","H","0","img/none_selected.jpg","","36","main_expt"
"","bandit","116","767350","0.0-77.0-0.0","16062785","wem/bandit_either_2","ANK8K5WTHJ61C","either","5","1140","","","","","","","1","0","0","0.4544425755","","0.8","0.4","0.2","0.6","","","","","0.4562327564","0.1064249526","0.2309310423","0.4544425755","","","","","","","","76","L","3","","","37","main_expt"
"","bandit","117","770319","0.0-78.0-0.0","16062785","wem/bandit_either_2","ANK8K5WTHJ61C","either","5","1460","","","","","","","0","0","1","0.4700138218","","0.8","0.4","0.2","0.6","","","","","0.4481627861","0.1346530267","0.2093170459","0.4700138218","","","","","","","","76","L","3","","","38","main_expt"
"","bandit","118","772782","0.0-79.0-0.0","16062785","wem/bandit_either_2","ANK8K5WTHJ61C","either","5","956","","","","","","","0","0","1","","0.1398625959","0.8","0.4","0.2","0.6","0.4475890948","0.1303494481","0.1398625959","0.466948448","","","","","","","","","","","","75","K","2","","","39","main_expt"
"","bandit","119","774799","0.0-80.0-0.0","16062785","wem/bandit_either_2","ANK8K5WTHJ61C","either","5","508","","","","","","","1","0","0","0.4679256248","","0.8","0.4","0.2","0.6","","","","","0.4501575696","0.1492074344","0.09690087606","0.4679256248","","","","","","","","76","L","3","","","40","main_expt"
"","bandit","120","777887","0.0-81.0-0.0","16062785","wem/bandit_either_2","ANK8K5WTHJ61C","either","5","1579","","","","","","","0","1","0","","0.445537573","0.8","0.4","0.2","0.6","0.4121884666","0.1370672299","0.1129569356","0.445537573","","","","","","","","","","","","76","L","3","","","41","main_expt"
"","bandit","121","780783","0.0-82.0-0.0","16062785","wem/bandit_either_2","ANK8K5WTHJ61C","either","5","1389","","","","","","","1","0","0","0.4521531226","","0.8","0.4","0.2","0.6","","","","","0.4379939247","0.08144147181","0.1227033228","0.4521531226","","","","","","","","76","L","3","","","42","main_expt"
"","bandit","122","783494","0.0-83.0-0.0","16062785","wem/bandit_either_2","ANK8K5WTHJ61C","either","5","1204","","","","","","","0","0","1","0.4695072217","","0.8","0.4","0.2","0.6","","","","","0.4271747655","0.06793865388","0.08393287497","0.4695072217","","","","","","","","76","L","3","","","43","main_expt"
"","bandit","123","786055","0.0-84.0-0.0","16062785","wem/bandit_either_2","ANK8K5WTHJ61C","either","5","1054","","","","","","","0","0","1","0.4807409838","","0.8","0.4","0.2","0.6","","","","","0.4480494518","0.05295344446","0.06260074275","0.4807409838","","","","","","","","76","L","3","","","44","main_expt"
"","bandit","124","788560","0.0-85.0-0.0","16062785","wem/bandit_either_2","ANK8K5WTHJ61C","either","5","995","","","","","","","0","0","1","0.4507048108","","0.8","0.4","0.2","0.6","","","","","0.4269729589","0.02744239742","0.08062123592","0.4507048108","","","","","","","","76","L","3","","","45","main_expt"
"","bandit","125","791000","0.0-86.0-0.0","16062785","wem/bandit_either_2","ANK8K5WTHJ61C","either","5","931","","","","","","","0","0","1","","0.4382321206","0.8","0.4","0.2","0.6","0.4475746277","0.02347437243","0.1110847749","0.4382321206","","","","","","","","","","","","76","L","3","","","46","main_expt"
"","bandit","126","793559","0.0-87.0-0.0","16062785","wem/bandit_either_2","ANK8K5WTHJ61C","either","5","1050","","","","","","","0","0","1","0.4393937913","","0.8","0.4","0.2","0.6","","","","","0.4295618238","0.02418160198","0.05346849493","0.4393937913","","","","","","","","76","L","3","","","47","main_expt"
"","bandit","127","795880","0.0-88.0-0.0","16062785","wem/bandit_either_2","ANK8K5WTHJ61C","either","5","812","","","","","","","0","0","1","0.440318131","","0.8","0.4","0.2","0.6","","","","","0.4431907244","0.01182676654","0.04499733497","0.440318131","","","","","","","","76","L","3","","","48","main_expt"
"","bandit","128","798216","0.0-89.0-0.0","16062785","wem/bandit_either_2","ANK8K5WTHJ61C","either","5","827","","","","","","","0","0","1","0.0186287842","","0.8","0.4","0.2","0.6","","","","","0.4187732916","0.0186287842","0.07378534534","0.4362102412","","","","","","","","74","J","1","","","49","main_expt"
"","bandit","129","801096","0.0-90.0-0.0","16062785","wem/bandit_either_2","ANK8K5WTHJ61C","either","5","1372","","","","","","","0","0","1","0.02550629551","","0.8","0.4","0.2","0.6","","","","","0.356579213","0.02550629551","0.06168845619","0.44488671","","","","","","","","74","J","1","","","50","main_expt"
"","bandit","130","803120","0.0-91.0-0.0","16062785","wem/bandit_either_2","ANK8K5WTHJ61C","either","5","515","","","","","","","1","0","0","0.4633405548","","0.8","0.4","0.2","0.6","","","","","0.2629404955","0.04366809707","0.1062028567","0.4633405548","","","","","","","","76","L","3","","","51","main_expt"
"","bandit","131","805976","0.0-92.0-0.0","16062785","wem/bandit_either_2","ANK8K5WTHJ61C","either","5","1347","","","","","","","0","0","1","0.4528043762","","0.8","0.4","0.2","0.6","","","","","0.2919747068","0.04357168116","0.1379608546","0.4528043762","","","","","","","","76","L","3","","","52","main_expt"
"","bandit","132","808721","0.0-93.0-0.0","16062785","wem/bandit_either_2","ANK8K5WTHJ61C","either","5","1234","","","","","","","0","1","0","","0.3809901122","0.8","0.4","0.2","0.6","0.3809901122","0.03899227154","0.1356826849","0.4390431751","","","","","","","","","","","","72","H","0","img/none_selected.jpg","","53","main_expt"
"","bandit","133","812288","0.0-94.0-0.0","16062785","wem/bandit_either_2","ANK8K5WTHJ61C","either","5","2059","","","","","","","0","1","0","","0.4549270822","0.8","0.4","0.2","0.6","0.3452518694","0.04009146386","0.1038772241","0.4549270822","","","","","","","","","","","","76","L","3","","","54","main_expt"
"","bandit","134","815704","0.0-95.0-0.0","16062785","wem/bandit_either_2","ANK8K5WTHJ61C","either","5","1907","","","","","","","1","0","0","0.4710341864","","0.8","0.4","0.2","0.6","","","","","0.3263112327","0.0155768565","0.1689791829","0.4710341864","","","","","","","","76","L","3","","","55","main_expt"
"","bandit","135","818856","0.0-96.0-0.0","16062785","wem/bandit_either_2","ANK8K5WTHJ61C","either","5","1644","","","","","","","0","0","1","","0.4745834276","0.8","0.4","0.2","0.6","0.3308963945","0.02112461672","0.1108888145","0.4745834276","","","","","","","","","","","","76","L","3","","","56","main_expt"
"","bandit","136","822142","0.0-97.0-0.0","16062785","wem/bandit_either_2","ANK8K5WTHJ61C","either","5","1778","","","","","","","1","0","0","0.489318572","","0.8","0.4","0.2","0.6","","","","","0.3150326571","0.0126553198","0.1206542402","0.489318572","","","","","","","","76","L","3","","","57","main_expt"
"","bandit","137","825152","0.0-98.0-0.0","16062785","wem/bandit_either_2","ANK8K5WTHJ61C","either","5","1502","","","","","","","1","0","0","0.480037986","","0.8","0.4","0.2","0.6","","","","","0.3049116772","0.01131359515","0.09707343937","0.480037986","","","","","","","","76","L","3","","","58","main_expt"
"","bandit","138","828424","0.0-99.0-0.0","16062785","wem/bandit_either_2","ANK8K5WTHJ61C","either","5","1763","","","","","","","0","1","0","","0.4593461039","0.8","0.4","0.2","0.6","0.3050987947","0.01030075821","0.1044384952","0.4593461039","","","","","","","","","","","","76","L","3","","","59","main_expt"
"","bandit","139","831290","0.0-100.0-0.0","16062785","wem/bandit_either_2","ANK8K5WTHJ61C","either","5","1357","","","","","","","0","1","0","","0.446051488","0.8","0.4","0.2","0.6","0.3274009355","0.005868957973","0.08890369623","0.446051488","","","","","","","","","","","","76","L","3","","","60","main_expt"
"","bandit","140","834409","0.0-101.0-0.0","16062785","wem/bandit_either_2","ANK8K5WTHJ61C","either","5","1610","","","","","","","0","0","1","0.4391285327","","0.8","0.4","0.2","0.6","","","","","0.3428943983","0.004361943215","0.08921221942","0.4391285327","","","","","","","","76","L","3","","","61","main_expt"
"","bandit","141","836873","0.0-102.0-0.0","16062785","wem/bandit_either_2","ANK8K5WTHJ61C","either","5","955","","","","","","","1","0","0","0.4063883723","","0.8","0.4","0.2","0.6","","","","","0.3549763931","0.005208412743","0.09812025034","0.4063883723","","","","","","","","76","L","3","","","62","main_expt"
"","bandit","142","840167","0.0-103.0-0.0","16062785","wem/bandit_either_2","ANK8K5WTHJ61C","either","5","1786","","","","","","","0","0","1","","0.4330387396","0.8","0.4","0.2","0.6","0.3496678451","0.006461011255","0.09006279409","0.4330387396","","","","","","","","","","","","76","L","3","","","63","main_expt"
"","bandit","143","843922","0.0-104.0-0.0","16062785","wem/bandit_either_2","ANK8K5WTHJ61C","either","5","2246","","","","","","","1","0","0","0.4207902426","","0.8","0.4","0.2","0.6","","","","","0.3188537263","0.01267926231","0.1118976224","0.4207902426","","","","","","","","76","L","3","","","64","main_expt"
"","bandit","144","847825","0.0-105.0-0.0","16062785","wem/bandit_either_2","ANK8K5WTHJ61C","either","5","2393","","","","","","","0","0","1","","0.3719582347","0.8","0.4","0.2","0.6","0.3191795336","0.009732787917","0.1053817613","0.3719582347","","","","","","","","","","","","76","L","3","","","65","main_expt"
"","bandit","145","851296","0.0-106.0-0.0","16062785","wem/bandit_either_2","ANK8K5WTHJ61C","either","5","1963","","","","","","","0","0","1","0.3748569955","","0.8","0.4","0.2","0.6","","","","","0.268616347","0.01092542651","0.1307356695","0.3748569955","","","","","","","","76","L","3","","","66","main_expt"
"","bandit","146","853473","0.0-107.0-0.0","16062785","wem/bandit_either_2","ANK8K5WTHJ61C","either","5","667","","","","","","","0","0","1","","0.259194563","0.8","0.4","0.2","0.6","0.259194563","0.02125534741","0.1418436428","0.335252031","","","","","","","","","","","","72","H","0","img/none_selected.jpg","","67","main_expt"
"","bandit","147","855522","0.0-108.0-0.0","16062785","wem/bandit_either_2","ANK8K5WTHJ61C","either","5","540","","","","","","","0","0","1","","0.2281204868","0.8","0.4","0.2","0.6","0.2281204868","0.02360283027","0.1459089566","0.3199157278","","","","","","","","","","","","72","H","0","img/none_selected.jpg","","68","main_expt"
"","bandit","148","857521","0.0-109.0-0.0","16062785","wem/bandit_either_2","ANK8K5WTHJ61C","either","5","490","","","","","","","1","0","0","0.3068525281","","0.8","0.4","0.2","0.6","","","","","0.2195844169","0.02539305756","0.1809721424","0.3068525281","","","","","","","","76","L","3","","","69","main_expt"
"","bandit","149","860641","0.0-110.0-0.0","16062785","wem/bandit_either_2","ANK8K5WTHJ61C","either","5","1611","","","","","","","0","0","1","","0.3181076016","0.8","0.4","0.2","0.6","0.1883338509","0.05014388586","0.1784068974","0.3181076016","","","","","","","","","","","","76","L","3","","","70","main_expt"
"","bandit","150","863152","0.0-111.0-0.0","16062785","wem/bandit_either_2","ANK8K5WTHJ61C","either","5","1003","","","","","","","0","0","1","0.1639708178","","0.8","0.4","0.2","0.6","","","","","0.1639708178","0.04209054697","0.1973023396","0.2926426422","","","","","","","","72","H","0","img/none_selected.jpg","","71","main_expt"
"","bandit","151","865898","0.0-112.0-0.0","16062785","wem/bandit_either_2","ANK8K5WTHJ61C","either","5","1237","","","","","","","1","0","0","0.2380263643","","0.8","0.4","0.2","0.6","","","","","0.1312842785","0.05611199342","0.2436342847","0.2380263643","","","","","","","","76","L","3","","","72","main_expt"
"","bandit","152","869194","0.0-113.0-0.0","16062785","wem/bandit_either_2","ANK8K5WTHJ61C","either","5","1787","","","","","","","0","1","0","","0.2407197948","0.8","0.4","0.2","0.6","0.1805041857","0.05293238473","0.1992173182","0.2407197948","","","","","","","","","","","","76","L","3","","","73","main_expt"
"","bandit","153","871641","0.0-114.0-0.0","16062785","wem/bandit_either_2","ANK8K5WTHJ61C","either","5","938","","","","","","","0","0","1","","0.2317468449","0.8","0.4","0.2","0.6","0.1739557812","0.0318456884","0.2347098304","0.2317468449","","","","","","","","","","","","76","L","3","","","74","main_expt"
"","bandit","154","874089","0.0-115.0-0.0","16062785","wem/bandit_either_2","ANK8K5WTHJ61C","either","5","939","","","","","","","0","0","1","","0.03873230677","0.8","0.4","0.2","0.6","0.2434916027","0.03873230677","0.2641442137","0.2545997551","","","","","","","","","","","","74","J","1","","","75","main_expt"
"","bandit","155","876307","0.0-116.0-0.0","16062785","wem/bandit_either_2","ANK8K5WTHJ61C","either","5","708","","","","","","","0","0","1","0.2890845388","","0.8","0.4","0.2","0.6","","","","","0.2438468568","0.03304947682","0.3192644053","0.2890845388","","","","","","","","76","L","3","","","76","main_expt"
"","bandit","156","880098","0.0-117.0-0.0","16062785","wem/bandit_either_2","ANK8K5WTHJ61C","either","5","2283","","","","","","","0","0","1","0.2386362654","","0.8","0.4","0.2","0.6","","","","","0.2425324642","0.02607887458","0.3351132613","0.2386362654","","","","","","","","76","L","3","","","77","main_expt"
"","bandit","157","882226","0.0-118.0-0.0","16062785","wem/bandit_either_2","ANK8K5WTHJ61C","either","5","619","","","","","","","0","0","1","","0.02492981692","0.8","0.4","0.2","0.6","0.205588479","0.02492981692","0.3086784207","0.2673679704","","","","","","","","","","","","74","J","1","","","78","main_expt"
"","bandit","158","884393","0.0-119.0-0.0","16062785","wem/bandit_either_2","ANK8K5WTHJ61C","either","5","659","","","","","","","0","0","1","","0.3076482073","0.8","0.4","0.2","0.6","0.213062191","0.01824110002","0.3076482073","0.2813811921","","","","","","","","","","","","75","K","2","","","79","main_expt"
"","bandit","159","886371","0.0-120.0-0.0","16062785","wem/bandit_either_2","ANK8K5WTHJ61C","either","5","468","","","","","","","0","0","1","0.3605025214","","0.8","0.4","0.2","0.6","","","","","0.1852926048","0.0202176162","0.3605025214","0.2419447949","","","","","","","","75","K","2","","","80","main_expt"
"","bandit","160","888921","0.0-121.0-0.0","16062785","wem/bandit_either_2","ANK8K5WTHJ61C","either","5","1042","","","","","","","0","0","1","","0.3286166321","0.8","0.4","0.2","0.6","0.2332942271","0.0252752587","0.3286166321","0.323481111","","","","","","","","","","","","75","K","2","","","81","main_expt"
"","bandit","161","890922","0.0-122.0-0.0","16062785","wem/bandit_either_2","ANK8K5WTHJ61C","either","5","491","","","","","","","1","0","0","0.05668457717","","0.8","0.4","0.2","0.6","","","","","0.2087797338","0.05668457717","0.3459677762","0.3097244961","","","","","","","","74","J","1","","","82","main_expt"
"","bandit","162","893594","0.0-123.0-0.0","16062785","wem/bandit_either_2","ANK8K5WTHJ61C","either","5","1162","","","","","","","1","0","0","0.07760530004","","0.8","0.4","0.2","0.6","","","","","0.2049979043","0.07760530004","0.3092751195","0.2787498647","","","","","","","","74","J","1","","","83","main_expt"
"","bandit","163","895594","0.0-124.0-0.0","16062785","wem/bandit_either_2","ANK8K5WTHJ61C","either","5","491","","","","","","","0","0","1","","0.3044630387","0.8","0.4","0.2","0.6","0.2151780091","0.03696005566","0.3044630387","0.2589524449","","","","","","","","","","","","75","K","2","","","84","main_expt"
"","bandit","164","897554","0.0-125.0-0.0","16062785","wem/bandit_either_2","ANK8K5WTHJ61C","either","5","450","","","","","","","0","0","1","","0.04177257934","0.8","0.4","0.2","0.6","0.1497615914","0.04177257934","0.2812480587","0.2769318636","","","","","","","","","","","","74","J","1","","","85","main_expt"
"","bandit","165","899674","0.0-126.0-0.0","16062785","wem/bandit_either_2","ANK8K5WTHJ61C","either","5","612","","","","","","","0","0","1","","0.0385770192","0.8","0.4","0.2","0.6","0.1223687677","0.0385770192","0.2506532223","0.2849222391","","","","","","","","","","","","74","J","1","","","86","main_expt"
"","bandit","166","902178","0.0-127.0-0.0","16062785","wem/bandit_either_2","ANK8K5WTHJ61C","either","5","996","","","","","","","0","0","1","","0.03720252147","0.8","0.4","0.2","0.6","0.1472857413","0.03720252147","0.2269900387","0.3131087309","","","","","","","","","","","","74","J","1","","","87","main_expt"
"","bandit","167","905563","0.0-128.0-0.0","16062785","wem/bandit_either_2","ANK8K5WTHJ61C","either","5","1874","","","","","","","0","0","1","","0.06746059371","0.8","0.4","0.2","0.6","0.1252586248","0.06746059371","0.1504729919","0.3038587512","","","","","","","","","","","","74","J","1","","","88","main_expt"
"","bandit","168","908469","0.0-129.0-0.0","16062785","wem/bandit_either_2","ANK8K5WTHJ61C","either","5","1394","","","","","","","0","0","1","","0.3308022157","0.8","0.4","0.2","0.6","0.1194927994","0.04069757945","0.1382070302","0.3308022157","","","","","","","","","","","","76","L","3","","","89","main_expt"
"","bandit","169","911994","0.0-130.0-0.0","16062785","wem/bandit_either_2","ANK8K5WTHJ61C","either","5","2015","","","","","","","0","0","1","0.1364765349","","0.8","0.4","0.2","0.6","","","","","0.1589750007","0.07325379503","0.1364765349","0.3574922351","","","","","","","","75","K","2","","","90","main_expt"
"","bandit","170","913979","0.0-131.0-0.0","16062785","wem/bandit_either_2","ANK8K5WTHJ61C","either","5","474","","","","","","","0","0","1","","0.06877471811","0.8","0.4","0.2","0.6","0.1859960426","0.06877471811","0.09318196272","0.3729517688","","","","","","","","","","","","74","J","1","","","91","main_expt"
"","bandit","171","916618","0.0-132.0-0.0","16062785","wem/bandit_either_2","ANK8K5WTHJ61C","either","5","1130","","","","","","","0","0","1","0.04115987362","","0.8","0.4","0.2","0.6","","","","","0.192419488","0.04115987362","0.06946097624","0.398352994","","","","","","","","74","J","1","","","92","main_expt"
"","bandit","172","918684","0.0-133.0-0.0","16062785","wem/bandit_either_2","ANK8K5WTHJ61C","either","5","555","","","","","","","0","0","1","0.1716033463","","0.8","0.4","0.2","0.6","","","","","0.1716033463","0.07078892783","0.08102832817","0.4135860398","","","","","","","","72","H","0","img/none_selected.jpg","","93","main_expt"
"","bandit","173","921027","0.0-134.0-0.0","16062785","wem/bandit_either_2","ANK8K5WTHJ61C","either","5","833","","","","","","","0","0","1","0.05572868433","","0.8","0.4","0.2","0.6","","","","","0.1935897604","0.05572868433","0.1271360848","0.3786880174","","","","","","","","74","J","1","","","94","main_expt"
"","bandit","174","923323","0.0-135.0-0.0","16062785","wem/bandit_either_2","ANK8K5WTHJ61C","either","5","786","","","","","","","0","0","1","0.05056929995","","0.8","0.4","0.2","0.6","","","","","0.2193228015","0.05056929995","0.1097592989","0.3823424718","","","","","","","","74","J","1","","","95","main_expt"
"","bandit","175","925354","0.0-136.0-0.0","16062785","wem/bandit_either_2","ANK8K5WTHJ61C","either","5","522","","","","","","","1","0","0","0.3262643469","","0.8","0.4","0.2","0.6","","","","","0.3262643469","0.04159874267","0.1085490834","0.3642725552","","","","","","","","72","H","0","img/none_selected.jpg","","96","main_expt"
"","bandit","176","928059","0.0-137.0-0.0","16062785","wem/bandit_either_2","ANK8K5WTHJ61C","either","5","1196","","","","","","","0","0","1","0.3207405496","","0.8","0.4","0.2","0.6","","","","","0.3207405496","0.03654451862","0.1049812554","0.3197717944","","","","","","","","72","H","0","img/none_selected.jpg","","97","main_expt"
"","bandit","177","930515","0.0-138.0-0.0","16062785","wem/bandit_either_2","ANK8K5WTHJ61C","either","5","947","","","","","","","0","0","1","","0.3712856991","0.8","0.4","0.2","0.6","0.3712856991","0.04190300095","0.08177978443","0.2514424369","","","","","","","","","","","","72","H","0","img/none_selected.jpg","","98","main_expt"
"","bandit","178","932458","0.0-139.0-0.0","16062785","wem/bandit_either_2","ANK8K5WTHJ61C","either","5","435","","","","","","","0","0","1","0.3740145378","","0.8","0.4","0.2","0.6","","","","","0.3740145378","0.08742990617","0.07574087804","0.2926772137","","","","","","","","72","H","0","img/none_selected.jpg","","99","main_expt"
"","bandit","179","935081","0.0-140.0-0.0","16062785","wem/bandit_either_2","ANK8K5WTHJ61C","either","5","1114","","","","","","","0","0","1","","0.234485335","0.8","0.4","0.2","0.6","0.3776295542","0.08966523481","0.07829319678","0.234485335","","","","","","","","","","","","76","L","3","","","100","main_expt"
"","bandit","180","937299","0.0-141.0-0.0","16062785","wem/bandit_either_2","ANK8K5WTHJ61C","either","5","708","","","","","","","0","0","1","0.3592666398","","0.8","0.4","0.2","0.6","","","","","0.3592666398","0.07849065771","0.07919243683","0.250352175","","","","","","","","72","H","0","img/none_selected.jpg","","101","main_expt"
"","bandit","181","939363","0.0-142.0-0.0","16062785","wem/bandit_either_2","ANK8K5WTHJ61C","either","5","554","","","","","","","0","0","1","0.2139972863","","0.8","0.4","0.2","0.6","","","","","0.3412191773","0.1054267613","0.1052753188","0.2139972863","","","","","","","","76","L","3","","","102","main_expt"
"","bandit","182","942636","0.0-143.0-0.0","16062785","wem/bandit_either_2","ANK8K5WTHJ61C","either","5","1762","","","","","","","0","0","1","","0.1248526142","0.8","0.4","0.2","0.6","0.3133100433","0.1120981937","0.1248526142","0.20092706","","","","","","","","","","","","75","K","2","","","103","main_expt"
"","bandit","183","945731","0.0-144.0-0.0","16062785","wem/bandit_either_2","ANK8K5WTHJ61C","either","5","1586","","","","","","","0","0","1","","0.142969925","0.8","0.4","0.2","0.6","0.3219148419","0.1034740879","0.142969925","0.2305366804","","","","","","","","","","","","75","K","2","","","104","main_expt"
"","bandit","184","948019","0.0-145.0-0.0","16062785","wem/bandit_either_2","ANK8K5WTHJ61C","either","5","779","","","","","","","1","0","0","0.2102135581","","0.8","0.4","0.2","0.6","","","","","0.3300892518","0.07597240327","0.13947254","0.2102135581","","","","","","","","76","L","3","","","105","main_expt"
"","bandit","185","950971","0.0-146.0-0.0","16062785","wem/bandit_either_2","ANK8K5WTHJ61C","either","5","1443","","","","","","","0","0","1","","0.2219457329","0.8","0.4","0.2","0.6","0.3401839058","0.1124257427","0.1329526997","0.2219457329","","","","","","","","","","","","76","L","3","","","106","main_expt"
"","bandit","186","953844","0.0-147.0-0.0","16062785","wem/bandit_either_2","ANK8K5WTHJ61C","either","5","1363","","","","","","","0","0","1","0.3048423019","","0.8","0.4","0.2","0.6","","","","","0.3784706915","0.1133168519","0.1727290233","0.3048423019","","","","","","","","76","L","3","","","107","main_expt"
"","bandit","187","956243","0.0-148.0-0.0","16062785","wem/bandit_either_2","ANK8K5WTHJ61C","either","5","890","","","","","","","1","0","0","0.1864487031","","0.8","0.4","0.2","0.6","","","","","0.3945753887","0.1752395656","0.1864487031","0.258150515","","","","","","","","75","K","2","","","108","main_expt"
"","bandit","188","959291","0.0-149.0-0.0","16062785","wem/bandit_either_2","ANK8K5WTHJ61C","either","5","1538","","","","","","","0","0","1","0.2463216238","","0.8","0.4","0.2","0.6","","","","","0.356827327","0.1862973424","0.2463216238","0.1859129148","","","","","","","","75","K","2","","","109","main_expt"
"","bandit","189","961820","0.0-150.0-0.0","16062785","wem/bandit_either_2","ANK8K5WTHJ61C","either","5","1019","","","","","","","0","0","1","","0.2431522628","0.8","0.4","0.2","0.6","0.2344179837","0.2015845776","0.2431522628","0.1371624404","","","","","","","","","","","","75","K","2","","","110","main_expt"
"","bandit","190","964606","0.0-151.0-0.0","16062785","wem/bandit_either_2","ANK8K5WTHJ61C","either","5","1275","","","","","","","0","1","0","","0.1757476643","0.8","0.4","0.2","0.6","0.2644823096","0.2003651753","0.1757476643","0.1258232978","","","","","","","","","","","","75","K","2","","","111","main_expt"
"","bandit","191","967260","0.0-152.0-0.0","16062785","wem/bandit_either_2","ANK8K5WTHJ61C","either","5","1144","","","","","","","0","0","1","","0.2451518953","0.8","0.4","0.2","0.6","0.28311182","0.21392293","0.2451518953","0.1529967373","","","","","","","","","","","","75","K","2","","","112","main_expt"
"","bandit","192","969907","0.0-153.0-0.0","16062785","wem/bandit_either_2","ANK8K5WTHJ61C","either","5","1138","","","","","","","0","0","1","","0.2407836715","0.8","0.4","0.2","0.6","0.2413269532","0.1606798039","0.2407836715","0.148248117","","","","","","","","","","","","75","K","2","","","113","main_expt"
"","bandit","193","972196","0.0-154.0-0.0","16062785","wem/bandit_either_2","ANK8K5WTHJ61C","either","5","778","","","","","","","0","0","1","0.1562208239","","0.8","0.4","0.2","0.6","","","","","0.3100969134","0.2095980235","0.3099317417","0.1562208239","","","","","","","","76","L","3","","","114","main_expt"
"","bandit","194","974492","0.0-155.0-0.0","16062785","wem/bandit_either_2","ANK8K5WTHJ61C","either","5","786","","","","","","","0","0","1","0.2138032898","","0.8","0.4","0.2","0.6","","","","","0.329842252","0.2550279667","0.3180754701","0.2138032898","","","","","","","","76","L","3","","","115","main_expt"
"","bandit","195","976477","0.0-156.0-0.0","16062785","wem/bandit_either_2","ANK8K5WTHJ61C","either","5","474","","","","","","","0","0","1","0.2919742107","","0.8","0.4","0.2","0.6","","","","","0.3223706096","0.2471764387","0.2919742107","0.2331260325","","","","","","","","75","K","2","","","116","main_expt"
"","bandit","196","978932","0.0-157.0-0.0","16062785","wem/bandit_either_2","ANK8K5WTHJ61C","either","5","944","","","","","","","0","1","0","","0.2799774295","0.8","0.4","0.2","0.6","0.3098408215","0.2730878341","0.2799774295","0.1826309729","","","","","","","","","","","","75","K","2","","","117","main_expt"
"","bandit","197","981461","0.0-158.0-0.0","16062785","wem/bandit_either_2","ANK8K5WTHJ61C","either","5","1016","","","","","","","0","0","1","","0.2646714695","0.8","0.4","0.2","0.6","0.2974554567","0.2071462199","0.2646714695","0.1511269107","","","","","","","","","","","","75","K","2","","","118","main_expt"
"","bandit","198","984236","0.0-159.0-0.0","16062785","wem/bandit_either_2","ANK8K5WTHJ61C","either","5","1266","","","","","","","0","0","1","0.3179839519","","0.8","0.4","0.2","0.6","","","","","0.3598468986","0.2275232499","0.3179839519","0.1559979654","","","","","","","","75","K","2","","","119","main_expt"
"","bandit","199","987028","0.0-160.0-0.0","16062785","wem/bandit_either_2","ANK8K5WTHJ61C","either","5","1283","","","","","","","0","0","1","","0.3302262658","0.8","0.4","0.2","0.6","0.2984373086","0.2767559596","0.3302262658","0.1463004055","","","","","","","","","","","","75","K","2","","","120","main_expt"
"","bandit","200","989693","0.0-161.0-0.0","16062785","wem/bandit_either_2","ANK8K5WTHJ61C","either","5","1156","","","","","","","1","0","0","0.3448590315","","0.8","0.4","0.2","0.6","","","","","0.2973090059","0.3448590315","0.3500549905","0.1418195479","","","","","","","","74","J","1","","","121","main_expt"
"","bandit","201","992653","0.0-162.0-0.0","16062785","wem/bandit_either_2","ANK8K5WTHJ61C","either","5","1450","","","","","","","0","0","1","","0.3593301016","0.8","0.4","0.2","0.6","0.3382791822","0.3593301016","0.2686616284","0.1270782113","","","","","","","","","","","","74","J","1","","","122","main_expt"
"","bandit","202","995405","0.0-163.0-0.0","16062785","wem/bandit_either_2","ANK8K5WTHJ61C","either","5","1242","","","","","","","0","0","1","","0.3680529171","0.8","0.4","0.2","0.6","0.3154347028","0.3680529171","0.2277230314","0.1207154071","","","","","","","","","","","","74","J","1","","","123","main_expt"
"","bandit","203","998054","0.0-164.0-0.0","16062785","wem/bandit_either_2","ANK8K5WTHJ61C","either","5","1138","","","","","","","0","0","1","","0.3287090939","0.8","0.4","0.2","0.6","0.2966737815","0.3476523483","0.3287090939","0.1229329119","","","","","","","","","","","","75","K","2","","","124","main_expt"
"","bandit","204","1000357","0.0-165.0-0.0","16062785","wem/bandit_either_2","ANK8K5WTHJ61C","either","5","792","","","","","","","0","0","1","","0.3564603465","0.8","0.4","0.2","0.6","0.3094831126","0.3564603465","0.3687339586","0.09241122996","","","","","","","","","","","","74","J","1","","","125","main_expt"
"","bandit","205","1003261","0.0-166.0-0.0","16062785","wem/bandit_either_2","ANK8K5WTHJ61C","either","5","1394","","","","","","","0","1","0","","0.3550684458","0.8","0.4","0.2","0.6","0.2488993205","0.3550684458","0.3836195774","0.08418962236","","","","","","","","","","","","74","J","1","","","126","main_expt"
"","bandit","206","1005877","0.0-167.0-0.0","16062785","wem/bandit_either_2","ANK8K5WTHJ61C","either","5","1105","","","","","","","0","0","1","0.3617365958","","0.8","0.4","0.2","0.6","","","","","0.1953487027","0.3235559827","0.3617365958","0.154715772","","","","","","","","75","K","2","","","127","main_expt"
"","bandit","207","1008437","0.0-168.0-0.0","16062785","wem/bandit_either_2","ANK8K5WTHJ61C","either","5","1050","","","","","","","0","0","1","","0.312087491","0.8","0.4","0.2","0.6","0.2171889907","0.312087491","0.3235283493","0.1556709078","","","","","","","","","","","","74","J","1","","","128","main_expt"
"","bandit","208","1011477","0.0-169.0-0.0","16062785","wem/bandit_either_2","ANK8K5WTHJ61C","either","5","1530","","","","","","","1","0","0","0.2467699801","","0.8","0.4","0.2","0.6","","","","","0.2467699801","0.2843272188","0.3453830546","0.1214200615","","","","","","","","72","H","0","img/none_selected.jpg","","129","main_expt"
"","bandit","209","1014157","0.0-170.0-0.0","16062785","wem/bandit_either_2","ANK8K5WTHJ61C","either","5","1170","","","","","","","0","0","1","0.2814443482","","0.8","0.4","0.2","0.6","","","","","0.2814443482","0.2128416856","0.3242747857","0.1377283829","","","","","","","","72","H","0","img/none_selected.jpg","","130","main_expt"
"","bandit","210","1016933","0.0-171.0-0.0","16062785","wem/bandit_either_2","ANK8K5WTHJ61C","either","5","1264","","","","","","","0","0","1","0.2834176508","","0.8","0.4","0.2","0.6","","","","","0.2834176508","0.2403879813","0.3417201858","0.1397421628","","","","","","","","72","H","0","img/none_selected.jpg","","131","main_expt"
"","bandit","211","1019462","0.0-172.0-0.0","16062785","wem/bandit_either_2","ANK8K5WTHJ61C","either","5","1019","","","","","","","0","0","1","0.2429908031","","0.8","0.4","0.2","0.6","","","","","0.2429908031","0.2811421594","0.3498614837","0.1061875113","","","","","","","","72","H","0","img/none_selected.jpg","","132","main_expt"
"","bandit","212","1022701","0.0-173.0-0.0","16062785","wem/bandit_either_2","ANK8K5WTHJ61C","either","5","1730","","","","","","","0","0","1","0.3053559495","","0.8","0.4","0.2","0.6","","","","","0.3053559495","0.3002858371","0.3134828643","0.07774811701","","","","","","","","72","H","0","img/none_selected.jpg","","133","main_expt"
"","bandit","213","1024869","0.0-174.0-0.0","16062785","wem/bandit_either_2","ANK8K5WTHJ61C","either","5","657","","","","","","","0","0","1","","0.277406375","0.8","0.4","0.2","0.6","0.2693478067","0.277406375","0.3554593188","0.08211281178","","","","","","","","","","","","74","J","1","","","134","main_expt"
"","bandit","214","1027693","0.0-175.0-0.0","16062785","wem/bandit_either_2","ANK8K5WTHJ61C","either","5","1314","","","","","","","0","1","0","","0.2897147582","0.8","0.4","0.2","0.6","0.3369166079","0.2897147582","0.3150900126","0.1123817552","","","","","","","","","","","","74","J","1","","","135","main_expt"
"","bandit","215","1030854","0.0-176.0-0.0","16062785","wem/bandit_either_2","ANK8K5WTHJ61C","either","5","1652","","","","","","","0","0","1","0.3590576628","","0.8","0.4","0.2","0.6","","","","","0.268603144","0.3590576628","0.3199395785","0.1478339482","","","","","","","","74","J","1","","","136","main_expt"
"","bandit","216","1033541","0.0-177.0-0.0","16062785","wem/bandit_either_2","ANK8K5WTHJ61C","either","5","1175","","","","","","","0","0","1","","0.3822427384","0.8","0.4","0.2","0.6","0.2373427956","0.3822427384","0.33362357","0.1374936615","","","","","","","","","","","","74","J","1","","","137","main_expt"
"","bandit","217","1036677","0.0-178.0-0.0","16062785","wem/bandit_either_2","ANK8K5WTHJ61C","either","5","1626","","","","","","","0","0","1","","0.3611324022","0.8","0.4","0.2","0.6","0.2206869265","0.3410071165","0.3611324022","0.159761955","","","","","","","","","","","","75","K","2","","","138","main_expt"
"","bandit","218","1038917","0.0-179.0-0.0","16062785","wem/bandit_either_2","ANK8K5WTHJ61C","either","5","730","","","","","","","0","0","1","0.3738014659","","0.8","0.4","0.2","0.6","","","","","0.2177966349","0.3738014659","0.3504145086","0.1363721132","","","","","","","","74","J","1","","","139","main_expt"
"","bandit","219","1042247","0.0-180.0-0.0","16062785","wem/bandit_either_2","ANK8K5WTHJ61C","either","5","1818","","","","","","","0","1","0","","0.422575493","0.8","0.4","0.2","0.6","0.2387685432","0.422575493","0.309774603","0.1031445192","","","","","","","","","","","","74","J","1","","","140","main_expt"
"","bandit","220","1046278","0.0-181.0-0.0","16062785","wem/bandit_either_2","ANK8K5WTHJ61C","either","5","2522","","","","","","","0","0","1","","0.4439129864","0.8","0.4","0.2","0.6","0.2575087366","0.4439129864","0.3506531288","0.09805286369","","","","","","","","","","","","74","J","1","","","141","main_expt"
"","bandit","221","1048758","0.0-182.0-0.0","16062785","wem/bandit_either_2","ANK8K5WTHJ61C","either","5","970","","","","","","","0","1","0","","0.4323802182","0.8","0.4","0.2","0.6","0.2392038972","0.4323802182","0.2965027242","0.1149002948","","","","","","","","","","","","74","J","1","","","142","main_expt"
"","bandit","222","1052279","0.0-183.0-0.0","16062785","wem/bandit_either_2","ANK8K5WTHJ61C","either","5","2010","","","","","","","1","0","0","0.4358412593","","0.8","0.4","0.2","0.6","","","","","0.2216470548","0.4358412593","0.2087517366","0.1209542099","","","","","","","","74","J","1","","","143","main_expt"
"","bandit","223","1055606","0.0-184.0-0.0","16062785","wem/bandit_either_2","ANK8K5WTHJ61C","either","5","1817","","","","","","","0","0","1","","0.4407373256","0.8","0.4","0.2","0.6","0.2224896139","0.4407373256","0.2313605626","0.1202521083","","","","","","","","","","","","74","J","1","","","144","main_expt"
"","bandit","224","1060062","0.0-185.0-0.0","16062785","wem/bandit_either_2","ANK8K5WTHJ61C","either","5","2946","","","","","","","0","0","1","","0.4661091035","0.8","0.4","0.2","0.6","0.1925605464","0.4661091035","0.1785565547","0.1619743669","","","","","","","","","","","","74","J","1","","","145","main_expt"
"","bandit","225","1062774","0.0-186.0-0.0","16062785","wem/bandit_either_2","ANK8K5WTHJ61C","either","5","1202","","","","","","","0","0","1","0.1770660648","","0.8","0.4","0.2","0.6","","","","","0.2069800611","0.4637097668","0.1770660648","0.1664631043","","","","","","","","75","K","2","","","146","main_expt"
"","bandit","226","1065319","0.0-187.0-0.0","16062785","wem/bandit_either_2","ANK8K5WTHJ61C","either","5","1035","","","","","","","0","0","1","","0.4700491642","0.8","0.4","0.2","0.6","0.2489662189","0.4700491642","0.1063371611","0.1669241763","","","","","","","","","","","","74","J","1","","","147","main_expt"
"","bandit","227","1068204","0.0-188.0-0.0","16062785","wem/bandit_either_2","ANK8K5WTHJ61C","either","5","1377","","","","","","","0","0","1","0.1946464158","","0.8","0.4","0.2","0.6","","","","","0.1946464158","0.4648109734","0.1216370817","0.1581456949","","","","","","","","72","H","0","img/none_selected.jpg","","148","main_expt"
"","bandit","228","1071310","0.0-189.0-0.0","16062785","wem/bandit_either_2","ANK8K5WTHJ61C","either","5","1595","","","","","","","0","0","1","0.1826562491","","0.8","0.4","0.2","0.6","","","","","0.1826562491","0.4635511513","0.1024256959","0.1698392466","","","","","","","","72","H","0","img/none_selected.jpg","","149","main_expt"
"","bandit","229","1073511","0.0-190.0-0.0","16062785","wem/bandit_either_2","ANK8K5WTHJ61C","either","5","690","","","","","","","0","0","1","0.1750473563","","0.8","0.4","0.2","0.6","","","","","0.1750473563","0.4445017148","0.1371094633","0.2140114634","","","","","","","","72","H","0","img/none_selected.jpg","","150","main_expt"
"","bandit","230","1075942","0.0-191.0-0.0","16062785","wem/bandit_either_2","ANK8K5WTHJ61C","either","5","921","","","","","","","0","0","1","0.2392960001","","0.8","0.4","0.2","0.6","","","","","0.1109536645","0.4434799742","0.1702433702","0.2392960001","","","","","","","","76","L","3","","","151","main_expt"
"","bandit","231","1078943","0.0-192.0-0.0","16062785","wem/bandit_either_2","ANK8K5WTHJ61C","either","5","1489","","","","","","","0","1","0","","0.2095863317","0.8","0.4","0.2","0.6","0.1143086707","0.4451665291","0.1860489046","0.2095863317","","","","","","","","","","","","76","L","3","","","152","main_expt"
"","bandit","232","1081710","0.0-193.0-0.0","16062785","wem/bandit_either_2","ANK8K5WTHJ61C","either","5","1257","","","","","","","0","1","0","","0.2543258611","0.8","0.4","0.2","0.6","0.1236290712","0.4401532833","0.2117094388","0.2543258611","","","","","","","","","","","","76","L","3","","","153","main_expt"
"","bandit","233","1085551","0.0-194.0-0.0","16062785","wem/bandit_either_2","ANK8K5WTHJ61C","either","5","2330","","","","","","","0","0","1","","0.2602259906","0.8","0.4","0.2","0.6","0.1600695342","0.4516855879","0.2072389033","0.2602259906","","","","","","","","","","","","76","L","3","","","154","main_expt"
"","bandit","234","1088591","0.0-195.0-0.0","16062785","wem/bandit_either_2","ANK8K5WTHJ61C","either","5","1530","","","","","","","0","0","1","","0.2750581274","0.8","0.4","0.2","0.6","0.1770288166","0.4480264808","0.1986333914","0.2750581274","","","","","","","","","","","","76","L","3","","","155","main_expt"
"","bandit","235","1091846","0.0-196.0-0.0","16062785","wem/bandit_either_2","ANK8K5WTHJ61C","either","5","1745","","","","","","","0","0","1","","0.2438045727","0.8","0.4","0.2","0.6","0.1761817894","0.4260414265","0.2054640346","0.2438045727","","","","","","","","","","","","76","L","3","","","156","main_expt"
"","bandit","236","1096998","0.0-197.0-0.0","16062785","wem/bandit_either_2","ANK8K5WTHJ61C","either","5","3644","","","","","","","0","0","1","0.2857025143","","0.8","0.4","0.2","0.6","","","","","0.1998830888","0.4365201507","0.1810715383","0.2857025143","","","","","","","","76","L","3","","","157","main_expt"
"","bandit","237","1100951","0.0-198.0-0.0","16062785","wem/bandit_either_2","ANK8K5WTHJ61C","either","5","2442","","","","","","","0","0","1","0.2887719476","","0.8","0.4","0.2","0.6","","","","","0.2150354531","0.4076244479","0.2118906364","0.2887719476","","","","","","","","76","L","3","","","158","main_expt"
"","bandit","238","1104000","0.0-199.0-0.0","16062785","wem/bandit_either_2","ANK8K5WTHJ61C","either","5","1538","","","","","","","0","0","1","","0.2293976715","0.8","0.4","0.2","0.6","0.2221069796","0.403953851","0.2293976715","0.2859462397","","","","","","","","","","","","75","K","2","","","159","main_expt"
"","bandit","239","1107656","0.0-200.0-0.0","16062785","wem/bandit_either_2","ANK8K5WTHJ61C","either","5","2145","","","","","","","0","0","1","","0.2186051381","0.8","0.4","0.2","0.6","0.2627335039","0.4282135537","0.2186051381","0.207432816","","","","","","","","","","","","75","K","2","","","160","main_expt"
"","bandit","240","1110720","0.0-201.0-0.0","16062785","wem/bandit_either_2","ANK8K5WTHJ61C","either","5","1552","","","","","","","0","1","0","","0.2175927206","0.8","0.4","0.2","0.6","0.2922457848","0.4479073124","0.2175927206","0.1611694724","","","","","","","","","","","","75","K","2","","","161","main_expt"
"","bandit","241","1114455","0.0-202.0-0.0","16062785","wem/bandit_either_2","ANK8K5WTHJ61C","either","5","2225","","","","","","","0","0","1","","0.2370404117","0.8","0.4","0.2","0.6","0.3040212123","0.4456201243","0.2370404117","0.14378348","","","","","","","","","","","","75","K","2","","","162","main_expt"
"","bandit","242","1118160","0.0-203.0-0.0","16062785","wem/bandit_either_2","ANK8K5WTHJ61C","either","5","2195","","","","","","","0","0","1","","0.2778780432","0.8","0.4","0.2","0.6","0.2933359027","0.4384930657","0.2778780432","0.1707099899","","","","","","","","","","","","75","K","2","","","163","main_expt"
"","bandit","243","1121407","0.0-204.0-0.0","16062785","wem/bandit_either_2","ANK8K5WTHJ61C","either","5","1736","","","","","","","0","0","1","0.2643388611","","0.8","0.4","0.2","0.6","","","","","0.2388203062","0.4231568034","0.2643388611","0.1933693166","","","","","","","","75","K","2","","","164","main_expt"
"","bandit","244","1126111","0.0-205.0-0.0","16062785","wem/bandit_either_2","ANK8K5WTHJ61C","either","5","3194","","","","","","","0","0","1","","0.1967204453","0.8","0.4","0.2","0.6","0.2646204916","0.4412535734","0.1967204453","0.2406324952","","","","","","","","","","","","75","K","2","","","165","main_expt"
"","bandit","245","1129368","0.0-206.0-0.0","16062785","wem/bandit_either_2","ANK8K5WTHJ61C","either","5","1745","","","","","","","0","0","1","0.2591758032","","0.8","0.4","0.2","0.6","","","","","0.2591758032","0.438364003","0.1567937345","0.2650462377","","","","","","","","72","H","0","img/none_selected.jpg","","166","main_expt"
"","bandit","246","1133152","0.0-207.0-0.0","16062785","wem/bandit_either_2","ANK8K5WTHJ61C","either","5","2273","","","","","","","1","0","0","0.1955934818","","0.8","0.4","0.2","0.6","","","","","0.1955934818","0.4290991351","0.1201482918","0.245875583","","","","","","","","72","H","0","img/none_selected.jpg","","167","main_expt"
"","bandit","247","1136760","0.0-208.0-0.0","16062785","wem/bandit_either_2","ANK8K5WTHJ61C","either","5","2097","","","","","","","0","0","1","0.2090603634","","0.8","0.4","0.2","0.6","","","","","0.2090603634","0.4510860662","0.0936051119","0.257303599","","","","","","","","72","H","0","img/none_selected.jpg","","168","main_expt"
"","bandit","248","1139256","0.0-209.0-0.0","16062785","wem/bandit_either_2","ANK8K5WTHJ61C","either","5","987","","","","","","","0","0","1","0.2678479696","","0.8","0.4","0.2","0.6","","","","","0.2678479696","0.4491424364","0.08775096918","0.2993732043","","","","","","","","72","H","0","img/none_selected.jpg","","169","main_expt"
"","bandit","249","1142681","0.0-210.0-0.0","16062785","wem/bandit_either_2","ANK8K5WTHJ61C","either","5","1914","","","","","","","0","0","1","","0.2532125956","0.8","0.4","0.2","0.6","0.2532125956","0.4332244901","0.06743429675","0.3388977639","","","","","","","","","","","","72","H","0","img/none_selected.jpg","","170","main_expt"
"","bandit","250","1147904","0.0-211.0-0.0","16062785","wem/bandit_either_2","ANK8K5WTHJ61C","either","5","3712","","","","","","","0","0","1","","0.4405036994","0.8","0.4","0.2","0.6","0.2568627054","0.4405036994","0.05979118822","0.2947926635","","","","","","","","","","","","74","J","1","","","171","main_expt"
"","bandit","251","1150945","0.0-212.0-0.0","16062785","wem/bandit_either_2","ANK8K5WTHJ61C","either","5","1529","","","","","","","0","0","1","0.2451563353","","0.8","0.4","0.2","0.6","","","","","0.2451563353","0.4358521759","0.03200499914","0.2892529657","","","","","","","","72","H","0","img/none_selected.jpg","","172","main_expt"
"","bandit","252","1156314","0.0-213.0-0.0","16062785","wem/bandit_either_2","ANK8K5WTHJ61C","either","5","3857","","","","","","","0","0","1","","0.4471617722","0.8","0.4","0.2","0.6","0.3003395367","0.4471617722","0.04613358223","0.2571917514","","","","","","","","","","","","74","J","1","","","173","main_expt"
"","bandit","253","1159097","0.0-214.0-0.0","16062785","wem/bandit_either_2","ANK8K5WTHJ61C","either","5","1271","","","","","","","0","0","1","0.2545998681","","0.8","0.4","0.2","0.6","","","","","0.2545998681","0.4560251174","0.05969677181","0.244173221","","","","","","","","72","H","0","img/none_selected.jpg","","174","main_expt"
"","bandit","254","1162289","0.0-215.0-0.0","16062785","wem/bandit_either_2","ANK8K5WTHJ61C","either","5","1681","","","","","","","0","0","1","0.3383135611","","0.8","0.4","0.2","0.6","","","","","0.3383135611","0.4379349024","0.05930066603","0.2038098688","","","","","","","","72","H","0","img/none_selected.jpg","","175","main_expt"
"","bandit","255","1165840","0.0-216.0-0.0","16062785","wem/bandit_either_2","ANK8K5WTHJ61C","either","5","2040","","","","","","","0","0","1","0.2053823003","","0.8","0.4","0.2","0.6","","","","","0.3880627729","0.4328841116","0.08110879181","0.2053823003","","","","","","","","76","L","3","","","176","main_expt"
"","bandit","256","1172202","0.0-217.0-0.0","16062785","wem/bandit_either_2","ANK8K5WTHJ61C","either","5","4850","","","","","","","0","0","1","","0.07611568943","0.8","0.4","0.2","0.6","0.3920994557","0.3965365967","0.07611568943","0.2193083282","","","","","","","","","","","","75","K","2","","","177","main_expt"
"","bandit","257","1179561","0.0-218.0-0.0","16062785","wem/bandit_either_2","ANK8K5WTHJ61C","either","5","5847","","","","","","","0","0","1","0.1220467165","","0.8","0.4","0.2","0.6","","","","","0.3882277994","0.3899234309","0.1220467165","0.1904263594","","","","","","","","75","K","2","","","178","main_expt"
"","bandit","258","1182473","0.0-219.0-0.0","16062785","wem/bandit_either_2","ANK8K5WTHJ61C","either","5","1400","","","","","","","1","0","0","0.2212788648","","0.8","0.4","0.2","0.6","","","","","0.3939691408","0.4238443777","0.1698853315","0.2212788648","","","","","","","","76","L","3","","","179","main_expt"
"","bandit","259","1187193","0.0-220.0-0.0","16062785","wem/bandit_either_2","ANK8K5WTHJ61C","either","5","3208","","","","","","","0","0","1","0.2640717145","","0.8","0.4","0.2","0.6","","","","","0.4074656662","0.4487400994","0.1374762061","0.2640717145","","","","","","","","76","L","3","","","180","main_expt"
"","bandit","260","1190802","0.0-221.0-0.0","16062785","wem/bandit_either_2","ANK8K5WTHJ61C","either","5","2098","","","","","","","0","0","1","0.2426483564","","0.8","0.4","0.2","0.6","","","","","0.3724421945","0.4314573438","0.09961924189","0.2426483564","","","","","","","","76","L","3","","","181","main_expt"
"","bandit","261","1195737","0.0-222.0-0.0","16062785","wem/bandit_either_2","ANK8K5WTHJ61C","either","5","3424","","","","","","","0","0","1","0.2001563476","","0.8","0.4","0.2","0.6","","","","","0.2998177931","0.4458059303","0.1391043194","0.2001563476","","","","","","","","76","L","3","","","182","main_expt"
"","bandit","262","1200090","0.0-223.0-0.0","16062785","wem/bandit_either_2","ANK8K5WTHJ61C","either","5","2842","","","","","","","0","0","1","","0.1336424596","0.8","0.4","0.2","0.6","0.3629728763","0.4485460149","0.1336424596","0.2167094124","","","","","","","","","","","","75","K","2","","","183","main_expt"
"","bandit","263","1206954","0.0-224.0-0.0","16062785","wem/bandit_either_2","ANK8K5WTHJ61C","either","5","5353","","","","","","","0","0","1","","0.115911235","0.8","0.4","0.2","0.6","0.3763603645","0.4078350507","0.115911235","0.2402813617","","","","","","","","","","","","75","K","2","","","184","main_expt"
"","bandit","264","1211858","0.0-225.0-0.0","16062785","wem/bandit_either_2","ANK8K5WTHJ61C","either","5","3393","","","","","","","0","0","1","","0.2745112141","0.8","0.4","0.2","0.6","0.3472982705","0.3805788675","0.1394203739","0.2745112141","","","","","","","","","","","","76","L","3","","","185","main_expt"
"","bandit","265","1217618","0.0-226.0-0.0","16062785","wem/bandit_either_2","ANK8K5WTHJ61C","either","5","4250","","","","","","","0","0","1","0.3095995051","","0.8","0.4","0.2","0.6","","","","","0.3095995051","0.4236809331","0.1557479742","0.2774566956","","","","","","","","72","H","0","img/none_selected.jpg","","186","main_expt"
"","bandit","266","1220562","0.0-227.0-0.0","16062785","wem/bandit_either_2","ANK8K5WTHJ61C","either","5","1434","","","","","","","0","1","0","","0.4058627081","0.8","0.4","0.2","0.6","0.2567332284","0.4058627081","0.1823611596","0.2876011691","","","","","","","","","","","","74","J","1","","","187","main_expt"
"","bandit","267","1223354","0.0-228.0-0.0","16062785","wem/bandit_either_2","ANK8K5WTHJ61C","either","5","1281","","","","","","","0","0","1","","0.3913346521","0.8","0.4","0.2","0.6","0.2555256861","0.3913346521","0.1854179297","0.2947112378","","","","","","","","","","","","74","J","1","","","188","main_expt"
"","bandit","268","1226618","0.0-229.0-0.0","16062785","wem/bandit_either_2","ANK8K5WTHJ61C","either","5","1752","","","","","","","1","0","0","0.3760164219","","0.8","0.4","0.2","0.6","","","","","0.2009875262","0.3760164219","0.1875645599","0.2581494","","","","","","","","74","J","1","","","189","main_expt"
"","bandit","269","1230307","0.0-230.0-0.0","16062785","wem/bandit_either_2","ANK8K5WTHJ61C","either","5","2178","","","","","","","0","0","1","","0.3327352817","0.8","0.4","0.2","0.6","0.2055488595","0.3327352817","0.2018323604","0.1756323468","","","","","","","","","","","","74","J","1","","","190","main_expt"
"","bandit","270","1233195","0.0-231.0-0.0","16062785","wem/bandit_either_2","ANK8K5WTHJ61C","either","5","1377","","","","","","","1","0","0","0.3015177445","","0.8","0.4","0.2","0.6","","","","","0.1506387864","0.3015177445","0.221094727","0.2521570866","","","","","","","","74","J","1","","","191","main_expt"
"","bandit","271","1236257","0.0-232.0-0.0","16062785","wem/bandit_either_2","ANK8K5WTHJ61C","either","5","1551","","","","","","","0","0","1","","0.2773298268","0.8","0.4","0.2","0.6","0.2027442266","0.2773298268","0.2320570195","0.2964739449","","","","","","","","","","","","74","J","1","","","192","main_expt"
"","bandit","272","1241523","0.0-233.0-0.0","16062785","wem/bandit_either_2","ANK8K5WTHJ61C","either","5","3755","","","","","","","0","0","1","0.2836613797","","0.8","0.4","0.2","0.6","","","","","0.1969137872","0.2836613797","0.2948950962","0.2612966838","","","","","","","","74","J","1","","","193","main_expt"
"","bandit","273","1250171","0.0-234.0-0.0","16062785","wem/bandit_either_2","ANK8K5WTHJ61C","either","5","7136","","","","","","","0","0","1","0.2602906927","","0.8","0.4","0.2","0.6","","","","","0.2114994946","0.2799350415","0.2602906927","0.3292914436","","","","","","","","75","K","2","","","194","main_expt"
"","bandit","274","1256516","0.0-235.0-0.0","16062785","wem/bandit_either_2","ANK8K5WTHJ61C","either","5","4834","","","","","","","0","0","1","0.2068597772","","0.8","0.4","0.2","0.6","","","","","0.2467939011","0.2068597772","0.1771499101","0.4070308407","","","","","","","","74","J","1","","","195","main_expt"
"","bandit","275","1261292","0.0-236.0-0.0","16062785","wem/bandit_either_2","ANK8K5WTHJ61C","either","5","3264","","","","","","","0","0","1","0.2731811988","","0.8","0.4","0.2","0.6","","","","","0.2731811988","0.2679469531","0.1746274925","0.3494820729","","","","","","","","72","H","0","img/none_selected.jpg","","196","main_expt"
"","bandit","276","1266131","0.0-237.0-0.0","16062785","wem/bandit_either_2","ANK8K5WTHJ61C","either","5","3330","","","","","","","0","0","1","0.2512114903","","0.8","0.4","0.2","0.6","","","","","0.2512114903","0.2448078588","0.193224684","0.3571939809","","","","","","","","72","H","0","img/none_selected.jpg","","197","main_expt"
"","bandit","277","1269788","0.0-238.0-0.0","16062785","wem/bandit_either_2","ANK8K5WTHJ61C","either","5","2145","","","","","","","0","0","1","0.382430028","","0.8","0.4","0.2","0.6","","","","","0.190651112","0.2433987968","0.1771509929","0.382430028","","","","","","","","76","L","3","","","198","main_expt"
"","bandit","278","1273732","0.0-239.0-0.0","16062785","wem/bandit_either_2","ANK8K5WTHJ61C","either","5","2433","","","","","","","0","0","1","","0.3353474301","0.8","0.4","0.2","0.6","0.1701189695","0.2653624242","0.2466668772","0.3353474301","","","","","","","","","","","","76","L","3","","","199","main_expt"
"","bandit","279","1276019","0.0-240.0-0.0","16062785","wem/bandit_either_2","ANK8K5WTHJ61C","either","5","777","","","","","","","0","0","1","0.3321976498","","0.8","0.4","0.2","0.6","","","","","0.1656975488","0.2551376492","0.2477816141","0.3321976498","","","","","","","","76","L","3","","","200","main_expt"
"","bandit","280","1280492","0.0-241.0-0.0","16062785","wem/bandit_either_2","ANK8K5WTHJ61C","either","5","2962","","","","","","","1","0","0","0.3218117355","","0.8","0.4","0.2","0.6","","","","","0.1647298582","0.2660639347","0.2744817861","0.3218117355","","","","","","","","76","L","3","","","201","main_expt"
"","bandit","281","1285267","0.0-242.0-0.0","16062785","wem/bandit_either_2","ANK8K5WTHJ61C","either","5","3264","","","","","","","0","0","1","","0.2949214693","0.8","0.4","0.2","0.6","0.1242041815","0.2220900594","0.3043062986","0.2949214693","","","","","","","","","","","","76","L","3","","","202","main_expt"
"","bandit","282","1288699","0.0-243.0-0.0","16062785","wem/bandit_either_2","ANK8K5WTHJ61C","either","5","1923","","","","","","","0","0","1","0.300077299","","0.8","0.4","0.2","0.6","","","","","0.1684487429","0.1543353204","0.272185569","0.300077299","","","","","","","","76","L","3","","","203","main_expt"
"","bandit","283","1292461","0.0-244.0-0.0","16062785","wem/bandit_either_2","ANK8K5WTHJ61C","either","5","2251","","","","","","","0","1","0","","0.2866085977","0.8","0.4","0.2","0.6","0.1666409686","0.1605482003","0.2610767704","0.2866085977","","","","","","","","","","","","76","L","3","","","204","main_expt"
"","bandit","284","1295316","0.0-245.0-0.0","16062785","wem/bandit_either_2","ANK8K5WTHJ61C","either","5","1343","","","","","","","0","0","1","0.2695546272","","0.8","0.4","0.2","0.6","","","","","0.2197286508","0.1406914754","0.2832615928","0.2695546272","","","","","","","","76","L","3","","","205","main_expt"
"","bandit","285","1299372","0.0-246.0-0.0","16062785","wem/bandit_either_2","ANK8K5WTHJ61C","either","5","2545","","","","","","","0","0","1","0.2622178416","","0.8","0.4","0.2","0.6","","","","","0.2754509052","0.1138947463","0.300913322","0.2622178416","","","","","","","","76","L","3","","","206","main_expt"
"","bandit","286","1305165","0.0-247.0-0.0","16062785","wem/bandit_either_2","ANK8K5WTHJ61C","either","5","4282","","","","","","","0","0","1","","0.2498186578","0.8","0.4","0.2","0.6","0.2664869377","0.1096702189","0.3260258847","0.2498186578","","","","","","","","","","","","76","L","3","","","207","main_expt"
"","bandit","287","1310517","0.0-248.0-0.0","16062785","wem/bandit_either_2","ANK8K5WTHJ61C","either","5","3839","","","","","","","0","0","1","0.2335358635","","0.8","0.4","0.2","0.6","","","","","0.2686565688","0.09922356593","0.3173829003","0.2335358635","","","","","","","","76","L","3","","","208","main_expt"
"","bandit","288","1316212","0.0-249.0-0.0","16062785","wem/bandit_either_2","ANK8K5WTHJ61C","either","5","4184","","","","","","","0","0","1","","0.3153846937","0.8","0.4","0.2","0.6","0.2380255957","0.101567507","0.3153846937","0.2638942681","","","","","","","","","","","","75","K","2","","","209","main_expt"
"","bandit","289","1319711","0.0-250.0-0.0","16062785","wem/bandit_either_2","ANK8K5WTHJ61C","either","5","1985","","","","","","","0","0","1","","0.3010876552","0.8","0.4","0.2","0.6","0.2507768727","0.08675379402","0.3010876552","0.2526926237","","","","","","","","","","","","75","K","2","","","210","main_expt"
"","bandit","290","1325325","0.0-251.0-0.0","16062785","wem/bandit_either_2","ANK8K5WTHJ61C","either","5","4104","","","","","","","1","0","0","0.2685142319","","0.8","0.4","0.2","0.6","","","","","0.2685142319","0.07512021269","0.2864900033","0.2740367769","","","","","","","","72","H","0","img/none_selected.jpg","","211","main_expt"
"","bandit","291","1328742","0.0-252.0-0.0","16062785","wem/bandit_either_2","ANK8K5WTHJ61C","either","5","1905","","","","","","","0","0","1","0.260511483","","0.8","0.4","0.2","0.6","","","","","0.260511483","0.08144254236","0.3163372434","0.2440836191","","","","","","","","72","H","0","img/none_selected.jpg","","212","main_expt"
"","bandit","292","1331685","0.0-253.0-0.0","16062785","wem/bandit_either_2","ANK8K5WTHJ61C","either","5","1431","","","","","","","0","1","0","","0.2579605047","0.8","0.4","0.2","0.6","0.2579605047","0.06585574052","0.2701305136","0.2341903104","","","","","","","","","","","","72","H","0","img/none_selected.jpg","","213","main_expt"
"","bandit","293","1335764","0.0-254.0-0.0","16062785","wem/bandit_either_2","ANK8K5WTHJ61C","either","5","2570","","","","","","","1","0","0","0.2470456849","","0.8","0.4","0.2","0.6","","","","","0.2470456849","0.08686614453","0.302599165","0.2097526345","","","","","","","","72","H","0","img/none_selected.jpg","","214","main_expt"
"","bandit","294","1338101","0.0-255.0-0.0","16062785","wem/bandit_either_2","ANK8K5WTHJ61C","either","5","825","","","","","","","0","0","1","0.3285383036","","0.8","0.4","0.2","0.6","","","","","0.3285383036","0.1068548489","0.2968005471","0.1796882487","","","","","","","","72","H","0","img/none_selected.jpg","","215","main_expt"
"","bandit","295","1341894","0.0-256.0-0.0","16062785","wem/bandit_either_2","ANK8K5WTHJ61C","either","5","2281","","","","","","","0","0","1","0.3780044773","","0.8","0.4","0.2","0.6","","","","","0.3780044773","0.1211736082","0.2835536598","0.2237900511","","","","","","","","72","H","0","img/none_selected.jpg","","216","main_expt"
"","bandit","296","1346758","0.0-257.0-0.0","16062785","wem/bandit_either_2","ANK8K5WTHJ61C","either","5","3351","","","","","","","0","0","1","0.3939228946","","0.8","0.4","0.2","0.6","","","","","0.3939228946","0.09343701815","0.2520762718","0.2265358539","","","","","","","","72","H","0","img/none_selected.jpg","","217","main_expt"
"","bandit","297","1351014","0.0-258.0-0.0","16062785","wem/bandit_either_2","ANK8K5WTHJ61C","either","5","2742","","","","","","","1","0","0","0.3198270803","","0.8","0.4","0.2","0.6","","","","","0.3198270803","0.1001055386","0.2562699476","0.2364013437","","","","","","","","72","H","0","img/none_selected.jpg","","218","main_expt"
"","bandit","298","1362014","0.0-259.0-0.0","16062785","wem/bandit_either_2","ANK8K5WTHJ61C","either","5","9490","","","","","","","0","0","1","0.3502502288","","0.8","0.4","0.2","0.6","","","","","0.3502502288","0.09524874014","0.3002431464","0.2810560361","","","","","","","","72","H","0","img/none_selected.jpg","","219","main_expt"
"","bandit","299","1368373","0.0-260.0-0.0","16062785","wem/bandit_either_2","ANK8K5WTHJ61C","either","5","4848","","","","","","","1","0","0","0.3402456168","","0.8","0.4","0.2","0.6","","","","","0.3402456168","0.1304899995","0.3365413303","0.3027429446","","","","","","","","72","H","0","img/none_selected.jpg","","220","main_expt"
"","bandit","300","1371110","0.0-261.0-0.0","16062785","wem/bandit_either_2","ANK8K5WTHJ61C","either","5","1225","","","","","","","0","0","1","","0.3770059732","0.8","0.4","0.2","0.6","0.3770059732","0.1272814923","0.2946103072","0.3132134988","","","","","","","","","","","","72","H","0","img/none_selected.jpg","","221","main_expt"
"","bandit","301","1373799","0.0-262.0-0.0","16062785","wem/bandit_either_2","ANK8K5WTHJ61C","either","5","1177","","","","","","","1","0","0","0.3864421123","","0.8","0.4","0.2","0.6","","","","","0.3864421123","0.1654407056","0.3267284332","0.2424821827","","","","","","","","72","H","0","img/none_selected.jpg","","222","main_expt"
"","bandit","302","1379190","0.0-263.0-0.0","16062785","wem/bandit_either_2","ANK8K5WTHJ61C","either","5","3878","","","","","","","1","0","0","0.4205211408","","0.8","0.4","0.2","0.6","","","","","0.4205211408","0.1788325852","0.3175152631","0.2595367495","","","","","","","","72","H","0","img/none_selected.jpg","","223","main_expt"
"","bandit","303","1383823","0.0-264.0-0.0","16062785","wem/bandit_either_2","ANK8K5WTHJ61C","either","5","3120","","","","","","","1","0","0","0.4131889957","","0.8","0.4","0.2","0.6","","","","","0.4131889957","0.1736623033","0.3192400935","0.328819141","","","","","","","","72","H","0","img/none_selected.jpg","","224","main_expt"
"","bandit","304","1388078","0.0-265.0-0.0","16062785","wem/bandit_either_2","ANK8K5WTHJ61C","either","5","2744","","","","","","","0","0","1","0.4001513574","","0.8","0.4","0.2","0.6","","","","","0.4001513574","0.1721911447","0.3096750449","0.356121412","","","","","","","","72","H","0","img/none_selected.jpg","","225","main_expt"
"","bandit","305","1392558","0.0-266.0-0.0","16062785","wem/bandit_either_2","ANK8K5WTHJ61C","either","5","2968","","","","","","","0","1","0","","0.3963688582","0.8","0.4","0.2","0.6","0.3963688582","0.2133818582","0.3142833063","0.3394019192","","","","","","","","","","","","72","H","0","img/none_selected.jpg","","226","main_expt"
"","bandit","306","1397239","0.0-267.0-0.0","16062785","wem/bandit_either_2","ANK8K5WTHJ61C","either","5","3169","","","","","","","0","0","1","","0.3979714495","0.8","0.4","0.2","0.6","0.3979714495","0.2620007467","0.3096885674","0.2860553004","","","","","","","","","","","","72","H","0","img/none_selected.jpg","","227","main_expt"
"","bandit","307","1403510","0.0-268.0-0.0","16062785","wem/bandit_either_2","ANK8K5WTHJ61C","either","5","4758","","","","","","","0","0","1","","0.3811043637","0.8","0.4","0.2","0.6","0.3811043637","0.2961930455","0.3048295172","0.2967856672","","","","","","","","","","","","72","H","0","img/none_selected.jpg","","228","main_expt"
"","bandit","308","1407631","0.0-269.0-0.0","16062785","wem/bandit_either_2","ANK8K5WTHJ61C","either","5","2610","","","","","","","0","0","1","0.3488149186","","0.8","0.4","0.2","0.6","","","","","0.3488149186","0.3081123415","0.2553920021","0.2857745529","","","","","","","","72","H","0","img/none_selected.jpg","","229","main_expt"
"","bandit","309","1409991","0.0-270.0-0.0","16062785","wem/bandit_either_2","ANK8K5WTHJ61C","either","5","847","","","","","","","0","0","1","0.2883621188","","0.8","0.4","0.2","0.6","","","","","0.2883621188","0.3027177586","0.2783794412","0.2589404948","","","","","","","","72","H","0","img/none_selected.jpg","","230","main_expt"
"","bandit","310","1413438","0.0-271.0-0.0","16062785","wem/bandit_either_2","ANK8K5WTHJ61C","either","5","1936","","","","","","","0","0","1","0.2444465504","","0.8","0.4","0.2","0.6","","","","","0.2444465504","0.2495346478","0.2735536708","0.2628441024","","","","","","","","72","H","0","img/none_selected.jpg","","231","main_expt"
"","bandit","311","1417888","0.0-272.0-0.0","16062785","wem/bandit_either_2","ANK8K5WTHJ61C","either","5","2937","","","","","","","0","0","1","0.2996930955","","0.8","0.4","0.2","0.6","","","","","0.2996930955","0.2185872191","0.2262440502","0.276537748","","","","","","","","72","H","0","img/none_selected.jpg","","232","main_expt"
"","bandit","312","1423806","0.0-273.0-0.0","16062785","wem/bandit_either_2","ANK8K5WTHJ61C","either","5","4407","","","","","","","0","0","1","0.3103031796","","0.8","0.4","0.2","0.6","","","","","0.3103031796","0.1874863907","0.2171974885","0.2485723575","","","","","","","","72","H","0","img/none_selected.jpg","","233","main_expt"
"","bandit","313","1426279","0.0-274.0-0.0","16062785","wem/bandit_either_2","ANK8K5WTHJ61C","either","5","961","","","","","","","1","0","0","0.2172766866","","0.8","0.4","0.2","0.6","","","","","0.2971988612","0.2165838284","0.2951485073","0.2172766866","","","","","","","","76","L","3","","","234","main_expt"
"","bandit","314","1429632","0.0-275.0-0.0","16062785","wem/bandit_either_2","ANK8K5WTHJ61C","either","5","1839","","","","","","","0","0","1","0.221542824","","0.8","0.4","0.2","0.6","","","","","0.3266576642","0.1791302586","0.3135740045","0.221542824","","","","","","","","76","L","3","","","235","main_expt"
"","bandit","315","1432360","0.0-276.0-0.0","16062785","wem/bandit_either_2","ANK8K5WTHJ61C","either","5","1214","","","","","","","0","0","1","0.2200573756","","0.8","0.4","0.2","0.6","","","","","0.3596878827","0.2463713802","0.2945285262","0.2200573756","","","","","","","","76","L","3","","","236","main_expt"
"","bandit","316","1435128","0.0-277.0-0.0","16062785","wem/bandit_either_2","ANK8K5WTHJ61C","either","5","1255","","","","","","","0","0","1","0.2146478317","","0.8","0.4","0.2","0.6","","","","","0.3951370387","0.2204623923","0.2797454337","0.2146478317","","","","","","","","76","L","3","","","237","main_expt"
"","bandit","317","1438312","0.0-278.0-0.0","16062785","wem/bandit_either_2","ANK8K5WTHJ61C","either","5","1670","","","","","","","0","1","0","","0.2237656472","0.8","0.4","0.2","0.6","0.3863552979","0.2316256556","0.266453507","0.2237656472","","","","","","","","","","","","76","L","3","","","238","main_expt"
"","bandit","318","1442503","0.0-279.0-0.0","16062785","wem/bandit_either_2","ANK8K5WTHJ61C","either","5","2679","","","","","","","0","0","1","0.2302611888","","0.8","0.4","0.2","0.6","","","","","0.3962704677","0.2406304147","0.310831157","0.2302611888","","","","","","","","76","L","3","","","239","main_expt"
"","bandit","319","1445504","0.0-280.0-0.0","16062785","wem/bandit_either_2","ANK8K5WTHJ61C","either","5","1488","","","","","","","0","0","1","0.2253069634","","0.8","0.4","0.2","0.6","","","","","0.3926977495","0.2624476398","0.331950591","0.2253069634","","","","","","","","76","L","3","","","240","main_expt"
"","bandit","320","1449208","0.0-281.0-0.0","16062785","wem/bandit_either_2","ANK8K5WTHJ61C","either","5","2191","","","","","","","0","0","1","0.2523404353","","0.8","0.4","0.2","0.6","","","","","0.3381110468","0.2627099727","0.3223776605","0.2523404353","","","","","","","","76","L","3","","","241","main_expt"
"","bandit","321","1452848","0.0-282.0-0.0","16062785","wem/bandit_either_2","ANK8K5WTHJ61C","either","5","2127","","","","","","","0","0","1","0.3213381148","","0.8","0.4","0.2","0.6","","","","","0.3213381148","0.2262339403","0.3389272588","0.238450381","","","","","","","","72","H","0","img/none_selected.jpg","","242","main_expt"
"","bandit","322","1455536","0.0-283.0-0.0","16062785","wem/bandit_either_2","ANK8K5WTHJ61C","either","5","1175","","","","","","","0","0","1","0.3395415742","","0.8","0.4","0.2","0.6","","","","","0.3395415742","0.2511573395","0.4023830898","0.2476478509","","","","","","","","72","H","0","img/none_selected.jpg","","243","main_expt"
"","bandit","323","1458624","0.0-284.0-0.0","16062785","wem/bandit_either_2","ANK8K5WTHJ61C","either","5","1575","","","","","","","0","0","1","","0.2603762171","0.8","0.4","0.2","0.6","0.3077285799","0.3112309098","0.4072225753","0.2603762171","","","","","","","","","","","","76","L","3","","","244","main_expt"
"","bandit","324","1463697","0.0-285.0-0.0","16062785","wem/bandit_either_2","ANK8K5WTHJ61C","either","5","3560","","","","","","","0","0","1","0.2778117757","","0.8","0.4","0.2","0.6","","","","","0.269997398","0.3169667097","0.4047901721","0.2778117757","","","","","","","","76","L","3","","","245","main_expt"
"","bandit","325","1468144","0.0-286.0-0.0","16062785","wem/bandit_either_2","ANK8K5WTHJ61C","either","5","2934","","","","","","","0","0","1","0.2571702875","","0.8","0.4","0.2","0.6","","","","","0.2896792764","0.3774934029","0.4245844383","0.2571702875","","","","","","","","76","L","3","","","246","main_expt"
"","bandit","326","1471937","0.0-287.0-0.0","16062785","wem/bandit_either_2","ANK8K5WTHJ61C","either","5","2280","","","","","","","1","0","0","0.2790325972","","0.8","0.4","0.2","0.6","","","","","0.3079745892","0.3592590195","0.4425022826","0.2790325972","","","","","","","","76","L","3","","","247","main_expt"
