"consent","trial_type","trial_index","time_elapsed","internal_node_id","subjID","study","MID","cond","drift","rt","responses","key_press","expt_phase","like","value","connected","gems","bombs","no_reward","GemPrChosen","BombPrChosen","GainOverPainPr_0","GainOverPainPr_1","GainOverPainPr_2","GainOverPainPr_3","LosePr_0","LosePr_1","LosePr_2","LosePr_3","WinPr_0","WinPr_1","WinPr_2","WinPr_3","Q0","Q1","Q2","gender","age","ethnicity","target","respCharCode","respKey","respChoiceNum","respChoice","practice","trial_counter","trial_label"
"INL_behavioral_consent_30min_online.html","consent","0","12271","0.0-0.0","19273443","wem/bandit_either_2","A37JD0XUZHQYRC","either","4","","","","","","","","","","","","","","","","","","","","","","","","","","","","","","","","","","","","","",""
"","survey-text","1","17193","0.0-1.0","19273443","wem/bandit_either_2","A37JD0XUZHQYRC","either","4","3913","{""Q0"":""A37JD0XUZHQYRC""}","","","","","","","","","","","","","","","","","","","","","","","","","","","","","","","","","","","",""
"","text","2","35887","0.0-2.0","19273443","wem/bandit_either_2","A37JD0XUZHQYRC","either","4","17690","","32","","","","","","","","","","","","","","","","","","","","","","","","","","","","","","","","","","",""
"","text","3","44821","0.0-3.0","19273443","wem/bandit_either_2","A37JD0XUZHQYRC","either","4","8934","","32","","","","","","","","","","","","","","","","","","","","","","","","","","","","","","","","","","",""
"","text","4","62102","0.0-4.0","19273443","wem/bandit_either_2","A37JD0XUZHQYRC","either","4","17278","","32","","","","","","","","","","","","","","","","","","","","","","","","","","","","","","","","","","",""
"","text","5","75262","0.0-5.0","19273443","wem/bandit_either_2","A37JD0XUZHQYRC","either","4","13159","","32","","","","","","","","","","","","","","","","","","","","","","","","","","","","","","","","","","",""
"","text","6","90830","0.0-6.0","19273443","wem/bandit_either_2","A37JD0XUZHQYRC","either","4","15566","","32","","","","","","","","","","","","","","","","","","","","","","","","","","","","","","","","","","",""
"","text","7","98175","0.0-7.0","19273443","wem/bandit_either_2","A37JD0XUZHQYRC","either","4","7344","","32","","","","","","","","","","","","","","","","","","","","","","","","","","","","","","","","","","",""
"","text","8","102341","0.0-8.0","19273443","wem/bandit_either_2","A37JD0XUZHQYRC","either","4","4165","","32","","","","","","","","","","","","","","","","","","","","","","","","","","","","","","","","","","",""
"","identification","9","116641","0.0-9.0-0.0","19273443","wem/bandit_either_2","A37JD0XUZHQYRC","either","4","14283","","","","3","4","4","","","","","","","","","","","","","","","","","","","","","","","","the village of Zur","","","","","","",""
"","identification","10","121623","0.0-9.0-1.0","19273443","wem/bandit_either_2","A37JD0XUZHQYRC","either","4","3972","","","","3","4","4","","","","","","","","","","","","","","","","","","","","","","","","the village of Nyx","","","","","","",""
"","text","11","129373","0.0-10.0","19273443","wem/bandit_either_2","A37JD0XUZHQYRC","either","4","6748","","32","","","","","","","","","","","","","","","","","","","","","","","","","","","","","","","","","","",""
"","text","12","135236","0.0-11.0","19273443","wem/bandit_either_2","A37JD0XUZHQYRC","either","4","5862","","32","","","","","","","","","","","","","","","","","","","","","","","","","","","","","","","","","","",""
"","text","13","138468","0.0-12.0","19273443","wem/bandit_either_2","A37JD0XUZHQYRC","either","4","3231","","32","","","","","","","","","","","","","","","","","","","","","","","","","","","","","","","","","","",""
"","text","14","143429","0.0-13.0","19273443","wem/bandit_either_2","A37JD0XUZHQYRC","either","4","4958","","32","","","","","","","","","","","","","","","","","","","","","","","","","","","","","","","","","","",""
"","bandit","15","151491","0.0-14.0-0.0","19273443","wem/bandit_either_2","A37JD0XUZHQYRC","either","4","6556","","","","","","","0","0","1","0","0","","","","","0","","","","0","","","","","","","","","","","74","J","0","img/none_selected_demo.jpg","true","0",""
"","bandit","16","154658","0.0-15.0-0.0","19273443","wem/bandit_either_2","A37JD0XUZHQYRC","either","4","1662","","","","","","","0","0","1","0","0","","","","","0","","","","0","","","","","","","","","","","75","K","0","img/none_selected_demo.jpg","true","0",""
"","text","17","162260","0.0-16.0","19273443","wem/bandit_either_2","A37JD0XUZHQYRC","either","4","7600","","32","","","","","","","","","","","","","","","","","","","","","","","","","","","","","","","","","","",""
"","text","18","173316","0.0-17.0","19273443","wem/bandit_either_2","A37JD0XUZHQYRC","either","4","11054","","32","","","","","","","","","","","","","","","","","","","","","","","","","","","","","","","","","","",""
"","text","19","189141","0.0-18.0","19273443","wem/bandit_either_2","A37JD0XUZHQYRC","either","4","15822","","32","","","","","","","","","","","","","","","","","","","","","","","","","","","","","","","","","","",""
"","text","20","194091","0.0-19.0","19273443","wem/bandit_either_2","A37JD0XUZHQYRC","either","4","4950","","32","","","","","","","","","","","","","","","","","","","","","","","","","","","","","","","","","","",""
"","bandit","21","197287","0.0-20.0-0.0","19273443","wem/bandit_either_2","A37JD0XUZHQYRC","either","4","1693","","","","","","","1","0","0","0.8","","0.5","0.5","","","","","","","0.8","0.2","","","","","","","","","","74","J","0","img/none_selected_demo.jpg","true","0","80_20_practice"
"","bandit","22","199504","0.0-20.0-1.0","19273443","wem/bandit_either_2","A37JD0XUZHQYRC","either","4","714","","","","","","","0","1","0","","0.8","0.5","0.5","","","0.8","0.2","","","","","","","","","","","","","","74","J","0","img/none_selected_demo.jpg","true","0","80_20_practice"
"","bandit","23","201570","0.0-20.0-2.0","19273443","wem/bandit_either_2","A37JD0XUZHQYRC","either","4","561","","","","","","","1","0","0","0.8","","0.5","0.5","","","","","","","0.8","0.2","","","","","","","","","","74","J","0","img/none_selected_demo.jpg","true","0","80_20_practice"
"","bandit","24","203889","0.0-20.0-3.0","19273443","wem/bandit_either_2","A37JD0XUZHQYRC","either","4","816","","","","","","","0","1","0","","0.8","0.5","0.5","","","0.8","0.2","","","","","","","","","","","","","","74","J","0","img/none_selected_demo.jpg","true","0","80_20_practice"
"","bandit","25","205969","0.0-20.0-4.0","19273443","wem/bandit_either_2","A37JD0XUZHQYRC","either","4","575","","","","","","","0","0","1","0.8","","0.5","0.5","","","","","","","0.8","0.2","","","","","","","","","","74","J","0","img/none_selected_demo.jpg","true","0","80_20_practice"
"","bandit","26","207849","0.0-20.0-5.0","19273443","wem/bandit_either_2","A37JD0XUZHQYRC","either","4","375","","","","","","","1","0","0","0.8","","0.5","0.5","","","","","","","0.8","0.2","","","","","","","","","","74","J","0","img/none_selected_demo.jpg","true","0","80_20_practice"
"","bandit","27","209770","0.0-20.0-6.0","19273443","wem/bandit_either_2","A37JD0XUZHQYRC","either","4","415","","","","","","","0","0","1","","0.2","0.5","0.5","","","0.8","0.2","","","","","","","","","","","","","","75","K","1","","true","0","80_20_practice"
"","bandit","28","212577","0.0-20.0-7.0","19273443","wem/bandit_either_2","A37JD0XUZHQYRC","either","4","1303","","","","","","","0","1","0","","0.2","0.5","0.5","","","0.8","0.2","","","","","","","","","","","","","","75","K","1","","true","0","80_20_practice"
"","bandit","29","214505","0.0-20.0-8.0","19273443","wem/bandit_either_2","A37JD0XUZHQYRC","either","4","423","","","","","","","0","0","1","","0.2","0.5","0.5","","","0.8","0.2","","","","","","","","","","","","","","75","K","1","","true","0","80_20_practice"
"","bandit","30","216392","0.0-20.0-9.0","19273443","wem/bandit_either_2","A37JD0XUZHQYRC","either","4","383","","","","","","","0","0","1","0.2","","0.5","0.5","","","","","","","0.8","0.2","","","","","","","","","","75","K","1","","true","0","80_20_practice"
"","bandit","31","218399","0.0-20.0-10.0","19273443","wem/bandit_either_2","A37JD0XUZHQYRC","either","4","503","","","","","","","0","0","1","","0.2","0.5","0.5","","","0.8","0.2","","","","","","","","","","","","","","75","K","1","","true","0","80_20_practice"
"","bandit","32","220241","0.0-20.0-11.0","19273443","wem/bandit_either_2","A37JD0XUZHQYRC","either","4","336","","","","","","","0","0","1","","0.2","0.5","0.5","","","0.8","0.2","","","","","","","","","","","","","","75","K","1","","true","0","80_20_practice"
"","bandit","33","223402","0.0-20.0-12.0","19273443","wem/bandit_either_2","A37JD0XUZHQYRC","either","4","1656","","","","","","","0","1","0","","0.8","0.5","0.5","","","0.8","0.2","","","","","","","","","","","","","","74","J","0","img/none_selected_demo.jpg","true","0","80_20_practice"
"","bandit","34","226554","0.0-20.0-13.0","19273443","wem/bandit_either_2","A37JD0XUZHQYRC","either","4","1645","","","","","","","1","0","0","0.8","","0.5","0.5","","","","","","","0.8","0.2","","","","","","","","","","74","J","0","img/none_selected_demo.jpg","true","0","80_20_practice"
"","bandit","35","228395","0.0-20.0-14.0","19273443","wem/bandit_either_2","A37JD0XUZHQYRC","either","4","332","","","","","","","1","0","0","0.8","","0.5","0.5","","","","","","","0.8","0.2","","","","","","","","","","74","J","0","img/none_selected_demo.jpg","true","0","80_20_practice"
"","bandit","36","230228","0.0-20.0-15.0","19273443","wem/bandit_either_2","A37JD0XUZHQYRC","either","4","327","","","","","","","1","0","0","0.8","","0.5","0.5","","","","","","","0.8","0.2","","","","","","","","","","74","J","0","img/none_selected_demo.jpg","true","0","80_20_practice"
"","bandit","37","231960","0.0-20.0-16.0","19273443","wem/bandit_either_2","A37JD0XUZHQYRC","either","4","227","","","","","","","0","1","0","","0.8","0.5","0.5","","","0.8","0.2","","","","","","","","","","","","","","74","J","0","img/none_selected_demo.jpg","true","0","80_20_practice"
"","bandit","38","233729","0.0-20.0-17.0","19273443","wem/bandit_either_2","A37JD0XUZHQYRC","either","4","265","","","","","","","0","1","0","","0.8","0.5","0.5","","","0.8","0.2","","","","","","","","","","","","","","74","J","0","img/none_selected_demo.jpg","true","0","80_20_practice"
"","bandit","39","235336","0.0-20.0-18.0","19273443","wem/bandit_either_2","A37JD0XUZHQYRC","either","4","102","","","","","","","0","0","1","","0.8","0.5","0.5","","","0.8","0.2","","","","","","","","","","","","","","74","J","0","img/none_selected_demo.jpg","true","0","80_20_practice"
"","bandit","40","237256","0.0-20.0-19.0","19273443","wem/bandit_either_2","A37JD0XUZHQYRC","either","4","415","","","","","","","0","1","0","","0.8","0.5","0.5","","","0.8","0.2","","","","","","","","","","","","","","74","J","0","img/none_selected_demo.jpg","true","0","80_20_practice"
"","text","41","241218","0.0-21.0","19273443","wem/bandit_either_2","A37JD0XUZHQYRC","either","4","3960","","32","","","","","","","","","","","","","","","","","","","","","","","","","","","","","","","","","","",""
"","bandit","42","245329","0.0-22.0-0.0","19273443","wem/bandit_either_2","A37JD0XUZHQYRC","either","4","2604","","","","","","","1","0","0","1","0","","","","","0","1","","","1","0","","","","","","","","","","74","J","0","img/none_selected_demo.jpg","true","0",""
"","text","43","251905","0.0-23.0","19273443","wem/bandit_either_2","A37JD0XUZHQYRC","either","4","6575","","32","","","","","","","","","","","","","","","","","","","","","","","","","","","","","","","","","","",""
"","text","44","255930","0.0-24.0","19273443","wem/bandit_either_2","A37JD0XUZHQYRC","either","4","4022","","32","","","","","","","","","","","","","","","","","","","","","","","","","","","","","","","","","","",""
"","text","45","259457","0.0-25.0","19273443","wem/bandit_either_2","A37JD0XUZHQYRC","either","4","3526","","32","","","","","","","","","","","","","","","","","","","","","","","","","","","","","","","","","","",""
"","text","46","264033","0.0-26.0","19273443","wem/bandit_either_2","A37JD0XUZHQYRC","either","4","4573","","32","","","","","","","","","","","","","","","","","","","","","","","","","","","","","","","","","","",""
"","text","47","284545","0.0-27.0","19273443","wem/bandit_either_2","A37JD0XUZHQYRC","either","4","20510","","32","","","","","","","","","","","","","","","","","","","","","","","","","","","","","","","","","","",""
"","text","48","289880","0.0-28.0","19273443","wem/bandit_either_2","A37JD0XUZHQYRC","either","4","5334","","32","","","","","","","","","","","","","","","","","","","","","","","","","","","","","","","","","","",""
"","text","49","294560","0.0-29.0","19273443","wem/bandit_either_2","A37JD0XUZHQYRC","either","4","4678","","32","","","","","","","","","","","","","","","","","","","","","","","","","","","","","","","","","","",""
"","text","50","301736","0.0-30.0","19273443","wem/bandit_either_2","A37JD0XUZHQYRC","either","4","7174","","32","","","","","","","","","","","","","","","","","","","","","","","","","","","","","","","","","","",""
"","text","51","307577","0.0-31.0","19273443","wem/bandit_either_2","A37JD0XUZHQYRC","either","4","5839","","32","","","","","","","","","","","","","","","","","","","","","","","","","","","","","","","","","","",""
"","text","52","310072","0.0-32.0","19273443","wem/bandit_either_2","A37JD0XUZHQYRC","either","4","2493","","32","","","","","","","","","","","","","","","","","","","","","","","","","","","","","","","","","","",""
"","text","53","314761","0.0-33.0","19273443","wem/bandit_either_2","A37JD0XUZHQYRC","either","4","4686","","32","","","","","","","","","","","","","","","","","","","","","","","","","","","","","","","","","","",""
"","bandit","54","317543","0.0-34.0-0.0","19273443","wem/bandit_either_2","A37JD0XUZHQYRC","either","4","1276","","","","","","","0","0","1","","0.8","0.5","0.5","0.5","0.5","0.8","0.2","0.6","0.2","","","","","","","","","","","","72","H","0","img/none_selected.jpg","true","0","full_practice"
"","bandit","55","319382","0.0-34.0-1.0","19273443","wem/bandit_either_2","A37JD0XUZHQYRC","either","4","334","","","","","","","0","1","0","","0.8","0.5","0.5","0.5","0.5","0.8","0.2","0.6","0.2","","","","","","","","","","","","72","H","0","img/none_selected.jpg","true","0","full_practice"
"","bandit","56","321191","0.0-34.0-2.0","19273443","wem/bandit_either_2","A37JD0XUZHQYRC","either","4","302","","","","","","","1","0","0","0.8","","0.5","0.5","0.5","0.5","","","","","0.8","0.2","0.6","0.2","","","","","","","","72","H","0","img/none_selected.jpg","true","0","full_practice"
"","bandit","57","322831","0.0-34.0-3.0","19273443","wem/bandit_either_2","A37JD0XUZHQYRC","either","4","134","","","","","","","1","0","0","0.8","","0.5","0.5","0.5","0.5","","","","","0.8","0.2","0.6","0.2","","","","","","","","72","H","0","img/none_selected.jpg","true","0","full_practice"
"","bandit","58","324656","0.0-34.0-4.0","19273443","wem/bandit_either_2","A37JD0XUZHQYRC","either","4","319","","","","","","","1","0","0","0.8","","0.5","0.5","0.5","0.5","","","","","0.8","0.2","0.6","0.2","","","","","","","","72","H","0","img/none_selected.jpg","true","0","full_practice"
"","bandit","59","326421","0.0-34.0-5.0","19273443","wem/bandit_either_2","A37JD0XUZHQYRC","either","4","261","","","","","","","0","1","0","","0.8","0.5","0.5","0.5","0.5","0.8","0.2","0.6","0.2","","","","","","","","","","","","72","H","0","img/none_selected.jpg","true","0","full_practice"
"","bandit","60","329617","0.0-34.0-6.0","19273443","wem/bandit_either_2","A37JD0XUZHQYRC","either","4","1687","","","","","","","0","1","0","","0.8","0.5","0.5","0.5","0.5","0.8","0.2","0.6","0.2","","","","","","","","","","","","72","H","0","img/none_selected.jpg","true","0","full_practice"
"","bandit","61","331391","0.0-34.0-7.0","19273443","wem/bandit_either_2","A37JD0XUZHQYRC","either","4","268","","","","","","","0","0","1","","0.8","0.5","0.5","0.5","0.5","0.8","0.2","0.6","0.2","","","","","","","","","","","","72","H","0","img/none_selected.jpg","true","0","full_practice"
"","bandit","62","333175","0.0-34.0-8.0","19273443","wem/bandit_either_2","A37JD0XUZHQYRC","either","4","278","","","","","","","0","1","0","","0.8","0.5","0.5","0.5","0.5","0.8","0.2","0.6","0.2","","","","","","","","","","","","72","H","0","img/none_selected.jpg","true","0","full_practice"
"","bandit","63","336397","0.0-34.0-9.0","19273443","wem/bandit_either_2","A37JD0XUZHQYRC","either","4","1718","","","","","","","0","0","1","","0.8","0.5","0.5","0.5","0.5","0.8","0.2","0.6","0.2","","","","","","","","","","","","72","H","0","img/none_selected.jpg","true","0","full_practice"
"","bandit","64","338526","0.0-34.0-10.0","19273443","wem/bandit_either_2","A37JD0XUZHQYRC","either","4","623","","","","","","","0","1","0","","0.8","0.5","0.5","0.5","0.5","0.8","0.2","0.6","0.2","","","","","","","","","","","","72","H","0","img/none_selected.jpg","true","0","full_practice"
"","bandit","65","340503","0.0-34.0-11.0","19273443","wem/bandit_either_2","A37JD0XUZHQYRC","either","4","470","","","","","","","0","1","0","","0.8","0.5","0.5","0.5","0.5","0.8","0.2","0.6","0.2","","","","","","","","","","","","72","H","0","img/none_selected.jpg","true","0","full_practice"
"","bandit","66","342326","0.0-34.0-12.0","19273443","wem/bandit_either_2","A37JD0XUZHQYRC","either","4","318","","","","","","","0","1","0","","0.8","0.5","0.5","0.5","0.5","0.8","0.2","0.6","0.2","","","","","","","","","","","","72","H","0","img/none_selected.jpg","true","0","full_practice"
"","bandit","67","344111","0.0-34.0-13.0","19273443","wem/bandit_either_2","A37JD0XUZHQYRC","either","4","278","","","","","","","0","1","0","","0.8","0.5","0.5","0.5","0.5","0.8","0.2","0.6","0.2","","","","","","","","","","","","72","H","0","img/none_selected.jpg","true","0","full_practice"
"","bandit","68","345854","0.0-34.0-14.0","19273443","wem/bandit_either_2","A37JD0XUZHQYRC","either","4","235","","","","","","","0","0","1","0.8","","0.5","0.5","0.5","0.5","","","","","0.8","0.2","0.6","0.2","","","","","","","","72","H","0","img/none_selected.jpg","true","0","full_practice"
"","bandit","69","347644","0.0-34.0-15.0","19273443","wem/bandit_either_2","A37JD0XUZHQYRC","either","4","286","","","","","","","0","1","0","","0.8","0.5","0.5","0.5","0.5","0.8","0.2","0.6","0.2","","","","","","","","","","","","72","H","0","img/none_selected.jpg","true","0","full_practice"
"","bandit","70","349407","0.0-34.0-16.0","19273443","wem/bandit_either_2","A37JD0XUZHQYRC","either","4","257","","","","","","","1","0","0","0.8","","0.5","0.5","0.5","0.5","","","","","0.8","0.2","0.6","0.2","","","","","","","","72","H","0","img/none_selected.jpg","true","0","full_practice"
"","bandit","71","352349","0.0-34.0-17.0","19273443","wem/bandit_either_2","A37JD0XUZHQYRC","either","4","1436","","","","","","","0","0","1","0.8","","0.5","0.5","0.5","0.5","","","","","0.8","0.2","0.6","0.2","","","","","","","","72","H","0","img/none_selected.jpg","true","0","full_practice"
"","bandit","72","354006","0.0-34.0-18.0","19273443","wem/bandit_either_2","A37JD0XUZHQYRC","either","4","151","","","","","","","1","0","0","0.8","","0.5","0.5","0.5","0.5","","","","","0.8","0.2","0.6","0.2","","","","","","","","72","H","0","img/none_selected.jpg","true","0","full_practice"
"","bandit","73","355519","0.0-34.0-19.0","19273443","wem/bandit_either_2","A37JD0XUZHQYRC","either","4","6","","","","","","","0","0","1","0.8","","0.5","0.5","0.5","0.5","","","","","0.8","0.2","0.6","0.2","","","","","","","","72","H","0","img/none_selected.jpg","true","0","full_practice"
"","text","74","359761","0.0-35.0","19273443","wem/bandit_either_2","A37JD0XUZHQYRC","either","4","4234","","32","","","","","","","","","","","","","","","","","","","","","","","","","","","","","","","","","","",""
"","text","75","376024","0.0-36.0","19273443","wem/bandit_either_2","A37JD0XUZHQYRC","either","4","15260","","32","","","","","","","","","","","","","","","","","","","","","","","","","","","","","","","","","","",""
"","text","76","388879","0.0-37.0","19273443","wem/bandit_either_2","A37JD0XUZHQYRC","either","4","12853","","32","","","","","","","","","","","","","","","","","","","","","","","","","","","","","","","","","","",""
"","text","77","394927","0.0-38.0","19273443","wem/bandit_either_2","A37JD0XUZHQYRC","either","4","6045","","32","","","","","","","","","","","","","","","","","","","","","","","","","","","","","","","","","","",""
"","text","78","402071","0.0-39.0","19273443","wem/bandit_either_2","A37JD0XUZHQYRC","either","4","7141","","32","","","","","","","","","","","","","","","","","","","","","","","","","","","","","","","","","","",""
"","text","79","407830","0.0-40.0","19273443","wem/bandit_either_2","A37JD0XUZHQYRC","either","4","5757","","32","","","","","","","","","","","","","","","","","","","","","","","","","","","","","","","","","","",""
"","bandit","80","410596","0.0-41.0-0.0","19273443","wem/bandit_either_2","A37JD0XUZHQYRC","either","4","1262","","","","","","","0","0","1","0.2771551185","","0.8","0.4","0.2","0.6","","","","","0.2771551185","0.3242650943","0.3894728165","0.3525715257","","","","","","","","72","H","0","img/none_selected.jpg","","1","main_expt"
"","bandit","81","412460","0.0-42.0-0.0","19273443","wem/bandit_either_2","A37JD0XUZHQYRC","either","4","358","","","","","","","0","0","1","0.3030893157","","0.8","0.4","0.2","0.6","","","","","0.3030893157","0.3296228245","0.363660736","0.390153736","","","","","","","","72","H","0","img/none_selected.jpg","","2","main_expt"
"","bandit","82","414302","0.0-43.0-0.0","19273443","wem/bandit_either_2","A37JD0XUZHQYRC","either","4","334","","","","","","","0","1","0","","0.3102780753","0.8","0.4","0.2","0.6","0.3211059343","0.3102780753","0.3842171554","0.3725447061","","","","","","","","","","","","74","J","1","","","3","main_expt"
"","bandit","83","416116","0.0-44.0-0.0","19273443","wem/bandit_either_2","A37JD0XUZHQYRC","either","4","307","","","","","","","0","0","1","0.2749892112","","0.8","0.4","0.2","0.6","","","","","0.2804386453","0.2749892112","0.3831963053","0.3431524481","","","","","","","","74","J","1","","","4","main_expt"
"","bandit","84","417908","0.0-45.0-0.0","19273443","wem/bandit_either_2","A37JD0XUZHQYRC","either","4","285","","","","","","","0","1","0","","0.3037824898","0.8","0.4","0.2","0.6","0.2609559086","0.3037824898","0.4056596471","0.3448007793","","","","","","","","","","","","74","J","1","","","5","main_expt"
"","bandit","85","419692","0.0-46.0-0.0","19273443","wem/bandit_either_2","A37JD0XUZHQYRC","either","4","276","","","","","","","0","0","1","","0.3217417103","0.8","0.4","0.2","0.6","0.2259287768","0.3217417103","0.4409946319","0.3980888019","","","","","","","","","","","","74","J","1","","","6","main_expt"
"","bandit","86","421524","0.0-47.0-0.0","19273443","wem/bandit_either_2","A37JD0XUZHQYRC","either","4","326","","","","","","","0","0","1","","0.3821747998","0.8","0.4","0.2","0.6","0.2433618728","0.3018715163","0.3821747998","0.3693121862","","","","","","","","","","","","75","K","2","","","7","main_expt"
"","bandit","87","423283","0.0-48.0-0.0","19273443","wem/bandit_either_2","A37JD0XUZHQYRC","either","4","252","","","","","","","0","1","0","","0.3841844813","0.8","0.4","0.2","0.6","0.2025356769","0.3643645816","0.3841844813","0.2933697555","","","","","","","","","","","","75","K","2","","","8","main_expt"
"","bandit","88","425053","0.0-49.0-0.0","19273443","wem/bandit_either_2","A37JD0XUZHQYRC","either","4","262","","","","","","","0","0","1","0.3412237964","","0.8","0.4","0.2","0.6","","","","","0.1441028094","0.3418610374","0.3412237964","0.3036212831","","","","","","","","75","K","2","","","9","main_expt"
"","bandit","89","426851","0.0-50.0-0.0","19273443","wem/bandit_either_2","A37JD0XUZHQYRC","either","4","291","","","","","","","1","0","0","0.308020301","","0.8","0.4","0.2","0.6","","","","","0.1736005971","0.3190157878","0.3256420777","0.308020301","","","","","","","","76","L","3","","","10","main_expt"
"","bandit","90","428634","0.0-51.0-0.0","19273443","wem/bandit_either_2","A37JD0XUZHQYRC","either","4","279","","","","","","","0","0","1","0.3065973113","","0.8","0.4","0.2","0.6","","","","","0.1836365694","0.2998731478","0.3514007431","0.3065973113","","","","","","","","76","L","3","","","11","main_expt"
"","bandit","91","430354","0.0-52.0-0.0","19273443","wem/bandit_either_2","A37JD0XUZHQYRC","either","4","215","","","","","","","0","0","1","","0.3271859636","0.8","0.4","0.2","0.6","0.2143869662","0.2942822571","0.3722032088","0.3271859636","","","","","","","","","","","","76","L","3","","","12","main_expt"
"","bandit","92","432677","0.0-53.0-0.0","19273443","wem/bandit_either_2","A37JD0XUZHQYRC","either","4","814","","","","","","","0","0","1","0.2761076709","","0.8","0.4","0.2","0.6","","","","","0.1637139448","0.3009212619","0.3681707299","0.2761076709","","","","","","","","76","L","3","","","13","main_expt"
"","bandit","93","434762","0.0-54.0-0.0","19273443","wem/bandit_either_2","A37JD0XUZHQYRC","either","4","581","","","","","","","0","0","1","","0.3528222564","0.8","0.4","0.2","0.6","0.1488535162","0.3227424667","0.3528222564","0.2311164494","","","","","","","","","","","","75","K","2","","","14","main_expt"
"","bandit","94","436604","0.0-55.0-0.0","19273443","wem/bandit_either_2","A37JD0XUZHQYRC","either","4","336","","","","","","","0","1","0","","0.3738838661","0.8","0.4","0.2","0.6","0.1332411271","0.3547546862","0.3738838661","0.2905977425","","","","","","","","","","","","75","K","2","","","15","main_expt"
"","bandit","95","438706","0.0-56.0-0.0","19273443","wem/bandit_either_2","A37JD0XUZHQYRC","either","4","596","","","","","","","0","0","1","","0.3385239332","0.8","0.4","0.2","0.6","0.09882415698","0.3241157583","0.3385239332","0.2924554969","","","","","","","","","","","","75","K","2","","","16","main_expt"
"","bandit","96","440485","0.0-57.0-0.0","19273443","wem/bandit_either_2","A37JD0XUZHQYRC","either","4","269","","","","","","","0","0","1","","0.3111355138","0.8","0.4","0.2","0.6","0.1069157009","0.3363410386","0.3111355138","0.3114836302","","","","","","","","","","","","75","K","2","","","17","main_expt"
"","bandit","97","442364","0.0-58.0-0.0","19273443","wem/bandit_either_2","A37JD0XUZHQYRC","either","4","372","","","","","","","0","1","0","","0.3880947854","0.8","0.4","0.2","0.6","0.134958137","0.3880947854","0.3487767647","0.3215333475","","","","","","","","","","","","74","J","1","","","18","main_expt"
"","bandit","98","444153","0.0-59.0-0.0","19273443","wem/bandit_either_2","A37JD0XUZHQYRC","either","4","285","","","","","","","0","1","0","","0.4116912081","0.8","0.4","0.2","0.6","0.1230418706","0.4116912081","0.3010303499","0.2733398822","","","","","","","","","","","","74","J","1","","","19","main_expt"
"","bandit","99","446073","0.0-60.0-0.0","19273443","wem/bandit_either_2","A37JD0XUZHQYRC","either","4","416","","","","","","","0","0","1","0.3973894305","","0.8","0.4","0.2","0.6","","","","","0.09866604889","0.3973894305","0.2907203997","0.2351410235","","","","","","","","74","J","1","","","20","main_expt"
"","bandit","100","448050","0.0-61.0-0.0","19273443","wem/bandit_either_2","A37JD0XUZHQYRC","either","4","471","","","","","","","1","0","0","0.369037109","","0.8","0.4","0.2","0.6","","","","","0.1021222834","0.369037109","0.3088108907","0.2257810982","","","","","","","","74","J","1","","","21","main_expt"
"","bandit","101","449924","0.0-62.0-0.0","19273443","wem/bandit_either_2","A37JD0XUZHQYRC","either","4","367","","","","","","","1","0","0","0.4179468344","","0.8","0.4","0.2","0.6","","","","","0.1234138809","0.4179468344","0.349202701","0.2221856846","","","","","","","","74","J","1","","","22","main_expt"
"","bandit","102","451731","0.0-63.0-0.0","19273443","wem/bandit_either_2","A37JD0XUZHQYRC","either","4","301","","","","","","","0","1","0","","0.4276062926","0.8","0.4","0.2","0.6","0.1030640584","0.4276062926","0.3785068464","0.2127124712","","","","","","","","","","","","74","J","1","","","23","main_expt"
"","bandit","103","453813","0.0-64.0-0.0","19273443","wem/bandit_either_2","A37JD0XUZHQYRC","either","4","574","","","","","","","0","0","1","","0.4078122208","0.8","0.4","0.2","0.6","0.1261035851","0.4078122208","0.4012919653","0.1882566648","","","","","","","","","","","","74","J","1","","","24","main_expt"
"","bandit","104","455618","0.0-65.0-0.0","19273443","wem/bandit_either_2","A37JD0XUZHQYRC","either","4","299","","","","","","","0","0","1","","0.3950411191","0.8","0.4","0.2","0.6","0.1796705612","0.3950411191","0.400899794","0.1273223766","","","","","","","","","","","","74","J","1","","","25","main_expt"
"","bandit","105","458524","0.0-66.0-0.0","19273443","wem/bandit_either_2","A37JD0XUZHQYRC","either","4","1399","","","","","","","1","0","0","0.4322303329","","0.8","0.4","0.2","0.6","","","","","0.2414651519","0.4322303329","0.4126274585","0.15747458","","","","","","","","74","J","1","","","26","main_expt"
"","bandit","106","460467","0.0-67.0-0.0","19273443","wem/bandit_either_2","A37JD0XUZHQYRC","either","4","437","","","","","","","0","0","1","","0.4353643722","0.8","0.4","0.2","0.6","0.2005374927","0.4353643722","0.3992263875","0.1442684908","","","","","","","","","","","","74","J","1","","","27","main_expt"
"","bandit","107","462356","0.0-68.0-0.0","19273443","wem/bandit_either_2","A37JD0XUZHQYRC","either","4","382","","","","","","","0","0","1","0.3197257227","","0.8","0.4","0.2","0.6","","","","","0.3197257227","0.4464017809","0.3846584236","0.2255404594","","","","","","","","72","H","0","img/none_selected.jpg","","28","main_expt"
"","bandit","108","464795","0.0-69.0-0.0","19273443","wem/bandit_either_2","A37JD0XUZHQYRC","either","4","933","","","","","","","0","0","1","","0.3141869899","0.8","0.4","0.2","0.6","0.3141869899","0.4417109462","0.3561298134","0.2730951691","","","","","","","","","","","","72","H","0","img/none_selected.jpg","","29","main_expt"
"","bandit","109","466675","0.0-70.0-0.0","19273443","wem/bandit_either_2","A37JD0XUZHQYRC","either","4","372","","","","","","","0","1","0","","0.3445991012","0.8","0.4","0.2","0.6","0.3445991012","0.4065908859","0.3101363315","0.2890412698","","","","","","","","","","","","72","H","0","img/none_selected.jpg","","30","main_expt"
"","bandit","110","468724","0.0-71.0-0.0","19273443","wem/bandit_either_2","A37JD0XUZHQYRC","either","4","542","","","","","","","1","0","0","0.3456655029","","0.8","0.4","0.2","0.6","","","","","0.3456655029","0.3954582793","0.3322219809","0.3309226042","","","","","","","","72","H","0","img/none_selected.jpg","","31","main_expt"
"","bandit","111","471049","0.0-72.0-0.0","19273443","wem/bandit_either_2","A37JD0XUZHQYRC","either","4","819","","","","","","","0","0","1","","0.3826172224","0.8","0.4","0.2","0.6","0.3826172224","0.3716723047","0.3516269472","0.3519301717","","","","","","","","","","","","72","H","0","img/none_selected.jpg","","32","main_expt"
"","bandit","112","472939","0.0-73.0-0.0","19273443","wem/bandit_either_2","A37JD0XUZHQYRC","either","4","382","","","","","","","1","0","0","0.3804083149","","0.8","0.4","0.2","0.6","","","","","0.3804083149","0.3799724366","0.3852085553","0.3414953842","","","","","","","","72","H","0","img/none_selected.jpg","","33","main_expt"
"","bandit","113","474978","0.0-74.0-0.0","19273443","wem/bandit_either_2","A37JD0XUZHQYRC","either","4","533","","","","","","","1","0","0","0.3808178469","","0.8","0.4","0.2","0.6","","","","","0.3808178469","0.409480615","0.4196644934","0.2938412915","","","","","","","","72","H","0","img/none_selected.jpg","","34","main_expt"
"","bandit","114","476917","0.0-75.0-0.0","19273443","wem/bandit_either_2","A37JD0XUZHQYRC","either","4","429","","","","","","","0","0","1","0.376129724","","0.8","0.4","0.2","0.6","","","","","0.376129724","0.3869649509","0.420891004","0.2256616696","","","","","","","","72","H","0","img/none_selected.jpg","","35","main_expt"
"","bandit","115","478843","0.0-76.0-0.0","19273443","wem/bandit_either_2","A37JD0XUZHQYRC","either","4","420","","","","","","","1","0","0","0.4027809904","","0.8","0.4","0.2","0.6","","","","","0.4027809904","0.3045389962","0.3808881167","0.2525957923","","","","","","","","72","H","0","img/none_selected.jpg","","36","main_expt"
"","bandit","116","480939","0.0-77.0-0.0","19273443","wem/bandit_either_2","A37JD0XUZHQYRC","either","4","589","","","","","","","1","0","0","0.3715556026","","0.8","0.4","0.2","0.6","","","","","0.3715556026","0.2954217214","0.3634360393","0.2333373749","","","","","","","","72","H","0","img/none_selected.jpg","","37","main_expt"
"","bandit","117","482841","0.0-78.0-0.0","19273443","wem/bandit_either_2","A37JD0XUZHQYRC","either","4","397","","","","","","","0","0","1","","0.354842885","0.8","0.4","0.2","0.6","0.354842885","0.2749906923","0.3432691328","0.2126884676","","","","","","","","","","","","72","H","0","img/none_selected.jpg","","38","main_expt"
"","bandit","118","484634","0.0-79.0-0.0","19273443","wem/bandit_either_2","A37JD0XUZHQYRC","either","4","287","","","","","","","0","0","1","","0.3066825603","0.8","0.4","0.2","0.6","0.3066825603","0.2911873598","0.3113322025","0.212498526","","","","","","","","","","","","72","H","0","img/none_selected.jpg","","39","main_expt"
"","bandit","119","487706","0.0-80.0-0.0","19273443","wem/bandit_either_2","A37JD0XUZHQYRC","either","4","1563","","","","","","","0","0","1","0.3066149412","","0.8","0.4","0.2","0.6","","","","","0.3208648015","0.3066149412","0.3298138996","0.2031275136","","","","","","","","74","J","1","","","40","main_expt"
"","bandit","120","489593","0.0-81.0-0.0","19273443","wem/bandit_either_2","A37JD0XUZHQYRC","either","4","381","","","","","","","0","0","1","","0.2612722093","0.8","0.4","0.2","0.6","0.2774570704","0.2612722093","0.3590557929","0.2409224204","","","","","","","","","","","","74","J","1","","","41","main_expt"
"","bandit","121","491635","0.0-82.0-0.0","19273443","wem/bandit_either_2","A37JD0XUZHQYRC","either","4","533","","","","","","","0","1","0","","0.3455434044","0.8","0.4","0.2","0.6","0.3092882543","0.2579482203","0.3455434044","0.2166695961","","","","","","","","","","","","75","K","2","","","42","main_expt"
"","bandit","122","493715","0.0-83.0-0.0","19273443","wem/bandit_either_2","A37JD0XUZHQYRC","either","4","573","","","","","","","0","1","0","","0.4020043176","0.8","0.4","0.2","0.6","0.3161251671","0.2232302517","0.4020043176","0.2314197793","","","","","","","","","","","","75","K","2","","","43","main_expt"
"","bandit","123","495811","0.0-84.0-0.0","19273443","wem/bandit_either_2","A37JD0XUZHQYRC","either","4","588","","","","","","","0","0","1","","0.4088695108","0.8","0.4","0.2","0.6","0.3032549762","0.2435669349","0.4088695108","0.1889371852","","","","","","","","","","","","75","K","2","","","44","main_expt"
"","bandit","124","497722","0.0-85.0-0.0","19273443","wem/bandit_either_2","A37JD0XUZHQYRC","either","4","405","","","","","","","0","0","1","","0.3914045207","0.8","0.4","0.2","0.6","0.3012359134","0.1885724617","0.3914045207","0.2152104473","","","","","","","","","","","","75","K","2","","","45","main_expt"
"","bandit","125","499619","0.0-86.0-0.0","19273443","wem/bandit_either_2","A37JD0XUZHQYRC","either","4","390","","","","","","","0","0","1","0.3682142312","","0.8","0.4","0.2","0.6","","","","","0.2994346937","0.104230756","0.3682142312","0.2260726972","","","","","","","","75","K","2","","","46","main_expt"
"","bandit","126","501498","0.0-87.0-0.0","19273443","wem/bandit_either_2","A37JD0XUZHQYRC","either","4","370","","","","","","","1","0","0","0.2330399618","","0.8","0.4","0.2","0.6","","","","","0.3169549043","0.09013225529","0.3462276735","0.2330399618","","","","","","","","76","L","3","","","47","main_expt"
"","bandit","127","503354","0.0-88.0-0.0","19273443","wem/bandit_either_2","A37JD0XUZHQYRC","either","4","350","","","","","","","0","1","0","","0.2769685944","0.8","0.4","0.2","0.6","0.3137179834","0.1066227192","0.3501405617","0.2769685944","","","","","","","","","","","","76","L","3","","","48","main_expt"
"","bandit","128","505885","0.0-89.0-0.0","19273443","wem/bandit_either_2","A37JD0XUZHQYRC","either","4","1021","","","","","","","0","0","1","","0.2954986192","0.8","0.4","0.2","0.6","0.3026837323","0.1273062614","0.3607669766","0.2954986192","","","","","","","","","","","","76","L","3","","","49","main_expt"
"","bandit","129","507995","0.0-90.0-0.0","19273443","wem/bandit_either_2","A37JD0XUZHQYRC","either","4","603","","","","","","","0","0","1","0.2730110453","","0.8","0.4","0.2","0.6","","","","","0.2690248343","0.08158159543","0.3776327681","0.2730110453","","","","","","","","76","L","3","","","50","main_expt"
"","bandit","130","510145","0.0-91.0-0.0","19273443","wem/bandit_either_2","A37JD0XUZHQYRC","either","4","643","","","","","","","0","0","1","0.2407215714","","0.8","0.4","0.2","0.6","","","","","0.2407215714","0.08035098666","0.3922012959","0.2672659715","","","","","","","","72","H","0","img/none_selected.jpg","","51","main_expt"
"","bandit","131","512291","0.0-92.0-0.0","19273443","wem/bandit_either_2","A37JD0XUZHQYRC","either","4","638","","","","","","","0","0","1","0.2758158767","","0.8","0.4","0.2","0.6","","","","","0.2758158767","0.1007468434","0.3532085343","0.2552972095","","","","","","","","72","H","0","img/none_selected.jpg","","52","main_expt"
"","bandit","132","514074","0.0-93.0-0.0","19273443","wem/bandit_either_2","A37JD0XUZHQYRC","either","4","274","","","","","","","0","0","1","0.2661511239","","0.8","0.4","0.2","0.6","","","","","0.2661511239","0.1479770317","0.3597378762","0.1954439593","","","","","","","","72","H","0","img/none_selected.jpg","","53","main_expt"
"","bandit","133","516011","0.0-94.0-0.0","19273443","wem/bandit_either_2","A37JD0XUZHQYRC","either","4","430","","","","","","","0","0","1","","0.250303373","0.8","0.4","0.2","0.6","0.250303373","0.1450389045","0.3553644404","0.1250298759","","","","","","","","","","","","72","H","0","img/none_selected.jpg","","54","main_expt"
"","bandit","134","518267","0.0-95.0-0.0","19273443","wem/bandit_either_2","A37JD0XUZHQYRC","either","4","747","","","","","","","0","0","1","","0.1678096349","0.8","0.4","0.2","0.6","0.1850572083","0.1678096349","0.3427354451","0.1224949652","","","","","","","","","","","","74","J","1","","","55","main_expt"
"","bandit","135","520130","0.0-96.0-0.0","19273443","wem/bandit_either_2","A37JD0XUZHQYRC","either","4","357","","","","","","","0","0","1","","0.1748395718","0.8","0.4","0.2","0.6","0.2410157884","0.1748395718","0.3158877586","0.1312048923","","","","","","","","","","","","74","J","1","","","56","main_expt"
"","bandit","136","521988","0.0-97.0-0.0","19273443","wem/bandit_either_2","A37JD0XUZHQYRC","either","4","349","","","","","","","0","0","1","","0.3224611445","0.8","0.4","0.2","0.6","0.2657224069","0.146986137","0.3224611445","0.14452077","","","","","","","","","","","","75","K","2","","","57","main_expt"
"","bandit","137","523833","0.0-98.0-0.0","19273443","wem/bandit_either_2","A37JD0XUZHQYRC","either","4","339","","","","","","","0","0","1","","0.3378672788","0.8","0.4","0.2","0.6","0.2361308133","0.1316135006","0.3378672788","0.1198415177","","","","","","","","","","","","75","K","2","","","58","main_expt"
"","bandit","138","525650","0.0-99.0-0.0","19273443","wem/bandit_either_2","A37JD0XUZHQYRC","either","4","309","","","","","","","0","0","1","","0.1674914914","0.8","0.4","0.2","0.6","0.2078360154","0.1776120447","0.3438075972","0.1674914914","","","","","","","","","","","","76","L","3","","","59","main_expt"
"","bandit","139","527484","0.0-100.0-0.0","19273443","wem/bandit_either_2","A37JD0XUZHQYRC","either","4","325","","","","","","","0","0","1","0.147959707","","0.8","0.4","0.2","0.6","","","","","0.2256957235","0.2034864675","0.2950987239","0.147959707","","","","","","","","76","L","3","","","60","main_expt"
"","bandit","140","529317","0.0-101.0-0.0","19273443","wem/bandit_either_2","A37JD0XUZHQYRC","either","4","323","","","","","","","0","0","1","0.1217284172","","0.8","0.4","0.2","0.6","","","","","0.2713547376","0.1325668513","0.2939622289","0.1217284172","","","","","","","","76","L","3","","","61","main_expt"
"","bandit","141","531866","0.0-102.0-0.0","19273443","wem/bandit_either_2","A37JD0XUZHQYRC","either","4","1042","","","","","","","0","0","1","","0.2907096119","0.8","0.4","0.2","0.6","0.2800078023","0.125492747","0.2907096119","0.1392905859","","","","","","","","","","","","75","K","2","","","62","main_expt"
"","bandit","142","533707","0.0-103.0-0.0","19273443","wem/bandit_either_2","A37JD0XUZHQYRC","either","4","333","","","","","","","0","0","1","","0.2696382907","0.8","0.4","0.2","0.6","0.362183352","0.1081989139","0.2696382907","0.1953314019","","","","","","","","","","","","75","K","2","","","63","main_expt"
"","bandit","143","535532","0.0-104.0-0.0","19273443","wem/bandit_either_2","A37JD0XUZHQYRC","either","4","315","","","","","","","0","0","1","0.3354395381","","0.8","0.4","0.2","0.6","","","","","0.3354395381","0.09104284411","0.2496415039","0.2618523415","","","","","","","","72","H","0","img/none_selected.jpg","","64","main_expt"
"","bandit","144","537587","0.0-105.0-0.0","19273443","wem/bandit_either_2","A37JD0XUZHQYRC","either","4","547","","","","","","","0","0","1","0.2893845237","","0.8","0.4","0.2","0.6","","","","","0.2893845237","0.1264903162","0.2364994079","0.2686672798","","","","","","","","72","H","0","img/none_selected.jpg","","65","main_expt"
"","bandit","145","539404","0.0-106.0-0.0","19273443","wem/bandit_either_2","A37JD0XUZHQYRC","either","4","308","","","","","","","0","0","1","0.1665937301","","0.8","0.4","0.2","0.6","","","","","0.2355717356","0.1665937301","0.2541683514","0.2451656397","","","","","","","","74","J","1","","","66","main_expt"
"","bandit","146","541257","0.0-107.0-0.0","19273443","wem/bandit_either_2","A37JD0XUZHQYRC","either","4","346","","","","","","","0","0","1","","0.1740025863","0.8","0.4","0.2","0.6","0.2848755716","0.1740025863","0.2985471382","0.2445320338","","","","","","","","","","","","74","J","1","","","67","main_expt"
"","bandit","147","543083","0.0-108.0-0.0","19273443","wem/bandit_either_2","A37JD0XUZHQYRC","either","4","318","","","","","","","0","0","1","0.2300011382","","0.8","0.4","0.2","0.6","","","","","0.3341158043","0.2300011382","0.3391290389","0.2261158315","","","","","","","","74","J","1","","","68","main_expt"
"","bandit","148","545771","0.0-109.0-0.0","19273443","wem/bandit_either_2","A37JD0XUZHQYRC","either","4","1180","","","","","","","0","1","0","","0.3114764975","0.8","0.4","0.2","0.6","0.3253412689","0.1768594062","0.3114764975","0.1627286519","","","","","","","","","","","","75","K","2","","","69","main_expt"
"","bandit","149","547778","0.0-110.0-0.0","19273443","wem/bandit_either_2","A37JD0XUZHQYRC","either","4","500","","","","","","","0","0","1","","0.3056328376","0.8","0.4","0.2","0.6","0.3280915152","0.1906145184","0.3056328376","0.1301009224","","","","","","","","","","","","75","K","2","","","70","main_expt"
"","bandit","150","549610","0.0-111.0-0.0","19273443","wem/bandit_either_2","A37JD0XUZHQYRC","either","4","324","","","","","","","0","0","1","","0.3445325487","0.8","0.4","0.2","0.6","0.3772643828","0.1451664327","0.3445325487","0.1356707761","","","","","","","","","","","","75","K","2","","","71","main_expt"
"","bandit","151","551714","0.0-112.0-0.0","19273443","wem/bandit_either_2","A37JD0XUZHQYRC","either","4","596","","","","","","","0","0","1","","0.364612409","0.8","0.4","0.2","0.6","0.4074174212","0.1091447996","0.364612409","0.1045412551","","","","","","","","","","","","75","K","2","","","72","main_expt"
"","bandit","152","553530","0.0-113.0-0.0","19273443","wem/bandit_either_2","A37JD0XUZHQYRC","either","4","308","","","","","","","1","0","0","0.0867882282","","0.8","0.4","0.2","0.6","","","","","0.3736299767","0.1248737042","0.4454774056","0.0867882282","","","","","","","","76","L","3","","","73","main_expt"
"","bandit","153","555473","0.0-114.0-0.0","19273443","wem/bandit_either_2","A37JD0XUZHQYRC","either","4","437","","","","","","","0","0","1","","0.1018359722","0.8","0.4","0.2","0.6","0.383211712","0.1073746888","0.4492830973","0.1018359722","","","","","","","","","","","","76","L","3","","","74","main_expt"
"","bandit","154","557353","0.0-115.0-0.0","19273443","wem/bandit_either_2","A37JD0XUZHQYRC","either","4","373","","","","","","","0","0","1","","0.09443707336","0.8","0.4","0.2","0.6","0.3681962321","0.1051395745","0.449321966","0.09443707336","","","","","","","","","","","","76","L","3","","","75","main_expt"
"","bandit","155","559673","0.0-116.0-0.0","19273443","wem/bandit_either_2","A37JD0XUZHQYRC","either","4","811","","","","","","","0","0","1","0.08768691443","","0.8","0.4","0.2","0.6","","","","","0.3574328021","0.09171451076","0.4299726132","0.08768691443","","","","","","","","76","L","3","","","76","main_expt"
"","bandit","156","561666","0.0-117.0-0.0","19273443","wem/bandit_either_2","A37JD0XUZHQYRC","either","4","484","","","","","","","1","0","0","0.4041720962","","0.8","0.4","0.2","0.6","","","","","0.4041720962","0.1256070833","0.4349340462","0.07744448812","","","","","","","","72","H","0","img/none_selected.jpg","","77","main_expt"
"","bandit","157","563664","0.0-118.0-0.0","19273443","wem/bandit_either_2","A37JD0XUZHQYRC","either","4","490","","","","","","","0","0","1","0.4000946746","","0.8","0.4","0.2","0.6","","","","","0.4000946746","0.1398604905","0.4112950215","0.05712631425","","","","","","","","72","H","0","img/none_selected.jpg","","78","main_expt"
"","bandit","158","565569","0.0-119.0-0.0","19273443","wem/bandit_either_2","A37JD0XUZHQYRC","either","4","397","","","","","","","1","0","0","0.425248604","","0.8","0.4","0.2","0.6","","","","","0.425248604","0.1303191282","0.4123046053","0.03981704588","","","","","","","","72","H","0","img/none_selected.jpg","","79","main_expt"
"","bandit","159","568011","0.0-120.0-0.0","19273443","wem/bandit_either_2","A37JD0XUZHQYRC","either","4","926","","","","","","","0","0","1","0.4263383456","","0.8","0.4","0.2","0.6","","","","","0.4263383456","0.1491340647","0.4345430878","0.02961196177","","","","","","","","72","H","0","img/none_selected.jpg","","80","main_expt"
"","bandit","160","570145","0.0-121.0-0.0","19273443","wem/bandit_either_2","A37JD0XUZHQYRC","either","4","626","","","","","","","1","0","0","0.4377411966","","0.8","0.4","0.2","0.6","","","","","0.4377411966","0.1484119081","0.4255274095","0.0408206899","","","","","","","","72","H","0","img/none_selected.jpg","","81","main_expt"
"","bandit","161","572258","0.0-122.0-0.0","19273443","wem/bandit_either_2","A37JD0XUZHQYRC","either","4","604","","","","","","","0","0","1","","0.4263216968","0.8","0.4","0.2","0.6","0.4263216968","0.135460029","0.4266934287","0.03491361241","","","","","","","","","","","","72","H","0","img/none_selected.jpg","","82","main_expt"
"","bandit","162","574225","0.0-123.0-0.0","19273443","wem/bandit_either_2","A37JD0XUZHQYRC","either","4","460","","","","","","","1","0","0","0.4536492548","","0.8","0.4","0.2","0.6","","","","","0.4536492548","0.09497461961","0.4321646522","0.01881925386","","","","","","","","72","H","0","img/none_selected.jpg","","83","main_expt"
"","bandit","163","576017","0.0-124.0-0.0","19273443","wem/bandit_either_2","A37JD0XUZHQYRC","either","4","282","","","","","","","0","0","1","","0.4344769981","0.8","0.4","0.2","0.6","0.4344769981","0.0956585677","0.43129245","0.03441768066","","","","","","","","","","","","72","H","0","img/none_selected.jpg","","84","main_expt"
"","bandit","164","578001","0.0-125.0-0.0","19273443","wem/bandit_either_2","A37JD0XUZHQYRC","either","4","474","","","","","","","0","0","1","","0.08427930603","0.8","0.4","0.2","0.6","0.4167097255","0.08427930603","0.4307495417","0.04015732792","","","","","","","","","","","","74","J","1","","","85","main_expt"
"","bandit","165","579858","0.0-126.0-0.0","19273443","wem/bandit_either_2","A37JD0XUZHQYRC","either","4","348","","","","","","","0","0","1","0.4215971904","","0.8","0.4","0.2","0.6","","","","","0.4215971904","0.09540141202","0.4327415212","0.0462821445","","","","","","","","72","H","0","img/none_selected.jpg","","86","main_expt"
"","bandit","166","581802","0.0-127.0-0.0","19273443","wem/bandit_either_2","A37JD0XUZHQYRC","either","4","435","","","","","","","0","0","1","","0.4507305815","0.8","0.4","0.2","0.6","0.3962725568","0.06504543429","0.4507305815","0.07236867375","","","","","","","","","","","","75","K","2","","","87","main_expt"
"","bandit","167","583769","0.0-128.0-0.0","19273443","wem/bandit_either_2","A37JD0XUZHQYRC","either","4","457","","","","","","","0","0","1","0.4571393315","","0.8","0.4","0.2","0.6","","","","","0.4038430626","0.05894337134","0.4571393315","0.1132918069","","","","","","","","75","K","2","","","88","main_expt"
"","bandit","168","585803","0.0-129.0-0.0","19273443","wem/bandit_either_2","A37JD0XUZHQYRC","either","4","523","","","","","","","1","0","0","0.1466354559","","0.8","0.4","0.2","0.6","","","","","0.4247877058","0.06803635399","0.4639779763","0.1466354559","","","","","","","","76","L","3","","","89","main_expt"
"","bandit","169","587731","0.0-130.0-0.0","19273443","wem/bandit_either_2","A37JD0XUZHQYRC","either","4","417","","","","","","","0","0","1","","0.1746819083","0.8","0.4","0.2","0.6","0.4196700557","0.09657856289","0.4620017245","0.1746819083","","","","","","","","","","","","76","L","3","","","90","main_expt"
"","bandit","170","589769","0.0-131.0-0.0","19273443","wem/bandit_either_2","A37JD0XUZHQYRC","either","4","530","","","","","","","1","0","0","0.1864657318","","0.8","0.4","0.2","0.6","","","","","0.401758082","0.08522031428","0.4492963398","0.1864657318","","","","","","","","76","L","3","","","91","main_expt"
"","bandit","171","591840","0.0-132.0-0.0","19273443","wem/bandit_either_2","A37JD0XUZHQYRC","either","4","565","","","","","","","0","1","0","","0.2124622091","0.8","0.4","0.2","0.6","0.3422099147","0.07078380504","0.462009279","0.2124622091","","","","","","","","","","","","76","L","3","","","92","main_expt"
"","bandit","172","593801","0.0-133.0-0.0","19273443","wem/bandit_either_2","A37JD0XUZHQYRC","either","4","453","","","","","","","0","0","1","","0.245786276","0.8","0.4","0.2","0.6","0.3279059742","0.0564278809","0.4363090379","0.245786276","","","","","","","","","","","","76","L","3","","","93","main_expt"
"","bandit","173","596113","0.0-134.0-0.0","19273443","wem/bandit_either_2","A37JD0XUZHQYRC","either","4","802","","","","","","","0","0","1","0.2316759231","","0.8","0.4","0.2","0.6","","","","","0.3155724737","0.06067733924","0.4457519602","0.2316759231","","","","","","","","76","L","3","","","94","main_expt"
"","bandit","174","598543","0.0-135.0-0.0","19273443","wem/bandit_either_2","A37JD0XUZHQYRC","either","4","924","","","","","","","0","0","1","","0.2231756969","0.8","0.4","0.2","0.6","0.3519625041","0.08632751489","0.4231248902","0.2231756969","","","","","","","","","","","","76","L","3","","","95","main_expt"
"","bandit","175","600935","0.0-136.0-0.0","19273443","wem/bandit_either_2","A37JD0XUZHQYRC","either","4","884","","","","","","","0","0","1","","0.08481729553","0.8","0.4","0.2","0.6","0.3661455107","0.08481729553","0.4210676831","0.1957128212","","","","","","","","","","","","74","J","1","","","96","main_expt"
"","bandit","176","602808","0.0-137.0-0.0","19273443","wem/bandit_either_2","A37JD0XUZHQYRC","either","4","365","","","","","","","0","0","1","","0.08386440452","0.8","0.4","0.2","0.6","0.3558031673","0.08386440452","0.4022895305","0.1638116915","","","","","","","","","","","","74","J","1","","","97","main_expt"
"","bandit","177","604832","0.0-138.0-0.0","19273443","wem/bandit_either_2","A37JD0XUZHQYRC","either","4","515","","","","","","","0","0","1","","0.4187351015","0.8","0.4","0.2","0.6","0.3558230887","0.0940701929","0.4187351015","0.1405816365","","","","","","","","","","","","75","K","2","","","98","main_expt"
"","bandit","178","606625","0.0-139.0-0.0","19273443","wem/bandit_either_2","A37JD0XUZHQYRC","either","4","284","","","","","","","0","0","1","","0.3981340028","0.8","0.4","0.2","0.6","0.3064708089","0.1285058524","0.3981340028","0.1435678602","","","","","","","","","","","","75","K","2","","","99","main_expt"
"","bandit","179","608551","0.0-140.0-0.0","19273443","wem/bandit_either_2","A37JD0XUZHQYRC","either","4","418","","","","","","","0","0","1","0.352498313","","0.8","0.4","0.2","0.6","","","","","0.352498313","0.065882019","0.3520446815","0.1478754355","","","","","","","","72","H","0","img/none_selected.jpg","","100","main_expt"
"","bandit","180","610354","0.0-141.0-0.0","19273443","wem/bandit_either_2","A37JD0XUZHQYRC","either","4","292","","","","","","","0","0","1","0.3511810171","","0.8","0.4","0.2","0.6","","","","","0.3511810171","0.05692140794","0.3715523215","0.1532559328","","","","","","","","72","H","0","img/none_selected.jpg","","101","main_expt"
"","bandit","181","612520","0.0-142.0-0.0","19273443","wem/bandit_either_2","A37JD0XUZHQYRC","either","4","657","","","","","","","0","0","1","0.15857411","","0.8","0.4","0.2","0.6","","","","","0.3246867477","0.04322280369","0.3966955113","0.15857411","","","","","","","","76","L","3","","","102","main_expt"
"","bandit","182","614592","0.0-143.0-0.0","19273443","wem/bandit_either_2","A37JD0XUZHQYRC","either","4","563","","","","","","","0","0","1","0.1552377357","","0.8","0.4","0.2","0.6","","","","","0.2827689756","0.05121437093","0.3865714765","0.1552377357","","","","","","","","76","L","3","","","103","main_expt"
"","bandit","183","616935","0.0-144.0-0.0","19273443","wem/bandit_either_2","A37JD0XUZHQYRC","either","4","834","","","","","","","0","0","1","0.3307995119","","0.8","0.4","0.2","0.6","","","","","0.3307995119","0.06548077564","0.3440646931","0.1584193753","","","","","","","","72","H","0","img/none_selected.jpg","","104","main_expt"
"","bandit","184","618817","0.0-145.0-0.0","19273443","wem/bandit_either_2","A37JD0XUZHQYRC","either","4","372","","","","","","","0","0","1","0.3078297571","","0.8","0.4","0.2","0.6","","","","","0.3078297571","0.07577357845","0.330981063","0.192058402","","","","","","","","72","H","0","img/none_selected.jpg","","105","main_expt"
"","bandit","185","621504","0.0-146.0-0.0","19273443","wem/bandit_either_2","A37JD0XUZHQYRC","either","4","1178","","","","","","","0","0","1","0.09041352565","","0.8","0.4","0.2","0.6","","","","","0.3202685942","0.09041352565","0.3317280627","0.1562344916","","","","","","","","74","J","1","","","106","main_expt"
"","bandit","186","623265","0.0-147.0-0.0","19273443","wem/bandit_either_2","A37JD0XUZHQYRC","either","4","251","","","","","","","0","1","0","","0.1184921167","0.8","0.4","0.2","0.6","0.3163418234","0.1184921167","0.2760665195","0.1493116313","","","","","","","","","","","","74","J","1","","","107","main_expt"
"","bandit","187","625243","0.0-148.0-0.0","19273443","wem/bandit_either_2","A37JD0XUZHQYRC","either","4","469","","","","","","","0","0","1","0.1057615429","","0.8","0.4","0.2","0.6","","","","","0.3425943818","0.1057615429","0.2826301941","0.1357435498","","","","","","","","74","J","1","","","108","main_expt"
"","bandit","188","627280","0.0-149.0-0.0","19273443","wem/bandit_either_2","A37JD0XUZHQYRC","either","4","528","","","","","","","0","0","1","","0.318117281","0.8","0.4","0.2","0.6","0.2852030557","0.1464484126","0.318117281","0.1164074326","","","","","","","","","","","","75","K","2","","","109","main_expt"
"","bandit","189","629129","0.0-150.0-0.0","19273443","wem/bandit_either_2","A37JD0XUZHQYRC","either","4","340","","","","","","","0","0","1","0.3358587519","","0.8","0.4","0.2","0.6","","","","","0.3392406975","0.1641354829","0.3358587519","0.1444451916","","","","","","","","75","K","2","","","110","main_expt"
"","bandit","190","631185","0.0-151.0-0.0","19273443","wem/bandit_either_2","A37JD0XUZHQYRC","either","4","547","","","","","","","0","0","1","","0.09905323685","0.8","0.4","0.2","0.6","0.3023411017","0.1386891192","0.3031660534","0.09905323685","","","","","","","","","","","","76","L","3","","","111","main_expt"
"","bandit","191","635642","0.0-152.0-0.0","19273443","wem/bandit_either_2","A37JD0XUZHQYRC","either","4","2945","","","","","","","0","0","1","0.09652445584","","0.8","0.4","0.2","0.6","","","","","0.296849772","0.1847512065","0.2773548355","0.09652445584","","","","","","","","76","L","3","","","112","main_expt"
"","bandit","192","638176","0.0-153.0-0.0","19273443","wem/bandit_either_2","A37JD0XUZHQYRC","either","4","1025","","","","","","","0","0","1","","0.2370758425","0.8","0.4","0.2","0.6","0.2673419259","0.1304555333","0.2370758425","0.09961189632","","","","","","","","","","","","75","K","2","","","113","main_expt"
"","bandit","193","640033","0.0-154.0-0.0","19273443","wem/bandit_either_2","A37JD0XUZHQYRC","either","4","345","","","","","","","0","0","1","","0.1821928837","0.8","0.4","0.2","0.6","0.2670531803","0.1770102637","0.1821928837","0.1036139638","","","","","","","","","","","","75","K","2","","","114","main_expt"
"","bandit","194","642920","0.0-155.0-0.0","19273443","wem/bandit_either_2","A37JD0XUZHQYRC","either","4","1379","","","","","","","0","0","1","0.1564651975","","0.8","0.4","0.2","0.6","","","","","0.2825009356","0.1564651975","0.1315453283","0.0968506792","","","","","","","","74","J","1","","","115","main_expt"
"","bandit","195","645440","0.0-156.0-0.0","19273443","wem/bandit_either_2","A37JD0XUZHQYRC","either","4","1011","","","","","","","0","0","1","0.3237719372","","0.8","0.4","0.2","0.6","","","","","0.3237719372","0.1665702367","0.1102777544","0.08782875681","","","","","","","","72","H","0","img/none_selected.jpg","","116","main_expt"
"","bandit","196","648024","0.0-157.0-0.0","19273443","wem/bandit_either_2","A37JD0XUZHQYRC","either","4","1076","","","","","","","1","0","0","0.3154846423","","0.8","0.4","0.2","0.6","","","","","0.3154846423","0.1530687496","0.1101610351","0.06031800864","","","","","","","","72","H","0","img/none_selected.jpg","","117","main_expt"
"","bandit","197","653440","0.0-158.0-0.0","19273443","wem/bandit_either_2","A37JD0XUZHQYRC","either","4","3908","","","","","","","0","0","1","0.2584508078","","0.8","0.4","0.2","0.6","","","","","0.2584508078","0.1674206906","0.122460482","0.05633053331","","","","","","","","72","H","0","img/none_selected.jpg","","118","main_expt"
"","bandit","198","656744","0.0-159.0-0.0","19273443","wem/bandit_either_2","A37JD0XUZHQYRC","either","4","1795","","","","","","","0","0","1","0.2141905193","","0.8","0.4","0.2","0.6","","","","","0.2141905193","0.1990215448","0.1451868924","0.07530514027","","","","","","","","72","H","0","img/none_selected.jpg","","119","main_expt"
"","bandit","199","658448","0.0-160.0-0.0","19273443","wem/bandit_either_2","A37JD0XUZHQYRC","either","4","195","","","","","","","0","0","1","0.2341954374","","0.8","0.4","0.2","0.6","","","","","0.2341954374","0.2208640619","0.09092593383","0.09639595661","","","","","","","","72","H","0","img/none_selected.jpg","","120","main_expt"
"","bandit","200","660336","0.0-161.0-0.0","19273443","wem/bandit_either_2","A37JD0XUZHQYRC","either","4","379","","","","","","","0","0","1","0.2602917539","","0.8","0.4","0.2","0.6","","","","","0.1886372651","0.2602917539","0.1080456108","0.1421799471","","","","","","","","74","J","1","","","121","main_expt"
"","bandit","201","665305","0.0-162.0-0.0","19273443","wem/bandit_either_2","A37JD0XUZHQYRC","either","4","3459","","","","","","","0","0","1","","0.1169053248","0.8","0.4","0.2","0.6","0.1597592322","0.2512498235","0.1169053248","0.1624760489","","","","","","","","","","","","75","K","2","","","122","main_expt"
"","bandit","202","667320","0.0-163.0-0.0","19273443","wem/bandit_either_2","A37JD0XUZHQYRC","either","4","505","","","","","","","0","0","1","0.1640214383","","0.8","0.4","0.2","0.6","","","","","0.1895266442","0.2266242761","0.1571594809","0.1640214383","","","","","","","","76","L","3","","","123","main_expt"
"","bandit","203","669031","0.0-164.0-0.0","19273443","wem/bandit_either_2","A37JD0XUZHQYRC","either","4","202","","","","","","","0","0","1","0.2014340991","","0.8","0.4","0.2","0.6","","","","","0.2042850732","0.2373824638","0.2231804049","0.2014340991","","","","","","","","76","L","3","","","124","main_expt"
"","bandit","204","677343","0.0-165.0-0.0","19273443","wem/bandit_either_2","A37JD0XUZHQYRC","either","4","6803","","","","","","","1","0","0","0.1812515389","","0.8","0.4","0.2","0.6","","","","","0.1812515389","0.2538727107","0.2232794356","0.2229229076","","","","","","","","72","H","0","img/none_selected.jpg","","125","main_expt"
"","bandit","205","679192","0.0-166.0-0.0","19273443","wem/bandit_either_2","A37JD0XUZHQYRC","either","4","339","","","","","","","0","0","1","0.1694736183","","0.8","0.4","0.2","0.6","","","","","0.1694736183","0.290219491","0.2316903634","0.2324712723","","","","","","","","72","H","0","img/none_selected.jpg","","126","main_expt"
"","bandit","206","681791","0.0-167.0-0.0","19273443","wem/bandit_either_2","A37JD0XUZHQYRC","either","4","1089","","","","","","","0","0","1","0.1624528765","","0.8","0.4","0.2","0.6","","","","","0.1624528765","0.2542505169","0.2337524142","0.2628391623","","","","","","","","72","H","0","img/none_selected.jpg","","127","main_expt"
"","bandit","207","684671","0.0-168.0-0.0","19273443","wem/bandit_either_2","A37JD0XUZHQYRC","either","4","1371","","","","","","","0","0","1","0.2654356302","","0.8","0.4","0.2","0.6","","","","","0.1632982916","0.2582316027","0.2198210178","0.2654356302","","","","","","","","76","L","3","","","128","main_expt"
"","bandit","208","687951","0.0-169.0-0.0","19273443","wem/bandit_either_2","A37JD0XUZHQYRC","either","4","1772","","","","","","","0","0","1","","0.2070569149","0.8","0.4","0.2","0.6","0.2264598068","0.3267566011","0.2280168395","0.2070569149","","","","","","","","","","","","76","L","3","","","129","main_expt"
"","bandit","209","689807","0.0-170.0-0.0","19273443","wem/bandit_either_2","A37JD0XUZHQYRC","either","4","347","","","","","","","0","0","1","","0.243895296","0.8","0.4","0.2","0.6","0.202760285","0.3323271388","0.243895296","0.2579182239","","","","","","","","","","","","75","K","2","","","130","main_expt"
"","bandit","210","691664","0.0-171.0-0.0","19273443","wem/bandit_either_2","A37JD0XUZHQYRC","either","4","347","","","","","","","0","0","1","","0.2164454501","0.8","0.4","0.2","0.6","0.1585094705","0.2666668646","0.2164454501","0.2329110821","","","","","","","","","","","","75","K","2","","","131","main_expt"
"","bandit","211","693705","0.0-172.0-0.0","19273443","wem/bandit_either_2","A37JD0XUZHQYRC","either","4","530","","","","","","","0","1","0","","0.2359119393","0.8","0.4","0.2","0.6","0.1304261544","0.2359119393","0.200468731","0.2400232435","","","","","","","","","","","","74","J","1","","","132","main_expt"
"","bandit","212","695536","0.0-173.0-0.0","19273443","wem/bandit_either_2","A37JD0XUZHQYRC","either","4","320","","","","","","","0","0","1","","0.2540740643","0.8","0.4","0.2","0.6","0.09339990826","0.2540740643","0.2038597077","0.2084798617","","","","","","","","","","","","74","J","1","","","133","main_expt"
"","bandit","213","697713","0.0-174.0-0.0","19273443","wem/bandit_either_2","A37JD0XUZHQYRC","either","4","667","","","","","","","0","0","1","0.2414927735","","0.8","0.4","0.2","0.6","","","","","0.08524612959","0.2414927735","0.2263269307","0.2034544","","","","","","","","74","J","1","","","134","main_expt"
"","bandit","214","699471","0.0-175.0-0.0","19273443","wem/bandit_either_2","A37JD0XUZHQYRC","either","4","249","","","","","","","0","0","1","","0.2632369982","0.8","0.4","0.2","0.6","0.0622033461","0.2632369982","0.2686469146","0.2088958693","","","","","","","","","","","","74","J","1","","","135","main_expt"
"","bandit","215","701048","0.0-176.0-0.0","19273443","wem/bandit_either_2","A37JD0XUZHQYRC","either","4","67","","","","","","","0","1","0","","0.3032623762","0.8","0.4","0.2","0.6","0.05632890875","0.3032623762","0.3170393738","0.2573758916","","","","","","","","","","","","74","J","1","","","136","main_expt"
"","bandit","216","703622","0.0-177.0-0.0","19273443","wem/bandit_either_2","A37JD0XUZHQYRC","either","4","1065","","","","","","","0","0","1","","0.06052980877","0.8","0.4","0.2","0.6","0.06052980877","0.2984046037","0.338962466","0.2467438462","","","","","","","","","","","","72","H","0","img/none_selected.jpg","","137","main_expt"
"","bandit","217","706341","0.0-178.0-0.0","19273443","wem/bandit_either_2","A37JD0XUZHQYRC","either","4","1211","","","","","","","0","0","1","0.1038497792","","0.8","0.4","0.2","0.6","","","","","0.1038497792","0.3110629865","0.3586643031","0.2221944767","","","","","","","","72","H","0","img/none_selected.jpg","","138","main_expt"
"","bandit","218","708237","0.0-179.0-0.0","19273443","wem/bandit_either_2","A37JD0XUZHQYRC","either","4","388","","","","","","","0","0","1","0.08561062373","","0.8","0.4","0.2","0.6","","","","","0.08561062373","0.3048373826","0.3430902759","0.2750517365","","","","","","","","72","H","0","img/none_selected.jpg","","139","main_expt"
"","bandit","219","709927","0.0-180.0-0.0","19273443","wem/bandit_either_2","A37JD0XUZHQYRC","either","4","181","","","","","","","0","1","0","","0.3163642845","0.8","0.4","0.2","0.6","0.08025295029","0.3163642845","0.3777112835","0.277474309","","","","","","","","","","","","74","J","1","","","140","main_expt"
"","bandit","220","711824","0.0-181.0-0.0","19273443","wem/bandit_either_2","A37JD0XUZHQYRC","either","4","389","","","","","","","0","0","1","","0.4276051364","0.8","0.4","0.2","0.6","0.09309891757","0.2213861514","0.4276051364","0.2932007391","","","","","","","","","","","","75","K","2","","","141","main_expt"
"","bandit","221","713816","0.0-182.0-0.0","19273443","wem/bandit_either_2","A37JD0XUZHQYRC","either","4","480","","","","","","","0","0","1","0.3001807938","","0.8","0.4","0.2","0.6","","","","","0.1107976638","0.2492613222","0.4312347149","0.3001807938","","","","","","","","76","L","3","","","142","main_expt"
"","bandit","222","717607","0.0-183.0-0.0","19273443","wem/bandit_either_2","A37JD0XUZHQYRC","either","4","2281","","","","","","","0","0","1","","0.3640878437","0.8","0.4","0.2","0.6","0.09575525052","0.2645663874","0.386657586","0.3640878437","","","","","","","","","","","","76","L","3","","","143","main_expt"
"","bandit","223","719609","0.0-184.0-0.0","19273443","wem/bandit_either_2","A37JD0XUZHQYRC","either","4","490","","","","","","","0","1","0","","0.3409851627","0.8","0.4","0.2","0.6","0.07222794989","0.2928215939","0.3409851627","0.2706796495","","","","","","","","","","","","75","K","2","","","144","main_expt"
"","bandit","224","722017","0.0-185.0-0.0","19273443","wem/bandit_either_2","A37JD0XUZHQYRC","either","4","897","","","","","","","0","0","1","","0.3538709708","0.8","0.4","0.2","0.6","0.03203798906","0.3178979655","0.3538709708","0.2359726437","","","","","","","","","","","","75","K","2","","","145","main_expt"
"","bandit","225","724528","0.0-186.0-0.0","19273443","wem/bandit_either_2","A37JD0XUZHQYRC","either","4","1001","","","","","","","0","0","1","0.2745956728","","0.8","0.4","0.2","0.6","","","","","0.03073079809","0.2850957273","0.2745956728","0.2200332621","","","","","","","","75","K","2","","","146","main_expt"
"","bandit","226","726342","0.0-187.0-0.0","19273443","wem/bandit_either_2","A37JD0XUZHQYRC","either","4","305","","","","","","","0","0","1","","0.2375793476","0.8","0.4","0.2","0.6","0.05105424151","0.2483519338","0.2375793476","0.1957794229","","","","","","","","","","","","75","K","2","","","147","main_expt"
"","bandit","227","728207","0.0-188.0-0.0","19273443","wem/bandit_either_2","A37JD0XUZHQYRC","either","4","353","","","","","","","0","0","1","","0.2309770791","0.8","0.4","0.2","0.6","0.04045355104","0.2309770791","0.2954602587","0.1790722045","","","","","","","","","","","","74","J","1","","","148","main_expt"
"","bandit","228","730206","0.0-189.0-0.0","19273443","wem/bandit_either_2","A37JD0XUZHQYRC","either","4","488","","","","","","","0","0","1","","0.1759049641","0.8","0.4","0.2","0.6","0.06416506337","0.1759049641","0.3435099865","0.2189150546","","","","","","","","","","","","74","J","1","","","149","main_expt"
"","bandit","229","732030","0.0-190.0-0.0","19273443","wem/bandit_either_2","A37JD0XUZHQYRC","either","4","316","","","","","","","0","0","1","0.07819388902","","0.8","0.4","0.2","0.6","","","","","0.07819388902","0.1910702346","0.268900415","0.2119229637","","","","","","","","72","H","0","img/none_selected.jpg","","150","main_expt"
"","bandit","230","734271","0.0-191.0-0.0","19273443","wem/bandit_either_2","A37JD0XUZHQYRC","either","4","730","","","","","","","0","0","1","","0.1186979887","0.8","0.4","0.2","0.6","0.1186979887","0.1799178466","0.2326488896","0.2472398003","","","","","","","","","","","","72","H","0","img/none_selected.jpg","","151","main_expt"
"","bandit","231","736224","0.0-192.0-0.0","19273443","wem/bandit_either_2","A37JD0XUZHQYRC","either","4","443","","","","","","","0","0","1","","0.1084773402","0.8","0.4","0.2","0.6","0.1084773402","0.1826140084","0.2768057641","0.2148428051","","","","","","","","","","","","72","H","0","img/none_selected.jpg","","152","main_expt"
"","bandit","232","738366","0.0-193.0-0.0","19273443","wem/bandit_either_2","A37JD0XUZHQYRC","either","4","632","","","","","","","0","0","1","0.1598057249","","0.8","0.4","0.2","0.6","","","","","0.1314289417","0.147924298","0.2997660112","0.1598057249","","","","","","","","76","L","3","","","153","main_expt"
"","bandit","233","741095","0.0-194.0-0.0","19273443","wem/bandit_either_2","A37JD0XUZHQYRC","either","4","1219","","","","","","","0","0","1","0.1388357139","","0.8","0.4","0.2","0.6","","","","","0.1354051011","0.1388357139","0.3196464983","0.1489099923","","","","","","","","74","J","1","","","154","main_expt"
"","bandit","234","743094","0.0-195.0-0.0","19273443","wem/bandit_either_2","A37JD0XUZHQYRC","either","4","491","","","","","","","0","0","1","","0.1658398244","0.8","0.4","0.2","0.6","0.1085215933","0.1658398244","0.3141654429","0.1502541116","","","","","","","","","","","","74","J","1","","","155","main_expt"
"","bandit","235","744839","0.0-196.0-0.0","19273443","wem/bandit_either_2","A37JD0XUZHQYRC","either","4","234","","","","","","","0","1","0","","0.2667217688","0.8","0.4","0.2","0.6","0.1383379057","0.1104921729","0.2667217688","0.1605084188","","","","","","","","","","","","75","K","2","","","156","main_expt"
"","bandit","236","746989","0.0-197.0-0.0","19273443","wem/bandit_either_2","A37JD0XUZHQYRC","either","4","639","","","","","","","0","0","1","","0.2867075714","0.8","0.4","0.2","0.6","0.1428990181","0.09530810267","0.2867075714","0.1684101418","","","","","","","","","","","","75","K","2","","","157","main_expt"
"","bandit","237","749005","0.0-198.0-0.0","19273443","wem/bandit_either_2","A37JD0XUZHQYRC","either","4","506","","","","","","","0","0","1","","0.2788639118","0.8","0.4","0.2","0.6","0.07455979893","0.1211627972","0.2788639118","0.1807688322","","","","","","","","","","","","75","K","2","","","158","main_expt"
"","bandit","238","750895","0.0-199.0-0.0","19273443","wem/bandit_either_2","A37JD0XUZHQYRC","either","4","376","","","","","","","0","1","0","","0.3020710819","0.8","0.4","0.2","0.6","0.1009372764","0.1012897464","0.3020710819","0.1516426412","","","","","","","","","","","","75","K","2","","","159","main_expt"
"","bandit","239","752980","0.0-200.0-0.0","19273443","wem/bandit_either_2","A37JD0XUZHQYRC","either","4","579","","","","","","","0","1","0","","0.3404227007","0.8","0.4","0.2","0.6","0.05118862797","0.1188035868","0.3404227007","0.1638698877","","","","","","","","","","","","75","K","2","","","160","main_expt"
"","bandit","240","754934","0.0-201.0-0.0","19273443","wem/bandit_either_2","A37JD0XUZHQYRC","either","4","443","","","","","","","0","0","1","0.2876249865","","0.8","0.4","0.2","0.6","","","","","0.05265847637","0.1606836622","0.2876249865","0.1645359983","","","","","","","","75","K","2","","","161","main_expt"
"","bandit","241","756820","0.0-202.0-0.0","19273443","wem/bandit_either_2","A37JD0XUZHQYRC","either","4","378","","","","","","","0","0","1","","0.2401308511","0.8","0.4","0.2","0.6","0.07938684611","0.1859884171","0.2401308511","0.2509918509","","","","","","","","","","","","75","K","2","","","162","main_expt"
"","bandit","242","758598","0.0-203.0-0.0","19273443","wem/bandit_either_2","A37JD0XUZHQYRC","either","4","265","","","","","","","0","0","1","","0.2486605046","0.8","0.4","0.2","0.6","0.0970900163","0.2528258464","0.2486605046","0.1883685458","","","","","","","","","","","","75","K","2","","","163","main_expt"
"","bandit","243","760405","0.0-204.0-0.0","19273443","wem/bandit_either_2","A37JD0XUZHQYRC","either","4","299","","","","","","","0","0","1","","0.22675384","0.8","0.4","0.2","0.6","0.07401968201","0.2515292425","0.22675384","0.2179532334","","","","","","","","","","","","75","K","2","","","164","main_expt"
"","bandit","244","762494","0.0-205.0-0.0","19273443","wem/bandit_either_2","A37JD0XUZHQYRC","either","4","578","","","","","","","1","0","0","0.2143704678","","0.8","0.4","0.2","0.6","","","","","0.06633104104","0.2068970429","0.2841151948","0.2143704678","","","","","","","","76","L","3","","","165","main_expt"
"","bandit","245","764605","0.0-206.0-0.0","19273443","wem/bandit_either_2","A37JD0XUZHQYRC","either","4","603","","","","","","","0","1","0","","0.2175899085","0.8","0.4","0.2","0.6","0.05309652092","0.1413778631","0.2842980464","0.2175899085","","","","","","","","","","","","76","L","3","","","166","main_expt"
"","bandit","246","766990","0.0-207.0-0.0","19273443","wem/bandit_either_2","A37JD0XUZHQYRC","either","4","873","","","","","","","0","0","1","","0.2137120923","0.8","0.4","0.2","0.6","0.07357446968","0.1999497975","0.3007590714","0.2137120923","","","","","","","","","","","","76","L","3","","","167","main_expt"
"","bandit","247","769015","0.0-208.0-0.0","19273443","wem/bandit_either_2","A37JD0XUZHQYRC","either","4","512","","","","","","","0","0","1","","0.2331560811","0.8","0.4","0.2","0.6","0.1054325378","0.1696145944","0.2884936601","0.2331560811","","","","","","","","","","","","76","L","3","","","168","main_expt"
"","bandit","248","770925","0.0-209.0-0.0","19273443","wem/bandit_either_2","A37JD0XUZHQYRC","either","4","402","","","","","","","0","0","1","0.2367963754","","0.8","0.4","0.2","0.6","","","","","0.08536867429","0.1338518967","0.2803439438","0.2367963754","","","","","","","","76","L","3","","","169","main_expt"
"","bandit","249","773175","0.0-210.0-0.0","19273443","wem/bandit_either_2","A37JD0XUZHQYRC","either","4","738","","","","","","","1","0","0","0.1083432756","","0.8","0.4","0.2","0.6","","","","","0.1083432756","0.1307598277","0.3010437192","0.2378050175","","","","","","","","72","H","0","img/none_selected.jpg","","170","main_expt"
"","bandit","250","775277","0.0-211.0-0.0","19273443","wem/bandit_either_2","A37JD0XUZHQYRC","either","4","593","","","","","","","0","0","1","0.09185370626","","0.8","0.4","0.2","0.6","","","","","0.09185370626","0.1200375331","0.3243802095","0.2253696972","","","","","","","","72","H","0","img/none_selected.jpg","","171","main_expt"
"","bandit","251","777158","0.0-212.0-0.0","19273443","wem/bandit_either_2","A37JD0XUZHQYRC","either","4","370","","","","","","","1","0","0","0.09458096772","","0.8","0.4","0.2","0.6","","","","","0.09458096772","0.07514546963","0.3140094691","0.2903394368","","","","","","","","72","H","0","img/none_selected.jpg","","172","main_expt"
"","bandit","252","779388","0.0-213.0-0.0","19273443","wem/bandit_either_2","A37JD0XUZHQYRC","either","4","722","","","","","","","0","0","1","0.1016296913","","0.8","0.4","0.2","0.6","","","","","0.1016296913","0.07704486673","0.2433770114","0.2384828248","","","","","","","","72","H","0","img/none_selected.jpg","","173","main_expt"
"","bandit","253","781262","0.0-214.0-0.0","19273443","wem/bandit_either_2","A37JD0XUZHQYRC","either","4","363","","","","","","","0","0","1","","0.117107939","0.8","0.4","0.2","0.6","0.117107939","0.04061738922","0.2080779891","0.2823111034","","","","","","","","","","","","72","H","0","img/none_selected.jpg","","174","main_expt"
"","bandit","254","784246","0.0-215.0-0.0","19273443","wem/bandit_either_2","A37JD0XUZHQYRC","either","4","1473","","","","","","","0","0","1","0.02968316822","","0.8","0.4","0.2","0.6","","","","","0.1254773658","0.02968316822","0.2211365803","0.292147578","","","","","","","","74","J","1","","","175","main_expt"
"","bandit","255","786598","0.0-216.0-0.0","19273443","wem/bandit_either_2","A37JD0XUZHQYRC","either","4","841","","","","","","","0","0","1","","0.231280906","0.8","0.4","0.2","0.6","0.1518856622","0.04419366322","0.231280906","0.2928295457","","","","","","","","","","","","75","K","2","","","176","main_expt"
"","bandit","256","788422","0.0-217.0-0.0","19273443","wem/bandit_either_2","A37JD0XUZHQYRC","either","4","314","","","","","","","0","0","1","","0.04140429262","0.8","0.4","0.2","0.6","0.1502483312","0.04140429262","0.1689881391","0.297241693","","","","","","","","","","","","74","J","1","","","177","main_expt"
"","bandit","257","790528","0.0-218.0-0.0","19273443","wem/bandit_either_2","A37JD0XUZHQYRC","either","4","593","","","","","","","1","0","0","0.276241128","","0.8","0.4","0.2","0.6","","","","","0.2073149786","0.06103489621","0.1699404395","0.276241128","","","","","","","","76","L","3","","","178","main_expt"
"","bandit","258","792839","0.0-219.0-0.0","19273443","wem/bandit_either_2","A37JD0XUZHQYRC","either","4","801","","","","","","","0","0","1","0.2405339857","","0.8","0.4","0.2","0.6","","","","","0.1928578162","0.053608248","0.1571972967","0.2405339857","","","","","","","","76","L","3","","","179","main_expt"
"","bandit","259","795287","0.0-220.0-0.0","19273443","wem/bandit_either_2","A37JD0XUZHQYRC","either","4","937","","","","","","","0","0","1","","0.233428307","0.8","0.4","0.2","0.6","0.1412953234","0.06289379635","0.1567782565","0.233428307","","","","","","","","","","","","76","L","3","","","180","main_expt"
"","bandit","260","797741","0.0-221.0-0.0","19273443","wem/bandit_either_2","A37JD0XUZHQYRC","either","4","943","","","","","","","0","0","1","0.1459310114","","0.8","0.4","0.2","0.6","","","","","0.1258774719","0.07748386732","0.1492691696","0.1459310114","","","","","","","","76","L","3","","","181","main_expt"
"","bandit","261","799614","0.0-222.0-0.0","19273443","wem/bandit_either_2","A37JD0XUZHQYRC","either","4","362","","","","","","","1","0","0","0.1121960069","","0.8","0.4","0.2","0.6","","","","","0.1121960069","0.096714051","0.1609613705","0.1796360657","","","","","","","","72","H","0","img/none_selected.jpg","","182","main_expt"
"","bandit","262","802221","0.0-223.0-0.0","19273443","wem/bandit_either_2","A37JD0XUZHQYRC","either","4","1097","","","","","","","1","0","0","0.08335286121","","0.8","0.4","0.2","0.6","","","","","0.08335286121","0.05351369794","0.1982891881","0.1907874973","","","","","","","","72","H","0","img/none_selected.jpg","","183","main_expt"
"","bandit","263","804485","0.0-224.0-0.0","19273443","wem/bandit_either_2","A37JD0XUZHQYRC","either","4","754","","","","","","","0","0","1","0.1085923678","","0.8","0.4","0.2","0.6","","","","","0.1085923678","0.08854511538","0.1703318442","0.1451627339","","","","","","","","72","H","0","img/none_selected.jpg","","184","main_expt"
"","bandit","264","806702","0.0-225.0-0.0","19273443","wem/bandit_either_2","A37JD0XUZHQYRC","either","4","706","","","","","","","0","0","1","0.1113654269","","0.8","0.4","0.2","0.6","","","","","0.1113654269","0.136385666","0.09566746086","0.1692531577","","","","","","","","72","H","0","img/none_selected.jpg","","185","main_expt"
"","bandit","265","808461","0.0-226.0-0.0","19273443","wem/bandit_either_2","A37JD0XUZHQYRC","either","4","249","","","","","","","0","0","1","0.1885113298","","0.8","0.4","0.2","0.6","","","","","0.1383531569","0.1848043888","0.1254261761","0.1885113298","","","","","","","","76","L","3","","","186","main_expt"
"","bandit","266","810341","0.0-227.0-0.0","19273443","wem/bandit_either_2","A37JD0XUZHQYRC","either","4","370","","","","","","","0","1","0","","0.2088125345","0.8","0.4","0.2","0.6","0.1739713275","0.1640989128","0.1081798115","0.2088125345","","","","","","","","","","","","76","L","3","","","187","main_expt"
"","bandit","267","812300","0.0-228.0-0.0","19273443","wem/bandit_either_2","A37JD0XUZHQYRC","either","4","450","","","","","","","0","0","1","","0.2228369986","0.8","0.4","0.2","0.6","0.1926366302","0.1301402021","0.08529062399","0.2228369986","","","","","","","","","","","","76","L","3","","","188","main_expt"
"","bandit","268","814525","0.0-229.0-0.0","19273443","wem/bandit_either_2","A37JD0XUZHQYRC","either","4","711","","","","","","","0","0","1","","0.2567428292","0.8","0.4","0.2","0.6","0.2499935398","0.1980942663","0.07250281893","0.2567428292","","","","","","","","","","","","76","L","3","","","189","main_expt"
"","bandit","269","816557","0.0-230.0-0.0","19273443","wem/bandit_either_2","A37JD0XUZHQYRC","either","4","522","","","","","","","1","0","0","0.3177850294","","0.8","0.4","0.2","0.6","","","","","0.2367317824","0.1842725295","0.07895395147","0.3177850294","","","","","","","","76","L","3","","","190","main_expt"
"","bandit","270","819061","0.0-231.0-0.0","19273443","wem/bandit_either_2","A37JD0XUZHQYRC","either","4","993","","","","","","","0","0","1","0.2876912335","","0.8","0.4","0.2","0.6","","","","","0.2515026666","0.2087081259","0.06204701637","0.2876912335","","","","","","","","76","L","3","","","191","main_expt"
"","bandit","271","820958","0.0-232.0-0.0","19273443","wem/bandit_either_2","A37JD0XUZHQYRC","either","4","386","","","","","","","1","0","0","0.2383873749","","0.8","0.4","0.2","0.6","","","","","0.2451916405","0.1800110976","0.064067899","0.2383873749","","","","","","","","76","L","3","","","192","main_expt"
"","bandit","272","823221","0.0-233.0-0.0","19273443","wem/bandit_either_2","A37JD0XUZHQYRC","either","4","754","","","","","","","0","0","1","0.24690957","","0.8","0.4","0.2","0.6","","","","","0.2353451433","0.1519186298","0.1286650472","0.24690957","","","","","","","","76","L","3","","","193","main_expt"
"","bandit","273","825149","0.0-234.0-0.0","19273443","wem/bandit_either_2","A37JD0XUZHQYRC","either","4","416","","","","","","","0","1","0","","0.2728455101","0.8","0.4","0.2","0.6","0.307075739","0.1431656489","0.1746490116","0.2728455101","","","","","","","","","","","","76","L","3","","","194","main_expt"
"","bandit","274","827508","0.0-235.0-0.0","19273443","wem/bandit_either_2","A37JD0XUZHQYRC","either","4","848","","","","","","","0","0","1","0.2421292151","","0.8","0.4","0.2","0.6","","","","","0.3011001907","0.1868251083","0.129035247","0.2421292151","","","","","","","","76","L","3","","","195","main_expt"
"","bandit","275","829581","0.0-236.0-0.0","19273443","wem/bandit_either_2","A37JD0XUZHQYRC","either","4","561","","","","","","","0","1","0","","0.2598052724","0.8","0.4","0.2","0.6","0.2861216794","0.176624335","0.09052040682","0.2598052724","","","","","","","","","","","","76","L","3","","","196","main_expt"
"","bandit","276","831653","0.0-237.0-0.0","19273443","wem/bandit_either_2","A37JD0XUZHQYRC","either","4","562","","","","","","","0","0","1","0.2540930088","","0.8","0.4","0.2","0.6","","","","","0.2121549007","0.2383323772","0.08675464884","0.2540930088","","","","","","","","76","L","3","","","197","main_expt"
"","bandit","277","833476","0.0-238.0-0.0","19273443","wem/bandit_either_2","A37JD0XUZHQYRC","either","4","314","","","","","","","0","0","1","0.2460150375","","0.8","0.4","0.2","0.6","","","","","0.260340052","0.260618614","0.09429549835","0.2460150375","","","","","","","","76","L","3","","","198","main_expt"
"","bandit","278","835461","0.0-239.0-0.0","19273443","wem/bandit_either_2","A37JD0XUZHQYRC","either","4","474","","","","","","","0","0","1","","0.2217343644","0.8","0.4","0.2","0.6","0.3009562829","0.2935067364","0.09303778716","0.2217343644","","","","","","","","","","","","76","L","3","","","199","main_expt"
"","bandit","279","837132","0.0-240.0-0.0","19273443","wem/bandit_either_2","A37JD0XUZHQYRC","either","4","163","","","","","","","0","0","1","0.2830302048","","0.8","0.4","0.2","0.6","","","","","0.3430896668","0.362920627","0.07354084322","0.2830302048","","","","","","","","76","L","3","","","200","main_expt"
"","bandit","280","838957","0.0-241.0-0.0","19273443","wem/bandit_either_2","A37JD0XUZHQYRC","either","4","313","","","","","","","0","0","1","0.2973668079","","0.8","0.4","0.2","0.6","","","","","0.2973668079","0.3119044903","0.08115367452","0.3175621279","","","","","","","","72","H","0","img/none_selected.jpg","","201","main_expt"
"","bandit","281","841036","0.0-242.0-0.0","19273443","wem/bandit_either_2","A37JD0XUZHQYRC","either","4","567","","","","","","","0","0","1","0.3219337599","","0.8","0.4","0.2","0.6","","","","","0.3219337599","0.3095695708","0.0774842685","0.3049471546","","","","","","","","72","H","0","img/none_selected.jpg","","202","main_expt"
"","bandit","282","842918","0.0-243.0-0.0","19273443","wem/bandit_either_2","A37JD0XUZHQYRC","either","4","370","","","","","","","0","0","1","0.3229991028","","0.8","0.4","0.2","0.6","","","","","0.3229991028","0.3005459379","0.09704724367","0.2975042969","","","","","","","","72","H","0","img/none_selected.jpg","","203","main_expt"
"","bandit","283","844725","0.0-244.0-0.0","19273443","wem/bandit_either_2","A37JD0XUZHQYRC","either","4","296","","","","","","","0","0","1","0.3077995671","","0.8","0.4","0.2","0.6","","","","","0.3077995671","0.3116824409","0.1224111047","0.2268457719","","","","","","","","72","H","0","img/none_selected.jpg","","204","main_expt"
"","bandit","284","846685","0.0-245.0-0.0","19273443","wem/bandit_either_2","A37JD0XUZHQYRC","either","4","447","","","","","","","0","0","1","0.3291635812","","0.8","0.4","0.2","0.6","","","","","0.3070199156","0.3291635812","0.1627664319","0.2582085449","","","","","","","","74","J","1","","","205","main_expt"
"","bandit","285","848612","0.0-246.0-0.0","19273443","wem/bandit_either_2","A37JD0XUZHQYRC","either","4","416","","","","","","","0","0","1","","0.4008790519","0.8","0.4","0.2","0.6","0.3109683939","0.4008790519","0.1604236747","0.2841247045","","","","","","","","","","","","74","J","1","","","206","main_expt"
"","bandit","286","850438","0.0-247.0-0.0","19273443","wem/bandit_either_2","A37JD0XUZHQYRC","either","4","313","","","","","","","0","0","1","0.4202180382","","0.8","0.4","0.2","0.6","","","","","0.2845075958","0.4202180382","0.126388554","0.3333225396","","","","","","","","74","J","1","","","207","main_expt"
"","bandit","287","852244","0.0-248.0-0.0","19273443","wem/bandit_either_2","A37JD0XUZHQYRC","either","4","297","","","","","","","0","0","1","","0.4168586074","0.8","0.4","0.2","0.6","0.2419557814","0.4168586074","0.1602309633","0.290219871","","","","","","","","","","","","74","J","1","","","208","main_expt"
"","bandit","288","854005","0.0-249.0-0.0","19273443","wem/bandit_either_2","A37JD0XUZHQYRC","either","4","250","","","","","","","0","0","1","","0.2009997365","0.8","0.4","0.2","0.6","0.2449545816","0.3949328033","0.2009997365","0.3426384504","","","","","","","","","","","","75","K","2","","","209","main_expt"
"","bandit","289","855520","0.0-250.0-0.0","19273443","wem/bandit_either_2","A37JD0XUZHQYRC","either","4","1","","","","","","","0","0","1","","0.1997114924","0.8","0.4","0.2","0.6","0.2176860071","0.41782505","0.1997114924","0.2932754766","","","","","","","","","","","","75","K","2","","","210","main_expt"
"","bandit","290","858215","0.0-251.0-0.0","19273443","wem/bandit_either_2","A37JD0XUZHQYRC","either","4","1182","","","","","","","0","0","1","","0.2631807131","0.8","0.4","0.2","0.6","0.2460847292","0.4377941382","0.2631807131","0.2522206247","","","","","","","","","","","","75","K","2","","","211","main_expt"
"","bandit","291","860507","0.0-252.0-0.0","19273443","wem/bandit_either_2","A37JD0XUZHQYRC","either","4","783","","","","","","","0","0","1","","0.2008991105","0.8","0.4","0.2","0.6","0.2017704833","0.4619006446","0.2008991105","0.2323705111","","","","","","","","","","","","75","K","2","","","212","main_expt"
"","bandit","292","862315","0.0-253.0-0.0","19273443","wem/bandit_either_2","A37JD0XUZHQYRC","either","4","295","","","","","","","0","0","1","0.2815580385","","0.8","0.4","0.2","0.6","","","","","0.1891715169","0.4508737721","0.1656487101","0.2815580385","","","","","","","","76","L","3","","","213","main_expt"
"","bandit","293","864148","0.0-254.0-0.0","19273443","wem/bandit_either_2","A37JD0XUZHQYRC","either","4","321","","","","","","","0","0","1","0.1819308411","","0.8","0.4","0.2","0.6","","","","","0.1819308411","0.4639731149","0.213788386","0.2955812139","","","","","","","","72","H","0","img/none_selected.jpg","","214","main_expt"
"","bandit","294","866361","0.0-255.0-0.0","19273443","wem/bandit_either_2","A37JD0XUZHQYRC","either","4","705","","","","","","","0","0","1","0.1406935411","","0.8","0.4","0.2","0.6","","","","","0.1406935411","0.4690757113","0.2206736926","0.2988647484","","","","","","","","72","H","0","img/none_selected.jpg","","215","main_expt"
"","bandit","295","868436","0.0-256.0-0.0","19273443","wem/bandit_either_2","A37JD0XUZHQYRC","either","4","563","","","","","","","0","0","1","","0.3361974059","0.8","0.4","0.2","0.6","0.206739756","0.4685680314","0.2270120675","0.3361974059","","","","","","","","","","","","76","L","3","","","216","main_expt"
"","bandit","296","870266","0.0-257.0-0.0","19273443","wem/bandit_either_2","A37JD0XUZHQYRC","either","4","322","","","","","","","0","0","1","","0.2764506131","0.8","0.4","0.2","0.6","0.178624692","0.4873952874","0.2561581829","0.2764506131","","","","","","","","","","","","76","L","3","","","217","main_expt"
"","bandit","297","872306","0.0-258.0-0.0","19273443","wem/bandit_either_2","A37JD0XUZHQYRC","either","4","531","","","","","","","0","0","1","0.299893698","","0.8","0.4","0.2","0.6","","","","","0.2021641755","0.4790671899","0.2785758431","0.299893698","","","","","","","","76","L","3","","","218","main_expt"
"","bandit","298","874453","0.0-259.0-0.0","19273443","wem/bandit_either_2","A37JD0XUZHQYRC","either","4","633","","","","","","","0","0","1","","0.3213687962","0.8","0.4","0.2","0.6","0.2076996705","0.4769795117","0.2707863597","0.3213687962","","","","","","","","","","","","76","L","3","","","219","main_expt"
"","bandit","299","876294","0.0-260.0-0.0","19273443","wem/bandit_either_2","A37JD0XUZHQYRC","either","4","327","","","","","","","0","0","1","0.2479045362","","0.8","0.4","0.2","0.6","","","","","0.2479045362","0.4746148145","0.2262269101","0.3782095139","","","","","","","","72","H","0","img/none_selected.jpg","","220","main_expt"
"","bandit","300","878627","0.0-261.0-0.0","19273443","wem/bandit_either_2","A37JD0XUZHQYRC","either","4","822","","","","","","","0","0","1","0.251163546","","0.8","0.4","0.2","0.6","","","","","0.251163546","0.4789253058","0.2522421151","0.3572699546","","","","","","","","72","H","0","img/none_selected.jpg","","221","main_expt"
"","bandit","301","881026","0.0-262.0-0.0","19273443","wem/bandit_either_2","A37JD0XUZHQYRC","either","4","889","","","","","","","0","0","1","","0.2653622565","0.8","0.4","0.2","0.6","0.2653622565","0.4765400837","0.2323100388","0.332217079","","","","","","","","","","","","72","H","0","img/none_selected.jpg","","222","main_expt"
"","bandit","302","883035","0.0-263.0-0.0","19273443","wem/bandit_either_2","A37JD0XUZHQYRC","either","4","496","","","","","","","0","1","0","","0.4872993944","0.8","0.4","0.2","0.6","0.2034578964","0.4872993944","0.2013525365","0.3327789551","","","","","","","","","","","","74","J","1","","","223","main_expt"
"","bandit","303","885267","0.0-264.0-0.0","19273443","wem/bandit_either_2","A37JD0XUZHQYRC","either","4","719","","","","","","","0","0","1","0.4864577786","","0.8","0.4","0.2","0.6","","","","","0.1176985371","0.4864577786","0.2017363432","0.3720138676","","","","","","","","74","J","1","","","224","main_expt"
"","bandit","304","887708","0.0-265.0-0.0","19273443","wem/bandit_either_2","A37JD0XUZHQYRC","either","4","928","","","","","","","0","0","1","","0.4815865163","0.8","0.4","0.2","0.6","0.08531446518","0.4815865163","0.1608447522","0.4035982493","","","","","","","","","","","","74","J","1","","","225","main_expt"
"","bandit","305","889875","0.0-266.0-0.0","19273443","wem/bandit_either_2","A37JD0XUZHQYRC","either","4","654","","","","","","","0","0","1","0.4781941344","","0.8","0.4","0.2","0.6","","","","","0.0901010045","0.4781941344","0.2023183299","0.3538577565","","","","","","","","74","J","1","","","226","main_expt"
"","bandit","306","892891","0.0-267.0-0.0","19273443","wem/bandit_either_2","A37JD0XUZHQYRC","either","4","1504","","","","","","","0","0","1","","0.4742279627","0.8","0.4","0.2","0.6","0.06499555022","0.4742279627","0.1555458008","0.4205879778","","","","","","","","","","","","74","J","1","","","227","main_expt"
"","bandit","307","895124","0.0-268.0-0.0","19273443","wem/bandit_either_2","A37JD0XUZHQYRC","either","4","718","","","","","","","0","0","1","","0.1210896773","0.8","0.4","0.2","0.6","0.06967502077","0.4597327255","0.1210896773","0.4082381823","","","","","","","","","","","","75","K","2","","","228","main_expt"
"","bandit","308","897123","0.0-269.0-0.0","19273443","wem/bandit_either_2","A37JD0XUZHQYRC","either","4","488","","","","","","","0","1","0","","0.1206830913","0.8","0.4","0.2","0.6","0.07642173418","0.4733003713","0.1206830913","0.4274963613","","","","","","","","","","","","75","K","2","","","229","main_expt"
"","bandit","309","899563","0.0-270.0-0.0","19273443","wem/bandit_either_2","A37JD0XUZHQYRC","either","4","927","","","","","","","0","1","0","","0.1334008039","0.8","0.4","0.2","0.6","0.04973788902","0.4832022084","0.1334008039","0.4362488765","","","","","","","","","","","","75","K","2","","","230","main_expt"
"","bandit","310","901970","0.0-271.0-0.0","19273443","wem/bandit_either_2","A37JD0XUZHQYRC","either","4","896","","","","","","","0","0","1","","0.1048467088","0.8","0.4","0.2","0.6","0.07419495466","0.4802630573","0.1048467088","0.4420629534","","","","","","","","","","","","75","K","2","","","231","main_expt"
"","bandit","311","904107","0.0-272.0-0.0","19273443","wem/bandit_either_2","A37JD0XUZHQYRC","either","4","624","","","","","","","0","1","0","","0.1184002818","0.8","0.4","0.2","0.6","0.08125260149","0.4739318499","0.1184002818","0.4287414635","","","","","","","","","","","","75","K","2","","","232","main_expt"
"","bandit","312","906458","0.0-273.0-0.0","19273443","wem/bandit_either_2","A37JD0XUZHQYRC","either","4","839","","","","","","","0","0","1","","0.08533064469","0.8","0.4","0.2","0.6","0.06057073796","0.4709765286","0.08533064469","0.4395511981","","","","","","","","","","","","75","K","2","","","233","main_expt"
"","bandit","313","908355","0.0-274.0-0.0","19273443","wem/bandit_either_2","A37JD0XUZHQYRC","either","4","385","","","","","","","0","0","1","0.1190123434","","0.8","0.4","0.2","0.6","","","","","0.1037411708","0.4658145356","0.1190123434","0.4479240545","","","","","","","","75","K","2","","","234","main_expt"
"","bandit","314","910258","0.0-275.0-0.0","19273443","wem/bandit_either_2","A37JD0XUZHQYRC","either","4","390","","","","","","","0","0","1","","0.1392024459","0.8","0.4","0.2","0.6","0.1267441937","0.4312508187","0.1392024459","0.4476644646","","","","","","","","","","","","75","K","2","","","235","main_expt"
"","bandit","315","912378","0.0-276.0-0.0","19273443","wem/bandit_either_2","A37JD0XUZHQYRC","either","4","608","","","","","","","0","0","1","0.1002206095","","0.8","0.4","0.2","0.6","","","","","0.1002206095","0.4323277229","0.1076242464","0.457106966","","","","","","","","72","H","0","img/none_selected.jpg","","236","main_expt"
"","bandit","316","915033","0.0-277.0-0.0","19273443","wem/bandit_either_2","A37JD0XUZHQYRC","either","4","1136","","","","","","","0","0","1","0.08353940566","","0.8","0.4","0.2","0.6","","","","","0.08353940566","0.4517679415","0.1539911713","0.4097288684","","","","","","","","72","H","0","img/none_selected.jpg","","237","main_expt"
"","bandit","317","917001","0.0-278.0-0.0","19273443","wem/bandit_either_2","A37JD0XUZHQYRC","either","4","458","","","","","","","0","0","1","0.07847158511","","0.8","0.4","0.2","0.6","","","","","0.07847158511","0.4476427196","0.1833253983","0.4530646831","","","","","","","","72","H","0","img/none_selected.jpg","","238","main_expt"
"","bandit","318","919218","0.0-279.0-0.0","19273443","wem/bandit_either_2","A37JD0XUZHQYRC","either","4","705","","","","","","","0","0","1","0.1132310855","","0.8","0.4","0.2","0.6","","","","","0.1132310855","0.4421551546","0.185515968","0.4532148127","","","","","","","","72","H","0","img/none_selected.jpg","","239","main_expt"
"","bandit","319","921315","0.0-280.0-0.0","19273443","wem/bandit_either_2","A37JD0XUZHQYRC","either","4","580","","","","","","","1","0","0","0.4456906816","","0.8","0.4","0.2","0.6","","","","","0.130249024","0.4205303603","0.2545144829","0.4456906816","","","","","","","","76","L","3","","","240","main_expt"
"","bandit","320","924145","0.0-281.0-0.0","19273443","wem/bandit_either_2","A37JD0XUZHQYRC","either","4","1319","","","","","","","0","1","0","","0.4515134246","0.8","0.4","0.2","0.6","0.1356270161","0.4304808994","0.1902236802","0.4515134246","","","","","","","","","","","","76","L","3","","","241","main_expt"
"","bandit","321","927075","0.0-282.0-0.0","19273443","wem/bandit_either_2","A37JD0XUZHQYRC","either","4","1417","","","","","","","1","0","0","0.4640222466","","0.8","0.4","0.2","0.6","","","","","0.1402569013","0.4318168925","0.2196571485","0.4640222466","","","","","","","","76","L","3","","","242","main_expt"
"","bandit","322","929813","0.0-283.0-0.0","19273443","wem/bandit_either_2","A37JD0XUZHQYRC","either","4","1222","","","","","","","0","0","1","0.4305348251","","0.8","0.4","0.2","0.6","","","","","0.1851652895","0.4437639365","0.2691755858","0.4305348251","","","","","","","","76","L","3","","","243","main_expt"
"","bandit","323","931865","0.0-284.0-0.0","19273443","wem/bandit_either_2","A37JD0XUZHQYRC","either","4","541","","","","","","","0","0","1","","0.4444417595","0.8","0.4","0.2","0.6","0.1871667761","0.4444545885","0.2689580194","0.4444417595","","","","","","","","","","","","76","L","3","","","244","main_expt"
"","bandit","324","934731","0.0-285.0-0.0","19273443","wem/bandit_either_2","A37JD0XUZHQYRC","either","4","1353","","","","","","","1","0","0","0.4468105605","","0.8","0.4","0.2","0.6","","","","","0.1881322931","0.445216333","0.1935089033","0.4468105605","","","","","","","","76","L","3","","","245","main_expt"
"","bandit","325","938084","0.0-286.0-0.0","19273443","wem/bandit_either_2","A37JD0XUZHQYRC","either","4","1838","","","","","","","0","0","1","","0.4453418505","0.8","0.4","0.2","0.6","0.187853128","0.4767449203","0.1466547275","0.4453418505","","","","","","","","","","","","76","L","3","","","246","main_expt"
