"consent","trial_type","trial_index","time_elapsed","internal_node_id","subjID","study","MID","cond","drift","rt","responses","key_press","expt_phase","like","value","connected","gems","bombs","no_reward","GemPrChosen","BombPrChosen","GainOverPainPr_0","GainOverPainPr_1","GainOverPainPr_2","GainOverPainPr_3","LosePr_0","LosePr_1","LosePr_2","LosePr_3","WinPr_0","WinPr_1","WinPr_2","WinPr_3","Q0","Q1","Q2","gender","age","ethnicity","target","respCharCode","respKey","respChoiceNum","respChoice","practice","trial_counter","trial_label"
"INL_behavioral_consent_30min_online.html","consent","0","21668","0.0-0.0","21328779","wem/bandit_either_2","AYSG3J2U3UF1Y","either","5","","","","","","","","","","","","","","","","","","","","","","","","","","","","","","","","","","","","","",""
"","survey-text","1","41044","0.0-1.0","21328779","wem/bandit_either_2","AYSG3J2U3UF1Y","either","5","18360","{""Q0"":""AYSG3J2U3UF1Y""}","","","","","","","","","","","","","","","","","","","","","","","","","","","","","","","","","","","",""
"","text","2","59271","0.0-2.0","21328779","wem/bandit_either_2","AYSG3J2U3UF1Y","either","5","17214","","32","","","","","","","","","","","","","","","","","","","","","","","","","","","","","","","","","","",""
"","text","3","65136","0.0-3.0","21328779","wem/bandit_either_2","AYSG3J2U3UF1Y","either","5","5865","","32","","","","","","","","","","","","","","","","","","","","","","","","","","","","","","","","","","",""
"","text","4","89116","0.0-4.0","21328779","wem/bandit_either_2","AYSG3J2U3UF1Y","either","5","23980","","32","","","","","","","","","","","","","","","","","","","","","","","","","","","","","","","","","","",""
"","text","5","100904","0.0-5.0","21328779","wem/bandit_either_2","AYSG3J2U3UF1Y","either","5","11788","","32","","","","","","","","","","","","","","","","","","","","","","","","","","","","","","","","","","",""
"","text","6","115560","0.0-6.0","21328779","wem/bandit_either_2","AYSG3J2U3UF1Y","either","5","14646","","32","","","","","","","","","","","","","","","","","","","","","","","","","","","","","","","","","","",""
"","text","7","119900","0.0-7.0","21328779","wem/bandit_either_2","AYSG3J2U3UF1Y","either","5","4330","","32","","","","","","","","","","","","","","","","","","","","","","","","","","","","","","","","","","",""
"","text","8","124859","0.0-8.0","21328779","wem/bandit_either_2","AYSG3J2U3UF1Y","either","5","4959","","32","","","","","","","","","","","","","","","","","","","","","","","","","","","","","","","","","","",""
"","identification","9","131405","0.0-9.0-0.0","21328779","wem/bandit_either_2","AYSG3J2U3UF1Y","either","5","6521","","","","3","3","3","","","","","","","","","","","","","","","","","","","","","","","","the village of Zur","","","","","","",""
"","identification","10","135461","0.0-9.0-1.0","21328779","wem/bandit_either_2","AYSG3J2U3UF1Y","either","5","3043","","","","3","3","3","","","","","","","","","","","","","","","","","","","","","","","","the village of Nyx","","","","","","",""
"","text","11","147921","0.0-10.0","21328779","wem/bandit_either_2","AYSG3J2U3UF1Y","either","5","11457","","32","","","","","","","","","","","","","","","","","","","","","","","","","","","","","","","","","","",""
"","text","12","151793","0.0-11.0","21328779","wem/bandit_either_2","AYSG3J2U3UF1Y","either","5","3871","","32","","","","","","","","","","","","","","","","","","","","","","","","","","","","","","","","","","",""
"","text","13","153890","0.0-12.0","21328779","wem/bandit_either_2","AYSG3J2U3UF1Y","either","5","2095","","32","","","","","","","","","","","","","","","","","","","","","","","","","","","","","","","","","","",""
"","text","14","158393","0.0-13.0","21328779","wem/bandit_either_2","AYSG3J2U3UF1Y","either","5","4501","","32","","","","","","","","","","","","","","","","","","","","","","","","","","","","","","","","","","",""
"","bandit","15","168747","0.0-14.0-0.0","21328779","wem/bandit_either_2","AYSG3J2U3UF1Y","either","5","8844","","","","","","","0","0","1","0","0","","","","","0","","","","0","","","","","","","","","","","74","J","0","img/none_selected_demo.jpg","true","0",""
"","bandit","16","172618","0.0-15.0-0.0","21328779","wem/bandit_either_2","AYSG3J2U3UF1Y","either","5","2361","","","","","","","0","0","1","0","0","","","","","0","","","","0","","","","","","","","","","","75","K","0","img/none_selected_demo.jpg","true","0",""
"","text","17","181809","0.0-16.0","21328779","wem/bandit_either_2","AYSG3J2U3UF1Y","either","5","9189","","32","","","","","","","","","","","","","","","","","","","","","","","","","","","","","","","","","","",""
"","text","18","190385","0.0-17.0","21328779","wem/bandit_either_2","AYSG3J2U3UF1Y","either","5","8574","","32","","","","","","","","","","","","","","","","","","","","","","","","","","","","","","","","","","",""
"","text","19","196505","0.0-18.0","21328779","wem/bandit_either_2","AYSG3J2U3UF1Y","either","5","6120","","32","","","","","","","","","","","","","","","","","","","","","","","","","","","","","","","","","","",""
"","text","20","207073","0.0-19.0","21328779","wem/bandit_either_2","AYSG3J2U3UF1Y","either","5","10566","","32","","","","","","","","","","","","","","","","","","","","","","","","","","","","","","","","","","",""
"","bandit","21","209338","0.0-20.0-0.0","21328779","wem/bandit_either_2","AYSG3J2U3UF1Y","either","5","758","","","","","","","0","0","1","0.2","","0.5","0.5","","","","","","","0.8","0.2","","","","","","","","","","75","K","1","","true","0","80_20_practice"
"","bandit","22","212215","0.0-20.0-1.0","21328779","wem/bandit_either_2","AYSG3J2U3UF1Y","either","5","1372","","","","","","","0","1","0","","0.8","0.5","0.5","","","0.8","0.2","","","","","","","","","","","","","","74","J","0","img/none_selected_demo.jpg","true","0","80_20_practice"
"","bandit","23","214455","0.0-20.0-2.0","21328779","wem/bandit_either_2","AYSG3J2U3UF1Y","either","5","735","","","","","","","0","1","0","","0.8","0.5","0.5","","","0.8","0.2","","","","","","","","","","","","","","74","J","0","img/none_selected_demo.jpg","true","0","80_20_practice"
"","bandit","24","216319","0.0-20.0-3.0","21328779","wem/bandit_either_2","AYSG3J2U3UF1Y","either","5","359","","","","","","","0","0","1","","0.8","0.5","0.5","","","0.8","0.2","","","","","","","","","","","","","","74","J","0","img/none_selected_demo.jpg","true","0","80_20_practice"
"","bandit","25","218121","0.0-20.0-4.0","21328779","wem/bandit_either_2","AYSG3J2U3UF1Y","either","5","296","","","","","","","0","0","1","0.2","","0.5","0.5","","","","","","","0.8","0.2","","","","","","","","","","75","K","1","","true","0","80_20_practice"
"","bandit","26","219655","0.0-20.0-5.0","21328779","wem/bandit_either_2","AYSG3J2U3UF1Y","either","5","28","","","","","","","0","1","0","","0.8","0.5","0.5","","","0.8","0.2","","","","","","","","","","","","","","74","J","0","img/none_selected_demo.jpg","true","0","80_20_practice"
"","bandit","27","221385","0.0-20.0-6.0","21328779","wem/bandit_either_2","AYSG3J2U3UF1Y","either","5","221","","","","","","","0","1","0","","0.8","0.5","0.5","","","0.8","0.2","","","","","","","","","","","","","","74","J","0","img/none_selected_demo.jpg","true","0","80_20_practice"
"","bandit","28","225024","0.0-20.0-7.0","21328779","wem/bandit_either_2","AYSG3J2U3UF1Y","either","5","2132","","","","","","","0","0","1","","0.2","0.5","0.5","","","0.8","0.2","","","","","","","","","","","","","","75","K","1","","true","0","80_20_practice"
"","bandit","29","227809","0.0-20.0-8.0","21328779","wem/bandit_either_2","AYSG3J2U3UF1Y","either","5","1275","","","","","","","1","0","0","0.8","","0.5","0.5","","","","","","","0.8","0.2","","","","","","","","","","74","J","0","img/none_selected_demo.jpg","true","0","80_20_practice"
"","bandit","30","229760","0.0-20.0-9.0","21328779","wem/bandit_either_2","AYSG3J2U3UF1Y","either","5","446","","","","","","","1","0","0","0.8","","0.5","0.5","","","","","","","0.8","0.2","","","","","","","","","","74","J","0","img/none_selected_demo.jpg","true","0","80_20_practice"
"","bandit","31","231759","0.0-20.0-10.0","21328779","wem/bandit_either_2","AYSG3J2U3UF1Y","either","5","494","","","","","","","0","1","0","","0.8","0.5","0.5","","","0.8","0.2","","","","","","","","","","","","","","74","J","0","img/none_selected_demo.jpg","true","0","80_20_practice"
"","bandit","32","233879","0.0-20.0-11.0","21328779","wem/bandit_either_2","AYSG3J2U3UF1Y","either","5","614","","","","","","","0","1","0","","0.8","0.5","0.5","","","0.8","0.2","","","","","","","","","","","","","","74","J","0","img/none_selected_demo.jpg","true","0","80_20_practice"
"","bandit","33","235856","0.0-20.0-12.0","21328779","wem/bandit_either_2","AYSG3J2U3UF1Y","either","5","470","","","","","","","0","1","0","","0.8","0.5","0.5","","","0.8","0.2","","","","","","","","","","","","","","74","J","0","img/none_selected_demo.jpg","true","0","80_20_practice"
"","bandit","34","237880","0.0-20.0-13.0","21328779","wem/bandit_either_2","AYSG3J2U3UF1Y","either","5","518","","","","","","","0","0","1","","0.8","0.5","0.5","","","0.8","0.2","","","","","","","","","","","","","","74","J","0","img/none_selected_demo.jpg","true","0","80_20_practice"
"","bandit","35","241353","0.0-20.0-14.0","21328779","wem/bandit_either_2","AYSG3J2U3UF1Y","either","5","1967","","","","","","","0","0","1","","0.2","0.5","0.5","","","0.8","0.2","","","","","","","","","","","","","","75","K","1","","true","0","80_20_practice"
"","bandit","36","243849","0.0-20.0-15.0","21328779","wem/bandit_either_2","AYSG3J2U3UF1Y","either","5","988","","","","","","","0","0","1","0.2","","0.5","0.5","","","","","","","0.8","0.2","","","","","","","","","","75","K","1","","true","0","80_20_practice"
"","bandit","37","247057","0.0-20.0-16.0","21328779","wem/bandit_either_2","AYSG3J2U3UF1Y","either","5","1701","","","","","","","0","0","1","","0.8","0.5","0.5","","","0.8","0.2","","","","","","","","","","","","","","74","J","0","img/none_selected_demo.jpg","true","0","80_20_practice"
"","bandit","38","250224","0.0-20.0-17.0","21328779","wem/bandit_either_2","AYSG3J2U3UF1Y","either","5","1661","","","","","","","0","0","1","0.2","","0.5","0.5","","","","","","","0.8","0.2","","","","","","","","","","75","K","1","","true","0","80_20_practice"
"","bandit","39","252750","0.0-20.0-18.0","21328779","wem/bandit_either_2","AYSG3J2U3UF1Y","either","5","1022","","","","","","","1","0","0","0.2","","0.5","0.5","","","","","","","0.8","0.2","","","","","","","","","","75","K","1","","true","0","80_20_practice"
"","bandit","40","254318","0.0-20.0-19.0","21328779","wem/bandit_either_2","AYSG3J2U3UF1Y","either","5","62","","","","","","","1","0","0","0.2","","0.5","0.5","","","","","","","0.8","0.2","","","","","","","","","","75","K","1","","true","0","80_20_practice"
"","text","41","261458","0.0-21.0","21328779","wem/bandit_either_2","AYSG3J2U3UF1Y","either","5","7137","","32","","","","","","","","","","","","","","","","","","","","","","","","","","","","","","","","","","",""
"","bandit","42","268297","0.0-22.0-0.0","21328779","wem/bandit_either_2","AYSG3J2U3UF1Y","either","5","5333","","","","","","","1","0","0","1","0","","","","","0","1","","","1","0","","","","","","","","","","74","J","0","img/none_selected_demo.jpg","true","0",""
"","text","43","275178","0.0-23.0","21328779","wem/bandit_either_2","AYSG3J2U3UF1Y","either","5","6879","","32","","","","","","","","","","","","","","","","","","","","","","","","","","","","","","","","","","",""
"","text","44","278449","0.0-24.0","21328779","wem/bandit_either_2","AYSG3J2U3UF1Y","either","5","3269","","32","","","","","","","","","","","","","","","","","","","","","","","","","","","","","","","","","","",""
"","text","45","281457","0.0-25.0","21328779","wem/bandit_either_2","AYSG3J2U3UF1Y","either","5","3006","","32","","","","","","","","","","","","","","","","","","","","","","","","","","","","","","","","","","",""
"","text","46","284144","0.0-26.0","21328779","wem/bandit_either_2","AYSG3J2U3UF1Y","either","5","2686","","32","","","","","","","","","","","","","","","","","","","","","","","","","","","","","","","","","","",""
"","text","47","290409","0.0-27.0","21328779","wem/bandit_either_2","AYSG3J2U3UF1Y","either","5","6263","","32","","","","","","","","","","","","","","","","","","","","","","","","","","","","","","","","","","",""
"","text","48","293193","0.0-28.0","21328779","wem/bandit_either_2","AYSG3J2U3UF1Y","either","5","2781","","32","","","","","","","","","","","","","","","","","","","","","","","","","","","","","","","","","","",""
"","text","49","297097","0.0-29.0","21328779","wem/bandit_either_2","AYSG3J2U3UF1Y","either","5","3902","","32","","","","","","","","","","","","","","","","","","","","","","","","","","","","","","","","","","",""
"","text","50","300489","0.0-30.0","21328779","wem/bandit_either_2","AYSG3J2U3UF1Y","either","5","3391","","32","","","","","","","","","","","","","","","","","","","","","","","","","","","","","","","","","","",""
"","text","51","304040","0.0-31.0","21328779","wem/bandit_either_2","AYSG3J2U3UF1Y","either","5","3549","","32","","","","","","","","","","","","","","","","","","","","","","","","","","","","","","","","","","",""
"","text","52","305544","0.0-32.0","21328779","wem/bandit_either_2","AYSG3J2U3UF1Y","either","5","1502","","32","","","","","","","","","","","","","","","","","","","","","","","","","","","","","","","","","","",""
"","text","53","308264","0.0-33.0","21328779","wem/bandit_either_2","AYSG3J2U3UF1Y","either","5","2718","","32","","","","","","","","","","","","","","","","","","","","","","","","","","","","","","","","","","",""
"","bandit","54","310595","0.0-34.0-0.0","21328779","wem/bandit_either_2","AYSG3J2U3UF1Y","either","5","822","","","","","","","0","0","1","0.2","","0.5","0.5","0.5","0.5","","","","","0.8","0.2","0.6","0.2","","","","","","","","74","J","1","","true","0","full_practice"
"","bandit","55","314003","0.0-34.0-1.0","21328779","wem/bandit_either_2","AYSG3J2U3UF1Y","either","5","1900","","","","","","","0","0","1","0.2","","0.5","0.5","0.5","0.5","","","","","0.8","0.2","0.6","0.2","","","","","","","","74","J","1","","true","0","full_practice"
"","bandit","56","315816","0.0-34.0-2.0","21328779","wem/bandit_either_2","AYSG3J2U3UF1Y","either","5","305","","","","","","","0","1","0","","0.6","0.5","0.5","0.5","0.5","0.8","0.2","0.6","0.2","","","","","","","","","","","","75","K","2","","true","0","full_practice"
"","bandit","57","317509","0.0-34.0-3.0","21328779","wem/bandit_either_2","AYSG3J2U3UF1Y","either","5","181","","","","","","","1","0","0","0.6","","0.5","0.5","0.5","0.5","","","","","0.8","0.2","0.6","0.2","","","","","","","","75","K","2","","true","0","full_practice"
"","bandit","58","320729","0.0-34.0-4.0","21328779","wem/bandit_either_2","AYSG3J2U3UF1Y","either","5","1713","","","","","","","0","0","1","","0.6","0.5","0.5","0.5","0.5","0.8","0.2","0.6","0.2","","","","","","","","","","","","75","K","2","","true","0","full_practice"
"","bandit","59","323447","0.0-34.0-5.0","21328779","wem/bandit_either_2","AYSG3J2U3UF1Y","either","5","1213","","","","","","","1","0","0","0.2","","0.5","0.5","0.5","0.5","","","","","0.8","0.2","0.6","0.2","","","","","","","","76","L","3","","true","0","full_practice"
"","bandit","60","325726","0.0-34.0-6.0","21328779","wem/bandit_either_2","AYSG3J2U3UF1Y","either","5","772","","","","","","","0","0","1","","0.2","0.5","0.5","0.5","0.5","0.8","0.2","0.6","0.2","","","","","","","","","","","","76","L","3","","true","0","full_practice"
"","bandit","61","327680","0.0-34.0-7.0","21328779","wem/bandit_either_2","AYSG3J2U3UF1Y","either","5","446","","","","","","","0","0","1","","0.8","0.5","0.5","0.5","0.5","0.8","0.2","0.6","0.2","","","","","","","","","","","","72","H","0","img/none_selected.jpg","true","0","full_practice"
"","bandit","62","330816","0.0-34.0-8.0","21328779","wem/bandit_either_2","AYSG3J2U3UF1Y","either","5","1628","","","","","","","0","1","0","","0.2","0.5","0.5","0.5","0.5","0.8","0.2","0.6","0.2","","","","","","","","","","","","76","L","3","","true","0","full_practice"
"","bandit","63","332776","0.0-34.0-9.0","21328779","wem/bandit_either_2","AYSG3J2U3UF1Y","either","5","453","","","","","","","0","0","1","0.2","","0.5","0.5","0.5","0.5","","","","","0.8","0.2","0.6","0.2","","","","","","","","76","L","3","","true","0","full_practice"
"","bandit","64","334649","0.0-34.0-10.0","21328779","wem/bandit_either_2","AYSG3J2U3UF1Y","either","5","366","","","","","","","0","0","1","0.2","","0.5","0.5","0.5","0.5","","","","","0.8","0.2","0.6","0.2","","","","","","","","76","L","3","","true","0","full_practice"
"","bandit","65","336297","0.0-34.0-11.0","21328779","wem/bandit_either_2","AYSG3J2U3UF1Y","either","5","139","","","","","","","0","0","1","","0.6","0.5","0.5","0.5","0.5","0.8","0.2","0.6","0.2","","","","","","","","","","","","75","K","2","","true","0","full_practice"
"","bandit","66","339824","0.0-34.0-12.0","21328779","wem/bandit_either_2","AYSG3J2U3UF1Y","either","5","2021","","","","","","","0","0","1","","0.2","0.5","0.5","0.5","0.5","0.8","0.2","0.6","0.2","","","","","","","","","","","","74","J","1","","true","0","full_practice"
"","bandit","67","341992","0.0-34.0-13.0","21328779","wem/bandit_either_2","AYSG3J2U3UF1Y","either","5","660","","","","","","","0","1","0","","0.8","0.5","0.5","0.5","0.5","0.8","0.2","0.6","0.2","","","","","","","","","","","","72","H","0","img/none_selected.jpg","true","0","full_practice"
"","bandit","68","343688","0.0-34.0-14.0","21328779","wem/bandit_either_2","AYSG3J2U3UF1Y","either","5","188","","","","","","","1","0","0","0.8","","0.5","0.5","0.5","0.5","","","","","0.8","0.2","0.6","0.2","","","","","","","","72","H","0","img/none_selected.jpg","true","0","full_practice"
"","bandit","69","346121","0.0-34.0-15.0","21328779","wem/bandit_either_2","AYSG3J2U3UF1Y","either","5","925","","","","","","","1","0","0","0.8","","0.5","0.5","0.5","0.5","","","","","0.8","0.2","0.6","0.2","","","","","","","","72","H","0","img/none_selected.jpg","true","0","full_practice"
"","bandit","70","347719","0.0-34.0-16.0","21328779","wem/bandit_either_2","AYSG3J2U3UF1Y","either","5","91","","","","","","","1","0","0","0.8","","0.5","0.5","0.5","0.5","","","","","0.8","0.2","0.6","0.2","","","","","","","","72","H","0","img/none_selected.jpg","true","0","full_practice"
"","bandit","71","350664","0.0-34.0-17.0","21328779","wem/bandit_either_2","AYSG3J2U3UF1Y","either","5","1438","","","","","","","0","1","0","","0.8","0.5","0.5","0.5","0.5","0.8","0.2","0.6","0.2","","","","","","","","","","","","72","H","0","img/none_selected.jpg","true","0","full_practice"
"","bandit","72","352232","0.0-34.0-18.0","21328779","wem/bandit_either_2","AYSG3J2U3UF1Y","either","5","61","","","","","","","1","0","0","0.8","","0.5","0.5","0.5","0.5","","","","","0.8","0.2","0.6","0.2","","","","","","","","72","H","0","img/none_selected.jpg","true","0","full_practice"
"","bandit","73","355089","0.0-34.0-19.0","21328779","wem/bandit_either_2","AYSG3J2U3UF1Y","either","5","1350","","","","","","","1","0","0","0.8","","0.5","0.5","0.5","0.5","","","","","0.8","0.2","0.6","0.2","","","","","","","","72","H","0","img/none_selected.jpg","true","0","full_practice"
"","text","74","358560","0.0-35.0","21328779","wem/bandit_either_2","AYSG3J2U3UF1Y","either","5","3464","","32","","","","","","","","","","","","","","","","","","","","","","","","","","","","","","","","","","",""
"","text","75","374457","0.0-36.0","21328779","wem/bandit_either_2","AYSG3J2U3UF1Y","either","5","14894","","32","","","","","","","","","","","","","","","","","","","","","","","","","","","","","","","","","","",""
"","text","76","383953","0.0-37.0","21328779","wem/bandit_either_2","AYSG3J2U3UF1Y","either","5","9493","","32","","","","","","","","","","","","","","","","","","","","","","","","","","","","","","","","","","",""
"","text","77","388194","0.0-38.0","21328779","wem/bandit_either_2","AYSG3J2U3UF1Y","either","5","4238","","32","","","","","","","","","","","","","","","","","","","","","","","","","","","","","","","","","","",""
"","text","78","393800","0.0-39.0","21328779","wem/bandit_either_2","AYSG3J2U3UF1Y","either","5","5605","","32","","","","","","","","","","","","","","","","","","","","","","","","","","","","","","","","","","",""
"","text","79","398482","0.0-40.0","21328779","wem/bandit_either_2","AYSG3J2U3UF1Y","either","5","4679","","32","","","","","","","","","","","","","","","","","","","","","","","","","","","","","","","","","","",""
"","bandit","80","402960","0.0-41.0-0.0","21328779","wem/bandit_either_2","AYSG3J2U3UF1Y","either","5","2971","","","","","","","0","1","0","","0.4265570961","0.4","0.2","0.8","0.6","0.4265570961","0.3340388524","0.3897275569","0.1165465043","","","","","","","","","","","","72","H","0","img/none_selected.jpg","","1","main_expt"
"","bandit","81","405088","0.0-42.0-0.0","21328779","wem/bandit_either_2","AYSG3J2U3UF1Y","either","5","620","","","","","","","0","0","1","0.4177099958","","0.4","0.2","0.8","0.6","","","","","0.4177099958","0.3223834482","0.3911966266","0.08371899021","","","","","","","","72","H","0","img/none_selected.jpg","","2","main_expt"
"","bandit","82","407577","0.0-43.0-0.0","21328779","wem/bandit_either_2","AYSG3J2U3UF1Y","either","5","980","","","","","","","0","1","0","","0.3585509001","0.4","0.2","0.8","0.6","0.4192185534","0.3585509001","0.4074861021","0.04339790364","","","","","","","","","","","","74","J","1","","","3","main_expt"
"","bandit","83","409616","0.0-44.0-0.0","21328779","wem/bandit_either_2","AYSG3J2U3UF1Y","either","5","531","","","","","","","0","1","0","","0.3416436242","0.4","0.2","0.8","0.6","0.4241610434","0.3416436242","0.3965638453","0.04073472785","","","","","","","","","","","","74","J","1","","","4","main_expt"
"","bandit","84","411697","0.0-45.0-0.0","21328779","wem/bandit_either_2","AYSG3J2U3UF1Y","either","5","573","","","","","","","0","0","1","0.3444758892","","0.4","0.2","0.8","0.6","","","","","0.4284837315","0.3444758892","0.3688269119","0.04731773769","","","","","","","","74","J","1","","","5","main_expt"
"","bandit","85","413624","0.0-46.0-0.0","21328779","wem/bandit_either_2","AYSG3J2U3UF1Y","either","5","419","","","","","","","1","0","0","0.3865867917","","0.4","0.2","0.8","0.6","","","","","0.4328708062","0.3574177426","0.3865867917","0.05617088868","","","","","","","","75","K","2","","","6","main_expt"
"","bandit","86","415473","0.0-47.0-0.0","21328779","wem/bandit_either_2","AYSG3J2U3UF1Y","either","5","340","","","","","","","1","0","0","0.4294719924","","0.4","0.2","0.8","0.6","","","","","0.4176545671","0.3634052143","0.4294719924","0.05606577856","","","","","","","","75","K","2","","","7","main_expt"
"","bandit","87","417313","0.0-48.0-0.0","21328779","wem/bandit_either_2","AYSG3J2U3UF1Y","either","5","332","","","","","","","0","0","1","0.4210378118","","0.4","0.2","0.8","0.6","","","","","0.4022395488","0.3675420607","0.4210378118","0.09244853328","","","","","","","","75","K","2","","","8","main_expt"
"","bandit","88","419272","0.0-49.0-0.0","21328779","wem/bandit_either_2","AYSG3J2U3UF1Y","either","5","451","","","","","","","0","0","1","0.1271341085","","0.4","0.2","0.8","0.6","","","","","0.3929004949","0.3921196104","0.4502112583","0.1271341085","","","","","","","","76","L","3","","","9","main_expt"
"","bandit","89","421319","0.0-50.0-0.0","21328779","wem/bandit_either_2","AYSG3J2U3UF1Y","either","5","541","","","","","","","0","1","0","","0.3863711448","0.4","0.2","0.8","0.6","0.3863711448","0.4026182126","0.4452653155","0.1370717255","","","","","","","","","","","","72","H","0","img/none_selected.jpg","","10","main_expt"
"","bandit","90","423249","0.0-51.0-0.0","21328779","wem/bandit_either_2","AYSG3J2U3UF1Y","either","5","423","","","","","","","1","0","0","0.4205849279","","0.4","0.2","0.8","0.6","","","","","0.4205849279","0.3543069494","0.4352349267","0.1275050207","","","","","","","","72","H","0","img/none_selected.jpg","","11","main_expt"
"","bandit","91","427350","0.0-52.0-0.0","21328779","wem/bandit_either_2","AYSG3J2U3UF1Y","either","5","2595","","","","","","","0","0","1","","0.4525069231","0.4","0.2","0.8","0.6","0.4525069231","0.3504097904","0.4029030639","0.122317004","","","","","","","","","","","","72","H","0","img/none_selected.jpg","","12","main_expt"
"","bandit","92","429287","0.0-53.0-0.0","21328779","wem/bandit_either_2","AYSG3J2U3UF1Y","either","5","428","","","","","","","0","0","1","","0.2787441393","0.4","0.2","0.8","0.6","0.4485799753","0.2787441393","0.4198147105","0.1251711411","","","","","","","","","","","","74","J","1","","","13","main_expt"
"","bandit","93","431233","0.0-54.0-0.0","21328779","wem/bandit_either_2","AYSG3J2U3UF1Y","either","5","436","","","","","","","0","0","1","0.3761312174","","0.4","0.2","0.8","0.6","","","","","0.4504049656","0.2723245106","0.3761312174","0.1380641988","","","","","","","","75","K","2","","","14","main_expt"
"","bandit","94","433232","0.0-55.0-0.0","21328779","wem/bandit_either_2","AYSG3J2U3UF1Y","either","5","492","","","","","","","0","0","1","0.2010812313","","0.4","0.2","0.8","0.6","","","","","0.4281165459","0.3687644442","0.4017507227","0.2010812313","","","","","","","","76","L","3","","","15","main_expt"
"","bandit","95","435150","0.0-56.0-0.0","21328779","wem/bandit_either_2","AYSG3J2U3UF1Y","either","5","405","","","","","","","0","0","1","","0.4035101098","0.4","0.2","0.8","0.6","0.4035101098","0.3992289848","0.3859888637","0.1747275657","","","","","","","","","","","","72","H","0","img/none_selected.jpg","","16","main_expt"
"","bandit","96","437079","0.0-57.0-0.0","21328779","wem/bandit_either_2","AYSG3J2U3UF1Y","either","5","421","","","","","","","0","0","1","0.4063691663","","0.4","0.2","0.8","0.6","","","","","0.4063691663","0.4067061876","0.3706978481","0.1816524112","","","","","","","","72","H","0","img/none_selected.jpg","","17","main_expt"
"","bandit","97","438936","0.0-58.0-0.0","21328779","wem/bandit_either_2","AYSG3J2U3UF1Y","either","5","349","","","","","","","0","1","0","","0.3969002131","0.4","0.2","0.8","0.6","0.4201618032","0.3969002131","0.3323991027","0.1700798448","","","","","","","","","","","","74","J","1","","","18","main_expt"
"","bandit","98","440745","0.0-59.0-0.0","21328779","wem/bandit_either_2","AYSG3J2U3UF1Y","either","5","301","","","","","","","0","0","1","","0.3930099592","0.4","0.2","0.8","0.6","0.3868389751","0.3930099592","0.3301718366","0.1998500639","","","","","","","","","","","","74","J","1","","","19","main_expt"
"","bandit","99","442321","0.0-60.0-0.0","21328779","wem/bandit_either_2","AYSG3J2U3UF1Y","either","5","68","","","","","","","0","0","1","","0.3791602553","0.4","0.2","0.8","0.6","0.3868875991","0.3791602553","0.3714618997","0.2418808817","","","","","","","","","","","","74","J","1","","","20","main_expt"
"","bandit","100","444070","0.0-61.0-0.0","21328779","wem/bandit_either_2","AYSG3J2U3UF1Y","either","5","244","","","","","","","0","0","1","0.3621694591","","0.4","0.2","0.8","0.6","","","","","0.4253770554","0.4127515201","0.3621694591","0.2293341009","","","","","","","","75","K","2","","","21","main_expt"
"","bandit","101","445730","0.0-62.0-0.0","21328779","wem/bandit_either_2","AYSG3J2U3UF1Y","either","5","151","","","","","","","0","0","1","0.3648829928","","0.4","0.2","0.8","0.6","","","","","0.4285762007","0.4164833055","0.3648829928","0.2074184163","","","","","","","","75","K","2","","","22","main_expt"
"","bandit","102","447270","0.0-63.0-0.0","21328779","wem/bandit_either_2","AYSG3J2U3UF1Y","either","5","34","","","","","","","0","0","1","0.1832507358","","0.4","0.2","0.8","0.6","","","","","0.4082522222","0.4143027846","0.2856994719","0.1832507358","","","","","","","","76","L","3","","","23","main_expt"
"","bandit","103","450576","0.0-64.0-0.0","21328779","wem/bandit_either_2","AYSG3J2U3UF1Y","either","5","1798","","","","","","","1","0","0","0.1469425149","","0.4","0.2","0.8","0.6","","","","","0.4027270218","0.3649270698","0.3152516524","0.1469425149","","","","","","","","76","L","3","","","24","main_expt"
"","bandit","104","452272","0.0-65.0-0.0","21328779","wem/bandit_either_2","AYSG3J2U3UF1Y","either","5","187","","","","","","","1","0","0","0.102794739","","0.4","0.2","0.8","0.6","","","","","0.4100212433","0.392676409","0.2778145345","0.102794739","","","","","","","","76","L","3","","","25","main_expt"
"","bandit","105","453920","0.0-66.0-0.0","21328779","wem/bandit_either_2","AYSG3J2U3UF1Y","either","5","140","","","","","","","0","0","1","0.1173732637","","0.4","0.2","0.8","0.6","","","","","0.4190791169","0.4031565401","0.3170506137","0.1173732637","","","","","","","","76","L","3","","","26","main_expt"
"","bandit","106","457161","0.0-67.0-0.0","21328779","wem/bandit_either_2","AYSG3J2U3UF1Y","either","5","1733","","","","","","","0","0","1","","0.08835016803","0.4","0.2","0.8","0.6","0.4527212376","0.4245959001","0.3223143746","0.08835016803","","","","","","","","","","","","76","L","3","","","27","main_expt"
"","bandit","107","460040","0.0-68.0-0.0","21328779","wem/bandit_either_2","AYSG3J2U3UF1Y","either","5","1373","","","","","","","0","0","1","","0.4480998813","0.4","0.2","0.8","0.6","0.4480998813","0.4232885055","0.3234472479","0.1134440288","","","","","","","","","","","","72","H","0","img/none_selected.jpg","","28","main_expt"
"","bandit","108","461990","0.0-69.0-0.0","21328779","wem/bandit_either_2","AYSG3J2U3UF1Y","either","5","444","","","","","","","0","0","1","","0.4495512981","0.4","0.2","0.8","0.6","0.4628669208","0.4495512981","0.2881425904","0.1982905849","","","","","","","","","","","","74","J","1","","","29","main_expt"
"","bandit","109","463911","0.0-70.0-0.0","21328779","wem/bandit_either_2","AYSG3J2U3UF1Y","either","5","413","","","","","","","1","0","0","0.2326555855","","0.4","0.2","0.8","0.6","","","","","0.4565655028","0.4485299892","0.2326555855","0.2366655967","","","","","","","","75","K","2","","","30","main_expt"
"","bandit","110","465791","0.0-71.0-0.0","21328779","wem/bandit_either_2","AYSG3J2U3UF1Y","either","5","371","","","","","","","0","0","1","0.2364604256","","0.4","0.2","0.8","0.6","","","","","0.4686031056","0.4599237238","0.2364604256","0.1622470467","","","","","","","","75","K","2","","","31","main_expt"
"","bandit","111","467456","0.0-72.0-0.0","21328779","wem/bandit_either_2","AYSG3J2U3UF1Y","either","5","158","","","","","","","0","0","1","0.2451982598","","0.4","0.2","0.8","0.6","","","","","0.4659582456","0.4508116693","0.2451982598","0.1771911602","","","","","","","","75","K","2","","","32","main_expt"
"","bandit","112","468981","0.0-73.0-0.0","21328779","wem/bandit_either_2","AYSG3J2U3UF1Y","either","5","1","","","","","","","1","0","0","0.1622836308","","0.4","0.2","0.8","0.6","","","","","0.4810757035","0.45101727","0.2360369815","0.1622836308","","","","","","","","76","L","3","","","33","main_expt"
"","bandit","113","470626","0.0-74.0-0.0","21328779","wem/bandit_either_2","AYSG3J2U3UF1Y","either","5","135","","","","","","","0","0","1","0.1655985557","","0.4","0.2","0.8","0.6","","","","","0.4842727378","0.4340174653","0.2317763892","0.1655985557","","","","","","","","76","L","3","","","34","main_expt"
"","bandit","114","472576","0.0-75.0-0.0","21328779","wem/bandit_either_2","AYSG3J2U3UF1Y","either","5","443","","","","","","","0","0","1","0.4745470136","","0.4","0.2","0.8","0.6","","","","","0.4745470136","0.4040147441","0.2527891731","0.1492797185","","","","","","","","72","H","0","img/none_selected.jpg","","35","main_expt"
"","bandit","115","474840","0.0-76.0-0.0","21328779","wem/bandit_either_2","AYSG3J2U3UF1Y","either","5","757","","","","","","","0","1","0","","0.4440965139","0.4","0.2","0.8","0.6","0.4440965139","0.4268829696","0.2641283143","0.1504543003","","","","","","","","","","","","72","H","0","img/none_selected.jpg","","36","main_expt"
"","bandit","116","476784","0.0-77.0-0.0","21328779","wem/bandit_either_2","AYSG3J2U3UF1Y","either","5","435","","","","","","","0","0","1","","0.4544425755","0.4","0.2","0.8","0.6","0.4544425755","0.4562327564","0.2309310423","0.1064249526","","","","","","","","","","","","72","H","0","img/none_selected.jpg","","37","main_expt"
"","bandit","117","478648","0.0-78.0-0.0","21328779","wem/bandit_either_2","AYSG3J2U3UF1Y","either","5","358","","","","","","","0","0","1","0.4700138218","","0.4","0.2","0.8","0.6","","","","","0.4700138218","0.4481627861","0.2093170459","0.1346530267","","","","","","","","72","H","0","img/none_selected.jpg","","38","main_expt"
"","bandit","118","480448","0.0-79.0-0.0","21328779","wem/bandit_either_2","AYSG3J2U3UF1Y","either","5","292","","","","","","","0","0","1","","0.466948448","0.4","0.2","0.8","0.6","0.466948448","0.4475890948","0.1398625959","0.1303494481","","","","","","","","","","","","72","H","0","img/none_selected.jpg","","39","main_expt"
"","bandit","119","482256","0.0-80.0-0.0","21328779","wem/bandit_either_2","AYSG3J2U3UF1Y","either","5","300","","","","","","","0","1","0","","0.4679256248","0.4","0.2","0.8","0.6","0.4679256248","0.4501575696","0.09690087606","0.1492074344","","","","","","","","","","","","72","H","0","img/none_selected.jpg","","40","main_expt"
"","bandit","120","484114","0.0-81.0-0.0","21328779","wem/bandit_either_2","AYSG3J2U3UF1Y","either","5","346","","","","","","","1","0","0","0.445537573","","0.4","0.2","0.8","0.6","","","","","0.445537573","0.4121884666","0.1129569356","0.1370672299","","","","","","","","72","H","0","img/none_selected.jpg","","41","main_expt"
"","bandit","121","487072","0.0-82.0-0.0","21328779","wem/bandit_either_2","AYSG3J2U3UF1Y","either","5","1448","","","","","","","0","0","1","0.4521531226","","0.4","0.2","0.8","0.6","","","","","0.4521531226","0.4379939247","0.1227033228","0.08144147181","","","","","","","","72","H","0","img/none_selected.jpg","","42","main_expt"
"","bandit","122","488792","0.0-83.0-0.0","21328779","wem/bandit_either_2","AYSG3J2U3UF1Y","either","5","212","","","","","","","0","0","1","0.4695072217","","0.4","0.2","0.8","0.6","","","","","0.4695072217","0.4271747655","0.08393287497","0.06793865388","","","","","","","","72","H","0","img/none_selected.jpg","","43","main_expt"
"","bandit","123","490543","0.0-84.0-0.0","21328779","wem/bandit_either_2","AYSG3J2U3UF1Y","either","5","244","","","","","","","0","0","1","","0.4480494518","0.4","0.2","0.8","0.6","0.4807409838","0.4480494518","0.06260074275","0.05295344446","","","","","","","","","","","","74","J","1","","","44","main_expt"
"","bandit","124","492864","0.0-85.0-0.0","21328779","wem/bandit_either_2","AYSG3J2U3UF1Y","either","5","812","","","","","","","0","0","1","","0.4269729589","0.4","0.2","0.8","0.6","0.4507048108","0.4269729589","0.08062123592","0.02744239742","","","","","","","","","","","","74","J","1","","","45","main_expt"
"","bandit","125","495256","0.0-86.0-0.0","21328779","wem/bandit_either_2","AYSG3J2U3UF1Y","either","5","883","","","","","","","0","1","0","","0.4475746277","0.4","0.2","0.8","0.6","0.4382321206","0.4475746277","0.1110847749","0.02347437243","","","","","","","","","","","","74","J","1","","","46","main_expt"
"","bandit","126","497217","0.0-87.0-0.0","21328779","wem/bandit_either_2","AYSG3J2U3UF1Y","either","5","449","","","","","","","0","1","0","","0.4295618238","0.4","0.2","0.8","0.6","0.4393937913","0.4295618238","0.05346849493","0.02418160198","","","","","","","","","","","","74","J","1","","","47","main_expt"
"","bandit","127","499137","0.0-88.0-0.0","21328779","wem/bandit_either_2","AYSG3J2U3UF1Y","either","5","410","","","","","","","0","0","1","","0.4431907244","0.4","0.2","0.8","0.6","0.440318131","0.4431907244","0.04499733497","0.01182676654","","","","","","","","","","","","74","J","1","","","48","main_expt"
"","bandit","128","501561","0.0-89.0-0.0","21328779","wem/bandit_either_2","AYSG3J2U3UF1Y","either","5","913","","","","","","","0","0","1","","0.4187732916","0.4","0.2","0.8","0.6","0.4362102412","0.4187732916","0.07378534534","0.0186287842","","","","","","","","","","","","74","J","1","","","49","main_expt"
"","bandit","129","503336","0.0-90.0-0.0","21328779","wem/bandit_either_2","AYSG3J2U3UF1Y","either","5","267","","","","","","","0","0","1","0.06168845619","","0.4","0.2","0.8","0.6","","","","","0.44488671","0.356579213","0.06168845619","0.02550629551","","","","","","","","75","K","2","","","50","main_expt"
"","bandit","130","504896","0.0-91.0-0.0","21328779","wem/bandit_either_2","AYSG3J2U3UF1Y","either","5","52","","","","","","","0","0","1","0.1062028567","","0.4","0.2","0.8","0.6","","","","","0.4633405548","0.2629404955","0.1062028567","0.04366809707","","","","","","","","75","K","2","","","51","main_expt"
"","bandit","131","508943","0.0-92.0-0.0","21328779","wem/bandit_either_2","AYSG3J2U3UF1Y","either","5","2539","","","","","","","1","0","0","0.04357168116","","0.4","0.2","0.8","0.6","","","","","0.4528043762","0.2919747068","0.1379608546","0.04357168116","","","","","","","","76","L","3","","","52","main_expt"
"","bandit","132","510618","0.0-93.0-0.0","21328779","wem/bandit_either_2","AYSG3J2U3UF1Y","either","5","166","","","","","","","0","0","1","","0.03899227154","0.4","0.2","0.8","0.6","0.4390431751","0.3809901122","0.1356826849","0.03899227154","","","","","","","","","","","","76","L","3","","","53","main_expt"
"","bandit","133","512215","0.0-94.0-0.0","21328779","wem/bandit_either_2","AYSG3J2U3UF1Y","either","5","89","","","","","","","0","0","1","0.04009146386","","0.4","0.2","0.8","0.6","","","","","0.4549270822","0.3452518694","0.1038772241","0.04009146386","","","","","","","","76","L","3","","","54","main_expt"
"","bandit","134","513992","0.0-95.0-0.0","21328779","wem/bandit_either_2","AYSG3J2U3UF1Y","either","5","268","","","","","","","0","0","1","0.0155768565","","0.4","0.2","0.8","0.6","","","","","0.4710341864","0.3263112327","0.1689791829","0.0155768565","","","","","","","","76","L","3","","","55","main_expt"
"","bandit","135","515832","0.0-96.0-0.0","21328779","wem/bandit_either_2","AYSG3J2U3UF1Y","either","5","331","","","","","","","1","0","0","0.4745834276","","0.4","0.2","0.8","0.6","","","","","0.4745834276","0.3308963945","0.1108888145","0.02112461672","","","","","","","","72","H","0","img/none_selected.jpg","","56","main_expt"
"","bandit","136","517806","0.0-97.0-0.0","21328779","wem/bandit_either_2","AYSG3J2U3UF1Y","either","5","466","","","","","","","0","0","1","0.489318572","","0.4","0.2","0.8","0.6","","","","","0.489318572","0.3150326571","0.1206542402","0.0126553198","","","","","","","","72","H","0","img/none_selected.jpg","","57","main_expt"
"","bandit","137","519713","0.0-98.0-0.0","21328779","wem/bandit_either_2","AYSG3J2U3UF1Y","either","5","398","","","","","","","0","0","1","","0.480037986","0.4","0.2","0.8","0.6","0.480037986","0.3049116772","0.09707343937","0.01131359515","","","","","","","","","","","","72","H","0","img/none_selected.jpg","","58","main_expt"
"","bandit","138","522728","0.0-99.0-0.0","21328779","wem/bandit_either_2","AYSG3J2U3UF1Y","either","5","1506","","","","","","","0","0","1","","0.3050987947","0.4","0.2","0.8","0.6","0.4593461039","0.3050987947","0.1044384952","0.01030075821","","","","","","","","","","","","74","J","1","","","59","main_expt"
"","bandit","139","524432","0.0-100.0-0.0","21328779","wem/bandit_either_2","AYSG3J2U3UF1Y","either","5","196","","","","","","","0","0","1","0.08890369623","","0.4","0.2","0.8","0.6","","","","","0.446051488","0.3274009355","0.08890369623","0.005868957973","","","","","","","","75","K","2","","","60","main_expt"
"","bandit","140","527514","0.0-101.0-0.0","21328779","wem/bandit_either_2","AYSG3J2U3UF1Y","either","5","1571","","","","","","","0","0","1","0.004361943215","","0.4","0.2","0.8","0.6","","","","","0.4391285327","0.3428943983","0.08921221942","0.004361943215","","","","","","","","76","L","3","","","61","main_expt"
"","bandit","141","529040","0.0-102.0-0.0","21328779","wem/bandit_either_2","AYSG3J2U3UF1Y","either","5","9","","","","","","","0","0","1","","0.005208412743","0.4","0.2","0.8","0.6","0.4063883723","0.3549763931","0.09812025034","0.005208412743","","","","","","","","","","","","76","L","3","","","62","main_expt"
"","bandit","142","530775","0.0-103.0-0.0","21328779","wem/bandit_either_2","AYSG3J2U3UF1Y","either","5","227","","","","","","","1","0","0","0.4330387396","","0.4","0.2","0.8","0.6","","","","","0.4330387396","0.3496678451","0.09006279409","0.006461011255","","","","","","","","72","H","0","img/none_selected.jpg","","63","main_expt"
"","bandit","143","532713","0.0-104.0-0.0","21328779","wem/bandit_either_2","AYSG3J2U3UF1Y","either","5","430","","","","","","","0","0","1","","0.3188537263","0.4","0.2","0.8","0.6","0.4207902426","0.3188537263","0.1118976224","0.01267926231","","","","","","","","","","","","74","J","1","","","64","main_expt"
"","bandit","144","534342","0.0-105.0-0.0","21328779","wem/bandit_either_2","AYSG3J2U3UF1Y","either","5","122","","","","","","","0","0","1","0.1053817613","","0.4","0.2","0.8","0.6","","","","","0.3719582347","0.3191795336","0.1053817613","0.009732787917","","","","","","","","75","K","2","","","65","main_expt"
"","bandit","145","537640","0.0-106.0-0.0","21328779","wem/bandit_either_2","AYSG3J2U3UF1Y","either","5","1790","","","","","","","0","1","0","","0.3748569955","0.4","0.2","0.8","0.6","0.3748569955","0.268616347","0.1307356695","0.01092542651","","","","","","","","","","","","72","H","0","img/none_selected.jpg","","66","main_expt"
"","bandit","146","539481","0.0-107.0-0.0","21328779","wem/bandit_either_2","AYSG3J2U3UF1Y","either","5","331","","","","","","","0","1","0","","0.259194563","0.4","0.2","0.8","0.6","0.335252031","0.259194563","0.1418436428","0.02125534741","","","","","","","","","","","","74","J","1","","","67","main_expt"
"","bandit","147","541336","0.0-108.0-0.0","21328779","wem/bandit_either_2","AYSG3J2U3UF1Y","either","5","346","","","","","","","1","0","0","0.2281204868","","0.4","0.2","0.8","0.6","","","","","0.3199157278","0.2281204868","0.1459089566","0.02360283027","","","","","","","","74","J","1","","","68","main_expt"
"","bandit","148","544713","0.0-109.0-0.0","21328779","wem/bandit_either_2","AYSG3J2U3UF1Y","either","5","1866","","","","","","","1","0","0","0.2195844169","","0.4","0.2","0.8","0.6","","","","","0.3068525281","0.2195844169","0.1809721424","0.02539305756","","","","","","","","74","J","1","","","69","main_expt"
"","bandit","149","546559","0.0-110.0-0.0","21328779","wem/bandit_either_2","AYSG3J2U3UF1Y","either","5","339","","","","","","","0","1","0","","0.1883338509","0.4","0.2","0.8","0.6","0.3181076016","0.1883338509","0.1784068974","0.05014388586","","","","","","","","","","","","74","J","1","","","70","main_expt"
"","bandit","150","549190","0.0-111.0-0.0","21328779","wem/bandit_either_2","AYSG3J2U3UF1Y","either","5","1125","","","","","","","1","0","0","0.1639708178","","0.4","0.2","0.8","0.6","","","","","0.2926426422","0.1639708178","0.1973023396","0.04209054697","","","","","","","","74","J","1","","","71","main_expt"
"","bandit","151","551209","0.0-112.0-0.0","21328779","wem/bandit_either_2","AYSG3J2U3UF1Y","either","5","509","","","","","","","0","0","1","","0.1312842785","0.4","0.2","0.8","0.6","0.2380263643","0.1312842785","0.2436342847","0.05611199342","","","","","","","","","","","","74","J","1","","","72","main_expt"
"","bandit","152","553009","0.0-113.0-0.0","21328779","wem/bandit_either_2","AYSG3J2U3UF1Y","either","5","290","","","","","","","0","0","1","","0.2407197948","0.4","0.2","0.8","0.6","0.2407197948","0.1805041857","0.1992173182","0.05293238473","","","","","","","","","","","","72","H","0","img/none_selected.jpg","","73","main_expt"
"","bandit","153","554607","0.0-114.0-0.0","21328779","wem/bandit_either_2","AYSG3J2U3UF1Y","either","5","90","","","","","","","0","0","1","","0.2317468449","0.4","0.2","0.8","0.6","0.2317468449","0.1739557812","0.2347098304","0.0318456884","","","","","","","","","","","","72","H","0","img/none_selected.jpg","","74","main_expt"
"","bandit","154","556232","0.0-115.0-0.0","21328779","wem/bandit_either_2","AYSG3J2U3UF1Y","either","5","116","","","","","","","0","0","1","0.2545997551","","0.4","0.2","0.8","0.6","","","","","0.2545997551","0.2434916027","0.2641442137","0.03873230677","","","","","","","","72","H","0","img/none_selected.jpg","","75","main_expt"
"","bandit","155","557992","0.0-116.0-0.0","21328779","wem/bandit_either_2","AYSG3J2U3UF1Y","either","5","251","","","","","","","0","1","0","","0.3192644053","0.4","0.2","0.8","0.6","0.2890845388","0.2438468568","0.3192644053","0.03304947682","","","","","","","","","","","","75","K","2","","","76","main_expt"
"","bandit","156","559960","0.0-117.0-0.0","21328779","wem/bandit_either_2","AYSG3J2U3UF1Y","either","5","460","","","","","","","0","0","1","0.3351132613","","0.4","0.2","0.8","0.6","","","","","0.2386362654","0.2425324642","0.3351132613","0.02607887458","","","","","","","","75","K","2","","","77","main_expt"
"","bandit","157","563391","0.0-118.0-0.0","21328779","wem/bandit_either_2","AYSG3J2U3UF1Y","either","5","1924","","","","","","","0","0","1","0.3086784207","","0.4","0.2","0.8","0.6","","","","","0.2673679704","0.205588479","0.3086784207","0.02492981692","","","","","","","","75","K","2","","","78","main_expt"
"","bandit","158","565312","0.0-119.0-0.0","21328779","wem/bandit_either_2","AYSG3J2U3UF1Y","either","5","412","","","","","","","0","0","1","","0.01824110002","0.4","0.2","0.8","0.6","0.2813811921","0.213062191","0.3076482073","0.01824110002","","","","","","","","","","","","76","L","3","","","79","main_expt"
"","bandit","159","567217","0.0-120.0-0.0","21328779","wem/bandit_either_2","AYSG3J2U3UF1Y","either","5","394","","","","","","","0","0","1","0.0202176162","","0.4","0.2","0.8","0.6","","","","","0.2419447949","0.1852926048","0.3605025214","0.0202176162","","","","","","","","76","L","3","","","80","main_expt"
"","bandit","160","569496","0.0-121.0-0.0","21328779","wem/bandit_either_2","AYSG3J2U3UF1Y","either","5","769","","","","","","","0","1","0","","0.2332942271","0.4","0.2","0.8","0.6","0.323481111","0.2332942271","0.3286166321","0.0252752587","","","","","","","","","","","","74","J","1","","","81","main_expt"
"","bandit","161","571207","0.0-122.0-0.0","21328779","wem/bandit_either_2","AYSG3J2U3UF1Y","either","5","201","","","","","","","0","0","1","","0.2087797338","0.4","0.2","0.8","0.6","0.3097244961","0.2087797338","0.3459677762","0.05668457717","","","","","","","","","","","","74","J","1","","","82","main_expt"
"","bandit","162","574566","0.0-123.0-0.0","21328779","wem/bandit_either_2","AYSG3J2U3UF1Y","either","5","1844","","","","","","","0","0","1","","0.2049979043","0.4","0.2","0.8","0.6","0.2787498647","0.2049979043","0.3092751195","0.07760530004","","","","","","","","","","","","74","J","1","","","83","main_expt"
"","bandit","163","576553","0.0-124.0-0.0","21328779","wem/bandit_either_2","AYSG3J2U3UF1Y","either","5","478","","","","","","","0","0","1","","0.2589524449","0.4","0.2","0.8","0.6","0.2589524449","0.2151780091","0.3044630387","0.03696005566","","","","","","","","","","","","72","H","0","img/none_selected.jpg","","84","main_expt"
"","bandit","164","578426","0.0-125.0-0.0","21328779","wem/bandit_either_2","AYSG3J2U3UF1Y","either","5","363","","","","","","","1","0","0","0.2812480587","","0.4","0.2","0.8","0.6","","","","","0.2769318636","0.1497615914","0.2812480587","0.04177257934","","","","","","","","75","K","2","","","85","main_expt"
"","bandit","165","580289","0.0-126.0-0.0","21328779","wem/bandit_either_2","AYSG3J2U3UF1Y","either","5","353","","","","","","","1","0","0","0.2506532223","","0.4","0.2","0.8","0.6","","","","","0.2849222391","0.1223687677","0.2506532223","0.0385770192","","","","","","","","75","K","2","","","86","main_expt"
"","bandit","166","582519","0.0-127.0-0.0","21328779","wem/bandit_either_2","AYSG3J2U3UF1Y","either","5","722","","","","","","","0","0","1","0.2269900387","","0.4","0.2","0.8","0.6","","","","","0.3131087309","0.1472857413","0.2269900387","0.03720252147","","","","","","","","75","K","2","","","87","main_expt"
"","bandit","167","584540","0.0-128.0-0.0","21328779","wem/bandit_either_2","AYSG3J2U3UF1Y","either","5","493","","","","","","","0","0","1","0.1504729919","","0.4","0.2","0.8","0.6","","","","","0.3038587512","0.1252586248","0.1504729919","0.06746059371","","","","","","","","75","K","2","","","88","main_expt"
"","bandit","168","586523","0.0-129.0-0.0","21328779","wem/bandit_either_2","AYSG3J2U3UF1Y","either","5","473","","","","","","","0","0","1","","0.04069757945","0.4","0.2","0.8","0.6","0.3308022157","0.1194927994","0.1382070302","0.04069757945","","","","","","","","","","","","76","L","3","","","89","main_expt"
"","bandit","169","588417","0.0-130.0-0.0","21328779","wem/bandit_either_2","AYSG3J2U3UF1Y","either","5","384","","","","","","","0","0","1","","0.1589750007","0.4","0.2","0.8","0.6","0.3574922351","0.1589750007","0.1364765349","0.07325379503","","","","","","","","","","","","74","J","1","","","90","main_expt"
"","bandit","170","590209","0.0-131.0-0.0","21328779","wem/bandit_either_2","AYSG3J2U3UF1Y","either","5","281","","","","","","","0","0","1","","0.3729517688","0.4","0.2","0.8","0.6","0.3729517688","0.1859960426","0.09318196272","0.06877471811","","","","","","","","","","","","72","H","0","img/none_selected.jpg","","91","main_expt"
"","bandit","171","591960","0.0-132.0-0.0","21328779","wem/bandit_either_2","AYSG3J2U3UF1Y","either","5","241","","","","","","","0","0","1","0.06946097624","","0.4","0.2","0.8","0.6","","","","","0.398352994","0.192419488","0.06946097624","0.04115987362","","","","","","","","75","K","2","","","92","main_expt"
"","bandit","172","593607","0.0-133.0-0.0","21328779","wem/bandit_either_2","AYSG3J2U3UF1Y","either","5","139","","","","","","","0","0","1","0.07078892783","","0.4","0.2","0.8","0.6","","","","","0.4135860398","0.1716033463","0.08102832817","0.07078892783","","","","","","","","76","L","3","","","93","main_expt"
"","bandit","173","595281","0.0-134.0-0.0","21328779","wem/bandit_either_2","AYSG3J2U3UF1Y","either","5","163","","","","","","","0","0","1","0.05572868433","","0.4","0.2","0.8","0.6","","","","","0.3786880174","0.1935897604","0.1271360848","0.05572868433","","","","","","","","76","L","3","","","94","main_expt"
"","bandit","174","597215","0.0-135.0-0.0","21328779","wem/bandit_either_2","AYSG3J2U3UF1Y","either","5","424","","","","","","","0","0","1","0.05056929995","","0.4","0.2","0.8","0.6","","","","","0.3823424718","0.2193228015","0.1097592989","0.05056929995","","","","","","","","76","L","3","","","95","main_expt"
"","bandit","175","599143","0.0-136.0-0.0","21328779","wem/bandit_either_2","AYSG3J2U3UF1Y","either","5","419","","","","","","","0","0","1","0.3642725552","","0.4","0.2","0.8","0.6","","","","","0.3642725552","0.3262643469","0.1085490834","0.04159874267","","","","","","","","72","H","0","img/none_selected.jpg","","96","main_expt"
"","bandit","176","600928","0.0-137.0-0.0","21328779","wem/bandit_either_2","AYSG3J2U3UF1Y","either","5","276","","","","","","","0","0","1","0.3197717944","","0.4","0.2","0.8","0.6","","","","","0.3197717944","0.3207405496","0.1049812554","0.03654451862","","","","","","","","72","H","0","img/none_selected.jpg","","97","main_expt"
"","bandit","177","602775","0.0-138.0-0.0","21328779","wem/bandit_either_2","AYSG3J2U3UF1Y","either","5","338","","","","","","","0","0","1","","0.3712856991","0.4","0.2","0.8","0.6","0.2514424369","0.3712856991","0.08177978443","0.04190300095","","","","","","","","","","","","74","J","1","","","98","main_expt"
"","bandit","178","604591","0.0-139.0-0.0","21328779","wem/bandit_either_2","AYSG3J2U3UF1Y","either","5","308","","","","","","","0","1","0","","0.3740145378","0.4","0.2","0.8","0.6","0.2926772137","0.3740145378","0.07574087804","0.08742990617","","","","","","","","","","","","74","J","1","","","99","main_expt"
"","bandit","179","606361","0.0-140.0-0.0","21328779","wem/bandit_either_2","AYSG3J2U3UF1Y","either","5","257","","","","","","","0","1","0","","0.3776295542","0.4","0.2","0.8","0.6","0.234485335","0.3776295542","0.07829319678","0.08966523481","","","","","","","","","","","","74","J","1","","","100","main_expt"
"","bandit","180","609112","0.0-141.0-0.0","21328779","wem/bandit_either_2","AYSG3J2U3UF1Y","either","5","1242","","","","","","","0","0","1","","0.3592666398","0.4","0.2","0.8","0.6","0.250352175","0.3592666398","0.07919243683","0.07849065771","","","","","","","","","","","","74","J","1","","","101","main_expt"
"","bandit","181","611040","0.0-142.0-0.0","21328779","wem/bandit_either_2","AYSG3J2U3UF1Y","either","5","418","","","","","","","0","0","1","0.1052753188","","0.4","0.2","0.8","0.6","","","","","0.2139972863","0.3412191773","0.1052753188","0.1054267613","","","","","","","","75","K","2","","","102","main_expt"
"","bandit","182","612814","0.0-143.0-0.0","21328779","wem/bandit_either_2","AYSG3J2U3UF1Y","either","5","266","","","","","","","0","0","1","","0.1248526142","0.4","0.2","0.8","0.6","0.20092706","0.3133100433","0.1248526142","0.1120981937","","","","","","","","","","","","75","K","2","","","103","main_expt"
"","bandit","183","614458","0.0-144.0-0.0","21328779","wem/bandit_either_2","AYSG3J2U3UF1Y","either","5","131","","","","","","","0","0","1","0.1034740879","","0.4","0.2","0.8","0.6","","","","","0.2305366804","0.3219148419","0.142969925","0.1034740879","","","","","","","","76","L","3","","","104","main_expt"
"","bandit","184","616983","0.0-145.0-0.0","21328779","wem/bandit_either_2","AYSG3J2U3UF1Y","either","5","1018","","","","","","","0","0","1","","0.07597240327","0.4","0.2","0.8","0.6","0.2102135581","0.3300892518","0.13947254","0.07597240327","","","","","","","","","","","","76","L","3","","","105","main_expt"
"","bandit","185","618801","0.0-146.0-0.0","21328779","wem/bandit_either_2","AYSG3J2U3UF1Y","either","5","306","","","","","","","0","0","1","0.2219457329","","0.4","0.2","0.8","0.6","","","","","0.2219457329","0.3401839058","0.1329526997","0.1124257427","","","","","","","","72","H","0","img/none_selected.jpg","","106","main_expt"
"","bandit","186","620728","0.0-147.0-0.0","21328779","wem/bandit_either_2","AYSG3J2U3UF1Y","either","5","418","","","","","","","1","0","0","0.3048423019","","0.4","0.2","0.8","0.6","","","","","0.3048423019","0.3784706915","0.1727290233","0.1133168519","","","","","","","","72","H","0","img/none_selected.jpg","","107","main_expt"
"","bandit","187","622487","0.0-148.0-0.0","21328779","wem/bandit_either_2","AYSG3J2U3UF1Y","either","5","250","","","","","","","0","1","0","","0.258150515","0.4","0.2","0.8","0.6","0.258150515","0.3945753887","0.1864487031","0.1752395656","","","","","","","","","","","","72","H","0","img/none_selected.jpg","","108","main_expt"
"","bandit","188","624041","0.0-149.0-0.0","21328779","wem/bandit_either_2","AYSG3J2U3UF1Y","either","5","42","","","","","","","0","0","1","","0.1859129148","0.4","0.2","0.8","0.6","0.1859129148","0.356827327","0.2463216238","0.1862973424","","","","","","","","","","","","72","H","0","img/none_selected.jpg","","109","main_expt"
"","bandit","189","625640","0.0-150.0-0.0","21328779","wem/bandit_either_2","AYSG3J2U3UF1Y","either","5","87","","","","","","","0","0","1","0.1371624404","","0.4","0.2","0.8","0.6","","","","","0.1371624404","0.2344179837","0.2431522628","0.2015845776","","","","","","","","72","H","0","img/none_selected.jpg","","110","main_expt"
"","bandit","190","627193","0.0-151.0-0.0","21328779","wem/bandit_either_2","AYSG3J2U3UF1Y","either","5","44","","","","","","","0","0","1","","0.1258232978","0.4","0.2","0.8","0.6","0.1258232978","0.2644823096","0.1757476643","0.2003651753","","","","","","","","","","","","72","H","0","img/none_selected.jpg","","111","main_expt"
"","bandit","191","629186","0.0-152.0-0.0","21328779","wem/bandit_either_2","AYSG3J2U3UF1Y","either","5","482","","","","","","","0","0","1","0.1529967373","","0.4","0.2","0.8","0.6","","","","","0.1529967373","0.28311182","0.2451518953","0.21392293","","","","","","","","72","H","0","img/none_selected.jpg","","112","main_expt"
"","bandit","192","632056","0.0-153.0-0.0","21328779","wem/bandit_either_2","AYSG3J2U3UF1Y","either","5","1360","","","","","","","0","0","1","","0.2413269532","0.4","0.2","0.8","0.6","0.148248117","0.2413269532","0.2407836715","0.1606798039","","","","","","","","","","","","74","J","1","","","113","main_expt"
"","bandit","193","633766","0.0-154.0-0.0","21328779","wem/bandit_either_2","AYSG3J2U3UF1Y","either","5","202","","","","","","","0","1","0","","0.3100969134","0.4","0.2","0.8","0.6","0.1562208239","0.3100969134","0.3099317417","0.2095980235","","","","","","","","","","","","74","J","1","","","114","main_expt"
"","bandit","194","635442","0.0-155.0-0.0","21328779","wem/bandit_either_2","AYSG3J2U3UF1Y","either","5","165","","","","","","","0","1","0","","0.329842252","0.4","0.2","0.8","0.6","0.2138032898","0.329842252","0.3180754701","0.2550279667","","","","","","","","","","","","74","J","1","","","115","main_expt"
"","bandit","195","637696","0.0-156.0-0.0","21328779","wem/bandit_either_2","AYSG3J2U3UF1Y","either","5","745","","","","","","","0","1","0","","0.3223706096","0.4","0.2","0.8","0.6","0.2331260325","0.3223706096","0.2919742107","0.2471764387","","","","","","","","","","","","74","J","1","","","116","main_expt"
"","bandit","196","639617","0.0-157.0-0.0","21328779","wem/bandit_either_2","AYSG3J2U3UF1Y","either","5","411","","","","","","","0","0","1","","0.3098408215","0.4","0.2","0.8","0.6","0.1826309729","0.3098408215","0.2799774295","0.2730878341","","","","","","","","","","","","74","J","1","","","117","main_expt"
"","bandit","197","641329","0.0-158.0-0.0","21328779","wem/bandit_either_2","AYSG3J2U3UF1Y","either","5","200","","","","","","","0","0","1","","0.2974554567","0.4","0.2","0.8","0.6","0.1511269107","0.2974554567","0.2646714695","0.2071462199","","","","","","","","","","","","74","J","1","","","118","main_expt"
"","bandit","198","642903","0.0-159.0-0.0","21328779","wem/bandit_either_2","AYSG3J2U3UF1Y","either","5","66","","","","","","","0","0","1","0.3598468986","","0.4","0.2","0.8","0.6","","","","","0.1559979654","0.3598468986","0.3179839519","0.2275232499","","","","","","","","74","J","1","","","119","main_expt"
"","bandit","199","644744","0.0-160.0-0.0","21328779","wem/bandit_either_2","AYSG3J2U3UF1Y","either","5","332","","","","","","","1","0","0","0.3302262658","","0.4","0.2","0.8","0.6","","","","","0.1463004055","0.2984373086","0.3302262658","0.2767559596","","","","","","","","75","K","2","","","120","main_expt"
"","bandit","200","646503","0.0-161.0-0.0","21328779","wem/bandit_either_2","AYSG3J2U3UF1Y","either","5","251","","","","","","","1","0","0","0.3500549905","","0.4","0.2","0.8","0.6","","","","","0.1418195479","0.2973090059","0.3500549905","0.3448590315","","","","","","","","75","K","2","","","121","main_expt"
"","bandit","201","648047","0.0-162.0-0.0","21328779","wem/bandit_either_2","AYSG3J2U3UF1Y","either","5","36","","","","","","","0","0","1","0.2686616284","","0.4","0.2","0.8","0.6","","","","","0.1270782113","0.3382791822","0.2686616284","0.3593301016","","","","","","","","75","K","2","","","122","main_expt"
"","bandit","202","650057","0.0-163.0-0.0","21328779","wem/bandit_either_2","AYSG3J2U3UF1Y","either","5","501","","","","","","","1","0","0","0.3680529171","","0.4","0.2","0.8","0.6","","","","","0.1207154071","0.3154347028","0.2277230314","0.3680529171","","","","","","","","76","L","3","","","123","main_expt"
"","bandit","203","651927","0.0-164.0-0.0","21328779","wem/bandit_either_2","AYSG3J2U3UF1Y","either","5","362","","","","","","","1","0","0","0.3476523483","","0.4","0.2","0.8","0.6","","","","","0.1229329119","0.2966737815","0.3287090939","0.3476523483","","","","","","","","76","L","3","","","124","main_expt"
"","bandit","204","653711","0.0-165.0-0.0","21328779","wem/bandit_either_2","AYSG3J2U3UF1Y","either","5","276","","","","","","","0","0","1","0.3564603465","","0.4","0.2","0.8","0.6","","","","","0.09241122996","0.3094831126","0.3687339586","0.3564603465","","","","","","","","76","L","3","","","125","main_expt"
"","bandit","205","655856","0.0-166.0-0.0","21328779","wem/bandit_either_2","AYSG3J2U3UF1Y","either","5","633","","","","","","","0","0","1","0.3550684458","","0.4","0.2","0.8","0.6","","","","","0.08418962236","0.2488993205","0.3836195774","0.3550684458","","","","","","","","76","L","3","","","126","main_expt"
"","bandit","206","657363","0.0-167.0-0.0","21328779","wem/bandit_either_2","AYSG3J2U3UF1Y","either","5","0","","","","","","","1","0","0","0.3617365958","","0.4","0.2","0.8","0.6","","","","","0.154715772","0.1953487027","0.3617365958","0.3235559827","","","","","","","","75","K","2","","","127","main_expt"
"","bandit","207","658904","0.0-168.0-0.0","21328779","wem/bandit_either_2","AYSG3J2U3UF1Y","either","5","30","","","","","","","0","0","1","0.3235283493","","0.4","0.2","0.8","0.6","","","","","0.1556709078","0.2171889907","0.3235283493","0.312087491","","","","","","","","75","K","2","","","128","main_expt"
"","bandit","208","661680","0.0-169.0-0.0","21328779","wem/bandit_either_2","AYSG3J2U3UF1Y","either","5","1266","","","","","","","0","0","1","0.3453830546","","0.4","0.2","0.8","0.6","","","","","0.1214200615","0.2467699801","0.3453830546","0.2843272188","","","","","","","","75","K","2","","","129","main_expt"
"","bandit","209","664759","0.0-170.0-0.0","21328779","wem/bandit_either_2","AYSG3J2U3UF1Y","either","5","1571","","","","","","","0","0","1","","0.2814443482","0.4","0.2","0.8","0.6","0.1377283829","0.2814443482","0.3242747857","0.2128416856","","","","","","","","","","","","74","J","1","","","130","main_expt"
"","bandit","210","667679","0.0-171.0-0.0","21328779","wem/bandit_either_2","AYSG3J2U3UF1Y","either","5","1409","","","","","","","0","0","1","","0.2834176508","0.4","0.2","0.8","0.6","0.1397421628","0.2834176508","0.3417201858","0.2403879813","","","","","","","","","","","","74","J","1","","","131","main_expt"
"","bandit","211","670334","0.0-172.0-0.0","21328779","wem/bandit_either_2","AYSG3J2U3UF1Y","either","5","1148","","","","","","","0","1","0","","0.1061875113","0.4","0.2","0.8","0.6","0.1061875113","0.2429908031","0.3498614837","0.2811421594","","","","","","","","","","","","72","H","0","img/none_selected.jpg","","132","main_expt"
"","bandit","212","672064","0.0-173.0-0.0","21328779","wem/bandit_either_2","AYSG3J2U3UF1Y","either","5","222","","","","","","","0","0","1","0.07774811701","","0.4","0.2","0.8","0.6","","","","","0.07774811701","0.3053559495","0.3134828643","0.3002858371","","","","","","","","72","H","0","img/none_selected.jpg","","133","main_expt"
"","bandit","213","675744","0.0-174.0-0.0","21328779","wem/bandit_either_2","AYSG3J2U3UF1Y","either","5","2170","","","","","","","0","0","1","0.08211281178","","0.4","0.2","0.8","0.6","","","","","0.08211281178","0.2693478067","0.3554593188","0.277406375","","","","","","","","72","H","0","img/none_selected.jpg","","134","main_expt"
"","bandit","214","678777","0.0-175.0-0.0","21328779","wem/bandit_either_2","AYSG3J2U3UF1Y","either","5","1523","","","","","","","1","0","0","0.3369166079","","0.4","0.2","0.8","0.6","","","","","0.1123817552","0.3369166079","0.3150900126","0.2897147582","","","","","","","","74","J","1","","","135","main_expt"
"","bandit","215","680795","0.0-176.0-0.0","21328779","wem/bandit_either_2","AYSG3J2U3UF1Y","either","5","505","","","","","","","0","0","1","","0.268603144","0.4","0.2","0.8","0.6","0.1478339482","0.268603144","0.3199395785","0.3590576628","","","","","","","","","","","","74","J","1","","","136","main_expt"
"","bandit","216","684239","0.0-177.0-0.0","21328779","wem/bandit_either_2","AYSG3J2U3UF1Y","either","5","1936","","","","","","","0","0","1","0.33362357","","0.4","0.2","0.8","0.6","","","","","0.1374936615","0.2373427956","0.33362357","0.3822427384","","","","","","","","75","K","2","","","137","main_expt"
"","bandit","217","687920","0.0-178.0-0.0","21328779","wem/bandit_either_2","AYSG3J2U3UF1Y","either","5","2169","","","","","","","0","0","1","0.3611324022","","0.4","0.2","0.8","0.6","","","","","0.159761955","0.2206869265","0.3611324022","0.3410071165","","","","","","","","75","K","2","","","138","main_expt"
"","bandit","218","689894","0.0-179.0-0.0","21328779","wem/bandit_either_2","AYSG3J2U3UF1Y","either","5","463","","","","","","","0","0","1","0.3738014659","","0.4","0.2","0.8","0.6","","","","","0.1363721132","0.2177966349","0.3504145086","0.3738014659","","","","","","","","76","L","3","","","139","main_expt"
"","bandit","219","692896","0.0-180.0-0.0","21328779","wem/bandit_either_2","AYSG3J2U3UF1Y","either","5","1492","","","","","","","0","0","1","0.422575493","","0.4","0.2","0.8","0.6","","","","","0.1031445192","0.2387685432","0.309774603","0.422575493","","","","","","","","76","L","3","","","140","main_expt"
"","bandit","220","694801","0.0-181.0-0.0","21328779","wem/bandit_either_2","AYSG3J2U3UF1Y","either","5","394","","","","","","","1","0","0","0.3506531288","","0.4","0.2","0.8","0.6","","","","","0.09805286369","0.2575087366","0.3506531288","0.4439129864","","","","","","","","75","K","2","","","141","main_expt"
"","bandit","221","697954","0.0-182.0-0.0","21328779","wem/bandit_either_2","AYSG3J2U3UF1Y","either","5","1642","","","","","","","0","0","1","","0.2392038972","0.4","0.2","0.8","0.6","0.1149002948","0.2392038972","0.2965027242","0.4323802182","","","","","","","","","","","","74","J","1","","","142","main_expt"
"","bandit","222","700903","0.0-183.0-0.0","21328779","wem/bandit_either_2","AYSG3J2U3UF1Y","either","5","1440","","","","","","","0","0","1","","0.1209542099","0.4","0.2","0.8","0.6","0.1209542099","0.2216470548","0.2087517366","0.4358412593","","","","","","","","","","","","72","H","0","img/none_selected.jpg","","143","main_expt"
"","bandit","223","704057","0.0-184.0-0.0","21328779","wem/bandit_either_2","AYSG3J2U3UF1Y","either","5","1644","","","","","","","0","0","1","","0.2224896139","0.4","0.2","0.8","0.6","0.1202521083","0.2224896139","0.2313605626","0.4407373256","","","","","","","","","","","","74","J","1","","","144","main_expt"
"","bandit","224","706775","0.0-185.0-0.0","21328779","wem/bandit_either_2","AYSG3J2U3UF1Y","either","5","1208","","","","","","","0","0","1","0.1785565547","","0.4","0.2","0.8","0.6","","","","","0.1619743669","0.1925605464","0.1785565547","0.4661091035","","","","","","","","75","K","2","","","145","main_expt"
"","bandit","225","709960","0.0-186.0-0.0","21328779","wem/bandit_either_2","AYSG3J2U3UF1Y","either","5","1673","","","","","","","0","0","1","0.4637097668","","0.4","0.2","0.8","0.6","","","","","0.1664631043","0.2069800611","0.1770660648","0.4637097668","","","","","","","","76","L","3","","","146","main_expt"
"","bandit","226","711657","0.0-187.0-0.0","21328779","wem/bandit_either_2","AYSG3J2U3UF1Y","either","5","184","","","","","","","1","0","0","0.4700491642","","0.4","0.2","0.8","0.6","","","","","0.1669241763","0.2489662189","0.1063371611","0.4700491642","","","","","","","","76","L","3","","","147","main_expt"
"","bandit","227","715344","0.0-188.0-0.0","21328779","wem/bandit_either_2","AYSG3J2U3UF1Y","either","5","2179","","","","","","","0","1","0","","0.4648109734","0.4","0.2","0.8","0.6","0.1581456949","0.1946464158","0.1216370817","0.4648109734","","","","","","","","","","","","76","L","3","","","148","main_expt"
"","bandit","228","718464","0.0-189.0-0.0","21328779","wem/bandit_either_2","AYSG3J2U3UF1Y","either","5","1608","","","","","","","0","0","1","0.4635511513","","0.4","0.2","0.8","0.6","","","","","0.1698392466","0.1826562491","0.1024256959","0.4635511513","","","","","","","","76","L","3","","","149","main_expt"
"","bandit","229","720898","0.0-190.0-0.0","21328779","wem/bandit_either_2","AYSG3J2U3UF1Y","either","5","921","","","","","","","0","0","1","0.1371094633","","0.4","0.2","0.8","0.6","","","","","0.2140114634","0.1750473563","0.1371094633","0.4445017148","","","","","","","","75","K","2","","","150","main_expt"
"","bandit","230","722832","0.0-191.0-0.0","21328779","wem/bandit_either_2","AYSG3J2U3UF1Y","either","5","424","","","","","","","0","0","1","0.1702433702","","0.4","0.2","0.8","0.6","","","","","0.2392960001","0.1109536645","0.1702433702","0.4434799742","","","","","","","","75","K","2","","","151","main_expt"
"","bandit","231","724727","0.0-192.0-0.0","21328779","wem/bandit_either_2","AYSG3J2U3UF1Y","either","5","385","","","","","","","0","0","1","","0.1143086707","0.4","0.2","0.8","0.6","0.2095863317","0.1143086707","0.1860489046","0.4451665291","","","","","","","","","","","","74","J","1","","","152","main_expt"
"","bandit","232","726571","0.0-193.0-0.0","21328779","wem/bandit_either_2","AYSG3J2U3UF1Y","either","5","333","","","","","","","0","0","1","0.1236290712","","0.4","0.2","0.8","0.6","","","","","0.2543258611","0.1236290712","0.2117094388","0.4401532833","","","","","","","","74","J","1","","","153","main_expt"
"","bandit","233","728424","0.0-194.0-0.0","21328779","wem/bandit_either_2","AYSG3J2U3UF1Y","either","5","342","","","","","","","1","0","0","0.1600695342","","0.4","0.2","0.8","0.6","","","","","0.2602259906","0.1600695342","0.2072389033","0.4516855879","","","","","","","","74","J","1","","","154","main_expt"
"","bandit","234","730288","0.0-195.0-0.0","21328779","wem/bandit_either_2","AYSG3J2U3UF1Y","either","5","353","","","","","","","0","0","1","","0.1770288166","0.4","0.2","0.8","0.6","0.2750581274","0.1770288166","0.1986333914","0.4480264808","","","","","","","","","","","","74","J","1","","","155","main_expt"
"","bandit","235","733065","0.0-196.0-0.0","21328779","wem/bandit_either_2","AYSG3J2U3UF1Y","either","5","1265","","","","","","","0","0","1","","0.1761817894","0.4","0.2","0.8","0.6","0.2438045727","0.1761817894","0.2054640346","0.4260414265","","","","","","","","","","","","74","J","1","","","156","main_expt"
"","bandit","236","734775","0.0-197.0-0.0","21328779","wem/bandit_either_2","AYSG3J2U3UF1Y","either","5","200","","","","","","","0","0","1","","0.2857025143","0.4","0.2","0.8","0.6","0.2857025143","0.1998830888","0.1810715383","0.4365201507","","","","","","","","","","","","72","H","0","img/none_selected.jpg","","157","main_expt"
"","bandit","237","736326","0.0-198.0-0.0","21328779","wem/bandit_either_2","AYSG3J2U3UF1Y","either","5","41","","","","","","","0","0","1","0.2887719476","","0.4","0.2","0.8","0.6","","","","","0.2887719476","0.2150354531","0.2118906364","0.4076244479","","","","","","","","72","H","0","img/none_selected.jpg","","158","main_expt"
"","bandit","238","739392","0.0-199.0-0.0","21328779","wem/bandit_either_2","AYSG3J2U3UF1Y","either","5","1555","","","","","","","0","0","1","","0.2859462397","0.4","0.2","0.8","0.6","0.2859462397","0.2221069796","0.2293976715","0.403953851","","","","","","","","","","","","72","H","0","img/none_selected.jpg","","159","main_expt"
"","bandit","239","741430","0.0-200.0-0.0","21328779","wem/bandit_either_2","AYSG3J2U3UF1Y","either","5","528","","","","","","","0","0","1","","0.4282135537","0.4","0.2","0.8","0.6","0.207432816","0.2627335039","0.2186051381","0.4282135537","","","","","","","","","","","","76","L","3","","","160","main_expt"
"","bandit","240","743399","0.0-201.0-0.0","21328779","wem/bandit_either_2","AYSG3J2U3UF1Y","either","5","460","","","","","","","1","0","0","0.4479073124","","0.4","0.2","0.8","0.6","","","","","0.1611694724","0.2922457848","0.2175927206","0.4479073124","","","","","","","","76","L","3","","","161","main_expt"
"","bandit","241","745504","0.0-202.0-0.0","21328779","wem/bandit_either_2","AYSG3J2U3UF1Y","either","5","593","","","","","","","0","0","1","","0.4456201243","0.4","0.2","0.8","0.6","0.14378348","0.3040212123","0.2370404117","0.4456201243","","","","","","","","","","","","76","L","3","","","162","main_expt"
"","bandit","242","747727","0.0-203.0-0.0","21328779","wem/bandit_either_2","AYSG3J2U3UF1Y","either","5","714","","","","","","","1","0","0","0.4384930657","","0.4","0.2","0.8","0.6","","","","","0.1707099899","0.2933359027","0.2778780432","0.4384930657","","","","","","","","76","L","3","","","163","main_expt"
"","bandit","243","752041","0.0-204.0-0.0","21328779","wem/bandit_either_2","AYSG3J2U3UF1Y","either","5","2801","","","","","","","1","0","0","0.4231568034","","0.4","0.2","0.8","0.6","","","","","0.1933693166","0.2388203062","0.2643388611","0.4231568034","","","","","","","","76","L","3","","","164","main_expt"
"","bandit","244","753946","0.0-205.0-0.0","21328779","wem/bandit_either_2","AYSG3J2U3UF1Y","either","5","391","","","","","","","0","0","1","","0.4412535734","0.4","0.2","0.8","0.6","0.2406324952","0.2646204916","0.1967204453","0.4412535734","","","","","","","","","","","","76","L","3","","","165","main_expt"
"","bandit","245","755897","0.0-206.0-0.0","21328779","wem/bandit_either_2","AYSG3J2U3UF1Y","either","5","438","","","","","","","0","0","1","","0.438364003","0.4","0.2","0.8","0.6","0.2650462377","0.2591758032","0.1567937345","0.438364003","","","","","","","","","","","","76","L","3","","","166","main_expt"
"","bandit","246","757617","0.0-207.0-0.0","21328779","wem/bandit_either_2","AYSG3J2U3UF1Y","either","5","209","","","","","","","1","0","0","0.1201482918","","0.4","0.2","0.8","0.6","","","","","0.245875583","0.1955934818","0.1201482918","0.4290991351","","","","","","","","75","K","2","","","167","main_expt"
"","bandit","247","759195","0.0-208.0-0.0","21328779","wem/bandit_either_2","AYSG3J2U3UF1Y","either","5","66","","","","","","","0","0","1","0.0936051119","","0.4","0.2","0.8","0.6","","","","","0.257303599","0.2090603634","0.0936051119","0.4510860662","","","","","","","","75","K","2","","","168","main_expt"
"","bandit","248","760903","0.0-209.0-0.0","21328779","wem/bandit_either_2","AYSG3J2U3UF1Y","either","5","197","","","","","","","0","0","1","0.08775096918","","0.4","0.2","0.8","0.6","","","","","0.2993732043","0.2678479696","0.08775096918","0.4491424364","","","","","","","","75","K","2","","","169","main_expt"
"","bandit","249","762680","0.0-210.0-0.0","21328779","wem/bandit_either_2","AYSG3J2U3UF1Y","either","5","267","","","","","","","0","0","1","","0.2532125956","0.4","0.2","0.8","0.6","0.3388977639","0.2532125956","0.06743429675","0.4332244901","","","","","","","","","","","","74","J","1","","","170","main_expt"
"","bandit","250","764519","0.0-211.0-0.0","21328779","wem/bandit_either_2","AYSG3J2U3UF1Y","either","5","330","","","","","","","0","0","1","0.2568627054","","0.4","0.2","0.8","0.6","","","","","0.2947926635","0.2568627054","0.05979118822","0.4405036994","","","","","","","","74","J","1","","","171","main_expt"
"","bandit","251","766601","0.0-212.0-0.0","21328779","wem/bandit_either_2","AYSG3J2U3UF1Y","either","5","568","","","","","","","0","0","1","0.2892529657","","0.4","0.2","0.8","0.6","","","","","0.2892529657","0.2451563353","0.03200499914","0.4358521759","","","","","","","","72","H","0","img/none_selected.jpg","","172","main_expt"
"","bandit","252","770091","0.0-213.0-0.0","21328779","wem/bandit_either_2","AYSG3J2U3UF1Y","either","5","1978","","","","","","","0","1","0","","0.2571917514","0.4","0.2","0.8","0.6","0.2571917514","0.3003395367","0.04613358223","0.4471617722","","","","","","","","","","","","72","H","0","img/none_selected.jpg","","173","main_expt"
"","bandit","253","771999","0.0-214.0-0.0","21328779","wem/bandit_either_2","AYSG3J2U3UF1Y","either","5","397","","","","","","","0","1","0","","0.244173221","0.4","0.2","0.8","0.6","0.244173221","0.2545998681","0.05969677181","0.4560251174","","","","","","","","","","","","72","H","0","img/none_selected.jpg","","174","main_expt"
"","bandit","254","773872","0.0-215.0-0.0","21328779","wem/bandit_either_2","AYSG3J2U3UF1Y","either","5","361","","","","","","","0","0","1","0.2038098688","","0.4","0.2","0.8","0.6","","","","","0.2038098688","0.3383135611","0.05930066603","0.4379349024","","","","","","","","72","H","0","img/none_selected.jpg","","175","main_expt"
"","bandit","255","775694","0.0-216.0-0.0","21328779","wem/bandit_either_2","AYSG3J2U3UF1Y","either","5","314","","","","","","","1","0","0","0.3880627729","","0.4","0.2","0.8","0.6","","","","","0.2053823003","0.3880627729","0.08110879181","0.4328841116","","","","","","","","74","J","1","","","176","main_expt"
"","bandit","256","778742","0.0-217.0-0.0","21328779","wem/bandit_either_2","AYSG3J2U3UF1Y","either","5","1539","","","","","","","0","0","1","","0.3920994557","0.4","0.2","0.8","0.6","0.2193083282","0.3920994557","0.07611568943","0.3965365967","","","","","","","","","","","","74","J","1","","","177","main_expt"
"","bandit","257","781017","0.0-218.0-0.0","21328779","wem/bandit_either_2","AYSG3J2U3UF1Y","either","5","758","","","","","","","0","0","1","","0.1220467165","0.4","0.2","0.8","0.6","0.1904263594","0.3882277994","0.1220467165","0.3899234309","","","","","","","","","","","","75","K","2","","","178","main_expt"
"","bandit","258","783664","0.0-219.0-0.0","21328779","wem/bandit_either_2","AYSG3J2U3UF1Y","either","5","1128","","","","","","","0","0","1","0.1698853315","","0.4","0.2","0.8","0.6","","","","","0.2212788648","0.3939691408","0.1698853315","0.4238443777","","","","","","","","75","K","2","","","179","main_expt"
"","bandit","259","785224","0.0-220.0-0.0","21328779","wem/bandit_either_2","AYSG3J2U3UF1Y","either","5","48","","","","","","","0","0","1","0.4487400994","","0.4","0.2","0.8","0.6","","","","","0.2640717145","0.4074656662","0.1374762061","0.4487400994","","","","","","","","76","L","3","","","180","main_expt"
"","bandit","260","788296","0.0-221.0-0.0","21328779","wem/bandit_either_2","AYSG3J2U3UF1Y","either","5","1561","","","","","","","0","0","1","0.4314573438","","0.4","0.2","0.8","0.6","","","","","0.2426483564","0.3724421945","0.09961924189","0.4314573438","","","","","","","","76","L","3","","","181","main_expt"
"","bandit","261","790177","0.0-222.0-0.0","21328779","wem/bandit_either_2","AYSG3J2U3UF1Y","either","5","368","","","","","","","0","1","0","","0.4458059303","0.4","0.2","0.8","0.6","0.2001563476","0.2998177931","0.1391043194","0.4458059303","","","","","","","","","","","","76","L","3","","","182","main_expt"
"","bandit","262","792118","0.0-223.0-0.0","21328779","wem/bandit_either_2","AYSG3J2U3UF1Y","either","5","426","","","","","","","1","0","0","0.4485460149","","0.4","0.2","0.8","0.6","","","","","0.2167094124","0.3629728763","0.1336424596","0.4485460149","","","","","","","","76","L","3","","","183","main_expt"
"","bandit","263","793938","0.0-224.0-0.0","21328779","wem/bandit_either_2","AYSG3J2U3UF1Y","either","5","303","","","","","","","0","1","0","","0.4078350507","0.4","0.2","0.8","0.6","0.2402813617","0.3763603645","0.115911235","0.4078350507","","","","","","","","","","","","76","L","3","","","184","main_expt"
"","bandit","264","795934","0.0-225.0-0.0","21328779","wem/bandit_either_2","AYSG3J2U3UF1Y","either","5","488","","","","","","","0","0","1","","0.3805788675","0.4","0.2","0.8","0.6","0.2745112141","0.3472982705","0.1394203739","0.3805788675","","","","","","","","","","","","76","L","3","","","185","main_expt"
"","bandit","265","797664","0.0-226.0-0.0","21328779","wem/bandit_either_2","AYSG3J2U3UF1Y","either","5","216","","","","","","","0","0","1","","0.1557479742","0.4","0.2","0.8","0.6","0.2774566956","0.3095995051","0.1557479742","0.4236809331","","","","","","","","","","","","75","K","2","","","186","main_expt"
"","bandit","266","801008","0.0-227.0-0.0","21328779","wem/bandit_either_2","AYSG3J2U3UF1Y","either","5","1833","","","","","","","0","0","1","0.1823611596","","0.4","0.2","0.8","0.6","","","","","0.2876011691","0.2567332284","0.1823611596","0.4058627081","","","","","","","","75","K","2","","","187","main_expt"
"","bandit","267","802857","0.0-228.0-0.0","21328779","wem/bandit_either_2","AYSG3J2U3UF1Y","either","5","336","","","","","","","0","0","1","","0.2555256861","0.4","0.2","0.8","0.6","0.2947112378","0.2555256861","0.1854179297","0.3913346521","","","","","","","","","","","","74","J","1","","","188","main_expt"
"","bandit","268","804664","0.0-229.0-0.0","21328779","wem/bandit_either_2","AYSG3J2U3UF1Y","either","5","297","","","","","","","0","0","1","","0.2009875262","0.4","0.2","0.8","0.6","0.2581494","0.2009875262","0.1875645599","0.3760164219","","","","","","","","","","","","74","J","1","","","189","main_expt"
"","bandit","269","807847","0.0-230.0-0.0","21328779","wem/bandit_either_2","AYSG3J2U3UF1Y","either","5","1672","","","","","","","0","1","0","","0.1756323468","0.4","0.2","0.8","0.6","0.1756323468","0.2055488595","0.2018323604","0.3327352817","","","","","","","","","","","","72","H","0","img/none_selected.jpg","","190","main_expt"
"","bandit","270","809423","0.0-231.0-0.0","21328779","wem/bandit_either_2","AYSG3J2U3UF1Y","either","5","65","","","","","","","0","0","1","0.2521570866","","0.4","0.2","0.8","0.6","","","","","0.2521570866","0.1506387864","0.221094727","0.3015177445","","","","","","","","72","H","0","img/none_selected.jpg","","191","main_expt"
"","bandit","271","811041","0.0-232.0-0.0","21328779","wem/bandit_either_2","AYSG3J2U3UF1Y","either","5","105","","","","","","","0","0","1","0.2964739449","","0.4","0.2","0.8","0.6","","","","","0.2964739449","0.2027442266","0.2320570195","0.2773298268","","","","","","","","72","H","0","img/none_selected.jpg","","192","main_expt"
"","bandit","272","812726","0.0-233.0-0.0","21328779","wem/bandit_either_2","AYSG3J2U3UF1Y","either","5","173","","","","","","","0","0","1","","0.2612966838","0.4","0.2","0.8","0.6","0.2612966838","0.1969137872","0.2948950962","0.2836613797","","","","","","","","","","","","72","H","0","img/none_selected.jpg","","193","main_expt"
"","bandit","273","814504","0.0-234.0-0.0","21328779","wem/bandit_either_2","AYSG3J2U3UF1Y","either","5","268","","","","","","","0","0","1","0.3292914436","","0.4","0.2","0.8","0.6","","","","","0.3292914436","0.2114994946","0.2602906927","0.2799350415","","","","","","","","72","H","0","img/none_selected.jpg","","194","main_expt"
"","bandit","274","817529","0.0-235.0-0.0","21328779","wem/bandit_either_2","AYSG3J2U3UF1Y","either","5","1512","","","","","","","0","0","1","","0.2467939011","0.4","0.2","0.8","0.6","0.4070308407","0.2467939011","0.1771499101","0.2068597772","","","","","","","","","","","","74","J","1","","","195","main_expt"
"","bandit","275","819365","0.0-236.0-0.0","21328779","wem/bandit_either_2","AYSG3J2U3UF1Y","either","5","310","","","","","","","0","1","0","","0.2731811988","0.4","0.2","0.8","0.6","0.3494820729","0.2731811988","0.1746274925","0.2679469531","","","","","","","","","","","","74","J","1","","","196","main_expt"
"","bandit","276","822675","0.0-237.0-0.0","21328779","wem/bandit_either_2","AYSG3J2U3UF1Y","either","5","1794","","","","","","","1","0","0","0.2512114903","","0.4","0.2","0.8","0.6","","","","","0.3571939809","0.2512114903","0.193224684","0.2448078588","","","","","","","","74","J","1","","","197","main_expt"
"","bandit","277","824187","0.0-238.0-0.0","21328779","wem/bandit_either_2","AYSG3J2U3UF1Y","either","5","2","","","","","","","0","0","1","","0.190651112","0.4","0.2","0.8","0.6","0.382430028","0.190651112","0.1771509929","0.2433987968","","","","","","","","","","","","74","J","1","","","198","main_expt"
"","bandit","278","825960","0.0-239.0-0.0","21328779","wem/bandit_either_2","AYSG3J2U3UF1Y","either","5","264","","","","","","","0","0","1","","0.1701189695","0.4","0.2","0.8","0.6","0.3353474301","0.1701189695","0.2466668772","0.2653624242","","","","","","","","","","","","74","J","1","","","199","main_expt"
"","bandit","279","830170","0.0-240.0-0.0","21328779","wem/bandit_either_2","AYSG3J2U3UF1Y","either","5","2697","","","","","","","0","0","1","0.2477816141","","0.4","0.2","0.8","0.6","","","","","0.3321976498","0.1656975488","0.2477816141","0.2551376492","","","","","","","","75","K","2","","","200","main_expt"
"","bandit","280","832024","0.0-241.0-0.0","21328779","wem/bandit_either_2","AYSG3J2U3UF1Y","either","5","343","","","","","","","0","0","1","0.2744817861","","0.4","0.2","0.8","0.6","","","","","0.3218117355","0.1647298582","0.2744817861","0.2660639347","","","","","","","","75","K","2","","","201","main_expt"
"","bandit","281","833849","0.0-242.0-0.0","21328779","wem/bandit_either_2","AYSG3J2U3UF1Y","either","5","313","","","","","","","0","0","1","0.2220900594","","0.4","0.2","0.8","0.6","","","","","0.2949214693","0.1242041815","0.3043062986","0.2220900594","","","","","","","","76","L","3","","","202","main_expt"
"","bandit","282","835576","0.0-243.0-0.0","21328779","wem/bandit_either_2","AYSG3J2U3UF1Y","either","5","216","","","","","","","0","0","1","0.1543353204","","0.4","0.2","0.8","0.6","","","","","0.300077299","0.1684487429","0.272185569","0.1543353204","","","","","","","","76","L","3","","","203","main_expt"
"","bandit","283","839024","0.0-244.0-0.0","21328779","wem/bandit_either_2","AYSG3J2U3UF1Y","either","5","1936","","","","","","","0","1","0","","0.1605482003","0.4","0.2","0.8","0.6","0.2866085977","0.1666409686","0.2610767704","0.1605482003","","","","","","","","","","","","76","L","3","","","204","main_expt"
"","bandit","284","840872","0.0-245.0-0.0","21328779","wem/bandit_either_2","AYSG3J2U3UF1Y","either","5","333","","","","","","","0","0","1","0.1406914754","","0.4","0.2","0.8","0.6","","","","","0.2695546272","0.2197286508","0.2832615928","0.1406914754","","","","","","","","76","L","3","","","205","main_expt"
"","bandit","285","844657","0.0-246.0-0.0","21328779","wem/bandit_either_2","AYSG3J2U3UF1Y","either","5","2273","","","","","","","0","0","1","0.1138947463","","0.4","0.2","0.8","0.6","","","","","0.2622178416","0.2754509052","0.300913322","0.1138947463","","","","","","","","76","L","3","","","206","main_expt"
"","bandit","286","846632","0.0-247.0-0.0","21328779","wem/bandit_either_2","AYSG3J2U3UF1Y","either","5","460","","","","","","","0","1","0","","0.3260258847","0.4","0.2","0.8","0.6","0.2498186578","0.2664869377","0.3260258847","0.1096702189","","","","","","","","","","","","75","K","2","","","207","main_expt"
"","bandit","287","848144","0.0-248.0-0.0","21328779","wem/bandit_either_2","AYSG3J2U3UF1Y","either","5","0","","","","","","","0","0","1","0.3173829003","","0.4","0.2","0.8","0.6","","","","","0.2335358635","0.2686565688","0.3173829003","0.09922356593","","","","","","","","75","K","2","","","208","main_expt"
"","bandit","288","850175","0.0-249.0-0.0","21328779","wem/bandit_either_2","AYSG3J2U3UF1Y","either","5","516","","","","","","","1","0","0","0.3153846937","","0.4","0.2","0.8","0.6","","","","","0.2638942681","0.2380255957","0.3153846937","0.101567507","","","","","","","","75","K","2","","","209","main_expt"
"","bandit","289","851826","0.0-250.0-0.0","21328779","wem/bandit_either_2","AYSG3J2U3UF1Y","either","5","137","","","","","","","0","0","1","","0.3010876552","0.4","0.2","0.8","0.6","0.2526926237","0.2507768727","0.3010876552","0.08675379402","","","","","","","","","","","","75","K","2","","","210","main_expt"
"","bandit","290","855193","0.0-251.0-0.0","21328779","wem/bandit_either_2","AYSG3J2U3UF1Y","either","5","1855","","","","","","","0","1","0","","0.2864900033","0.4","0.2","0.8","0.6","0.2740367769","0.2685142319","0.2864900033","0.07512021269","","","","","","","","","","","","75","K","2","","","211","main_expt"
"","bandit","291","857201","0.0-252.0-0.0","21328779","wem/bandit_either_2","AYSG3J2U3UF1Y","either","5","494","","","","","","","1","0","0","0.3163372434","","0.4","0.2","0.8","0.6","","","","","0.2440836191","0.260511483","0.3163372434","0.08144254236","","","","","","","","75","K","2","","","212","main_expt"
"","bandit","292","859178","0.0-253.0-0.0","21328779","wem/bandit_either_2","AYSG3J2U3UF1Y","either","5","465","","","","","","","0","0","1","0.2701305136","","0.4","0.2","0.8","0.6","","","","","0.2341903104","0.2579605047","0.2701305136","0.06585574052","","","","","","","","75","K","2","","","213","main_expt"
"","bandit","293","861072","0.0-254.0-0.0","21328779","wem/bandit_either_2","AYSG3J2U3UF1Y","either","5","383","","","","","","","0","0","1","","0.302599165","0.4","0.2","0.8","0.6","0.2097526345","0.2470456849","0.302599165","0.08686614453","","","","","","","","","","","","75","K","2","","","214","main_expt"
"","bandit","294","862960","0.0-255.0-0.0","21328779","wem/bandit_either_2","AYSG3J2U3UF1Y","either","5","377","","","","","","","0","0","1","0.2968005471","","0.4","0.2","0.8","0.6","","","","","0.1796882487","0.3285383036","0.2968005471","0.1068548489","","","","","","","","75","K","2","","","215","main_expt"
"","bandit","295","864951","0.0-256.0-0.0","21328779","wem/bandit_either_2","AYSG3J2U3UF1Y","either","5","481","","","","","","","0","1","0","","0.2835536598","0.4","0.2","0.8","0.6","0.2237900511","0.3780044773","0.2835536598","0.1211736082","","","","","","","","","","","","75","K","2","","","216","main_expt"
"","bandit","296","866823","0.0-257.0-0.0","21328779","wem/bandit_either_2","AYSG3J2U3UF1Y","either","5","362","","","","","","","0","0","1","0.2520762718","","0.4","0.2","0.8","0.6","","","","","0.2265358539","0.3939228946","0.2520762718","0.09343701815","","","","","","","","75","K","2","","","217","main_expt"
"","bandit","297","868336","0.0-258.0-0.0","21328779","wem/bandit_either_2","AYSG3J2U3UF1Y","either","5","2","","","","","","","0","0","1","0.2562699476","","0.4","0.2","0.8","0.6","","","","","0.2364013437","0.3198270803","0.2562699476","0.1001055386","","","","","","","","75","K","2","","","218","main_expt"
"","bandit","298","869873","0.0-259.0-0.0","21328779","wem/bandit_either_2","AYSG3J2U3UF1Y","either","5","25","","","","","","","1","0","0","0.3002431464","","0.4","0.2","0.8","0.6","","","","","0.2810560361","0.3502502288","0.3002431464","0.09524874014","","","","","","","","75","K","2","","","219","main_expt"
"","bandit","299","871640","0.0-260.0-0.0","21328779","wem/bandit_either_2","AYSG3J2U3UF1Y","either","5","254","","","","","","","1","0","0","0.3365413303","","0.4","0.2","0.8","0.6","","","","","0.3027429446","0.3402456168","0.3365413303","0.1304899995","","","","","","","","75","K","2","","","220","main_expt"
"","bandit","300","873405","0.0-261.0-0.0","21328779","wem/bandit_either_2","AYSG3J2U3UF1Y","either","5","232","","","","","","","1","0","0","0.2946103072","","0.4","0.2","0.8","0.6","","","","","0.3132134988","0.3770059732","0.2946103072","0.1272814923","","","","","","","","75","K","2","","","221","main_expt"
"","bandit","301","875216","0.0-262.0-0.0","21328779","wem/bandit_either_2","AYSG3J2U3UF1Y","either","5","300","","","","","","","0","1","0","","0.3267284332","0.4","0.2","0.8","0.6","0.2424821827","0.3864421123","0.3267284332","0.1654407056","","","","","","","","","","","","75","K","2","","","222","main_expt"
"","bandit","302","877018","0.0-263.0-0.0","21328779","wem/bandit_either_2","AYSG3J2U3UF1Y","either","5","286","","","","","","","0","0","1","0.3175152631","","0.4","0.2","0.8","0.6","","","","","0.2595367495","0.4205211408","0.3175152631","0.1788325852","","","","","","","","75","K","2","","","223","main_expt"
"","bandit","303","880201","0.0-264.0-0.0","21328779","wem/bandit_either_2","AYSG3J2U3UF1Y","either","5","1671","","","","","","","0","0","1","","0.3192400935","0.4","0.2","0.8","0.6","0.328819141","0.4131889957","0.3192400935","0.1736623033","","","","","","","","","","","","75","K","2","","","224","main_expt"
"","bandit","304","882103","0.0-265.0-0.0","21328779","wem/bandit_either_2","AYSG3J2U3UF1Y","either","5","393","","","","","","","0","0","1","0.3096750449","","0.4","0.2","0.8","0.6","","","","","0.356121412","0.4001513574","0.3096750449","0.1721911447","","","","","","","","75","K","2","","","225","main_expt"
"","bandit","305","883994","0.0-266.0-0.0","21328779","wem/bandit_either_2","AYSG3J2U3UF1Y","either","5","375","","","","","","","0","0","1","","0.3142833063","0.4","0.2","0.8","0.6","0.3394019192","0.3963688582","0.3142833063","0.2133818582","","","","","","","","","","","","75","K","2","","","226","main_expt"
"","bandit","306","885923","0.0-267.0-0.0","21328779","wem/bandit_either_2","AYSG3J2U3UF1Y","either","5","412","","","","","","","0","0","1","0.3096885674","","0.4","0.2","0.8","0.6","","","","","0.2860553004","0.3979714495","0.3096885674","0.2620007467","","","","","","","","75","K","2","","","227","main_expt"
"","bandit","307","889530","0.0-268.0-0.0","21328779","wem/bandit_either_2","AYSG3J2U3UF1Y","either","5","2094","","","","","","","0","1","0","","0.3811043637","0.4","0.2","0.8","0.6","0.2967856672","0.3811043637","0.3048295172","0.2961930455","","","","","","","","","","","","74","J","1","","","228","main_expt"
"","bandit","308","891408","0.0-269.0-0.0","21328779","wem/bandit_either_2","AYSG3J2U3UF1Y","either","5","368","","","","","","","0","0","1","","0.3488149186","0.4","0.2","0.8","0.6","0.2857745529","0.3488149186","0.2553920021","0.3081123415","","","","","","","","","","","","74","J","1","","","229","main_expt"
"","bandit","309","893064","0.0-270.0-0.0","21328779","wem/bandit_either_2","AYSG3J2U3UF1Y","either","5","143","","","","","","","0","0","1","","0.2883621188","0.4","0.2","0.8","0.6","0.2589404948","0.2883621188","0.2783794412","0.3027177586","","","","","","","","","","","","74","J","1","","","230","main_expt"
"","bandit","310","894951","0.0-271.0-0.0","21328779","wem/bandit_either_2","AYSG3J2U3UF1Y","either","5","371","","","","","","","0","0","1","0.2444465504","","0.4","0.2","0.8","0.6","","","","","0.2628441024","0.2444465504","0.2735536708","0.2495346478","","","","","","","","74","J","1","","","231","main_expt"
"","bandit","311","896794","0.0-272.0-0.0","21328779","wem/bandit_either_2","AYSG3J2U3UF1Y","either","5","329","","","","","","","0","0","1","","0.2996930955","0.4","0.2","0.8","0.6","0.276537748","0.2996930955","0.2262440502","0.2185872191","","","","","","","","","","","","74","J","1","","","232","main_expt"
"","bandit","312","899158","0.0-273.0-0.0","21328779","wem/bandit_either_2","AYSG3J2U3UF1Y","either","5","853","","","","","","","0","0","1","","0.2485723575","0.4","0.2","0.8","0.6","0.2485723575","0.3103031796","0.2171974885","0.1874863907","","","","","","","","","","","","72","H","0","img/none_selected.jpg","","233","main_expt"
"","bandit","313","900849","0.0-274.0-0.0","21328779","wem/bandit_either_2","AYSG3J2U3UF1Y","either","5","176","","","","","","","0","0","1","","0.2172766866","0.4","0.2","0.8","0.6","0.2172766866","0.2971988612","0.2951485073","0.2165838284","","","","","","","","","","","","72","H","0","img/none_selected.jpg","","234","main_expt"
"","bandit","314","902688","0.0-275.0-0.0","21328779","wem/bandit_either_2","AYSG3J2U3UF1Y","either","5","329","","","","","","","0","0","1","","0.221542824","0.4","0.2","0.8","0.6","0.221542824","0.3266576642","0.3135740045","0.1791302586","","","","","","","","","","","","72","H","0","img/none_selected.jpg","","235","main_expt"
"","bandit","315","904580","0.0-276.0-0.0","21328779","wem/bandit_either_2","AYSG3J2U3UF1Y","either","5","376","","","","","","","0","0","1","","0.2463713802","0.4","0.2","0.8","0.6","0.2200573756","0.3596878827","0.2945285262","0.2463713802","","","","","","","","","","","","76","L","3","","","236","main_expt"
"","bandit","316","906536","0.0-277.0-0.0","21328779","wem/bandit_either_2","AYSG3J2U3UF1Y","either","5","445","","","","","","","0","0","1","0.2204623923","","0.4","0.2","0.8","0.6","","","","","0.2146478317","0.3951370387","0.2797454337","0.2204623923","","","","","","","","76","L","3","","","237","main_expt"
"","bandit","317","908431","0.0-278.0-0.0","21328779","wem/bandit_either_2","AYSG3J2U3UF1Y","either","5","385","","","","","","","0","0","1","0.2316256556","","0.4","0.2","0.8","0.6","","","","","0.2237656472","0.3863552979","0.266453507","0.2316256556","","","","","","","","76","L","3","","","238","main_expt"
"","bandit","318","910271","0.0-279.0-0.0","21328779","wem/bandit_either_2","AYSG3J2U3UF1Y","either","5","329","","","","","","","0","0","1","0.310831157","","0.4","0.2","0.8","0.6","","","","","0.2302611888","0.3962704677","0.310831157","0.2406304147","","","","","","","","75","K","2","","","239","main_expt"
"","bandit","319","912056","0.0-280.0-0.0","21328779","wem/bandit_either_2","AYSG3J2U3UF1Y","either","5","271","","","","","","","0","0","1","0.331950591","","0.4","0.2","0.8","0.6","","","","","0.2253069634","0.3926977495","0.331950591","0.2624476398","","","","","","","","75","K","2","","","240","main_expt"
"","bandit","320","913849","0.0-281.0-0.0","21328779","wem/bandit_either_2","AYSG3J2U3UF1Y","either","5","281","","","","","","","0","0","1","0.3223776605","","0.4","0.2","0.8","0.6","","","","","0.2523404353","0.3381110468","0.3223776605","0.2627099727","","","","","","","","75","K","2","","","241","main_expt"
"","bandit","321","915681","0.0-282.0-0.0","21328779","wem/bandit_either_2","AYSG3J2U3UF1Y","either","5","317","","","","","","","0","0","1","0.3389272588","","0.4","0.2","0.8","0.6","","","","","0.238450381","0.3213381148","0.3389272588","0.2262339403","","","","","","","","75","K","2","","","242","main_expt"
"","bandit","322","917439","0.0-283.0-0.0","21328779","wem/bandit_either_2","AYSG3J2U3UF1Y","either","5","246","","","","","","","0","1","0","","0.3395415742","0.4","0.2","0.8","0.6","0.2476478509","0.3395415742","0.4023830898","0.2511573395","","","","","","","","","","","","74","J","1","","","243","main_expt"
"","bandit","323","919215","0.0-284.0-0.0","21328779","wem/bandit_either_2","AYSG3J2U3UF1Y","either","5","262","","","","","","","0","1","0","","0.3077285799","0.4","0.2","0.8","0.6","0.2603762171","0.3077285799","0.4072225753","0.3112309098","","","","","","","","","","","","74","J","1","","","244","main_expt"
"","bandit","324","920969","0.0-285.0-0.0","21328779","wem/bandit_either_2","AYSG3J2U3UF1Y","either","5","236","","","","","","","0","0","1","","0.269997398","0.4","0.2","0.8","0.6","0.2778117757","0.269997398","0.4047901721","0.3169667097","","","","","","","","","","","","74","J","1","","","245","main_expt"
"","bandit","325","924433","0.0-286.0-0.0","21328779","wem/bandit_either_2","AYSG3J2U3UF1Y","either","5","1952","","","","","","","0","0","1","","0.2896792764","0.4","0.2","0.8","0.6","0.2571702875","0.2896792764","0.4245844383","0.3774934029","","","","","","","","","","","","74","J","1","","","246","main_expt"
"","bandit","326","926224","0.0-287.0-0.0","21328779","wem/bandit_either_2","AYSG3J2U3UF1Y","either","5","280","","","","","","","0","1","0","","0.3079745892","0.4","0.2","0.8","0.6","0.2790325972","0.3079745892","0.4425022826","0.3592590195","","","","","","","","","","","","74","J","1","","","247","main_expt"
"","bandit","327","927975","0.0-288.0-0.0","21328779","wem/bandit_either_2","AYSG3J2U3UF1Y","either","5","240","","","","","","","0","1","0","","0.2306801962","0.4","0.2","0.8","0.6","0.2665328125","0.2306801962","0.4454461089","0.3659800935","","","","","","","","","","","","74","J","1","","","248","main_expt"
"","bandit","328","929759","0.0-289.0-0.0","21328779","wem/bandit_either_2","AYSG3J2U3UF1Y","either","5","272","","","","","","","0","0","1","","0.2363838343","0.4","0.2","0.8","0.6","0.2666328085","0.2363838343","0.4565985803","0.3940863056","","","","","","","","","","","","74","J","1","","","249","main_expt"
