"consent","trial_type","trial_index","time_elapsed","internal_node_id","subjID","study","MID","cond","drift","rt","responses","key_press","expt_phase","like","value","connected","gems","bombs","no_reward","GemPrChosen","BombPrChosen","GainOverPainPr_0","GainOverPainPr_1","GainOverPainPr_2","GainOverPainPr_3","LosePr_0","LosePr_1","LosePr_2","LosePr_3","WinPr_0","WinPr_1","WinPr_2","WinPr_3","Q0","Q1","Q2","gender","age","ethnicity","target","respCharCode","respKey","respChoiceNum","respChoice","practice","trial_counter","trial_label"
"INL_behavioral_consent_30min_online.html","consent","0","34936","0.0-0.0","21379278","wem/bandit_either_2","A3862RIFFUV141","either","3","","","","","","","","","","","","","","","","","","","","","","","","","","","","","","","","","","","","","",""
"","survey-text","1","42937","0.0-1.0","21379278","wem/bandit_either_2","A3862RIFFUV141","either","3","6692","{""Q0"":""A3862RIFFUV141""}","","","","","","","","","","","","","","","","","","","","","","","","","","","","","","","","","","","",""
"","text","2","59009","0.0-2.0","21379278","wem/bandit_either_2","A3862RIFFUV141","either","3","14969","","32","","","","","","","","","","","","","","","","","","","","","","","","","","","","","","","","","","",""
"","text","3","67514","0.0-3.0","21379278","wem/bandit_either_2","A3862RIFFUV141","either","3","8487","","32","","","","","","","","","","","","","","","","","","","","","","","","","","","","","","","","","","",""
"","text","4","93731","0.0-4.0","21379278","wem/bandit_either_2","A3862RIFFUV141","either","3","26206","","32","","","","","","","","","","","","","","","","","","","","","","","","","","","","","","","","","","",""
"","text","5","113464","0.0-5.0","21379278","wem/bandit_either_2","A3862RIFFUV141","either","3","19722","","32","","","","","","","","","","","","","","","","","","","","","","","","","","","","","","","","","","",""
"","text","6","143289","0.0-6.0","21379278","wem/bandit_either_2","A3862RIFFUV141","either","3","29812","","32","","","","","","","","","","","","","","","","","","","","","","","","","","","","","","","","","","",""
"","text","7","155794","0.0-7.0","21379278","wem/bandit_either_2","A3862RIFFUV141","either","3","12491","","32","","","","","","","","","","","","","","","","","","","","","","","","","","","","","","","","","","",""
"","text","8","162227","0.0-8.0","21379278","wem/bandit_either_2","A3862RIFFUV141","either","3","6419","","32","","","","","","","","","","","","","","","","","","","","","","","","","","","","","","","","","","",""
"","identification","9","171665","0.0-9.0-0.0","21379278","wem/bandit_either_2","A3862RIFFUV141","either","3","9293","","","","6","6","6","","","","","","","","","","","","","","","","","","","","","","","","the village of Zur","","","","","","",""
"","identification","10","179176","0.0-9.0-1.0","21379278","wem/bandit_either_2","A3862RIFFUV141","either","3","6395","","","","1","1","0","","","","","","","","","","","","","","","","","","","","","","","","the village of Nyx","","","","","","",""
"","text","11","188957","0.0-10.0","21379278","wem/bandit_either_2","A3862RIFFUV141","either","3","8744","","32","","","","","","","","","","","","","","","","","","","","","","","","","","","","","","","","","","",""
"","text","12","192938","0.0-11.0","21379278","wem/bandit_either_2","A3862RIFFUV141","either","3","3974","","32","","","","","","","","","","","","","","","","","","","","","","","","","","","","","","","","","","",""
"","text","13","195071","0.0-12.0","21379278","wem/bandit_either_2","A3862RIFFUV141","either","3","2123","","32","","","","","","","","","","","","","","","","","","","","","","","","","","","","","","","","","","",""
"","text","14","201329","0.0-13.0","21379278","wem/bandit_either_2","A3862RIFFUV141","either","3","6247","","32","","","","","","","","","","","","","","","","","","","","","","","","","","","","","","","","","","",""
"","bandit","15","205484","0.0-14.0-0.0","21379278","wem/bandit_either_2","A3862RIFFUV141","either","3","2589","","","","","","","0","0","1","0","0","","","","","0","","","","0","","","","","","","","","","","74","J","0","img/none_selected_demo.jpg","true","0",""
"","bandit","16","210135","0.0-15.0-0.0","21379278","wem/bandit_either_2","A3862RIFFUV141","either","3","2624","","","","","","","0","0","1","0","0","","","","","0","","","","0","","","","","","","","","","","75","K","0","img/none_selected_demo.jpg","true","0",""
"","text","17","219593","0.0-16.0","21379278","wem/bandit_either_2","A3862RIFFUV141","either","3","9441","","32","","","","","","","","","","","","","","","","","","","","","","","","","","","","","","","","","","",""
"","text","18","233360","0.0-17.0","21379278","wem/bandit_either_2","A3862RIFFUV141","either","3","13746","","32","","","","","","","","","","","","","","","","","","","","","","","","","","","","","","","","","","",""
"","text","19","243387","0.0-18.0","21379278","wem/bandit_either_2","A3862RIFFUV141","either","3","10013","","32","","","","","","","","","","","","","","","","","","","","","","","","","","","","","","","","","","",""
"","text","20","254157","0.0-19.0","21379278","wem/bandit_either_2","A3862RIFFUV141","either","3","10760","","32","","","","","","","","","","","","","","","","","","","","","","","","","","","","","","","","","","",""
"","bandit","21","257115","0.0-20.0-0.0","21379278","wem/bandit_either_2","A3862RIFFUV141","either","3","1418","","","","","","","1","0","0","0.8","","0.5","0.5","","","","","","","0.8","0.2","","","","","","","","","","74","J","0","img/none_selected_demo.jpg","true","0","80_20_practice"
"","bandit","22","259379","0.0-20.0-1.0","21379278","wem/bandit_either_2","A3862RIFFUV141","either","3","729","","","","","","","0","1","0","","0.8","0.5","0.5","","","0.8","0.2","","","","","","","","","","","","","","74","J","0","img/none_selected_demo.jpg","true","0","80_20_practice"
"","bandit","23","261787","0.0-20.0-2.0","21379278","wem/bandit_either_2","A3862RIFFUV141","either","3","826","","","","","","","0","1","0","","0.8","0.5","0.5","","","0.8","0.2","","","","","","","","","","","","","","74","J","0","img/none_selected_demo.jpg","true","0","80_20_practice"
"","bandit","24","263967","0.0-20.0-3.0","21379278","wem/bandit_either_2","A3862RIFFUV141","either","3","488","","","","","","","0","1","0","","0.8","0.5","0.5","","","0.8","0.2","","","","","","","","","","","","","","74","J","0","img/none_selected_demo.jpg","true","0","80_20_practice"
"","bandit","25","265891","0.0-20.0-4.0","21379278","wem/bandit_either_2","A3862RIFFUV141","either","3","390","","","","","","","0","0","1","0.2","","0.5","0.5","","","","","","","0.8","0.2","","","","","","","","","","75","K","1","","true","0","80_20_practice"
"","bandit","26","268648","0.0-20.0-5.0","21379278","wem/bandit_either_2","A3862RIFFUV141","either","3","500","","","","","","","0","0","1","0.2","","0.5","0.5","","","","","","","0.8","0.2","","","","","","","","","","75","K","1","","true","0","80_20_practice"
"","bandit","27","270726","0.0-20.0-6.0","21379278","wem/bandit_either_2","A3862RIFFUV141","either","3","497","","","","","","","0","0","1","","0.2","0.5","0.5","","","0.8","0.2","","","","","","","","","","","","","","75","K","1","","true","0","80_20_practice"
"","bandit","28","273598","0.0-20.0-7.0","21379278","wem/bandit_either_2","A3862RIFFUV141","either","3","443","","","","","","","1","0","0","0.8","","0.5","0.5","","","","","","","0.8","0.2","","","","","","","","","","74","J","0","img/none_selected_demo.jpg","true","0","80_20_practice"
"","bandit","29","276101","0.0-20.0-8.0","21379278","wem/bandit_either_2","A3862RIFFUV141","either","3","787","","","","","","","1","0","0","0.8","","0.5","0.5","","","","","","","0.8","0.2","","","","","","","","","","74","J","0","img/none_selected_demo.jpg","true","0","80_20_practice"
"","bandit","30","278452","0.0-20.0-9.0","21379278","wem/bandit_either_2","A3862RIFFUV141","either","3","816","","","","","","","1","0","0","0.8","","0.5","0.5","","","","","","","0.8","0.2","","","","","","","","","","74","J","0","img/none_selected_demo.jpg","true","0","80_20_practice"
"","bandit","31","280604","0.0-20.0-10.0","21379278","wem/bandit_either_2","A3862RIFFUV141","either","3","390","","","","","","","0","1","0","","0.2","0.5","0.5","","","0.8","0.2","","","","","","","","","","","","","","75","K","1","","true","0","80_20_practice"
"","bandit","32","282958","0.0-20.0-11.0","21379278","wem/bandit_either_2","A3862RIFFUV141","either","3","789","","","","","","","0","0","1","0.2","","0.5","0.5","","","","","","","0.8","0.2","","","","","","","","","","75","K","1","","true","0","80_20_practice"
"","bandit","33","284823","0.0-20.0-12.0","21379278","wem/bandit_either_2","A3862RIFFUV141","either","3","322","","","","","","","1","0","0","0.2","","0.5","0.5","","","","","","","0.8","0.2","","","","","","","","","","75","K","1","","true","0","80_20_practice"
"","bandit","34","287201","0.0-20.0-13.0","21379278","wem/bandit_either_2","A3862RIFFUV141","either","3","512","","","","","","","1","0","0","0.2","","0.5","0.5","","","","","","","0.8","0.2","","","","","","","","","","75","K","1","","true","0","80_20_practice"
"","bandit","35","299520","0.0-20.0-14.0","21379278","wem/bandit_either_2","A3862RIFFUV141","either","3","338","","","","","","","0","0","1","0.2","","0.5","0.5","","","","","","","0.8","0.2","","","","","","","","","","75","K","1","","true","0","80_20_practice"
"","bandit","36","308183","0.0-20.0-15.0","21379278","wem/bandit_either_2","A3862RIFFUV141","either","3","1700","","","","","","","1","0","0","0.8","","0.5","0.5","","","","","","","0.8","0.2","","","","","","","","","","74","J","0","img/none_selected_demo.jpg","true","0","80_20_practice"
"","bandit","37","310549","0.0-20.0-16.0","21379278","wem/bandit_either_2","A3862RIFFUV141","either","3","797","","","","","","","0","0","1","","0.8","0.5","0.5","","","0.8","0.2","","","","","","","","","","","","","","74","J","0","img/none_selected_demo.jpg","true","0","80_20_practice"
"","bandit","38","312962","0.0-20.0-17.0","21379278","wem/bandit_either_2","A3862RIFFUV141","either","3","766","","","","","","","0","0","1","","0.8","0.5","0.5","","","0.8","0.2","","","","","","","","","","","","","","74","J","0","img/none_selected_demo.jpg","true","0","80_20_practice"
"","bandit","39","314997","0.0-20.0-18.0","21379278","wem/bandit_either_2","A3862RIFFUV141","either","3","491","","","","","","","1","0","0","0.8","","0.5","0.5","","","","","","","0.8","0.2","","","","","","","","","","74","J","0","img/none_selected_demo.jpg","true","0","80_20_practice"
"","bandit","40","316958","0.0-20.0-19.0","21379278","wem/bandit_either_2","A3862RIFFUV141","either","3","401","","","","","","","1","0","0","0.8","","0.5","0.5","","","","","","","0.8","0.2","","","","","","","","","","74","J","0","img/none_selected_demo.jpg","true","0","80_20_practice"
"","text","41","322598","0.0-21.0","21379278","wem/bandit_either_2","A3862RIFFUV141","either","3","5601","","32","","","","","","","","","","","","","","","","","","","","","","","","","","","","","","","","","","",""
"","bandit","42","325997","0.0-22.0-0.0","21379278","wem/bandit_either_2","A3862RIFFUV141","either","3","1745","","","","","","","1","0","0","1","0","","","","","0","1","","","1","0","","","","","","","","","","74","J","0","img/none_selected_demo.jpg","true","0",""
"","text","43","333528","0.0-23.0","21379278","wem/bandit_either_2","A3862RIFFUV141","either","3","7510","","32","","","","","","","","","","","","","","","","","","","","","","","","","","","","","","","","","","",""
"","text","44","337874","0.0-24.0","21379278","wem/bandit_either_2","A3862RIFFUV141","either","3","4334","","32","","","","","","","","","","","","","","","","","","","","","","","","","","","","","","","","","","",""
"","text","45","341129","0.0-25.0","21379278","wem/bandit_either_2","A3862RIFFUV141","either","3","3241","","32","","","","","","","","","","","","","","","","","","","","","","","","","","","","","","","","","","",""
"","text","46","345997","0.0-26.0","21379278","wem/bandit_either_2","A3862RIFFUV141","either","3","4851","","32","","","","","","","","","","","","","","","","","","","","","","","","","","","","","","","","","","",""
"","text","47","408164","0.0-27.0","21379278","wem/bandit_either_2","A3862RIFFUV141","either","3","62140","","32","","","","","","","","","","","","","","","","","","","","","","","","","","","","","","","","","","",""
"","text","48","411746","0.0-28.0","21379278","wem/bandit_either_2","A3862RIFFUV141","either","3","3557","","32","","","","","","","","","","","","","","","","","","","","","","","","","","","","","","","","","","",""
"","text","49","416275","0.0-29.0","21379278","wem/bandit_either_2","A3862RIFFUV141","either","3","4506","","32","","","","","","","","","","","","","","","","","","","","","","","","","","","","","","","","","","",""
"","text","50","420655","0.0-30.0","21379278","wem/bandit_either_2","A3862RIFFUV141","either","3","4353","","32","","","","","","","","","","","","","","","","","","","","","","","","","","","","","","","","","","",""
"","text","51","426462","0.0-31.0","21379278","wem/bandit_either_2","A3862RIFFUV141","either","3","5783","","32","","","","","","","","","","","","","","","","","","","","","","","","","","","","","","","","","","",""
"","text","52","428637","0.0-32.0","21379278","wem/bandit_either_2","A3862RIFFUV141","either","3","2155","","32","","","","","","","","","","","","","","","","","","","","","","","","","","","","","","","","","","",""
"","text","53","432152","0.0-33.0","21379278","wem/bandit_either_2","A3862RIFFUV141","either","3","3493","","32","","","","","","","","","","","","","","","","","","","","","","","","","","","","","","","","","","",""
"","bandit","54","435435","0.0-34.0-0.0","21379278","wem/bandit_either_2","A3862RIFFUV141","either","3","1716","","","","","","","0","0","1","","0.8","0.5","0.5","0.5","0.5","0.8","0.2","0.6","0.2","","","","","","","","","","","","72","H","0","img/none_selected.jpg","true","0","full_practice"
"","bandit","55","437410","0.0-34.0-1.0","21379278","wem/bandit_either_2","A3862RIFFUV141","either","3","424","","","","","","","0","0","1","","0.2","0.5","0.5","0.5","0.5","0.8","0.2","0.6","0.2","","","","","","","","","","","","76","L","3","","true","0","full_practice"
"","bandit","56","439340","0.0-34.0-2.0","21379278","wem/bandit_either_2","A3862RIFFUV141","either","3","270","","","","","","","1","0","0","0.2","","0.5","0.5","0.5","0.5","","","","","0.8","0.2","0.6","0.2","","","","","","","","74","J","1","","true","0","full_practice"
"","bandit","57","441269","0.0-34.0-3.0","21379278","wem/bandit_either_2","A3862RIFFUV141","either","3","360","","","","","","","0","0","1","","0.2","0.5","0.5","0.5","0.5","0.8","0.2","0.6","0.2","","","","","","","","","","","","74","J","1","","true","0","full_practice"
"","bandit","58","443305","0.0-34.0-4.0","21379278","wem/bandit_either_2","A3862RIFFUV141","either","3","355","","","","","","","1","0","0","0.6","","0.5","0.5","0.5","0.5","","","","","0.8","0.2","0.6","0.2","","","","","","","","75","K","2","","true","0","full_practice"
"","bandit","59","445370","0.0-34.0-5.0","21379278","wem/bandit_either_2","A3862RIFFUV141","either","3","218","","","","","","","0","1","0","","0.6","0.5","0.5","0.5","0.5","0.8","0.2","0.6","0.2","","","","","","","","","","","","75","K","2","","true","0","full_practice"
"","bandit","60","447637","0.0-34.0-6.0","21379278","wem/bandit_either_2","A3862RIFFUV141","either","3","244","","","","","","","0","0","1","0.6","","0.5","0.5","0.5","0.5","","","","","0.8","0.2","0.6","0.2","","","","","","","","75","K","2","","true","0","full_practice"
"","bandit","61","450882","0.0-34.0-7.0","21379278","wem/bandit_either_2","A3862RIFFUV141","either","3","1728","","","","","","","1","0","0","0.8","","0.5","0.5","0.5","0.5","","","","","0.8","0.2","0.6","0.2","","","","","","","","72","H","0","img/none_selected.jpg","true","0","full_practice"
"","bandit","62","452733","0.0-34.0-8.0","21379278","wem/bandit_either_2","A3862RIFFUV141","either","3","305","","","","","","","0","0","1","0.8","","0.5","0.5","0.5","0.5","","","","","0.8","0.2","0.6","0.2","","","","","","","","72","H","0","img/none_selected.jpg","true","0","full_practice"
"","bandit","63","454652","0.0-34.0-9.0","21379278","wem/bandit_either_2","A3862RIFFUV141","either","3","148","","","","","","","0","0","1","0.8","","0.5","0.5","0.5","0.5","","","","","0.8","0.2","0.6","0.2","","","","","","","","72","H","0","img/none_selected.jpg","true","0","full_practice"
"","bandit","64","456263","0.0-34.0-10.0","21379278","wem/bandit_either_2","A3862RIFFUV141","either","3","18","","","","","","","0","0","1","","0.2","0.5","0.5","0.5","0.5","0.8","0.2","0.6","0.2","","","","","","","","","","","","76","L","3","","true","0","full_practice"
"","bandit","65","458009","0.0-34.0-11.0","21379278","wem/bandit_either_2","A3862RIFFUV141","either","3","205","","","","","","","1","0","0","0.2","","0.5","0.5","0.5","0.5","","","","","0.8","0.2","0.6","0.2","","","","","","","","76","L","3","","true","0","full_practice"
"","bandit","66","459821","0.0-34.0-12.0","21379278","wem/bandit_either_2","A3862RIFFUV141","either","3","270","","","","","","","0","0","1","","0.2","0.5","0.5","0.5","0.5","0.8","0.2","0.6","0.2","","","","","","","","","","","","76","L","3","","true","0","full_practice"
"","bandit","67","461500","0.0-34.0-13.0","21379278","wem/bandit_either_2","A3862RIFFUV141","either","3","129","","","","","","","0","1","0","","0.6","0.5","0.5","0.5","0.5","0.8","0.2","0.6","0.2","","","","","","","","","","","","75","K","2","","true","0","full_practice"
"","bandit","68","463275","0.0-34.0-14.0","21379278","wem/bandit_either_2","A3862RIFFUV141","either","3","240","","","","","","","1","0","0","0.6","","0.5","0.5","0.5","0.5","","","","","0.8","0.2","0.6","0.2","","","","","","","","75","K","2","","true","0","full_practice"
"","bandit","69","464912","0.0-34.0-15.0","21379278","wem/bandit_either_2","A3862RIFFUV141","either","3","90","","","","","","","0","0","1","","0.6","0.5","0.5","0.5","0.5","0.8","0.2","0.6","0.2","","","","","","","","","","","","75","K","2","","true","0","full_practice"
"","bandit","70","466642","0.0-34.0-16.0","21379278","wem/bandit_either_2","A3862RIFFUV141","either","3","183","","","","","","","0","1","0","","0.6","0.5","0.5","0.5","0.5","0.8","0.2","0.6","0.2","","","","","","","","","","","","75","K","2","","true","0","full_practice"
"","bandit","71","468411","0.0-34.0-17.0","21379278","wem/bandit_either_2","A3862RIFFUV141","either","3","235","","","","","","","0","0","1","","0.6","0.5","0.5","0.5","0.5","0.8","0.2","0.6","0.2","","","","","","","","","","","","75","K","2","","true","0","full_practice"
"","bandit","72","470361","0.0-34.0-18.0","21379278","wem/bandit_either_2","A3862RIFFUV141","either","3","412","","","","","","","0","0","1","","0.2","0.5","0.5","0.5","0.5","0.8","0.2","0.6","0.2","","","","","","","","","","","","74","J","1","","true","0","full_practice"
"","bandit","73","472174","0.0-34.0-19.0","21379278","wem/bandit_either_2","A3862RIFFUV141","either","3","273","","","","","","","0","1","0","","0.8","0.5","0.5","0.5","0.5","0.8","0.2","0.6","0.2","","","","","","","","","","","","72","H","0","img/none_selected.jpg","true","0","full_practice"
"","text","74","476168","0.0-35.0","21379278","wem/bandit_either_2","A3862RIFFUV141","either","3","3946","","32","","","","","","","","","","","","","","","","","","","","","","","","","","","","","","","","","","",""
"","text","75","489215","0.0-36.0","21379278","wem/bandit_either_2","A3862RIFFUV141","either","3","12027","","32","","","","","","","","","","","","","","","","","","","","","","","","","","","","","","","","","","",""
"","text","76","504106","0.0-37.0","21379278","wem/bandit_either_2","A3862RIFFUV141","either","3","14856","","32","","","","","","","","","","","","","","","","","","","","","","","","","","","","","","","","","","",""
"","text","77","509690","0.0-38.0","21379278","wem/bandit_either_2","A3862RIFFUV141","either","3","5556","","32","","","","","","","","","","","","","","","","","","","","","","","","","","","","","","","","","","",""
"","text","78","516293","0.0-39.0","21379278","wem/bandit_either_2","A3862RIFFUV141","either","3","6575","","32","","","","","","","","","","","","","","","","","","","","","","","","","","","","","","","","","","",""
"","text","79","521583","0.0-40.0","21379278","wem/bandit_either_2","A3862RIFFUV141","either","3","5263","","32","","","","","","","","","","","","","","","","","","","","","","","","","","","","","","","","","","",""
"","bandit","80","524282","0.0-41.0-0.0","21379278","wem/bandit_either_2","A3862RIFFUV141","either","3","1123","","","","","","","0","0","1","","0.07685641067","0.4","0.2","0.8","0.6","0.07685641067","0.1426046982","0.4870892339","0.1646489015","","","","","","","","","","","","72","H","0","img/none_selected.jpg","","1","main_expt"
"","bandit","81","526300","0.0-42.0-0.0","21379278","wem/bandit_either_2","A3862RIFFUV141","either","3","412","","","","","","","0","0","1","","0.08388143876","0.4","0.2","0.8","0.6","0.08388143876","0.1597004976","0.4875162112","0.2180431119","","","","","","","","","","","","72","H","0","img/none_selected.jpg","","2","main_expt"
"","bandit","82","528814","0.0-43.0-0.0","21379278","wem/bandit_either_2","A3862RIFFUV141","either","3","365","","","","","","","0","1","0","","0.1381850853","0.4","0.2","0.8","0.6","0.06528774038","0.1381850853","0.4909945117","0.2294217256","","","","","","","","","","","","74","J","1","","","3","main_expt"
"","bandit","83","530660","0.0-44.0-0.0","21379278","wem/bandit_either_2","A3862RIFFUV141","either","3","302","","","","","","","0","1","0","","0.1787932262","0.4","0.2","0.8","0.6","0.07987899881","0.1787932262","0.482579304","0.2162119515","","","","","","","","","","","","74","J","1","","","4","main_expt"
"","bandit","84","532576","0.0-45.0-0.0","21379278","wem/bandit_either_2","A3862RIFFUV141","either","3","371","","","","","","","0","0","1","","0.1795032464","0.4","0.2","0.8","0.6","0.0432391811","0.1795032464","0.4887913002","0.2246316054","","","","","","","","","","","","74","J","1","","","5","main_expt"
"","bandit","85","535056","0.0-46.0-0.0","21379278","wem/bandit_either_2","A3862RIFFUV141","either","3","299","","","","","","","0","0","1","","0.164375756","0.4","0.2","0.8","0.6","0.03467601655","0.164375756","0.4887860333","0.2061018479","","","","","","","","","","","","74","J","1","","","6","main_expt"
"","bandit","86","538743","0.0-47.0-0.0","21379278","wem/bandit_either_2","A3862RIFFUV141","either","3","642","","","","","","","0","1","0","","0.204957223","0.4","0.2","0.8","0.6","0.05033951668","0.204957223","0.4901971563","0.1795347326","","","","","","","","","","","","74","J","1","","","7","main_expt"
"","bandit","87","541649","0.0-48.0-0.0","21379278","wem/bandit_either_2","A3862RIFFUV141","either","3","786","","","","","","","0","0","1","","0.2162036531","0.4","0.2","0.8","0.6","0.07676355645","0.2162036531","0.4862230721","0.1290452752","","","","","","","","","","","","74","J","1","","","8","main_expt"
"","bandit","88","544047","0.0-49.0-0.0","21379278","wem/bandit_either_2","A3862RIFFUV141","either","3","824","","","","","","","0","0","1","","0.4759730645","0.4","0.2","0.8","0.6","0.08620859221","0.2167418122","0.4759730645","0.1559184374","","","","","","","","","","","","75","K","2","","","9","main_expt"
"","bandit","89","545947","0.0-50.0-0.0","21379278","wem/bandit_either_2","A3862RIFFUV141","either","3","318","","","","","","","0","0","1","0.1381514788","","0.4","0.2","0.8","0.6","","","","","0.1103839657","0.1607923637","0.4560980466","0.1381514788","","","","","","","","76","L","3","","","10","main_expt"
"","bandit","90","547804","0.0-51.0-0.0","21379278","wem/bandit_either_2","A3862RIFFUV141","either","3","312","","","","","","","0","0","1","","0.1334948588","0.4","0.2","0.8","0.6","0.1334948588","0.1386410957","0.4775116046","0.1271140015","","","","","","","","","","","","72","H","0","img/none_selected.jpg","","11","main_expt"
"","bandit","91","550104","0.0-52.0-0.0","21379278","wem/bandit_either_2","A3862RIFFUV141","either","3","752","","","","","","","0","0","1","0.4705073552","","0.4","0.2","0.8","0.6","","","","","0.1535602519","0.1718380738","0.4705073552","0.1854664659","","","","","","","","75","K","2","","","12","main_expt"
"","bandit","92","551928","0.0-53.0-0.0","21379278","wem/bandit_either_2","A3862RIFFUV141","either","3","285","","","","","","","0","0","1","0.1869952656","","0.4","0.2","0.8","0.6","","","","","0.127854239","0.1686303413","0.4851887342","0.1869952656","","","","","","","","76","L","3","","","13","main_expt"
"","bandit","93","553831","0.0-54.0-0.0","21379278","wem/bandit_either_2","A3862RIFFUV141","either","3","358","","","","","","","0","0","1","","0.1460019496","0.4","0.2","0.8","0.6","0.1507911491","0.1460019496","0.4731273917","0.2035171393","","","","","","","","","","","","74","J","1","","","14","main_expt"
"","bandit","94","555657","0.0-55.0-0.0","21379278","wem/bandit_either_2","A3862RIFFUV141","either","3","220","","","","","","","0","0","1","","0.1667614464","0.4","0.2","0.8","0.6","0.1741212098","0.1667614464","0.4585867004","0.2800299461","","","","","","","","","","","","74","J","1","","","15","main_expt"
"","bandit","95","557527","0.0-56.0-0.0","21379278","wem/bandit_either_2","A3862RIFFUV141","either","3","331","","","","","","","1","0","0","0.4366533258","","0.4","0.2","0.8","0.6","","","","","0.1918308831","0.1973644546","0.4366533258","0.2725454461","","","","","","","","75","K","2","","","16","main_expt"
"","bandit","96","559338","0.0-57.0-0.0","21379278","wem/bandit_either_2","A3862RIFFUV141","either","3","274","","","","","","","1","0","0","0.4405228744","","0.4","0.2","0.8","0.6","","","","","0.1950212473","0.1873415792","0.4405228744","0.1570621471","","","","","","","","75","K","2","","","17","main_expt"
"","bandit","97","561221","0.0-58.0-0.0","21379278","wem/bandit_either_2","A3862RIFFUV141","either","3","312","","","","","","","1","0","0","0.4678551263","","0.4","0.2","0.8","0.6","","","","","0.2094813194","0.1875860444","0.4678551263","0.1968188506","","","","","","","","75","K","2","","","18","main_expt"
"","bandit","98","563116","0.0-59.0-0.0","21379278","wem/bandit_either_2","A3862RIFFUV141","either","3","347","","","","","","","1","0","0","0.466140525","","0.4","0.2","0.8","0.6","","","","","0.2628959394","0.1988439388","0.466140525","0.2439518204","","","","","","","","75","K","2","","","19","main_expt"
"","bandit","99","564966","0.0-60.0-0.0","21379278","wem/bandit_either_2","A3862RIFFUV141","either","3","306","","","","","","","1","0","0","0.4094087999","","0.4","0.2","0.8","0.6","","","","","0.2116504525","0.1813993393","0.4094087999","0.2806117898","","","","","","","","75","K","2","","","20","main_expt"
"","bandit","100","566756","0.0-61.0-0.0","21379278","wem/bandit_either_2","A3862RIFFUV141","either","3","247","","","","","","","0","0","1","","0.4386974508","0.4","0.2","0.8","0.6","0.1904426465","0.2012004452","0.4386974508","0.2658005831","","","","","","","","","","","","75","K","2","","","21","main_expt"
"","bandit","101","568568","0.0-62.0-0.0","21379278","wem/bandit_either_2","A3862RIFFUV141","either","3","275","","","","","","","1","0","0","0.4505723784","","0.4","0.2","0.8","0.6","","","","","0.1581796968","0.1958646163","0.4505723784","0.2774390086","","","","","","","","75","K","2","","","22","main_expt"
"","bandit","102","570304","0.0-63.0-0.0","21379278","wem/bandit_either_2","A3862RIFFUV141","either","3","199","","","","","","","1","0","0","0.4568000239","","0.4","0.2","0.8","0.6","","","","","0.2039009352","0.2626819079","0.4568000239","0.2795917474","","","","","","","","75","K","2","","","23","main_expt"
"","bandit","103","571985","0.0-64.0-0.0","21379278","wem/bandit_either_2","A3862RIFFUV141","either","3","138","","","","","","","1","0","0","0.4518339256","","0.4","0.2","0.8","0.6","","","","","0.228339491","0.2906682881","0.4518339256","0.2981059477","","","","","","","","75","K","2","","","24","main_expt"
"","bandit","104","573793","0.0-65.0-0.0","21379278","wem/bandit_either_2","A3862RIFFUV141","either","3","258","","","","","","","0","0","1","0.4120159309","","0.4","0.2","0.8","0.6","","","","","0.2602465224","0.3270173502","0.4120159309","0.3272059922","","","","","","","","75","K","2","","","25","main_expt"
"","bandit","105","575556","0.0-66.0-0.0","21379278","wem/bandit_either_2","A3862RIFFUV141","either","3","211","","","","","","","1","0","0","0.4134154185","","0.4","0.2","0.8","0.6","","","","","0.1939420306","0.2951289915","0.4134154185","0.3369826645","","","","","","","","75","K","2","","","26","main_expt"
"","bandit","106","577160","0.0-67.0-0.0","21379278","wem/bandit_either_2","A3862RIFFUV141","either","3","60","","","","","","","0","0","1","0.4031068294","","0.4","0.2","0.8","0.6","","","","","0.2387331149","0.3520126272","0.4031068294","0.2531212506","","","","","","","","75","K","2","","","27","main_expt"
"","bandit","107","578899","0.0-68.0-0.0","21379278","wem/bandit_either_2","A3862RIFFUV141","either","3","199","","","","","","","1","0","0","0.4305883772","","0.4","0.2","0.8","0.6","","","","","0.2183458617","0.3369287003","0.4305883772","0.2170461037","","","","","","","","75","K","2","","","28","main_expt"
"","bandit","108","580615","0.0-69.0-0.0","21379278","wem/bandit_either_2","A3862RIFFUV141","either","3","176","","","","","","","0","0","1","0.4383329838","","0.4","0.2","0.8","0.6","","","","","0.2151501268","0.3591799128","0.4383329838","0.2346211465","","","","","","","","75","K","2","","","29","main_expt"
"","bandit","109","582197","0.0-70.0-0.0","21379278","wem/bandit_either_2","A3862RIFFUV141","either","3","36","","","","","","","0","1","0","","0.4233276099","0.4","0.2","0.8","0.6","0.2267233056","0.3324285477","0.4233276099","0.2450860663","","","","","","","","","","","","75","K","2","","","30","main_expt"
"","bandit","110","584020","0.0-71.0-0.0","21379278","wem/bandit_either_2","A3862RIFFUV141","either","3","176","","","","","","","0","0","1","0.4016185005","","0.4","0.2","0.8","0.6","","","","","0.2663701676","0.327032362","0.4016185005","0.2141169407","","","","","","","","75","K","2","","","31","main_expt"
"","bandit","111","585625","0.0-72.0-0.0","21379278","wem/bandit_either_2","A3862RIFFUV141","either","3","25","","","","","","","1","0","0","0.2347854155","","0.4","0.2","0.8","0.6","","","","","0.275969473","0.3230905041","0.4134940178","0.2347854155","","","","","","","","76","L","3","","","32","main_expt"
"","bandit","112","587333","0.0-73.0-0.0","21379278","wem/bandit_either_2","A3862RIFFUV141","either","3","108","","","","","","","0","0","1","0.246596708","","0.4","0.2","0.8","0.6","","","","","0.3365270118","0.2969008969","0.4331174495","0.246596708","","","","","","","","76","L","3","","","33","main_expt"
"","bandit","113","588951","0.0-74.0-0.0","21379278","wem/bandit_either_2","A3862RIFFUV141","either","3","50","","","","","","","0","0","1","0.1914370393","","0.4","0.2","0.8","0.6","","","","","0.2916301021","0.2536392951","0.4454497031","0.1914370393","","","","","","","","76","L","3","","","34","main_expt"
"","bandit","114","590989","0.0-75.0-0.0","21379278","wem/bandit_either_2","A3862RIFFUV141","either","3","391","","","","","","","1","0","0","0.4419706984","","0.4","0.2","0.8","0.6","","","","","0.3236538836","0.2336030597","0.4419706984","0.1408207185","","","","","","","","75","K","2","","","35","main_expt"
"","bandit","115","592752","0.0-76.0-0.0","21379278","wem/bandit_either_2","A3862RIFFUV141","either","3","210","","","","","","","0","0","1","0.3317439785","","0.4","0.2","0.8","0.6","","","","","0.3317439785","0.3110392291","0.4205940312","0.09539735145","","","","","","","","72","H","0","img/none_selected.jpg","","36","main_expt"
"","bandit","116","594453","0.0-77.0-0.0","21379278","wem/bandit_either_2","A3862RIFFUV141","either","3","108","","","","","","","0","1","0","","0.3620900841","0.4","0.2","0.8","0.6","0.3620900841","0.3354302382","0.4227305347","0.08867332122","","","","","","","","","","","","72","H","0","img/none_selected.jpg","","37","main_expt"
"","bandit","117","596352","0.0-78.0-0.0","21379278","wem/bandit_either_2","A3862RIFFUV141","either","3","162","","","","","","","1","0","0","0.3649119955","","0.4","0.2","0.8","0.6","","","","","0.3649119955","0.3359947902","0.3904174821","0.0804097964","","","","","","","","72","H","0","img/none_selected.jpg","","38","main_expt"
"","bandit","118","597952","0.0-79.0-0.0","21379278","wem/bandit_either_2","A3862RIFFUV141","either","3","27","","","","","","","0","0","1","","0.3993258453","0.4","0.2","0.8","0.6","0.3993258453","0.3719467902","0.3704092514","0.1092906338","","","","","","","","","","","","72","H","0","img/none_selected.jpg","","39","main_expt"
"","bandit","119","600323","0.0-80.0-0.0","21379278","wem/bandit_either_2","A3862RIFFUV141","either","3","242","","","","","","","0","0","1","","0.43145226","0.4","0.2","0.8","0.6","0.43145226","0.37180955","0.3250394812","0.08771014895","","","","","","","","","","","","72","H","0","img/none_selected.jpg","","40","main_expt"
"","bandit","120","602628","0.0-81.0-0.0","21379278","wem/bandit_either_2","A3862RIFFUV141","either","3","729","","","","","","","0","0","1","","0.3972707938","0.4","0.2","0.8","0.6","0.3925837484","0.3972707938","0.3633775572","0.1065106481","","","","","","","","","","","","74","J","1","","","41","main_expt"
"","bandit","121","604410","0.0-82.0-0.0","21379278","wem/bandit_either_2","A3862RIFFUV141","either","3","214","","","","","","","0","0","1","0.0926848955","","0.4","0.2","0.8","0.6","","","","","0.4020613291","0.3981555674","0.3708570881","0.0926848955","","","","","","","","76","L","3","","","42","main_expt"
"","bandit","122","606053","0.0-83.0-0.0","21379278","wem/bandit_either_2","A3862RIFFUV141","either","3","92","","","","","","","0","0","1","","0.09213729174","0.4","0.2","0.8","0.6","0.4199094288","0.3698022864","0.3852030547","0.09213729174","","","","","","","","","","","","76","L","3","","","43","main_expt"
"","bandit","123","607719","0.0-84.0-0.0","21379278","wem/bandit_either_2","A3862RIFFUV141","either","3","95","","","","","","","0","0","1","0.3653477133","","0.4","0.2","0.8","0.6","","","","","0.4362917367","0.3278340923","0.3653477133","0.0950319608","","","","","","","","75","K","2","","","44","main_expt"
"","bandit","124","609638","0.0-85.0-0.0","21379278","wem/bandit_either_2","A3862RIFFUV141","either","3","281","","","","","","","0","0","1","0.3423722135","","0.4","0.2","0.8","0.6","","","","","0.4310393502","0.4004869948","0.3423722135","0.07917944011","","","","","","","","75","K","2","","","45","main_expt"
"","bandit","125","611191","0.0-86.0-0.0","21379278","wem/bandit_either_2","A3862RIFFUV141","either","3","1","","","","","","","0","0","1","","0.4301719659","0.4","0.2","0.8","0.6","0.4301719659","0.4389658195","0.2713785315","0.08528552535","","","","","","","","","","","","72","H","0","img/none_selected.jpg","","46","main_expt"
"","bandit","126","613084","0.0-87.0-0.0","21379278","wem/bandit_either_2","A3862RIFFUV141","either","3","343","","","","","","","0","1","0","","0.4274268526","0.4","0.2","0.8","0.6","0.4274268526","0.4294918489","0.2675382036","0.08303267599","","","","","","","","","","","","72","H","0","img/none_selected.jpg","","47","main_expt"
"","bandit","127","614820","0.0-88.0-0.0","21379278","wem/bandit_either_2","A3862RIFFUV141","either","3","175","","","","","","","0","0","1","0.4559220927","","0.4","0.2","0.8","0.6","","","","","0.4559220927","0.3948346084","0.3006553151","0.1183490009","","","","","","","","72","H","0","img/none_selected.jpg","","48","main_expt"
"","bandit","128","616675","0.0-89.0-0.0","21379278","wem/bandit_either_2","A3862RIFFUV141","either","3","309","","","","","","","0","0","1","","0.4362936898","0.4","0.2","0.8","0.6","0.4362936898","0.4226663974","0.2865645246","0.09831357925","","","","","","","","","","","","72","H","0","img/none_selected.jpg","","49","main_expt"
"","bandit","129","618282","0.0-90.0-0.0","21379278","wem/bandit_either_2","A3862RIFFUV141","either","3","12","","","","","","","0","0","1","","0.3943232949","0.4","0.2","0.8","0.6","0.4001593617","0.3943232949","0.2842330123","0.0896163698","","","","","","","","","","","","74","J","1","","","50","main_expt"
"","bandit","130","620178","0.0-91.0-0.0","21379278","wem/bandit_either_2","A3862RIFFUV141","either","3","348","","","","","","","0","0","1","0.08239790895","","0.4","0.2","0.8","0.6","","","","","0.3737598101","0.3911898034","0.2933637591","0.08239790895","","","","","","","","76","L","3","","","51","main_expt"
"","bandit","131","621924","0.0-92.0-0.0","21379278","wem/bandit_either_2","A3862RIFFUV141","either","3","185","","","","","","","0","0","1","0.06509061927","","0.4","0.2","0.8","0.6","","","","","0.3490564905","0.3897106723","0.2802127762","0.06509061927","","","","","","","","76","L","3","","","52","main_expt"
"","bandit","132","623702","0.0-93.0-0.0","21379278","wem/bandit_either_2","A3862RIFFUV141","either","3","22","","","","","","","0","0","1","0.05503049918","","0.4","0.2","0.8","0.6","","","","","0.3606416198","0.3977919118","0.2567133084","0.05503049918","","","","","","","","76","L","3","","","53","main_expt"
"","bandit","133","625282","0.0-94.0-0.0","21379278","wem/bandit_either_2","A3862RIFFUV141","either","3","23","","","","","","","0","0","1","0.3803623479","","0.4","0.2","0.8","0.6","","","","","0.3920172378","0.3803623479","0.304436262","0.06606451817","","","","","","","","74","J","1","","","54","main_expt"
"","bandit","134","627066","0.0-95.0-0.0","21379278","wem/bandit_either_2","A3862RIFFUV141","either","3","235","","","","","","","0","0","1","0.3841867886","","0.4","0.2","0.8","0.6","","","","","0.3841867886","0.3898030924","0.3050376594","0.0812436444","","","","","","","","72","H","0","img/none_selected.jpg","","55","main_expt"
"","bandit","135","628742","0.0-96.0-0.0","21379278","wem/bandit_either_2","A3862RIFFUV141","either","3","71","","","","","","","0","0","1","0.3752679739","","0.4","0.2","0.8","0.6","","","","","0.3752679739","0.4332266089","0.2874076515","0.05752214818","","","","","","","","72","H","0","img/none_selected.jpg","","56","main_expt"
"","bandit","136","630292","0.0-97.0-0.0","21379278","wem/bandit_either_2","A3862RIFFUV141","either","3","1","","","","","","","0","0","1","0.2633226407","","0.4","0.2","0.8","0.6","","","","","0.3595388075","0.4598680415","0.2633226407","0.05957573693","","","","","","","","75","K","2","","","57","main_expt"
"","bandit","137","632059","0.0-98.0-0.0","21379278","wem/bandit_either_2","A3862RIFFUV141","either","3","221","","","","","","","0","0","1","","0.4510058242","0.4","0.2","0.8","0.6","0.2926617498","0.4510058242","0.282557186","0.08347810371","","","","","","","","","","","","74","J","1","","","58","main_expt"
"","bandit","138","633812","0.0-99.0-0.0","21379278","wem/bandit_either_2","A3862RIFFUV141","either","3","205","","","","","","","0","0","1","0.4587464736","","0.4","0.2","0.8","0.6","","","","","0.2854140482","0.4587464736","0.2675679041","0.1166757522","","","","","","","","74","J","1","","","59","main_expt"
"","bandit","139","635561","0.0-100.0-0.0","21379278","wem/bandit_either_2","A3862RIFFUV141","either","3","200","","","","","","","1","0","0","0.1223048521","","0.4","0.2","0.8","0.6","","","","","0.2767785787","0.4534111386","0.2654645802","0.1223048521","","","","","","","","76","L","3","","","60","main_expt"
"","bandit","140","637321","0.0-101.0-0.0","21379278","wem/bandit_either_2","A3862RIFFUV141","either","3","209","","","","","","","0","0","1","0.1341525672","","0.4","0.2","0.8","0.6","","","","","0.3110110239","0.4581751116","0.2326588137","0.1341525672","","","","","","","","76","L","3","","","61","main_expt"
"","bandit","141","638946","0.0-102.0-0.0","21379278","wem/bandit_either_2","A3862RIFFUV141","either","3","79","","","","","","","1","0","0","0.1748443247","","0.4","0.2","0.8","0.6","","","","","0.2739379344","0.4447189615","0.2430345153","0.1748443247","","","","","","","","76","L","3","","","62","main_expt"
"","bandit","142","640889","0.0-103.0-0.0","21379278","wem/bandit_either_2","A3862RIFFUV141","either","3","265","","","","","","","0","0","1","","0.1872250423","0.4","0.2","0.8","0.6","0.2518438402","0.4351057758","0.2682261916","0.1872250423","","","","","","","","","","","","76","L","3","","","63","main_expt"
"","bandit","143","642766","0.0-104.0-0.0","21379278","wem/bandit_either_2","A3862RIFFUV141","either","3","1","","","","","","","0","0","1","","0.1592276408","0.4","0.2","0.8","0.6","0.216118181","0.4559228662","0.3136585585","0.1592276408","","","","","","","","","","","","76","L","3","","","64","main_expt"
"","bandit","144","644549","0.0-105.0-0.0","21379278","wem/bandit_either_2","A3862RIFFUV141","either","3","236","","","","","","","0","0","1","0.1881419285","","0.4","0.2","0.8","0.6","","","","","0.1961712117","0.4526438492","0.3208042698","0.1881419285","","","","","","","","76","L","3","","","65","main_expt"
"","bandit","145","646101","0.0-106.0-0.0","21379278","wem/bandit_either_2","A3862RIFFUV141","either","3","1","","","","","","","0","0","1","0.1821057022","","0.4","0.2","0.8","0.6","","","","","0.1821057022","0.4604690516","0.3550213758","0.2075830042","","","","","","","","72","H","0","img/none_selected.jpg","","66","main_expt"
"","bandit","146","647757","0.0-107.0-0.0","21379278","wem/bandit_either_2","A3862RIFFUV141","either","3","105","","","","","","","0","0","1","","0.4479534522","0.4","0.2","0.8","0.6","0.2221692745","0.4479534522","0.2883445083","0.210321401","","","","","","","","","","","","74","J","1","","","67","main_expt"
"","bandit","147","649417","0.0-108.0-0.0","21379278","wem/bandit_either_2","A3862RIFFUV141","either","3","111","","","","","","","0","0","1","","0.4420076102","0.4","0.2","0.8","0.6","0.2385328342","0.4420076102","0.2492112051","0.1740681144","","","","","","","","","","","","74","J","1","","","68","main_expt"
"","bandit","148","651329","0.0-109.0-0.0","21379278","wem/bandit_either_2","A3862RIFFUV141","either","3","344","","","","","","","0","0","1","","0.2693988132","0.4","0.2","0.8","0.6","0.2693988132","0.3840886122","0.1725364023","0.1495678232","","","","","","","","","","","","72","H","0","img/none_selected.jpg","","69","main_expt"
"","bandit","149","652900","0.0-110.0-0.0","21379278","wem/bandit_either_2","A3862RIFFUV141","either","3","1","","","","","","","0","0","1","","0.3764426572","0.4","0.2","0.8","0.6","0.2633889128","0.3764426572","0.2081322216","0.1594524764","","","","","","","","","","","","74","J","1","","","70","main_expt"
"","bandit","150","654619","0.0-111.0-0.0","21379278","wem/bandit_either_2","A3862RIFFUV141","either","3","168","","","","","","","0","0","1","0.2222096595","","0.4","0.2","0.8","0.6","","","","","0.2881785301","0.3925575972","0.2222096595","0.1308665948","","","","","","","","75","K","2","","","71","main_expt"
"","bandit","151","656300","0.0-112.0-0.0","21379278","wem/bandit_either_2","A3862RIFFUV141","either","3","129","","","","","","","0","1","0","","0.1413665491","0.4","0.2","0.8","0.6","0.3496752211","0.4055717031","0.2276413934","0.1413665491","","","","","","","","","","","","76","L","3","","","72","main_expt"
"","bandit","152","658118","0.0-113.0-0.0","21379278","wem/bandit_either_2","A3862RIFFUV141","either","3","128","","","","","","","0","1","0","","0.1562096843","0.4","0.2","0.8","0.6","0.3662649551","0.4313753627","0.202726327","0.1562096843","","","","","","","","","","","","76","L","3","","","73","main_expt"
"","bandit","153","659712","0.0-114.0-0.0","21379278","wem/bandit_either_2","A3862RIFFUV141","either","3","43","","","","","","","0","0","1","0.1601549975","","0.4","0.2","0.8","0.6","","","","","0.3318597218","0.4294283137","0.2465356434","0.1601549975","","","","","","","","76","L","3","","","74","main_expt"
"","bandit","154","661457","0.0-115.0-0.0","21379278","wem/bandit_either_2","A3862RIFFUV141","either","3","195","","","","","","","1","0","0","0.1962365409","","0.4","0.2","0.8","0.6","","","","","0.3129946244","0.4114775526","0.2780880013","0.1962365409","","","","","","","","76","L","3","","","75","main_expt"
"","bandit","155","663111","0.0-116.0-0.0","21379278","wem/bandit_either_2","A3862RIFFUV141","either","3","99","","","","","","","1","0","0","0.2315068675","","0.4","0.2","0.8","0.6","","","","","0.3299880354","0.4038916894","0.230570622","0.2315068675","","","","","","","","76","L","3","","","76","main_expt"
"","bandit","156","664858","0.0-117.0-0.0","21379278","wem/bandit_either_2","A3862RIFFUV141","either","3","195","","","","","","","0","0","1","","0.1749603823","0.4","0.2","0.8","0.6","0.2704336052","0.4028298088","0.1747897532","0.1749603823","","","","","","","","","","","","76","L","3","","","77","main_expt"
"","bandit","157","666755","0.0-118.0-0.0","21379278","wem/bandit_either_2","A3862RIFFUV141","either","3","139","","","","","","","0","0","1","","0.2091975686","0.4","0.2","0.8","0.6","0.2489008917","0.4004321452","0.2009150394","0.2091975686","","","","","","","","","","","","76","L","3","","","78","main_expt"
"","bandit","158","668790","0.0-119.0-0.0","21379278","wem/bandit_either_2","A3862RIFFUV141","either","3","443","","","","","","","0","0","1","0.2699334682","","0.4","0.2","0.8","0.6","","","","","0.2182462247","0.3909827091","0.2090883318","0.2699334682","","","","","","","","76","L","3","","","79","main_expt"
"","bandit","159","670561","0.0-120.0-0.0","21379278","wem/bandit_either_2","A3862RIFFUV141","either","3","26","","","","","","","0","0","1","0.215522018","","0.4","0.2","0.8","0.6","","","","","0.1591694045","0.4289339141","0.215522018","0.2712134299","","","","","","","","75","K","2","","","80","main_expt"
"","bandit","160","672180","0.0-121.0-0.0","21379278","wem/bandit_either_2","A3862RIFFUV141","either","3","23","","","","","","","0","0","1","","0.2563236188","0.4","0.2","0.8","0.6","0.1661146317","0.4256341571","0.2655955182","0.2563236188","","","","","","","","","","","","76","L","3","","","81","main_expt"
"","bandit","161","675423","0.0-122.0-0.0","21379278","wem/bandit_either_2","A3862RIFFUV141","either","3","1677","","","","","","","0","0","1","","0.2249160828","0.4","0.2","0.8","0.6","0.2249160828","0.4153375647","0.2642342948","0.2474856626","","","","","","","","","","","","72","H","0","img/none_selected.jpg","","82","main_expt"
"","bandit","162","677126","0.0-123.0-0.0","21379278","wem/bandit_either_2","A3862RIFFUV141","either","3","90","","","","","","","0","0","1","0.2194800234","","0.4","0.2","0.8","0.6","","","","","0.2194800234","0.4239102097","0.2615040017","0.2338037125","","","","","","","","72","H","0","img/none_selected.jpg","","83","main_expt"
"","bandit","163","678931","0.0-124.0-0.0","21379278","wem/bandit_either_2","A3862RIFFUV141","either","3","75","","","","","","","0","0","1","0.4021041833","","0.4","0.2","0.8","0.6","","","","","0.2020024956","0.4021041833","0.3136368113","0.2929655049","","","","","","","","74","J","1","","","84","main_expt"
"","bandit","164","680829","0.0-125.0-0.0","21379278","wem/bandit_either_2","A3862RIFFUV141","either","3","327","","","","","","","0","1","0","","0.4322374594","0.4","0.2","0.8","0.6","0.1639230135","0.4322374594","0.2433538552","0.2755572306","","","","","","","","","","","","74","J","1","","","85","main_expt"
"","bandit","165","682814","0.0-126.0-0.0","21379278","wem/bandit_either_2","A3862RIFFUV141","either","3","314","","","","","","","0","0","1","","0.4247618508","0.4","0.2","0.8","0.6","0.1423092638","0.4247618508","0.2583740773","0.2706615249","","","","","","","","","","","","74","J","1","","","86","main_expt"
"","bandit","166","684811","0.0-127.0-0.0","21379278","wem/bandit_either_2","A3862RIFFUV141","either","3","274","","","","","","","1","0","0","0.4130492334","","0.4","0.2","0.8","0.6","","","","","0.1623313408","0.4130492334","0.2656778135","0.3259805539","","","","","","","","74","J","1","","","87","main_expt"
"","bandit","167","686670","0.0-128.0-0.0","21379278","wem/bandit_either_2","A3862RIFFUV141","either","3","248","","","","","","","0","0","1","0.3883747858","","0.4","0.2","0.8","0.6","","","","","0.1459946163","0.3883747858","0.2565525481","0.3471137027","","","","","","","","74","J","1","","","88","main_expt"
"","bandit","168","688614","0.0-129.0-0.0","21379278","wem/bandit_either_2","A3862RIFFUV141","either","3","387","","","","","","","0","1","0","","0.3950807547","0.4","0.2","0.8","0.6","0.1684807643","0.3950807547","0.2471999074","0.3715311126","","","","","","","","","","","","74","J","1","","","89","main_expt"
"","bandit","169","690542","0.0-130.0-0.0","21379278","wem/bandit_either_2","A3862RIFFUV141","either","3","257","","","","","","","0","0","1","","0.420982679","0.4","0.2","0.8","0.6","0.1937692241","0.420982679","0.2204199549","0.3571728809","","","","","","","","","","","","74","J","1","","","90","main_expt"
"","bandit","170","692877","0.0-131.0-0.0","21379278","wem/bandit_either_2","A3862RIFFUV141","either","3","279","","","","","","","0","1","0","","0.4012606491","0.4","0.2","0.8","0.6","0.1670397906","0.4012606491","0.2013548925","0.3348642023","","","","","","","","","","","","74","J","1","","","91","main_expt"
"","bandit","171","695317","0.0-132.0-0.0","21379278","wem/bandit_either_2","A3862RIFFUV141","either","3","878","","","","","","","0","0","1","","0.3950870333","0.4","0.2","0.8","0.6","0.1936095216","0.3950870333","0.174921714","0.3551195155","","","","","","","","","","","","74","J","1","","","92","main_expt"
"","bandit","172","697180","0.0-133.0-0.0","21379278","wem/bandit_either_2","A3862RIFFUV141","either","3","302","","","","","","","0","0","1","","0.3797372222","0.4","0.2","0.8","0.6","0.2399824117","0.3797372222","0.1972058505","0.3494458231","","","","","","","","","","","","74","J","1","","","93","main_expt"
"","bandit","173","698988","0.0-134.0-0.0","21379278","wem/bandit_either_2","A3862RIFFUV141","either","3","206","","","","","","","0","0","1","","0.2144007407","0.4","0.2","0.8","0.6","0.242536602","0.3346339076","0.2144007407","0.3759818745","","","","","","","","","","","","75","K","2","","","94","main_expt"
"","bandit","174","701169","0.0-135.0-0.0","21379278","wem/bandit_either_2","A3862RIFFUV141","either","3","548","","","","","","","0","0","1","0.3467088588","","0.4","0.2","0.8","0.6","","","","","0.3081296623","0.3433005441","0.2025691914","0.3467088588","","","","","","","","76","L","3","","","95","main_expt"
"","bandit","175","704623","0.0-136.0-0.0","21379278","wem/bandit_either_2","A3862RIFFUV141","either","3","731","","","","","","","0","1","0","","0.371766452","0.4","0.2","0.8","0.6","0.371766452","0.2900415689","0.1750118246","0.3520186383","","","","","","","","","","","","72","H","0","img/none_selected.jpg","","96","main_expt"
"","bandit","176","706697","0.0-137.0-0.0","21379278","wem/bandit_either_2","A3862RIFFUV141","either","3","336","","","","","","","0","0","1","","0.3737721809","0.4","0.2","0.8","0.6","0.3737721809","0.3136050561","0.2433812568","0.342216001","","","","","","","","","","","","72","H","0","img/none_selected.jpg","","97","main_expt"
"","bandit","177","710390","0.0-138.0-0.0","21379278","wem/bandit_either_2","A3862RIFFUV141","either","3","55","","","","","","","0","0","1","0.3662625892","","0.4","0.2","0.8","0.6","","","","","0.3662625892","0.3236610102","0.1834100281","0.3775958225","","","","","","","","72","H","0","img/none_selected.jpg","","98","main_expt"
"","bandit","178","712542","0.0-139.0-0.0","21379278","wem/bandit_either_2","A3862RIFFUV141","either","3","506","","","","","","","0","1","0","","0.3116662608","0.4","0.2","0.8","0.6","0.3912879072","0.3116662608","0.146161558","0.3490624926","","","","","","","","","","","","74","J","1","","","99","main_expt"
"","bandit","179","714431","0.0-140.0-0.0","21379278","wem/bandit_either_2","A3862RIFFUV141","either","3","311","","","","","","","0","0","1","","0.3806420769","0.4","0.2","0.8","0.6","0.3916888764","0.3806420769","0.1186266926","0.3418910903","","","","","","","","","","","","74","J","1","","","100","main_expt"
"","bandit","180","716407","0.0-141.0-0.0","21379278","wem/bandit_either_2","A3862RIFFUV141","either","3","393","","","","","","","0","0","1","","0.3825052475","0.4","0.2","0.8","0.6","0.3803758031","0.3825052475","0.1467879228","0.3544055354","","","","","","","","","","","","74","J","1","","","101","main_expt"
"","bandit","181","718203","0.0-142.0-0.0","21379278","wem/bandit_either_2","A3862RIFFUV141","either","3","235","","","","","","","0","0","1","","0.3685266224","0.4","0.2","0.8","0.6","0.3685266224","0.3799327693","0.1336514036","0.3580864163","","","","","","","","","","","","72","H","0","img/none_selected.jpg","","102","main_expt"
"","bandit","182","719965","0.0-143.0-0.0","21379278","wem/bandit_either_2","A3862RIFFUV141","either","3","78","","","","","","","0","0","1","0.336528594","","0.4","0.2","0.8","0.6","","","","","0.3754978655","0.3502018886","0.1325092095","0.336528594","","","","","","","","76","L","3","","","103","main_expt"
"","bandit","183","721901","0.0-144.0-0.0","21379278","wem/bandit_either_2","A3862RIFFUV141","either","3","377","","","","","","","1","0","0","0.3190078166","","0.4","0.2","0.8","0.6","","","","","0.4033056484","0.3443431466","0.1162839287","0.3190078166","","","","","","","","76","L","3","","","104","main_expt"
"","bandit","184","723859","0.0-145.0-0.0","21379278","wem/bandit_either_2","A3862RIFFUV141","either","3","304","","","","","","","0","0","1","0.3100940773","","0.4","0.2","0.8","0.6","","","","","0.3617388181","0.3551378046","0.115620258","0.3100940773","","","","","","","","76","L","3","","","105","main_expt"
"","bandit","185","725962","0.0-146.0-0.0","21379278","wem/bandit_either_2","A3862RIFFUV141","either","3","442","","","","","","","0","0","1","0.2964842485","","0.4","0.2","0.8","0.6","","","","","0.3656875331","0.3177956882","0.1102569517","0.2964842485","","","","","","","","76","L","3","","","106","main_expt"
"","bandit","186","727527","0.0-147.0-0.0","21379278","wem/bandit_either_2","A3862RIFFUV141","either","3","1","","","","","","","0","0","1","","0.3224579283","0.4","0.2","0.8","0.6","0.3478183852","0.3463124521","0.110599846","0.3224579283","","","","","","","","","","","","76","L","3","","","107","main_expt"
"","bandit","187","729354","0.0-148.0-0.0","21379278","wem/bandit_either_2","A3862RIFFUV141","either","3","267","","","","","","","0","0","1","0.1647947233","","0.4","0.2","0.8","0.6","","","","","0.3715517583","0.330790185","0.1647947233","0.3365568187","","","","","","","","75","K","2","","","108","main_expt"
"","bandit","188","730930","0.0-149.0-0.0","21379278","wem/bandit_either_2","A3862RIFFUV141","either","3","13","","","","","","","0","1","0","","0.3259779601","0.4","0.2","0.8","0.6","0.3713851569","0.3259779601","0.146095753","0.3200824859","","","","","","","","","","","","74","J","1","","","109","main_expt"
"","bandit","189","732791","0.0-150.0-0.0","21379278","wem/bandit_either_2","A3862RIFFUV141","either","3","296","","","","","","","0","0","1","","0.3169053314","0.4","0.2","0.8","0.6","0.3401672382","0.3169053314","0.1691954855","0.3179471713","","","","","","","","","","","","74","J","1","","","110","main_expt"
"","bandit","190","734625","0.0-151.0-0.0","21379278","wem/bandit_either_2","A3862RIFFUV141","either","3","265","","","","","","","0","0","1","","0.342138516","0.4","0.2","0.8","0.6","0.3242328008","0.342138516","0.1690298198","0.3168158386","","","","","","","","","","","","74","J","1","","","111","main_expt"
"","bandit","191","736970","0.0-152.0-0.0","21379278","wem/bandit_either_2","A3862RIFFUV141","either","3","122","","","","","","","0","1","0","","0.3597886873","0.4","0.2","0.8","0.6","0.2991119965","0.3597886873","0.2196992501","0.3551606626","","","","","","","","","","","","74","J","1","","","112","main_expt"
"","bandit","192","739271","0.0-153.0-0.0","21379278","wem/bandit_either_2","A3862RIFFUV141","either","3","400","","","","","","","0","0","1","0.3580549124","","0.4","0.2","0.8","0.6","","","","","0.3364281798","0.3580549124","0.2723467559","0.3615444015","","","","","","","","74","J","1","","","113","main_expt"
"","bandit","193","741212","0.0-154.0-0.0","21379278","wem/bandit_either_2","A3862RIFFUV141","either","3","360","","","","","","","0","0","1","","0.3556181037","0.4","0.2","0.8","0.6","0.3495122724","0.3556181037","0.2470985199","0.4043222556","","","","","","","","","","","","74","J","1","","","114","main_expt"
"","bandit","194","751060","0.0-155.0-0.0","21379278","wem/bandit_either_2","A3862RIFFUV141","either","3","6721","","","","","","","0","0","1","0.2482590513","","0.4","0.2","0.8","0.6","","","","","0.324938203","0.3489042174","0.2482590513","0.4179696435","","","","","","","","75","K","2","","","115","main_expt"
"","bandit","195","760704","0.0-156.0-0.0","21379278","wem/bandit_either_2","A3862RIFFUV141","either","3","7510","","","","","","","1","0","0","0.4324393975","","0.4","0.2","0.8","0.6","","","","","0.3227512736","0.3466245191","0.1992012358","0.4324393975","","","","","","","","76","L","3","","","116","main_expt"
"","bandit","196","765760","0.0-157.0-0.0","21379278","wem/bandit_either_2","A3862RIFFUV141","either","3","3298","","","","","","","0","0","1","0.4290779421","","0.4","0.2","0.8","0.6","","","","","0.2585209305","0.3581754781","0.216355905","0.4290779421","","","","","","","","76","L","3","","","117","main_expt"
"","bandit","197","770994","0.0-158.0-0.0","21379278","wem/bandit_either_2","A3862RIFFUV141","either","3","3330","","","","","","","0","0","1","0.1715453935","","0.4","0.2","0.8","0.6","","","","","0.2817260076","0.283939031","0.1715453935","0.4459264202","","","","","","","","75","K","2","","","118","main_expt"
"","bandit","198","772652","0.0-159.0-0.0","21379278","wem/bandit_either_2","A3862RIFFUV141","either","3","18","","","","","","","0","0","1","0.328214026","","0.4","0.2","0.8","0.6","","","","","0.328214026","0.2992634423","0.1843456939","0.436995295","","","","","","","","72","H","0","img/none_selected.jpg","","119","main_expt"
"","bandit","199","774300","0.0-160.0-0.0","21379278","wem/bandit_either_2","A3862RIFFUV141","either","3","54","","","","","","","0","0","1","0.1878150733","","0.4","0.2","0.8","0.6","","","","","0.3355603121","0.1878150733","0.1848061615","0.4151314625","","","","","","","","74","J","1","","","120","main_expt"
"","bandit","200","776916","0.0-161.0-0.0","21379278","wem/bandit_either_2","A3862RIFFUV141","either","3","47","","","","","","","0","0","1","","0.1447458933","0.4","0.2","0.8","0.6","0.3829587724","0.1447458933","0.1679578636","0.4384064527","","","","","","","","","","","","74","J","1","","","121","main_expt"
"","bandit","201","779242","0.0-162.0-0.0","21379278","wem/bandit_either_2","A3862RIFFUV141","either","3","707","","","","","","","0","0","1","0.4417589501","","0.4","0.2","0.8","0.6","","","","","0.3995678287","0.1176060398","0.197295971","0.4417589501","","","","","","","","76","L","3","","","122","main_expt"
"","bandit","202","781113","0.0-163.0-0.0","21379278","wem/bandit_either_2","A3862RIFFUV141","either","3","240","","","","","","","0","0","1","","0.3656739583","0.4","0.2","0.8","0.6","0.3656739583","0.1097677055","0.2184653352","0.4017154396","","","","","","","","","","","","72","H","0","img/none_selected.jpg","","123","main_expt"
"","bandit","203","783255","0.0-164.0-0.0","21379278","wem/bandit_either_2","A3862RIFFUV141","either","3","416","","","","","","","0","1","0","","0.3862549257","0.4","0.2","0.8","0.6","0.3862549257","0.08048168986","0.2147868977","0.3619070526","","","","","","","","","","","","72","H","0","img/none_selected.jpg","","124","main_expt"
"","bandit","204","784897","0.0-165.0-0.0","21379278","wem/bandit_either_2","A3862RIFFUV141","either","3","49","","","","","","","0","0","1","0.3593796239","","0.4","0.2","0.8","0.6","","","","","0.3593796239","0.07842900555","0.1667936559","0.3567490645","","","","","","","","72","H","0","img/none_selected.jpg","","125","main_expt"
"","bandit","205","786779","0.0-166.0-0.0","21379278","wem/bandit_either_2","A3862RIFFUV141","either","3","311","","","","","","","0","0","1","","0.3413194209","0.4","0.2","0.8","0.6","0.3413194209","0.08318363027","0.1453295256","0.3558473019","","","","","","","","","","","","72","H","0","img/none_selected.jpg","","126","main_expt"
"","bandit","206","788518","0.0-167.0-0.0","21379278","wem/bandit_either_2","A3862RIFFUV141","either","3","52","","","","","","","0","0","1","","0.1635755653","0.4","0.2","0.8","0.6","0.3369929262","0.06812438963","0.1635755653","0.3543069734","","","","","","","","","","","","75","K","2","","","127","main_expt"
"","bandit","207","790219","0.0-168.0-0.0","21379278","wem/bandit_either_2","A3862RIFFUV141","either","3","93","","","","","","","0","0","1","0.1872639566","","0.4","0.2","0.8","0.6","","","","","0.2922989636","0.08303766286","0.1872639566","0.3328374851","","","","","","","","75","K","2","","","128","main_expt"
"","bandit","208","792455","0.0-169.0-0.0","21379278","wem/bandit_either_2","A3862RIFFUV141","either","3","582","","","","","","","0","0","1","","0.3238683282","0.4","0.2","0.8","0.6","0.3095146075","0.09047360051","0.2032718864","0.3238683282","","","","","","","","","","","","76","L","3","","","129","main_expt"
"","bandit","209","794679","0.0-170.0-0.0","21379278","wem/bandit_either_2","A3862RIFFUV141","either","3","514","","","","","","","0","0","1","0.2750329062","","0.4","0.2","0.8","0.6","","","","","0.3068425872","0.131542256","0.2025864764","0.2750329062","","","","","","","","76","L","3","","","130","main_expt"
"","bandit","210","796679","0.0-171.0-0.0","21379278","wem/bandit_either_2","A3862RIFFUV141","either","3","401","","","","","","","0","0","1","","0.3112504131","0.4","0.2","0.8","0.6","0.3112504131","0.1492019489","0.2158584071","0.2751886228","","","","","","","","","","","","72","H","0","img/none_selected.jpg","","131","main_expt"
"","bandit","211","798411","0.0-172.0-0.0","21379278","wem/bandit_either_2","A3862RIFFUV141","either","3","114","","","","","","","0","0","1","","0.1571188116","0.4","0.2","0.8","0.6","0.3595653039","0.1571188116","0.2105840197","0.2729729886","","","","","","","","","","","","74","J","1","","","132","main_expt"
"","bandit","212","800251","0.0-173.0-0.0","21379278","wem/bandit_either_2","A3862RIFFUV141","either","3","267","","","","","","","0","0","1","0.2328486735","","0.4","0.2","0.8","0.6","","","","","0.3873527377","0.2021073832","0.2328486735","0.3248088544","","","","","","","","75","K","2","","","133","main_expt"
"","bandit","213","802078","0.0-174.0-0.0","21379278","wem/bandit_either_2","A3862RIFFUV141","either","3","131","","","","","","","0","1","0","","0.2693148074","0.4","0.2","0.8","0.6","0.3973884711","0.2693148074","0.2589092944","0.3596446835","","","","","","","","","","","","74","J","1","","","134","main_expt"
"","bandit","214","803987","0.0-175.0-0.0","21379278","wem/bandit_either_2","A3862RIFFUV141","either","3","218","","","","","","","0","0","1","","0.2625780805","0.4","0.2","0.8","0.6","0.4080523157","0.2625780805","0.2637326353","0.318377279","","","","","","","","","","","","74","J","1","","","135","main_expt"
"","bandit","215","805717","0.0-176.0-0.0","21379278","wem/bandit_either_2","A3862RIFFUV141","either","3","163","","","","","","","0","0","1","","0.2981707722","0.4","0.2","0.8","0.6","0.4176503084","0.2981707722","0.2718680576","0.3160887017","","","","","","","","","","","","74","J","1","","","136","main_expt"
"","bandit","216","807513","0.0-177.0-0.0","21379278","wem/bandit_either_2","A3862RIFFUV141","either","3","215","","","","","","","0","0","1","","0.3148158286","0.4","0.2","0.8","0.6","0.3859803947","0.3148158286","0.2919957672","0.2883225013","","","","","","","","","","","","74","J","1","","","137","main_expt"
"","bandit","217","809207","0.0-178.0-0.0","21379278","wem/bandit_either_2","A3862RIFFUV141","either","3","118","","","","","","","0","0","1","","0.358492916","0.4","0.2","0.8","0.6","0.358492916","0.3111523267","0.3193993407","0.3009152141","","","","","","","","","","","","72","H","0","img/none_selected.jpg","","138","main_expt"
"","bandit","218","813523","0.0-179.0-0.0","21379278","wem/bandit_either_2","A3862RIFFUV141","either","3","239","","","","","","","1","0","0","0.3608756281","","0.4","0.2","0.8","0.6","","","","","0.3608756281","0.3034593298","0.3404434035","0.293720077","","","","","","","","72","H","0","img/none_selected.jpg","","139","main_expt"
"","bandit","219","815762","0.0-180.0-0.0","21379278","wem/bandit_either_2","A3862RIFFUV141","either","3","664","","","","","","","0","1","0","","0.3421836092","0.4","0.2","0.8","0.6","0.3421836092","0.2507495005","0.3278052243","0.286059761","","","","","","","","","","","","72","H","0","img/none_selected.jpg","","140","main_expt"
"","bandit","220","817866","0.0-181.0-0.0","21379278","wem/bandit_either_2","A3862RIFFUV141","either","3","511","","","","","","","1","0","0","0.3737340371","","0.4","0.2","0.8","0.6","","","","","0.3737340371","0.2220694513","0.3038906839","0.2931724706","","","","","","","","72","H","0","img/none_selected.jpg","","141","main_expt"
"","bandit","221","819762","0.0-182.0-0.0","21379278","wem/bandit_either_2","A3862RIFFUV141","either","3","330","","","","","","","0","0","1","","0.3461121542","0.4","0.2","0.8","0.6","0.3461121542","0.2119249064","0.2924195757","0.2182180164","","","","","","","","","","","","72","H","0","img/none_selected.jpg","","142","main_expt"
"","bandit","222","821739","0.0-183.0-0.0","21379278","wem/bandit_either_2","A3862RIFFUV141","either","3","392","","","","","","","0","0","1","","0.3305931074","0.4","0.2","0.8","0.6","0.3305931074","0.2665135591","0.2816149275","0.2015475508","","","","","","","","","","","","72","H","0","img/none_selected.jpg","","143","main_expt"
"","bandit","223","823588","0.0-184.0-0.0","21379278","wem/bandit_either_2","A3862RIFFUV141","either","3","267","","","","","","","0","0","1","0.3561039987","","0.4","0.2","0.8","0.6","","","","","0.3561039987","0.2854155153","0.2355525614","0.2074070562","","","","","","","","72","H","0","img/none_selected.jpg","","144","main_expt"
"","bandit","224","825466","0.0-185.0-0.0","21379278","wem/bandit_either_2","A3862RIFFUV141","either","3","275","","","","","","","0","0","1","","0.3648023512","0.4","0.2","0.8","0.6","0.3648023512","0.2521048148","0.2185662272","0.1415368311","","","","","","","","","","","","72","H","0","img/none_selected.jpg","","145","main_expt"
"","bandit","225","827235","0.0-186.0-0.0","21379278","wem/bandit_either_2","A3862RIFFUV141","either","3","202","","","","","","","0","0","1","0.3450315","","0.4","0.2","0.8","0.6","","","","","0.3450315","0.2321266643","0.2209315791","0.1549520657","","","","","","","","72","H","0","img/none_selected.jpg","","146","main_expt"
"","bandit","226","829193","0.0-187.0-0.0","21379278","wem/bandit_either_2","A3862RIFFUV141","either","3","333","","","","","","","0","0","1","","0.1469310363","0.4","0.2","0.8","0.6","0.2720321141","0.3159383216","0.2889766311","0.1469310363","","","","","","","","","","","","76","L","3","","","147","main_expt"
"","bandit","227","830989","0.0-188.0-0.0","21379278","wem/bandit_either_2","A3862RIFFUV141","either","3","115","","","","","","","0","0","1","0.1332828417","","0.4","0.2","0.8","0.6","","","","","0.2598972664","0.2673485129","0.2859466156","0.1332828417","","","","","","","","76","L","3","","","148","main_expt"
"","bandit","228","833653","0.0-189.0-0.0","21379278","wem/bandit_either_2","A3862RIFFUV141","either","3","1053","","","","","","","0","0","1","0.2588478233","","0.4","0.2","0.8","0.6","","","","","0.2343157719","0.3348600541","0.2588478233","0.1102010463","","","","","","","","75","K","2","","","149","main_expt"
"","bandit","229","836036","0.0-190.0-0.0","21379278","wem/bandit_either_2","A3862RIFFUV141","either","3","406","","","","","","","0","0","1","0.2224653457","","0.4","0.2","0.8","0.6","","","","","0.2451363599","0.3659656834","0.2224653457","0.1356103494","","","","","","","","75","K","2","","","150","main_expt"
"","bandit","230","839324","0.0-191.0-0.0","21379278","wem/bandit_either_2","A3862RIFFUV141","either","3","1577","","","","","","","0","1","0","","0.36397653","0.4","0.2","0.8","0.6","0.2053737132","0.36397653","0.2387237716","0.1621229287","","","","","","","","","","","","74","J","1","","","151","main_expt"
"","bandit","231","841450","0.0-192.0-0.0","21379278","wem/bandit_either_2","A3862RIFFUV141","either","3","309","","","","","","","0","0","1","","0.3710672623","0.4","0.2","0.8","0.6","0.2396242378","0.3710672623","0.2519133504","0.1412745606","","","","","","","","","","","","74","J","1","","","152","main_expt"
"","bandit","232","843449","0.0-193.0-0.0","21379278","wem/bandit_either_2","A3862RIFFUV141","either","3","383","","","","","","","0","1","0","","0.3828607765","0.4","0.2","0.8","0.6","0.2923277395","0.3828607765","0.3078499427","0.1707580034","","","","","","","","","","","","74","J","1","","","153","main_expt"
"","bandit","233","845512","0.0-194.0-0.0","21379278","wem/bandit_either_2","A3862RIFFUV141","either","3","465","","","","","","","0","1","0","","0.3526468527","0.4","0.2","0.8","0.6","0.3166515581","0.3526468527","0.3283820497","0.1717455462","","","","","","","","","","","","74","J","1","","","154","main_expt"
"","bandit","234","847380","0.0-195.0-0.0","21379278","wem/bandit_either_2","A3862RIFFUV141","either","3","287","","","","","","","0","0","1","","0.3865981945","0.4","0.2","0.8","0.6","0.3194616596","0.3865981945","0.3303057687","0.1785539081","","","","","","","","","","","","74","J","1","","","155","main_expt"
"","bandit","235","849289","0.0-196.0-0.0","21379278","wem/bandit_either_2","A3862RIFFUV141","either","3","302","","","","","","","0","0","1","","0.4328422877","0.4","0.2","0.8","0.6","0.3767011333","0.4328422877","0.3178912443","0.2175815231","","","","","","","","","","","","74","J","1","","","156","main_expt"
"","bandit","236","851373","0.0-197.0-0.0","21379278","wem/bandit_either_2","A3862RIFFUV141","either","3","405","","","","","","","0","1","0","","0.4224906378","0.4","0.2","0.8","0.6","0.3853144204","0.4224906378","0.3236874272","0.216674397","","","","","","","","","","","","74","J","1","","","157","main_expt"
"","bandit","237","853294","0.0-198.0-0.0","21379278","wem/bandit_either_2","A3862RIFFUV141","either","3","316","","","","","","","0","1","0","","0.4428847078","0.4","0.2","0.8","0.6","0.3519128793","0.4428847078","0.3731337511","0.2184316938","","","","","","","","","","","","74","J","1","","","158","main_expt"
"","bandit","238","855126","0.0-199.0-0.0","21379278","wem/bandit_either_2","A3862RIFFUV141","either","3","252","","","","","","","0","1","0","","0.4498083842","0.4","0.2","0.8","0.6","0.3255157266","0.4498083842","0.3758107074","0.2603966468","","","","","","","","","","","","74","J","1","","","159","main_expt"
"","bandit","239","856994","0.0-200.0-0.0","21379278","wem/bandit_either_2","A3862RIFFUV141","either","3","293","","","","","","","1","0","0","0.4319550234","","0.4","0.2","0.8","0.6","","","","","0.379238532","0.4319550234","0.3494215766","0.2242017374","","","","","","","","74","J","1","","","160","main_expt"
"","bandit","240","858809","0.0-201.0-0.0","21379278","wem/bandit_either_2","A3862RIFFUV141","either","3","239","","","","","","","0","0","1","","0.4417514389","0.4","0.2","0.8","0.6","0.3776335756","0.4417514389","0.3327111917","0.2014027125","","","","","","","","","","","","74","J","1","","","161","main_expt"
"","bandit","241","860623","0.0-202.0-0.0","21379278","wem/bandit_either_2","A3862RIFFUV141","either","3","243","","","","","","","0","0","1","0.4081293495","","0.4","0.2","0.8","0.6","","","","","0.2955751891","0.4081293495","0.3171011618","0.2038621466","","","","","","","","74","J","1","","","162","main_expt"
"","bandit","242","862404","0.0-203.0-0.0","21379278","wem/bandit_either_2","A3862RIFFUV141","either","3","200","","","","","","","0","0","1","","0.4265776113","0.4","0.2","0.8","0.6","0.30851492","0.4265776113","0.364183239","0.1238136799","","","","","","","","","","","","74","J","1","","","163","main_expt"
"","bandit","243","864316","0.0-204.0-0.0","21379278","wem/bandit_either_2","A3862RIFFUV141","either","3","312","","","","","","","0","0","1","","0.427472809","0.4","0.2","0.8","0.6","0.3074756362","0.427472809","0.3917374524","0.1104941302","","","","","","","","","","","","74","J","1","","","164","main_expt"
"","bandit","244","866152","0.0-205.0-0.0","21379278","wem/bandit_either_2","A3862RIFFUV141","either","3","239","","","","","","","0","1","0","","0.2743039079","0.4","0.2","0.8","0.6","0.2743039079","0.4016343469","0.3629360172","0.1099358877","","","","","","","","","","","","72","H","0","img/none_selected.jpg","","165","main_expt"
"","bandit","245","868107","0.0-206.0-0.0","21379278","wem/bandit_either_2","A3862RIFFUV141","either","3","304","","","","","","","0","1","0","","0.2900226329","0.4","0.2","0.8","0.6","0.2900226329","0.3578169927","0.3697042915","0.08082918558","","","","","","","","","","","","72","H","0","img/none_selected.jpg","","166","main_expt"
"","bandit","246","870285","0.0-207.0-0.0","21379278","wem/bandit_either_2","A3862RIFFUV141","either","3","248","","","","","","","0","1","0","","0.3444017494","0.4","0.2","0.8","0.6","0.3444017494","0.3346076013","0.3626443337","0.08539074978","","","","","","","","","","","","72","H","0","img/none_selected.jpg","","167","main_expt"
"","bandit","247","872438","0.0-208.0-0.0","21379278","wem/bandit_either_2","A3862RIFFUV141","either","3","10","","","","","","","1","0","0","0.3934904689","","0.4","0.2","0.8","0.6","","","","","0.3934904689","0.36326211","0.3488380128","0.1307687804","","","","","","","","72","H","0","img/none_selected.jpg","","168","main_expt"
"","bandit","248","875308","0.0-209.0-0.0","21379278","wem/bandit_either_2","A3862RIFFUV141","either","3","399","","","","","","","1","0","0","0.3712778229","","0.4","0.2","0.8","0.6","","","","","0.3712778229","0.3389060657","0.3338465455","0.09435724838","","","","","","","","72","H","0","img/none_selected.jpg","","169","main_expt"
"","bandit","249","877223","0.0-210.0-0.0","21379278","wem/bandit_either_2","A3862RIFFUV141","either","3","339","","","","","","","1","0","0","0.3348119161","","0.4","0.2","0.8","0.6","","","","","0.3348119161","0.3820287301","0.3675902536","0.09371103674","","","","","","","","72","H","0","img/none_selected.jpg","","170","main_expt"
"","bandit","250","879109","0.0-211.0-0.0","21379278","wem/bandit_either_2","A3862RIFFUV141","either","3","311","","","","","","","0","0","1","0.3697689907","","0.4","0.2","0.8","0.6","","","","","0.3697689907","0.3738350687","0.3663425941","0.0912992704","","","","","","","","72","H","0","img/none_selected.jpg","","171","main_expt"
"","bandit","251","880975","0.0-212.0-0.0","21379278","wem/bandit_either_2","A3862RIFFUV141","either","3","264","","","","","","","0","0","1","","0.3438364448","0.4","0.2","0.8","0.6","0.3438364448","0.3449486646","0.3571019768","0.1053216192","","","","","","","","","","","","72","H","0","img/none_selected.jpg","","172","main_expt"
"","bandit","252","882936","0.0-213.0-0.0","21379278","wem/bandit_either_2","A3862RIFFUV141","either","3","335","","","","","","","0","0","1","","0.4064517123","0.4","0.2","0.8","0.6","0.4064517123","0.3754463001","0.383943734","0.1119971747","","","","","","","","","","","","72","H","0","img/none_selected.jpg","","173","main_expt"
"","bandit","253","884633","0.0-214.0-0.0","21379278","wem/bandit_either_2","A3862RIFFUV141","either","3","60","","","","","","","1","0","0","0.378453819","","0.4","0.2","0.8","0.6","","","","","0.4266345201","0.3983783957","0.378453819","0.1049574405","","","","","","","","75","K","2","","","174","main_expt"
"","bandit","254","886888","0.0-215.0-0.0","21379278","wem/bandit_either_2","A3862RIFFUV141","either","3","615","","","","","","","1","0","0","0.3577460836","","0.4","0.2","0.8","0.6","","","","","0.4413212306","0.4176958341","0.3577460836","0.07351671593","","","","","","","","75","K","2","","","175","main_expt"
"","bandit","255","888752","0.0-216.0-0.0","21379278","wem/bandit_either_2","A3862RIFFUV141","either","3","249","","","","","","","1","0","0","0.3346789668","","0.4","0.2","0.8","0.6","","","","","0.438548454","0.4336280271","0.3346789668","0.06097876817","","","","","","","","75","K","2","","","176","main_expt"
"","bandit","256","892680","0.0-217.0-0.0","21379278","wem/bandit_either_2","A3862RIFFUV141","either","3","1206","","","","","","","0","0","1","0.3720341948","","0.4","0.2","0.8","0.6","","","","","0.4350726265","0.3863917124","0.3720341948","0.05873143133","","","","","","","","75","K","2","","","177","main_expt"
"","bandit","257","894670","0.0-218.0-0.0","21379278","wem/bandit_either_2","A3862RIFFUV141","either","3","362","","","","","","","1","0","0","0.4243236705","","0.4","0.2","0.8","0.6","","","","","0.4029859975","0.3826512014","0.4243236705","0.07829718294","","","","","","","","75","K","2","","","178","main_expt"
"","bandit","258","896543","0.0-219.0-0.0","21379278","wem/bandit_either_2","A3862RIFFUV141","either","3","270","","","","","","","0","1","0","","0.4396564102","0.4","0.2","0.8","0.6","0.3738585124","0.3681046487","0.4396564102","0.05868413977","","","","","","","","","","","","75","K","2","","","179","main_expt"
"","bandit","259","899460","0.0-220.0-0.0","21379278","wem/bandit_either_2","A3862RIFFUV141","either","3","1324","","","","","","","1","0","0","0.4501825932","","0.4","0.2","0.8","0.6","","","","","0.3884150149","0.374340785","0.4501825932","0.04540529238","","","","","","","","75","K","2","","","180","main_expt"
"","bandit","260","901380","0.0-221.0-0.0","21379278","wem/bandit_either_2","A3862RIFFUV141","either","3","296","","","","","","","0","0","1","0.4527537228","","0.4","0.2","0.8","0.6","","","","","0.3977335033","0.3844034803","0.4527537228","0.04810206047","","","","","","","","75","K","2","","","181","main_expt"
"","bandit","261","903353","0.0-222.0-0.0","21379278","wem/bandit_either_2","A3862RIFFUV141","either","3","356","","","","","","","0","0","1","","0.4733821952","0.4","0.2","0.8","0.6","0.4194204302","0.3569363444","0.4733821952","0.0564969073","","","","","","","","","","","","75","K","2","","","182","main_expt"
"","bandit","262","905438","0.0-223.0-0.0","21379278","wem/bandit_either_2","A3862RIFFUV141","either","3","448","","","","","","","0","0","1","0.4741352064","","0.4","0.2","0.8","0.6","","","","","0.4050300101","0.3930074682","0.4741352064","0.06674959941","","","","","","","","75","K","2","","","183","main_expt"
"","bandit","263","907310","0.0-224.0-0.0","21379278","wem/bandit_either_2","A3862RIFFUV141","either","3","245","","","","","","","0","0","1","0.05730522946","","0.4","0.2","0.8","0.6","","","","","0.4272992256","0.4105724965","0.4835015011","0.05730522946","","","","","","","","76","L","3","","","184","main_expt"
"","bandit","264","909104","0.0-225.0-0.0","21379278","wem/bandit_either_2","A3862RIFFUV141","either","3","184","","","","","","","0","0","1","0.0759668512","","0.4","0.2","0.8","0.6","","","","","0.4213026748","0.4230276401","0.4907566516","0.0759668512","","","","","","","","76","L","3","","","185","main_expt"
"","bandit","265","911060","0.0-226.0-0.0","21379278","wem/bandit_either_2","A3862RIFFUV141","either","3","360","","","","","","","0","0","1","","0.4243078066","0.4","0.2","0.8","0.6","0.3729626057","0.4243078066","0.4777100538","0.0736669194","","","","","","","","","","","","74","J","1","","","186","main_expt"
"","bandit","266","912978","0.0-227.0-0.0","21379278","wem/bandit_either_2","A3862RIFFUV141","either","3","335","","","","","","","0","1","0","","0.4022080601","0.4","0.2","0.8","0.6","0.4022080601","0.419104652","0.4751658893","0.1020870739","","","","","","","","","","","","72","H","0","img/none_selected.jpg","","187","main_expt"
"","bandit","267","914869","0.0-228.0-0.0","21379278","wem/bandit_either_2","A3862RIFFUV141","either","3","288","","","","","","","0","0","1","","0.4218987807","0.4","0.2","0.8","0.6","0.4218987807","0.3917910895","0.4711403756","0.110066606","","","","","","","","","","","","72","H","0","img/none_selected.jpg","","188","main_expt"
"","bandit","268","916837","0.0-229.0-0.0","21379278","wem/bandit_either_2","A3862RIFFUV141","either","3","356","","","","","","","0","0","1","","0.4284519853","0.4","0.2","0.8","0.6","0.4284519853","0.3696037293","0.4848283219","0.1616324423","","","","","","","","","","","","72","H","0","img/none_selected.jpg","","189","main_expt"
"","bandit","269","918888","0.0-230.0-0.0","21379278","wem/bandit_either_2","A3862RIFFUV141","either","3","329","","","","","","","0","0","1","","0.3722688899","0.4","0.2","0.8","0.6","0.4104863902","0.3722688899","0.4906713727","0.1401199573","","","","","","","","","","","","74","J","1","","","190","main_expt"
"","bandit","270","920657","0.0-231.0-0.0","21379278","wem/bandit_either_2","A3862RIFFUV141","either","3","116","","","","","","","0","0","1","","0.3956575009","0.4","0.2","0.8","0.6","0.4071825693","0.3956575009","0.4944082075","0.1782786715","","","","","","","","","","","","74","J","1","","","191","main_expt"
"","bandit","271","922513","0.0-232.0-0.0","21379278","wem/bandit_either_2","A3862RIFFUV141","either","3","256","","","","","","","1","0","0","0.4922337742","","0.4","0.2","0.8","0.6","","","","","0.4172763132","0.3843500594","0.4922337742","0.203517815","","","","","","","","75","K","2","","","192","main_expt"
"","bandit","272","924486","0.0-233.0-0.0","21379278","wem/bandit_either_2","A3862RIFFUV141","either","3","258","","","","","","","0","0","1","0.4887356563","","0.4","0.2","0.8","0.6","","","","","0.3965334946","0.3801723293","0.4887356563","0.172030281","","","","","","","","75","K","2","","","193","main_expt"
"","bandit","273","926779","0.0-234.0-0.0","21379278","wem/bandit_either_2","A3862RIFFUV141","either","3","361","","","","","","","0","0","1","","0.4850955297","0.4","0.2","0.8","0.6","0.383316574","0.3871645121","0.4850955297","0.1813301739","","","","","","","","","","","","75","K","2","","","194","main_expt"
"","bandit","274","928738","0.0-235.0-0.0","21379278","wem/bandit_either_2","A3862RIFFUV141","either","3","127","","","","","","","0","1","0","","0.3633903175","0.4","0.2","0.8","0.6","0.3965345796","0.3633903175","0.4848341758","0.2284295163","","","","","","","","","","","","74","J","1","","","195","main_expt"
"","bandit","275","930716","0.0-236.0-0.0","21379278","wem/bandit_either_2","A3862RIFFUV141","either","3","338","","","","","","","0","0","1","0.3811675741","","0.4","0.2","0.8","0.6","","","","","0.3978469093","0.3811675741","0.490049139","0.2501246714","","","","","","","","74","J","1","","","196","main_expt"
"","bandit","276","932808","0.0-237.0-0.0","21379278","wem/bandit_either_2","A3862RIFFUV141","either","3","455","","","","","","","0","1","0","","0.3487868089","0.4","0.2","0.8","0.6","0.3172926233","0.3487868089","0.4912643012","0.3150809007","","","","","","","","","","","","74","J","1","","","197","main_expt"
"","bandit","277","935039","0.0-238.0-0.0","21379278","wem/bandit_either_2","A3862RIFFUV141","either","3","387","","","","","","","0","1","0","","0.2986771554","0.4","0.2","0.8","0.6","0.3113170709","0.2986771554","0.4793615714","0.3442077965","","","","","","","","","","","","74","J","1","","","198","main_expt"
"","bandit","278","937264","0.0-239.0-0.0","21379278","wem/bandit_either_2","A3862RIFFUV141","either","3","628","","","","","","","0","0","1","","0.3481418533","0.4","0.2","0.8","0.6","0.3066116159","0.3481418533","0.4661622676","0.3675051223","","","","","","","","","","","","74","J","1","","","199","main_expt"
"","bandit","279","939341","0.0-240.0-0.0","21379278","wem/bandit_either_2","A3862RIFFUV141","either","3","283","","","","","","","0","0","1","","0.353319573","0.4","0.2","0.8","0.6","0.2521122026","0.353319573","0.4479238565","0.3044821291","","","","","","","","","","","","74","J","1","","","200","main_expt"
"","bandit","280","941394","0.0-241.0-0.0","21379278","wem/bandit_either_2","A3862RIFFUV141","either","3","451","","","","","","","0","0","1","0.2679963248","","0.4","0.2","0.8","0.6","","","","","0.2679963248","0.3676338631","0.4429166455","0.3013824411","","","","","","","","72","H","0","img/none_selected.jpg","","201","main_expt"
"","bandit","281","943568","0.0-242.0-0.0","21379278","wem/bandit_either_2","A3862RIFFUV141","either","3","557","","","","","","","0","0","1","0.442820363","","0.4","0.2","0.8","0.6","","","","","0.2076546236","0.311657493","0.442820363","0.3001954661","","","","","","","","75","K","2","","","202","main_expt"
"","bandit","282","946021","0.0-243.0-0.0","21379278","wem/bandit_either_2","A3862RIFFUV141","either","3","350","","","","","","","0","0","1","0.3189156814","","0.4","0.2","0.8","0.6","","","","","0.1881707852","0.3364041998","0.4539008368","0.3189156814","","","","","","","","76","L","3","","","203","main_expt"
"","bandit","283","948507","0.0-244.0-0.0","21379278","wem/bandit_either_2","A3862RIFFUV141","either","3","905","","","","","","","0","0","1","","0.3162062407","0.4","0.2","0.8","0.6","0.2057853427","0.3148670147","0.4163307037","0.3162062407","","","","","","","","","","","","76","L","3","","","204","main_expt"
"","bandit","284","950160","0.0-245.0-0.0","21379278","wem/bandit_either_2","A3862RIFFUV141","either","3","40","","","","","","","0","0","1","","0.2564451259","0.4","0.2","0.8","0.6","0.2564451259","0.3293187519","0.4045388199","0.347278619","","","","","","","","","","","","72","H","0","img/none_selected.jpg","","205","main_expt"
"","bandit","285","953077","0.0-246.0-0.0","21379278","wem/bandit_either_2","A3862RIFFUV141","either","3","1322","","","","","","","0","0","1","0.2705077244","","0.4","0.2","0.8","0.6","","","","","0.3082896296","0.2705077244","0.4083422121","0.2970129147","","","","","","","","74","J","1","","","206","main_expt"
"","bandit","286","954671","0.0-247.0-0.0","21379278","wem/bandit_either_2","A3862RIFFUV141","either","3","1","","","","","","","0","0","1","0.3083591011","","0.4","0.2","0.8","0.6","","","","","0.3235103938","0.3083591011","0.4033585138","0.3331481178","","","","","","","","74","J","1","","","207","main_expt"
"","bandit","287","956848","0.0-248.0-0.0","21379278","wem/bandit_either_2","A3862RIFFUV141","either","3","588","","","","","","","0","0","1","","0.2489273718","0.4","0.2","0.8","0.6","0.3563539536","0.2489273718","0.3753320851","0.3195917859","","","","","","","","","","","","74","J","1","","","208","main_expt"
"","bandit","288","958446","0.0-249.0-0.0","21379278","wem/bandit_either_2","A3862RIFFUV141","either","3","16","","","","","","","1","0","0","0.3864970555","","0.4","0.2","0.8","0.6","","","","","0.3821305916","0.2224321457","0.3864970555","0.3642345195","","","","","","","","75","K","2","","","209","main_expt"
"","bandit","289","960381","0.0-250.0-0.0","21379278","wem/bandit_either_2","A3862RIFFUV141","either","3","278","","","","","","","0","0","1","0.3894881908","","0.4","0.2","0.8","0.6","","","","","0.4067483812","0.2184729634","0.3894881908","0.3518797164","","","","","","","","75","K","2","","","210","main_expt"
"","bandit","290","962354","0.0-251.0-0.0","21379278","wem/bandit_either_2","A3862RIFFUV141","either","3","259","","","","","","","1","0","0","0.4052823736","","0.4","0.2","0.8","0.6","","","","","0.376825818","0.2178464352","0.4052823736","0.3781537602","","","","","","","","75","K","2","","","211","main_expt"
"","bandit","291","964282","0.0-252.0-0.0","21379278","wem/bandit_either_2","A3862RIFFUV141","either","3","305","","","","","","","1","0","0","0.3783189977","","0.4","0.2","0.8","0.6","","","","","0.3481764155","0.1644702768","0.3783189977","0.3773353051","","","","","","","","75","K","2","","","212","main_expt"
"","bandit","292","966121","0.0-253.0-0.0","21379278","wem/bandit_either_2","A3862RIFFUV141","either","3","251","","","","","","","0","0","1","0.3804187243","","0.4","0.2","0.8","0.6","","","","","0.3239198888","0.1271660564","0.3804187243","0.3448860985","","","","","","","","75","K","2","","","213","main_expt"
"","bandit","293","967971","0.0-254.0-0.0","21379278","wem/bandit_either_2","A3862RIFFUV141","either","3","271","","","","","","","1","0","0","0.3964056757","","0.4","0.2","0.8","0.6","","","","","0.3592643085","0.1368129038","0.3964056757","0.3622000499","","","","","","","","75","K","2","","","214","main_expt"
"","bandit","294","969885","0.0-255.0-0.0","21379278","wem/bandit_either_2","A3862RIFFUV141","either","3","274","","","","","","","1","0","0","0.3939862607","","0.4","0.2","0.8","0.6","","","","","0.3482739819","0.07615368859","0.3939862607","0.3408682726","","","","","","","","75","K","2","","","215","main_expt"
"","bandit","295","971844","0.0-256.0-0.0","21379278","wem/bandit_either_2","A3862RIFFUV141","either","3","230","","","","","","","1","0","0","0.4062496234","","0.4","0.2","0.8","0.6","","","","","0.2972527025","0.07711559412","0.4062496234","0.328819006","","","","","","","","75","K","2","","","216","main_expt"
"","bandit","296","973756","0.0-257.0-0.0","21379278","wem/bandit_either_2","A3862RIFFUV141","either","3","290","","","","","","","0","0","1","0.3440498305","","0.4","0.2","0.8","0.6","","","","","0.2850944341","0.07728173513","0.3440498305","0.3229374792","","","","","","","","75","K","2","","","217","main_expt"
"","bandit","297","975695","0.0-258.0-0.0","21379278","wem/bandit_either_2","A3862RIFFUV141","either","3","312","","","","","","","1","0","0","0.3198020565","","0.4","0.2","0.8","0.6","","","","","0.2483413171","0.07919919155","0.3198020565","0.3616220652","","","","","","","","75","K","2","","","218","main_expt"
"","bandit","298","977656","0.0-259.0-0.0","21379278","wem/bandit_either_2","A3862RIFFUV141","either","3","325","","","","","","","0","0","1","0.3078290176","","0.4","0.2","0.8","0.6","","","","","0.2680513607","0.1270410367","0.3078290176","0.3591176528","","","","","","","","75","K","2","","","219","main_expt"
"","bandit","299","979427","0.0-260.0-0.0","21379278","wem/bandit_either_2","A3862RIFFUV141","either","3","76","","","","","","","0","0","1","","0.2961895162","0.4","0.2","0.8","0.6","0.304668496","0.1117499599","0.2961895162","0.2758994579","","","","","","","","","","","","75","K","2","","","220","main_expt"
"","bandit","300","981468","0.0-261.0-0.0","21379278","wem/bandit_either_2","A3862RIFFUV141","either","3","308","","","","","","","0","1","0","","0.2658603678","0.4","0.2","0.8","0.6","0.2773284289","0.1186324211","0.2658603678","0.3119987931","","","","","","","","","","","","75","K","2","","","221","main_expt"
"","bandit","301","983426","0.0-262.0-0.0","21379278","wem/bandit_either_2","A3862RIFFUV141","either","3","185","","","","","","","0","0","1","","0.274695037","0.4","0.2","0.8","0.6","0.2152506718","0.1141050397","0.274695037","0.3106374463","","","","","","","","","","","","75","K","2","","","222","main_expt"
"","bandit","302","985416","0.0-263.0-0.0","21379278","wem/bandit_either_2","A3862RIFFUV141","either","3","395","","","","","","","0","0","1","0.2210940289","","0.4","0.2","0.8","0.6","","","","","0.2445797097","0.1007228699","0.2210940289","0.3131570504","","","","","","","","75","K","2","","","223","main_expt"
"","bandit","303","987195","0.0-264.0-0.0","21379278","wem/bandit_either_2","A3862RIFFUV141","either","3","171","","","","","","","0","0","1","0.1843933297","","0.4","0.2","0.8","0.6","","","","","0.2559263424","0.1380584308","0.1843933297","0.3025994915","","","","","","","","75","K","2","","","224","main_expt"
"","bandit","304","989870","0.0-265.0-0.0","21379278","wem/bandit_either_2","A3862RIFFUV141","either","3","795","","","","","","","0","0","1","0.1393521225","","0.4","0.2","0.8","0.6","","","","","0.2702522324","0.1393521225","0.212211923","0.2994132709","","","","","","","","74","J","1","","","225","main_expt"
"","bandit","305","995486","0.0-266.0-0.0","21379278","wem/bandit_either_2","A3862RIFFUV141","either","3","3","","","","","","","0","0","1","0.2094269877","","0.4","0.2","0.8","0.6","","","","","0.2646860425","0.2094269877","0.2315036379","0.2866794375","","","","","","","","74","J","1","","","226","main_expt"
"","bandit","306","999933","0.0-267.0-0.0","21379278","wem/bandit_either_2","A3862RIFFUV141","either","3","1701","","","","","","","0","0","1","0.269556559","","0.4","0.2","0.8","0.6","","","","","0.269556559","0.2959232149","0.2646353212","0.2299222882","","","","","","","","72","H","0","img/none_selected.jpg","","227","main_expt"
"","bandit","307","1002702","0.0-268.0-0.0","21379278","wem/bandit_either_2","A3862RIFFUV141","either","3","1106","","","","","","","0","0","1","0.2498152532","","0.4","0.2","0.8","0.6","","","","","0.2498152532","0.374355758","0.2443517867","0.2991813551","","","","","","","","72","H","0","img/none_selected.jpg","","228","main_expt"
"","bandit","308","1005105","0.0-269.0-0.0","21379278","wem/bandit_either_2","A3862RIFFUV141","either","3","777","","","","","","","0","1","0","","0.3295538921","0.4","0.2","0.8","0.6","0.2495566458","0.3876740502","0.2569692975","0.3295538921","","","","","","","","","","","","76","L","3","","","229","main_expt"
"","bandit","309","1007081","0.0-270.0-0.0","21379278","wem/bandit_either_2","A3862RIFFUV141","either","3","381","","","","","","","1","0","0","0.2713593359","","0.4","0.2","0.8","0.6","","","","","0.2134382902","0.3341674595","0.2490290172","0.2713593359","","","","","","","","76","L","3","","","230","main_expt"
"","bandit","310","1009017","0.0-271.0-0.0","21379278","wem/bandit_either_2","A3862RIFFUV141","either","3","342","","","","","","","1","0","0","0.2746975787","","0.4","0.2","0.8","0.6","","","","","0.2099205747","0.3558281537","0.2368643707","0.2746975787","","","","","","","","76","L","3","","","231","main_expt"
"","bandit","311","1010997","0.0-272.0-0.0","21379278","wem/bandit_either_2","A3862RIFFUV141","either","3","322","","","","","","","0","0","1","","0.2817934899","0.4","0.2","0.8","0.6","0.1598609145","0.3293076861","0.2857324616","0.2817934899","","","","","","","","","","","","76","L","3","","","232","main_expt"
"","bandit","312","1012911","0.0-273.0-0.0","21379278","wem/bandit_either_2","A3862RIFFUV141","either","3","278","","","","","","","0","1","0","","0.3139736629","0.4","0.2","0.8","0.6","0.1472569172","0.3271309306","0.226619475","0.3139736629","","","","","","","","","","","","76","L","3","","","233","main_expt"
"","bandit","313","1014938","0.0-274.0-0.0","21379278","wem/bandit_either_2","A3862RIFFUV141","either","3","430","","","","","","","0","1","0","","0.3332560948","0.4","0.2","0.8","0.6","0.1123375355","0.3510228885","0.2448251662","0.3332560948","","","","","","","","","","","","76","L","3","","","234","main_expt"
"","bandit","314","1016575","0.0-275.0-0.0","21379278","wem/bandit_either_2","A3862RIFFUV141","either","3","33","","","","","","","0","0","1","0.3475281657","","0.4","0.2","0.8","0.6","","","","","0.1562424728","0.3346663699","0.2996798263","0.3475281657","","","","","","","","76","L","3","","","235","main_expt"
"","bandit","315","1018368","0.0-276.0-0.0","21379278","wem/bandit_either_2","A3862RIFFUV141","either","3","204","","","","","","","1","0","0","0.3170984437","","0.4","0.2","0.8","0.6","","","","","0.1623269298","0.332043614","0.3220329496","0.3170984437","","","","","","","","76","L","3","","","236","main_expt"
"","bandit","316","1022051","0.0-277.0-0.0","21379278","wem/bandit_either_2","A3862RIFFUV141","either","3","2091","","","","","","","0","1","0","","0.3611259067","0.4","0.2","0.8","0.6","0.1362759337","0.2780661838","0.3672390457","0.3611259067","","","","","","","","","","","","76","L","3","","","237","main_expt"
"","bandit","317","1023769","0.0-278.0-0.0","21379278","wem/bandit_either_2","A3862RIFFUV141","either","3","118","","","","","","","0","0","1","0.3449339383","","0.4","0.2","0.8","0.6","","","","","0.1282223372","0.3071002506","0.3702030288","0.3449339383","","","","","","","","76","L","3","","","238","main_expt"
"","bandit","318","1025711","0.0-279.0-0.0","21379278","wem/bandit_either_2","A3862RIFFUV141","either","3","353","","","","","","","1","0","0","0.3006984684","","0.4","0.2","0.8","0.6","","","","","0.08262393641","0.3101279526","0.3486367063","0.3006984684","","","","","","","","76","L","3","","","239","main_expt"
"","bandit","319","1027623","0.0-280.0-0.0","21379278","wem/bandit_either_2","A3862RIFFUV141","either","3","260","","","","","","","0","0","1","0.3355390738","","0.4","0.2","0.8","0.6","","","","","0.09366491666","0.3071576631","0.3422639114","0.3355390738","","","","","","","","76","L","3","","","240","main_expt"
"","bandit","320","1029711","0.0-281.0-0.0","21379278","wem/bandit_either_2","A3862RIFFUV141","either","3","472","","","","","","","0","0","1","0.3513118525","","0.4","0.2","0.8","0.6","","","","","0.09778426954","0.3213727252","0.3703795114","0.3513118525","","","","","","","","76","L","3","","","241","main_expt"
"","bandit","321","1031302","0.0-282.0-0.0","21379278","wem/bandit_either_2","A3862RIFFUV141","either","3","1","","","","","","","0","0","1","0.2871404103","","0.4","0.2","0.8","0.6","","","","","0.0684580113","0.3303042821","0.3362310887","0.2871404103","","","","","","","","76","L","3","","","242","main_expt"
"","bandit","322","1033505","0.0-283.0-0.0","21379278","wem/bandit_either_2","A3862RIFFUV141","either","3","616","","","","","","","0","0","1","","0.386578507","0.4","0.2","0.8","0.6","0.05756719403","0.386578507","0.3855302341","0.2582353252","","","","","","","","","","","","74","J","1","","","243","main_expt"
"","bandit","323","1035265","0.0-284.0-0.0","21379278","wem/bandit_either_2","A3862RIFFUV141","either","3","38","","","","","","","0","0","1","","0.07954378931","0.4","0.2","0.8","0.6","0.07954378931","0.3582196724","0.3504604058","0.2108553612","","","","","","","","","","","","72","H","0","img/none_selected.jpg","","244","main_expt"
"","bandit","324","1037010","0.0-285.0-0.0","21379278","wem/bandit_either_2","A3862RIFFUV141","either","3","125","","","","","","","1","0","0","0.3586275713","","0.4","0.2","0.8","0.6","","","","","0.07668718344","0.3626170977","0.3586275713","0.190308294","","","","","","","","75","K","2","","","245","main_expt"
"","bandit","325","1039188","0.0-286.0-0.0","21379278","wem/bandit_either_2","A3862RIFFUV141","either","3","324","","","","","","","1","0","0","0.3202710015","","0.4","0.2","0.8","0.6","","","","","0.08627194322","0.2778980274","0.3202710015","0.2079876503","","","","","","","","75","K","2","","","246","main_expt"
"","bandit","326","1042460","0.0-287.0-0.0","21379278","wem/bandit_either_2","A3862RIFFUV141","either","3","256","","","","","","","0","0","1","0.2874587678","","0.4","0.2","0.8","0.6","","","","","0.1009858539","0.2864864277","0.2874587678","0.2053262284","","","","","","","","75","K","2","","","247","main_expt"
"","bandit","327","1044405","0.0-288.0-0.0","21379278","wem/bandit_either_2","A3862RIFFUV141","either","3","349","","","","","","","1","0","0","0.2703076155","","0.4","0.2","0.8","0.6","","","","","0.1044033157","0.2883304048","0.2703076155","0.2699327364","","","","","","","","75","K","2","","","248","main_expt"
