"consent","trial_type","trial_index","time_elapsed","internal_node_id","subjID","study","MID","cond","drift","rt","responses","key_press","expt_phase","like","value","connected","gems","bombs","no_reward","GemPrChosen","BombPrChosen","GainOverPainPr_0","GainOverPainPr_1","GainOverPainPr_2","GainOverPainPr_3","LosePr_0","LosePr_1","LosePr_2","LosePr_3","WinPr_0","WinPr_1","WinPr_2","WinPr_3","Q0","Q1","Q2","gender","age","ethnicity","target","respCharCode","respKey","respChoiceNum","respChoice","practice","trial_counter","trial_label"
"INL_behavioral_consent_30min_online.html","consent","0","14787","0.0-0.0","21772469","wem/bandit_either_2","A320FDQ5EW0PM2","either","4","","","","","","","","","","","","","","","","","","","","","","","","","","","","","","","","","","","","","",""
"","survey-text","1","23775","0.0-1.0","21772469","wem/bandit_either_2","A320FDQ5EW0PM2","either","4","7945","{""Q0"":""A320FDQ5EW0PM2""}","","","","","","","","","","","","","","","","","","","","","","","","","","","","","","","","","","","",""
"","text","2","43778","0.0-2.0","21772469","wem/bandit_either_2","A320FDQ5EW0PM2","either","4","18986","","32","","","","","","","","","","","","","","","","","","","","","","","","","","","","","","","","","","",""
"","text","3","56376","0.0-3.0","21772469","wem/bandit_either_2","A320FDQ5EW0PM2","either","4","12584","","32","","","","","","","","","","","","","","","","","","","","","","","","","","","","","","","","","","",""
"","text","4","181558","0.0-4.0","21772469","wem/bandit_either_2","A320FDQ5EW0PM2","either","4","125164","","32","","","","","","","","","","","","","","","","","","","","","","","","","","","","","","","","","","",""
"","text","5","261880","0.0-5.0","21772469","wem/bandit_either_2","A320FDQ5EW0PM2","either","4","80322","","32","","","","","","","","","","","","","","","","","","","","","","","","","","","","","","","","","","",""
"","text","6","423269","0.0-6.0","21772469","wem/bandit_either_2","A320FDQ5EW0PM2","either","4","161371","","32","","","","","","","","","","","","","","","","","","","","","","","","","","","","","","","","","","",""
"","text","7","459942","0.0-7.0","21772469","wem/bandit_either_2","A320FDQ5EW0PM2","either","4","36656","","32","","","","","","","","","","","","","","","","","","","","","","","","","","","","","","","","","","",""
"","text","8","465109","0.0-8.0","21772469","wem/bandit_either_2","A320FDQ5EW0PM2","either","4","5154","","32","","","","","","","","","","","","","","","","","","","","","","","","","","","","","","","","","","",""
"","identification","9","501242","0.0-9.0-0.0","21772469","wem/bandit_either_2","A320FDQ5EW0PM2","either","4","36062","","","","1","1","1","","","","","","","","","","","","","","","","","","","","","","","","the village of Zur","","","","","","",""
"","identification","10","520623","0.0-9.0-1.0","21772469","wem/bandit_either_2","A320FDQ5EW0PM2","either","4","18328","","","","4","4","3","","","","","","","","","","","","","","","","","","","","","","","","the village of Nyx","","","","","","",""
"","text","11","532659","0.0-10.0","21772469","wem/bandit_either_2","A320FDQ5EW0PM2","either","4","11024","","32","","","","","","","","","","","","","","","","","","","","","","","","","","","","","","","","","","",""
"","text","12","543549","0.0-11.0","21772469","wem/bandit_either_2","A320FDQ5EW0PM2","either","4","10878","","32","","","","","","","","","","","","","","","","","","","","","","","","","","","","","","","","","","",""
"","text","13","547776","0.0-12.0","21772469","wem/bandit_either_2","A320FDQ5EW0PM2","either","4","4220","","32","","","","","","","","","","","","","","","","","","","","","","","","","","","","","","","","","","",""
"","text","14","553600","0.0-13.0","21772469","wem/bandit_either_2","A320FDQ5EW0PM2","either","4","5809","","32","","","","","","","","","","","","","","","","","","","","","","","","","","","","","","","","","","",""
"","bandit","15","558237","0.0-14.0-0.0","21772469","wem/bandit_either_2","A320FDQ5EW0PM2","either","4","3099","","","","","","","0","0","1","0","0","","","","","0","","","","0","","","","","","","","","","","74","J","0","img/none_selected_demo.jpg","true","0",""
"","bandit","16","561861","0.0-15.0-0.0","21772469","wem/bandit_either_2","A320FDQ5EW0PM2","either","4","2071","","","","","","","0","0","1","0","0","","","","","0","","","","0","","","","","","","","","","","75","K","0","img/none_selected_demo.jpg","true","0",""
"","text","17","597402","0.0-16.0","21772469","wem/bandit_either_2","A320FDQ5EW0PM2","either","4","35535","","32","","","","","","","","","","","","","","","","","","","","","","","","","","","","","","","","","","",""
"","text","18","612123","0.0-17.0","21772469","wem/bandit_either_2","A320FDQ5EW0PM2","either","4","14707","","32","","","","","","","","","","","","","","","","","","","","","","","","","","","","","","","","","","",""
"","text","19","620915","0.0-18.0","21772469","wem/bandit_either_2","A320FDQ5EW0PM2","either","4","8773","","32","","","","","","","","","","","","","","","","","","","","","","","","","","","","","","","","","","",""
"","text","20","624813","0.0-19.0","21772469","wem/bandit_either_2","A320FDQ5EW0PM2","either","4","3894","","32","","","","","","","","","","","","","","","","","","","","","","","","","","","","","","","","","","",""
"","bandit","21","629251","0.0-20.0-0.0","21772469","wem/bandit_either_2","A320FDQ5EW0PM2","either","4","2900","","","","","","","0","0","1","","0.8","0.5","0.5","","","0.8","0.2","","","","","","","","","","","","","","74","J","0","img/none_selected_demo.jpg","true","0","80_20_practice"
"","bandit","22","632208","0.0-20.0-1.0","21772469","wem/bandit_either_2","A320FDQ5EW0PM2","either","4","1394","","","","","","","0","0","1","","0.2","0.5","0.5","","","0.8","0.2","","","","","","","","","","","","","","75","K","1","","true","0","80_20_practice"
"","bandit","23","634534","0.0-20.0-2.0","21772469","wem/bandit_either_2","A320FDQ5EW0PM2","either","4","788","","","","","","","0","1","0","","0.8","0.5","0.5","","","0.8","0.2","","","","","","","","","","","","","","74","J","0","img/none_selected_demo.jpg","true","0","80_20_practice"
"","bandit","24","638019","0.0-20.0-3.0","21772469","wem/bandit_either_2","A320FDQ5EW0PM2","either","4","1947","","","","","","","0","0","1","","0.2","0.5","0.5","","","0.8","0.2","","","","","","","","","","","","","","75","K","1","","true","0","80_20_practice"
"","bandit","25","640265","0.0-20.0-4.0","21772469","wem/bandit_either_2","A320FDQ5EW0PM2","either","4","714","","","","","","","1","0","0","0.8","","0.5","0.5","","","","","","","0.8","0.2","","","","","","","","","","74","J","0","img/none_selected_demo.jpg","true","0","80_20_practice"
"","bandit","26","642972","0.0-20.0-5.0","21772469","wem/bandit_either_2","A320FDQ5EW0PM2","either","4","1171","","","","","","","0","1","0","","0.8","0.5","0.5","","","0.8","0.2","","","","","","","","","","","","","","74","J","0","img/none_selected_demo.jpg","true","0","80_20_practice"
"","bandit","27","645992","0.0-20.0-6.0","21772469","wem/bandit_either_2","A320FDQ5EW0PM2","either","4","1479","","","","","","","0","0","1","","0.8","0.5","0.5","","","0.8","0.2","","","","","","","","","","","","","","74","J","0","img/none_selected_demo.jpg","true","0","80_20_practice"
"","bandit","28","648376","0.0-20.0-7.0","21772469","wem/bandit_either_2","A320FDQ5EW0PM2","either","4","830","","","","","","","0","0","1","0.8","","0.5","0.5","","","","","","","0.8","0.2","","","","","","","","","","74","J","0","img/none_selected_demo.jpg","true","0","80_20_practice"
"","bandit","29","650922","0.0-20.0-8.0","21772469","wem/bandit_either_2","A320FDQ5EW0PM2","either","4","997","","","","","","","0","0","1","","0.8","0.5","0.5","","","0.8","0.2","","","","","","","","","","","","","","74","J","0","img/none_selected_demo.jpg","true","0","80_20_practice"
"","bandit","30","652456","0.0-20.0-9.0","21772469","wem/bandit_either_2","A320FDQ5EW0PM2","either","4","1","","","","","","","0","0","1","0.2","","0.5","0.5","","","","","","","0.8","0.2","","","","","","","","","","75","K","1","","true","0","80_20_practice"
"","bandit","31","654533","0.0-20.0-10.0","21772469","wem/bandit_either_2","A320FDQ5EW0PM2","either","4","530","","","","","","","0","0","1","","0.2","0.5","0.5","","","0.8","0.2","","","","","","","","","","","","","","75","K","1","","true","0","80_20_practice"
"","bandit","32","656519","0.0-20.0-11.0","21772469","wem/bandit_either_2","A320FDQ5EW0PM2","either","4","433","","","","","","","0","1","0","","0.2","0.5","0.5","","","0.8","0.2","","","","","","","","","","","","","","75","K","1","","true","0","80_20_practice"
"","bandit","33","658466","0.0-20.0-12.0","21772469","wem/bandit_either_2","A320FDQ5EW0PM2","either","4","403","","","","","","","0","0","1","","0.2","0.5","0.5","","","0.8","0.2","","","","","","","","","","","","","","75","K","1","","true","0","80_20_practice"
"","bandit","34","660013","0.0-20.0-13.0","21772469","wem/bandit_either_2","A320FDQ5EW0PM2","either","4","4","","","","","","","0","0","1","","0.2","0.5","0.5","","","0.8","0.2","","","","","","","","","","","","","","75","K","1","","true","0","80_20_practice"
"","bandit","35","661726","0.0-20.0-14.0","21772469","wem/bandit_either_2","A320FDQ5EW0PM2","either","4","170","","","","","","","0","0","1","0.8","","0.5","0.5","","","","","","","0.8","0.2","","","","","","","","","","74","J","0","img/none_selected_demo.jpg","true","0","80_20_practice"
"","bandit","36","664091","0.0-20.0-15.0","21772469","wem/bandit_either_2","A320FDQ5EW0PM2","either","4","801","","","","","","","1","0","0","0.8","","0.5","0.5","","","","","","","0.8","0.2","","","","","","","","","","74","J","0","img/none_selected_demo.jpg","true","0","80_20_practice"
"","bandit","37","666951","0.0-20.0-16.0","21772469","wem/bandit_either_2","A320FDQ5EW0PM2","either","4","1314","","","","","","","1","0","0","0.8","","0.5","0.5","","","","","","","0.8","0.2","","","","","","","","","","74","J","0","img/none_selected_demo.jpg","true","0","80_20_practice"
"","bandit","38","669576","0.0-20.0-17.0","21772469","wem/bandit_either_2","A320FDQ5EW0PM2","either","4","1096","","","","","","","0","0","1","","0.8","0.5","0.5","","","0.8","0.2","","","","","","","","","","","","","","74","J","0","img/none_selected_demo.jpg","true","0","80_20_practice"
"","bandit","39","671855","0.0-20.0-18.0","21772469","wem/bandit_either_2","A320FDQ5EW0PM2","either","4","745","","","","","","","0","1","0","","0.8","0.5","0.5","","","0.8","0.2","","","","","","","","","","","","","","74","J","0","img/none_selected_demo.jpg","true","0","80_20_practice"
"","bandit","40","675546","0.0-20.0-19.0","21772469","wem/bandit_either_2","A320FDQ5EW0PM2","either","4","2147","","","","","","","1","0","0","0.8","","0.5","0.5","","","","","","","0.8","0.2","","","","","","","","","","74","J","0","img/none_selected_demo.jpg","true","0","80_20_practice"
"","text","41","750358","0.0-21.0","21772469","wem/bandit_either_2","A320FDQ5EW0PM2","either","4","74796","","32","","","","","","","","","","","","","","","","","","","","","","","","","","","","","","","","","","",""
"","bandit","42","753141","0.0-22.0-0.0","21772469","wem/bandit_either_2","A320FDQ5EW0PM2","either","4","1251","","","","","","","1","0","0","1","0","","","","","0","1","","","1","0","","","","","","","","","","74","J","0","img/none_selected_demo.jpg","true","0",""
"","text","43","765613","0.0-23.0","21772469","wem/bandit_either_2","A320FDQ5EW0PM2","either","4","12445","","32","","","","","","","","","","","","","","","","","","","","","","","","","","","","","","","","","","",""
"","text","44","774764","0.0-24.0","21772469","wem/bandit_either_2","A320FDQ5EW0PM2","either","4","9151","","32","","","","","","","","","","","","","","","","","","","","","","","","","","","","","","","","","","",""
"","text","45","779642","0.0-25.0","21772469","wem/bandit_either_2","A320FDQ5EW0PM2","either","4","4876","","32","","","","","","","","","","","","","","","","","","","","","","","","","","","","","","","","","","",""
"","text","46","784095","0.0-26.0","21772469","wem/bandit_either_2","A320FDQ5EW0PM2","either","4","4446","","32","","","","","","","","","","","","","","","","","","","","","","","","","","","","","","","","","","",""
"","text","47","795901","0.0-27.0","21772469","wem/bandit_either_2","A320FDQ5EW0PM2","either","4","11800","","32","","","","","","","","","","","","","","","","","","","","","","","","","","","","","","","","","","",""
"","text","48","809597","0.0-28.0","21772469","wem/bandit_either_2","A320FDQ5EW0PM2","either","4","13688","","32","","","","","","","","","","","","","","","","","","","","","","","","","","","","","","","","","","",""
"","text","49","817225","0.0-29.0","21772469","wem/bandit_either_2","A320FDQ5EW0PM2","either","4","7622","","32","","","","","","","","","","","","","","","","","","","","","","","","","","","","","","","","","","",""
"","text","50","828418","0.0-30.0","21772469","wem/bandit_either_2","A320FDQ5EW0PM2","either","4","11193","","32","","","","","","","","","","","","","","","","","","","","","","","","","","","","","","","","","","",""
"","text","51","833656","0.0-31.0","21772469","wem/bandit_either_2","A320FDQ5EW0PM2","either","4","5219","","32","","","","","","","","","","","","","","","","","","","","","","","","","","","","","","","","","","",""
"","text","52","836080","0.0-32.0","21772469","wem/bandit_either_2","A320FDQ5EW0PM2","either","4","2416","","32","","","","","","","","","","","","","","","","","","","","","","","","","","","","","","","","","","",""
"","text","53","868340","0.0-33.0","21772469","wem/bandit_either_2","A320FDQ5EW0PM2","either","4","32247","","32","","","","","","","","","","","","","","","","","","","","","","","","","","","","","","","","","","",""
"","bandit","54","871807","0.0-34.0-0.0","21772469","wem/bandit_either_2","A320FDQ5EW0PM2","either","4","1936","","","","","","","0","1","0","","0.8","0.5","0.5","0.5","0.5","0.8","0.2","0.6","0.2","","","","","","","","","","","","72","H","0","img/none_selected.jpg","true","0","full_practice"
"","bandit","55","875615","0.0-34.0-1.0","21772469","wem/bandit_either_2","A320FDQ5EW0PM2","either","4","2294","","","","","","","0","0","1","","0.2","0.5","0.5","0.5","0.5","0.8","0.2","0.6","0.2","","","","","","","","","","","","74","J","1","","true","0","full_practice"
"","bandit","56","878254","0.0-34.0-2.0","21772469","wem/bandit_either_2","A320FDQ5EW0PM2","either","4","1096","","","","","","","0","0","1","0.6","","0.5","0.5","0.5","0.5","","","","","0.8","0.2","0.6","0.2","","","","","","","","75","K","2","","true","0","full_practice"
"","bandit","57","880290","0.0-34.0-3.0","21772469","wem/bandit_either_2","A320FDQ5EW0PM2","either","4","484","","","","","","","0","0","1","","0.2","0.5","0.5","0.5","0.5","0.8","0.2","0.6","0.2","","","","","","","","","","","","76","L","3","","true","0","full_practice"
"","bandit","58","882461","0.0-34.0-4.0","21772469","wem/bandit_either_2","A320FDQ5EW0PM2","either","4","646","","","","","","","1","0","0","0.8","","0.5","0.5","0.5","0.5","","","","","0.8","0.2","0.6","0.2","","","","","","","","72","H","0","img/none_selected.jpg","true","0","full_practice"
"","bandit","59","885043","0.0-34.0-5.0","21772469","wem/bandit_either_2","A320FDQ5EW0PM2","either","4","1046","","","","","","","0","1","0","","0.8","0.5","0.5","0.5","0.5","0.8","0.2","0.6","0.2","","","","","","","","","","","","72","H","0","img/none_selected.jpg","true","0","full_practice"
"","bandit","60","887867","0.0-34.0-6.0","21772469","wem/bandit_either_2","A320FDQ5EW0PM2","either","4","1270","","","","","","","1","0","0","0.8","","0.5","0.5","0.5","0.5","","","","","0.8","0.2","0.6","0.2","","","","","","","","72","H","0","img/none_selected.jpg","true","0","full_practice"
"","bandit","61","890472","0.0-34.0-7.0","21772469","wem/bandit_either_2","A320FDQ5EW0PM2","either","4","1093","","","","","","","1","0","0","0.8","","0.5","0.5","0.5","0.5","","","","","0.8","0.2","0.6","0.2","","","","","","","","72","H","0","img/none_selected.jpg","true","0","full_practice"
"","bandit","62","893283","0.0-34.0-8.0","21772469","wem/bandit_either_2","A320FDQ5EW0PM2","either","4","1260","","","","","","","0","1","0","","0.8","0.5","0.5","0.5","0.5","0.8","0.2","0.6","0.2","","","","","","","","","","","","72","H","0","img/none_selected.jpg","true","0","full_practice"
"","bandit","63","896221","0.0-34.0-9.0","21772469","wem/bandit_either_2","A320FDQ5EW0PM2","either","4","1390","","","","","","","0","1","0","","0.8","0.5","0.5","0.5","0.5","0.8","0.2","0.6","0.2","","","","","","","","","","","","72","H","0","img/none_selected.jpg","true","0","full_practice"
"","bandit","64","899300","0.0-34.0-10.0","21772469","wem/bandit_either_2","A320FDQ5EW0PM2","either","4","1536","","","","","","","1","0","0","0.8","","0.5","0.5","0.5","0.5","","","","","0.8","0.2","0.6","0.2","","","","","","","","72","H","0","img/none_selected.jpg","true","0","full_practice"
"","bandit","65","902211","0.0-34.0-11.0","21772469","wem/bandit_either_2","A320FDQ5EW0PM2","either","4","1385","","","","","","","1","0","0","0.8","","0.5","0.5","0.5","0.5","","","","","0.8","0.2","0.6","0.2","","","","","","","","72","H","0","img/none_selected.jpg","true","0","full_practice"
"","bandit","66","904703","0.0-34.0-12.0","21772469","wem/bandit_either_2","A320FDQ5EW0PM2","either","4","973","","","","","","","0","0","1","","0.8","0.5","0.5","0.5","0.5","0.8","0.2","0.6","0.2","","","","","","","","","","","","72","H","0","img/none_selected.jpg","true","0","full_practice"
"","bandit","67","907237","0.0-34.0-13.0","21772469","wem/bandit_either_2","A320FDQ5EW0PM2","either","4","992","","","","","","","0","1","0","","0.8","0.5","0.5","0.5","0.5","0.8","0.2","0.6","0.2","","","","","","","","","","","","72","H","0","img/none_selected.jpg","true","0","full_practice"
"","bandit","68","909832","0.0-34.0-14.0","21772469","wem/bandit_either_2","A320FDQ5EW0PM2","either","4","1057","","","","","","","1","0","0","0.8","","0.5","0.5","0.5","0.5","","","","","0.8","0.2","0.6","0.2","","","","","","","","72","H","0","img/none_selected.jpg","true","0","full_practice"
"","bandit","69","912609","0.0-34.0-15.0","21772469","wem/bandit_either_2","A320FDQ5EW0PM2","either","4","1220","","","","","","","1","0","0","0.8","","0.5","0.5","0.5","0.5","","","","","0.8","0.2","0.6","0.2","","","","","","","","72","H","0","img/none_selected.jpg","true","0","full_practice"
"","bandit","70","915082","0.0-34.0-16.0","21772469","wem/bandit_either_2","A320FDQ5EW0PM2","either","4","944","","","","","","","0","1","0","","0.8","0.5","0.5","0.5","0.5","0.8","0.2","0.6","0.2","","","","","","","","","","","","72","H","0","img/none_selected.jpg","true","0","full_practice"
"","bandit","71","917261","0.0-34.0-17.0","21772469","wem/bandit_either_2","A320FDQ5EW0PM2","either","4","623","","","","","","","1","0","0","0.8","","0.5","0.5","0.5","0.5","","","","","0.8","0.2","0.6","0.2","","","","","","","","72","H","0","img/none_selected.jpg","true","0","full_practice"
"","bandit","72","919537","0.0-34.0-18.0","21772469","wem/bandit_either_2","A320FDQ5EW0PM2","either","4","742","","","","","","","0","1","0","","0.8","0.5","0.5","0.5","0.5","0.8","0.2","0.6","0.2","","","","","","","","","","","","72","H","0","img/none_selected.jpg","true","0","full_practice"
"","bandit","73","921490","0.0-34.0-19.0","21772469","wem/bandit_either_2","A320FDQ5EW0PM2","either","4","437","","","","","","","0","1","0","","0.8","0.5","0.5","0.5","0.5","0.8","0.2","0.6","0.2","","","","","","","","","","","","72","H","0","img/none_selected.jpg","true","0","full_practice"
"","text","74","925485","0.0-35.0","21772469","wem/bandit_either_2","A320FDQ5EW0PM2","either","4","3967","","32","","","","","","","","","","","","","","","","","","","","","","","","","","","","","","","","","","",""
"","text","75","963931","0.0-36.0","21772469","wem/bandit_either_2","A320FDQ5EW0PM2","either","4","37417","","32","","","","","","","","","","","","","","","","","","","","","","","","","","","","","","","","","","",""
"","text","76","976095","0.0-37.0","21772469","wem/bandit_either_2","A320FDQ5EW0PM2","either","4","12147","","32","","","","","","","","","","","","","","","","","","","","","","","","","","","","","","","","","","",""
"","text","77","983471","0.0-38.0","21772469","wem/bandit_either_2","A320FDQ5EW0PM2","either","4","7366","","32","","","","","","","","","","","","","","","","","","","","","","","","","","","","","","","","","","",""
"","text","78","990956","0.0-39.0","21772469","wem/bandit_either_2","A320FDQ5EW0PM2","either","4","7464","","32","","","","","","","","","","","","","","","","","","","","","","","","","","","","","","","","","","",""
"","text","79","998527","0.0-40.0","21772469","wem/bandit_either_2","A320FDQ5EW0PM2","either","4","7560","","32","","","","","","","","","","","","","","","","","","","","","","","","","","","","","","","","","","",""
"","bandit","80","1001594","0.0-41.0-0.0","21772469","wem/bandit_either_2","A320FDQ5EW0PM2","either","4","1514","","","","","","","0","0","1","","0.3894728165","0.4","0.8","0.6","0.2","0.3894728165","0.3525715257","0.3242650943","0.2771551185","","","","","","","","","","","","72","H","0","img/none_selected.jpg","","1","main_expt"
"","bandit","81","1004638","0.0-42.0-0.0","21772469","wem/bandit_either_2","A320FDQ5EW0PM2","either","4","1510","","","","","","","0","0","1","","0.390153736","0.4","0.8","0.6","0.2","0.363660736","0.390153736","0.3296228245","0.3030893157","","","","","","","","","","","","74","J","1","","","2","main_expt"
"","bandit","82","1007012","0.0-43.0-0.0","21772469","wem/bandit_either_2","A320FDQ5EW0PM2","either","4","835","","","","","","","0","0","1","","0.3102780753","0.4","0.8","0.6","0.2","0.3842171554","0.3725447061","0.3102780753","0.3211059343","","","","","","","","","","","","75","K","2","","","3","main_expt"
"","bandit","83","1008909","0.0-44.0-0.0","21772469","wem/bandit_either_2","A320FDQ5EW0PM2","either","4","354","","","","","","","0","0","1","","0.2804386453","0.4","0.8","0.6","0.2","0.3831963053","0.3431524481","0.2749892112","0.2804386453","","","","","","","","","","","","76","L","3","","","4","main_expt"
"","bandit","84","1010978","0.0-45.0-0.0","21772469","wem/bandit_either_2","A320FDQ5EW0PM2","either","4","527","","","","","","","0","0","1","","0.4056596471","0.4","0.8","0.6","0.2","0.4056596471","0.3448007793","0.3037824898","0.2609559086","","","","","","","","","","","","72","H","0","img/none_selected.jpg","","5","main_expt"
"","bandit","85","1012859","0.0-46.0-0.0","21772469","wem/bandit_either_2","A320FDQ5EW0PM2","either","4","335","","","","","","","1","0","0","0.4409946319","","0.4","0.8","0.6","0.2","","","","","0.4409946319","0.3980888019","0.3217417103","0.2259287768","","","","","","","","72","H","0","img/none_selected.jpg","","6","main_expt"
"","bandit","86","1015523","0.0-47.0-0.0","21772469","wem/bandit_either_2","A320FDQ5EW0PM2","either","4","1120","","","","","","","0","0","1","0.3821747998","","0.4","0.8","0.6","0.2","","","","","0.3821747998","0.3693121862","0.3018715163","0.2433618728","","","","","","","","72","H","0","img/none_selected.jpg","","7","main_expt"
"","bandit","87","1018064","0.0-48.0-0.0","21772469","wem/bandit_either_2","A320FDQ5EW0PM2","either","4","988","","","","","","","0","0","1","0.3841844813","","0.4","0.8","0.6","0.2","","","","","0.3841844813","0.2933697555","0.3643645816","0.2025356769","","","","","","","","72","H","0","img/none_selected.jpg","","8","main_expt"
"","bandit","88","1020399","0.0-49.0-0.0","21772469","wem/bandit_either_2","A320FDQ5EW0PM2","either","4","780","","","","","","","0","0","1","0.3412237964","","0.4","0.8","0.6","0.2","","","","","0.3412237964","0.3036212831","0.3418610374","0.1441028094","","","","","","","","72","H","0","img/none_selected.jpg","","9","main_expt"
"","bandit","89","1022417","0.0-50.0-0.0","21772469","wem/bandit_either_2","A320FDQ5EW0PM2","either","4","493","","","","","","","1","0","0","0.308020301","","0.4","0.8","0.6","0.2","","","","","0.3256420777","0.308020301","0.3190157878","0.1736005971","","","","","","","","74","J","1","","","10","main_expt"
"","bandit","90","1024883","0.0-51.0-0.0","21772469","wem/bandit_either_2","A320FDQ5EW0PM2","either","4","912","","","","","","","0","0","1","0.3065973113","","0.4","0.8","0.6","0.2","","","","","0.3514007431","0.3065973113","0.2998731478","0.1836365694","","","","","","","","74","J","1","","","11","main_expt"
"","bandit","91","1027179","0.0-52.0-0.0","21772469","wem/bandit_either_2","A320FDQ5EW0PM2","either","4","741","","","","","","","0","0","1","","0.3271859636","0.4","0.8","0.6","0.2","0.3722032088","0.3271859636","0.2942822571","0.2143869662","","","","","","","","","","","","74","J","1","","","12","main_expt"
"","bandit","92","1029242","0.0-53.0-0.0","21772469","wem/bandit_either_2","A320FDQ5EW0PM2","either","4","511","","","","","","","1","0","0","0.2761076709","","0.4","0.8","0.6","0.2","","","","","0.3681707299","0.2761076709","0.3009212619","0.1637139448","","","","","","","","74","J","1","","","13","main_expt"
"","bandit","93","1031694","0.0-54.0-0.0","21772469","wem/bandit_either_2","A320FDQ5EW0PM2","either","4","908","","","","","","","0","0","1","0.2311164494","","0.4","0.8","0.6","0.2","","","","","0.3528222564","0.2311164494","0.3227424667","0.1488535162","","","","","","","","74","J","1","","","14","main_expt"
"","bandit","94","1033683","0.0-55.0-0.0","21772469","wem/bandit_either_2","A320FDQ5EW0PM2","either","4","454","","","","","","","0","0","1","0.2905977425","","0.4","0.8","0.6","0.2","","","","","0.3738838661","0.2905977425","0.3547546862","0.1332411271","","","","","","","","74","J","1","","","15","main_expt"
"","bandit","95","1035950","0.0-56.0-0.0","21772469","wem/bandit_either_2","A320FDQ5EW0PM2","either","4","735","","","","","","","0","0","1","","0.2924554969","0.4","0.8","0.6","0.2","0.3385239332","0.2924554969","0.3241157583","0.09882415698","","","","","","","","","","","","74","J","1","","","16","main_expt"
"","bandit","96","1038335","0.0-57.0-0.0","21772469","wem/bandit_either_2","A320FDQ5EW0PM2","either","4","850","","","","","","","0","0","1","0.3363410386","","0.4","0.8","0.6","0.2","","","","","0.3111355138","0.3114836302","0.3363410386","0.1069157009","","","","","","","","75","K","2","","","17","main_expt"
"","bandit","97","1040366","0.0-58.0-0.0","21772469","wem/bandit_either_2","A320FDQ5EW0PM2","either","4","493","","","","","","","0","0","1","0.3880947854","","0.4","0.8","0.6","0.2","","","","","0.3487767647","0.3215333475","0.3880947854","0.134958137","","","","","","","","75","K","2","","","18","main_expt"
"","bandit","98","1042340","0.0-59.0-0.0","21772469","wem/bandit_either_2","A320FDQ5EW0PM2","either","4","425","","","","","","","0","0","1","","0.4116912081","0.4","0.8","0.6","0.2","0.3010303499","0.2733398822","0.4116912081","0.1230418706","","","","","","","","","","","","75","K","2","","","19","main_expt"
"","bandit","99","1044034","0.0-60.0-0.0","21772469","wem/bandit_either_2","A320FDQ5EW0PM2","either","4","124","","","","","","","0","0","1","0.3973894305","","0.4","0.8","0.6","0.2","","","","","0.2907203997","0.2351410235","0.3973894305","0.09866604889","","","","","","","","75","K","2","","","20","main_expt"
"","bandit","100","1046172","0.0-61.0-0.0","21772469","wem/bandit_either_2","A320FDQ5EW0PM2","either","4","603","","","","","","","0","0","1","0.1021222834","","0.4","0.8","0.6","0.2","","","","","0.3088108907","0.2257810982","0.369037109","0.1021222834","","","","","","","","76","L","3","","","21","main_expt"
"","bandit","101","1048703","0.0-62.0-0.0","21772469","wem/bandit_either_2","A320FDQ5EW0PM2","either","4","995","","","","","","","0","0","1","0.1234138809","","0.4","0.8","0.6","0.2","","","","","0.349202701","0.2221856846","0.4179468344","0.1234138809","","","","","","","","76","L","3","","","22","main_expt"
"","bandit","102","1050295","0.0-63.0-0.0","21772469","wem/bandit_either_2","A320FDQ5EW0PM2","either","4","45","","","","","","","0","0","1","","0.1030640584","0.4","0.8","0.6","0.2","0.3785068464","0.2127124712","0.4276062926","0.1030640584","","","","","","","","","","","","76","L","3","","","23","main_expt"
"","bandit","103","1052181","0.0-64.0-0.0","21772469","wem/bandit_either_2","A320FDQ5EW0PM2","either","4","352","","","","","","","0","0","1","0.1882566648","","0.4","0.8","0.6","0.2","","","","","0.4012919653","0.1882566648","0.4078122208","0.1261035851","","","","","","","","74","J","1","","","24","main_expt"
"","bandit","104","1054411","0.0-65.0-0.0","21772469","wem/bandit_either_2","A320FDQ5EW0PM2","either","4","665","","","","","","","0","0","1","","0.400899794","0.4","0.8","0.6","0.2","0.400899794","0.1273223766","0.3950411191","0.1796705612","","","","","","","","","","","","72","H","0","img/none_selected.jpg","","25","main_expt"
"","bandit","105","1056362","0.0-66.0-0.0","21772469","wem/bandit_either_2","A320FDQ5EW0PM2","either","4","391","","","","","","","0","1","0","","0.4126274585","0.4","0.8","0.6","0.2","0.4126274585","0.15747458","0.4322303329","0.2414651519","","","","","","","","","","","","72","H","0","img/none_selected.jpg","","26","main_expt"
"","bandit","106","1058578","0.0-67.0-0.0","21772469","wem/bandit_either_2","A320FDQ5EW0PM2","either","4","684","","","","","","","0","0","1","","0.3992263875","0.4","0.8","0.6","0.2","0.3992263875","0.1442684908","0.4353643722","0.2005374927","","","","","","","","","","","","72","H","0","img/none_selected.jpg","","27","main_expt"
"","bandit","107","1060549","0.0-68.0-0.0","21772469","wem/bandit_either_2","A320FDQ5EW0PM2","either","4","435","","","","","","","0","0","1","0.3846584236","","0.4","0.8","0.6","0.2","","","","","0.3846584236","0.2255404594","0.4464017809","0.3197257227","","","","","","","","72","H","0","img/none_selected.jpg","","28","main_expt"
"","bandit","108","1062429","0.0-69.0-0.0","21772469","wem/bandit_either_2","A320FDQ5EW0PM2","either","4","326","","","","","","","0","0","1","","0.3561298134","0.4","0.8","0.6","0.2","0.3561298134","0.2730951691","0.4417109462","0.3141869899","","","","","","","","","","","","72","H","0","img/none_selected.jpg","","29","main_expt"
"","bandit","109","1064629","0.0-70.0-0.0","21772469","wem/bandit_either_2","A320FDQ5EW0PM2","either","4","661","","","","","","","0","1","0","","0.2890412698","0.4","0.8","0.6","0.2","0.3101363315","0.2890412698","0.4065908859","0.3445991012","","","","","","","","","","","","74","J","1","","","30","main_expt"
"","bandit","110","1066896","0.0-71.0-0.0","21772469","wem/bandit_either_2","A320FDQ5EW0PM2","either","4","721","","","","","","","1","0","0","0.3309226042","","0.4","0.8","0.6","0.2","","","","","0.3322219809","0.3309226042","0.3954582793","0.3456655029","","","","","","","","74","J","1","","","31","main_expt"
"","bandit","111","1069024","0.0-72.0-0.0","21772469","wem/bandit_either_2","A320FDQ5EW0PM2","either","4","591","","","","","","","1","0","0","0.3519301717","","0.4","0.8","0.6","0.2","","","","","0.3516269472","0.3519301717","0.3716723047","0.3826172224","","","","","","","","74","J","1","","","32","main_expt"
"","bandit","112","1071282","0.0-73.0-0.0","21772469","wem/bandit_either_2","A320FDQ5EW0PM2","either","4","707","","","","","","","0","0","1","0.3414953842","","0.4","0.8","0.6","0.2","","","","","0.3852085553","0.3414953842","0.3799724366","0.3804083149","","","","","","","","74","J","1","","","33","main_expt"
"","bandit","113","1073297","0.0-74.0-0.0","21772469","wem/bandit_either_2","A320FDQ5EW0PM2","either","4","482","","","","","","","0","0","1","0.2938412915","","0.4","0.8","0.6","0.2","","","","","0.4196644934","0.2938412915","0.409480615","0.3808178469","","","","","","","","74","J","1","","","34","main_expt"
"","bandit","114","1075554","0.0-75.0-0.0","21772469","wem/bandit_either_2","A320FDQ5EW0PM2","either","4","704","","","","","","","0","0","1","0.2256616696","","0.4","0.8","0.6","0.2","","","","","0.420891004","0.2256616696","0.3869649509","0.376129724","","","","","","","","74","J","1","","","35","main_expt"
"","bandit","115","1077851","0.0-76.0-0.0","21772469","wem/bandit_either_2","A320FDQ5EW0PM2","either","4","776","","","","","","","0","0","1","0.2525957923","","0.4","0.8","0.6","0.2","","","","","0.3808881167","0.2525957923","0.3045389962","0.4027809904","","","","","","","","74","J","1","","","36","main_expt"
"","bandit","116","1079927","0.0-77.0-0.0","21772469","wem/bandit_either_2","A320FDQ5EW0PM2","either","4","529","","","","","","","0","0","1","","0.3634360393","0.4","0.8","0.6","0.2","0.3634360393","0.2333373749","0.2954217214","0.3715556026","","","","","","","","","","","","72","H","0","img/none_selected.jpg","","37","main_expt"
"","bandit","117","1082280","0.0-78.0-0.0","21772469","wem/bandit_either_2","A320FDQ5EW0PM2","either","4","798","","","","","","","1","0","0","0.3432691328","","0.4","0.8","0.6","0.2","","","","","0.3432691328","0.2126884676","0.2749906923","0.354842885","","","","","","","","72","H","0","img/none_selected.jpg","","38","main_expt"
"","bandit","118","1084819","0.0-79.0-0.0","21772469","wem/bandit_either_2","A320FDQ5EW0PM2","either","4","982","","","","","","","0","0","1","","0.3113322025","0.4","0.8","0.6","0.2","0.3113322025","0.212498526","0.2911873598","0.3066825603","","","","","","","","","","","","72","H","0","img/none_selected.jpg","","39","main_expt"
"","bandit","119","1086712","0.0-80.0-0.0","21772469","wem/bandit_either_2","A320FDQ5EW0PM2","either","4","358","","","","","","","0","0","1","","0.3298138996","0.4","0.8","0.6","0.2","0.3298138996","0.2031275136","0.3066149412","0.3208648015","","","","","","","","","","","","72","H","0","img/none_selected.jpg","","40","main_expt"
"","bandit","120","1088274","0.0-81.0-0.0","21772469","wem/bandit_either_2","A320FDQ5EW0PM2","either","4","11","","","","","","","1","0","0","0.3590557929","","0.4","0.8","0.6","0.2","","","","","0.3590557929","0.2409224204","0.2612722093","0.2774570704","","","","","","","","72","H","0","img/none_selected.jpg","","41","main_expt"
"","bandit","121","1090390","0.0-82.0-0.0","21772469","wem/bandit_either_2","A320FDQ5EW0PM2","either","4","570","","","","","","","0","0","1","","0.3455434044","0.4","0.8","0.6","0.2","0.3455434044","0.2166695961","0.2579482203","0.3092882543","","","","","","","","","","","","72","H","0","img/none_selected.jpg","","42","main_expt"
"","bandit","122","1092352","0.0-83.0-0.0","21772469","wem/bandit_either_2","A320FDQ5EW0PM2","either","4","431","","","","","","","0","0","1","","0.4020043176","0.4","0.8","0.6","0.2","0.4020043176","0.2314197793","0.2232302517","0.3161251671","","","","","","","","","","","","72","H","0","img/none_selected.jpg","","43","main_expt"
"","bandit","123","1094636","0.0-84.0-0.0","21772469","wem/bandit_either_2","A320FDQ5EW0PM2","either","4","728","","","","","","","0","0","1","","0.4088695108","0.4","0.8","0.6","0.2","0.4088695108","0.1889371852","0.2435669349","0.3032549762","","","","","","","","","","","","72","H","0","img/none_selected.jpg","","44","main_expt"
"","bandit","124","1096801","0.0-85.0-0.0","21772469","wem/bandit_either_2","A320FDQ5EW0PM2","either","4","613","","","","","","","0","1","0","","0.3914045207","0.4","0.8","0.6","0.2","0.3914045207","0.2152104473","0.1885724617","0.3012359134","","","","","","","","","","","","72","H","0","img/none_selected.jpg","","45","main_expt"
"","bandit","125","1099198","0.0-86.0-0.0","21772469","wem/bandit_either_2","A320FDQ5EW0PM2","either","4","856","","","","","","","0","0","1","0.3682142312","","0.4","0.8","0.6","0.2","","","","","0.3682142312","0.2260726972","0.104230756","0.2994346937","","","","","","","","72","H","0","img/none_selected.jpg","","46","main_expt"
"","bandit","126","1101343","0.0-87.0-0.0","21772469","wem/bandit_either_2","A320FDQ5EW0PM2","either","4","604","","","","","","","0","0","1","","0.3462276735","0.4","0.8","0.6","0.2","0.3462276735","0.2330399618","0.09013225529","0.3169549043","","","","","","","","","","","","72","H","0","img/none_selected.jpg","","47","main_expt"
"","bandit","127","1103293","0.0-88.0-0.0","21772469","wem/bandit_either_2","A320FDQ5EW0PM2","either","4","423","","","","","","","0","1","0","","0.3501405617","0.4","0.8","0.6","0.2","0.3501405617","0.2769685944","0.1066227192","0.3137179834","","","","","","","","","","","","72","H","0","img/none_selected.jpg","","48","main_expt"
"","bandit","128","1105949","0.0-89.0-0.0","21772469","wem/bandit_either_2","A320FDQ5EW0PM2","either","4","1114","","","","","","","0","0","1","0.3607669766","","0.4","0.8","0.6","0.2","","","","","0.3607669766","0.2954986192","0.1273062614","0.3026837323","","","","","","","","72","H","0","img/none_selected.jpg","","49","main_expt"
"","bandit","129","1107975","0.0-90.0-0.0","21772469","wem/bandit_either_2","A320FDQ5EW0PM2","either","4","475","","","","","","","0","0","1","0.3776327681","","0.4","0.8","0.6","0.2","","","","","0.3776327681","0.2730110453","0.08158159543","0.2690248343","","","","","","","","72","H","0","img/none_selected.jpg","","50","main_expt"
"","bandit","130","1109931","0.0-91.0-0.0","21772469","wem/bandit_either_2","A320FDQ5EW0PM2","either","4","394","","","","","","","0","0","1","","0.3922012959","0.4","0.8","0.6","0.2","0.3922012959","0.2672659715","0.08035098666","0.2407215714","","","","","","","","","","","","72","H","0","img/none_selected.jpg","","51","main_expt"
"","bandit","131","1111994","0.0-92.0-0.0","21772469","wem/bandit_either_2","A320FDQ5EW0PM2","either","4","497","","","","","","","0","0","1","0.2552972095","","0.4","0.8","0.6","0.2","","","","","0.3532085343","0.2552972095","0.1007468434","0.2758158767","","","","","","","","74","J","1","","","52","main_expt"
"","bandit","132","1114115","0.0-93.0-0.0","21772469","wem/bandit_either_2","A320FDQ5EW0PM2","either","4","584","","","","","","","0","0","1","","0.1954439593","0.4","0.8","0.6","0.2","0.3597378762","0.1954439593","0.1479770317","0.2661511239","","","","","","","","","","","","74","J","1","","","53","main_expt"
"","bandit","133","1116363","0.0-94.0-0.0","21772469","wem/bandit_either_2","A320FDQ5EW0PM2","either","4","708","","","","","","","0","0","1","0.1250298759","","0.4","0.8","0.6","0.2","","","","","0.3553644404","0.1250298759","0.1450389045","0.250303373","","","","","","","","74","J","1","","","54","main_expt"
"","bandit","134","1118078","0.0-95.0-0.0","21772469","wem/bandit_either_2","A320FDQ5EW0PM2","either","4","193","","","","","","","0","0","1","0.1678096349","","0.4","0.8","0.6","0.2","","","","","0.3427354451","0.1224949652","0.1678096349","0.1850572083","","","","","","","","75","K","2","","","55","main_expt"
"","bandit","135","1119980","0.0-96.0-0.0","21772469","wem/bandit_either_2","A320FDQ5EW0PM2","either","4","343","","","","","","","1","0","0","0.1748395718","","0.4","0.8","0.6","0.2","","","","","0.3158877586","0.1312048923","0.1748395718","0.2410157884","","","","","","","","75","K","2","","","56","main_expt"
"","bandit","136","1122485","0.0-97.0-0.0","21772469","wem/bandit_either_2","A320FDQ5EW0PM2","either","4","966","","","","","","","0","0","1","0.146986137","","0.4","0.8","0.6","0.2","","","","","0.3224611445","0.14452077","0.146986137","0.2657224069","","","","","","","","75","K","2","","","57","main_expt"
"","bandit","137","1124430","0.0-98.0-0.0","21772469","wem/bandit_either_2","A320FDQ5EW0PM2","either","4","414","","","","","","","0","0","1","","0.1316135006","0.4","0.8","0.6","0.2","0.3378672788","0.1198415177","0.1316135006","0.2361308133","","","","","","","","","","","","75","K","2","","","58","main_expt"
"","bandit","138","1126632","0.0-99.0-0.0","21772469","wem/bandit_either_2","A320FDQ5EW0PM2","either","4","665","","","","","","","0","0","1","0.1776120447","","0.4","0.8","0.6","0.2","","","","","0.3438075972","0.1674914914","0.1776120447","0.2078360154","","","","","","","","75","K","2","","","59","main_expt"
"","bandit","139","1128579","0.0-100.0-0.0","21772469","wem/bandit_either_2","A320FDQ5EW0PM2","either","4","387","","","","","","","0","0","1","0.2034864675","","0.4","0.8","0.6","0.2","","","","","0.2950987239","0.147959707","0.2034864675","0.2256957235","","","","","","","","75","K","2","","","60","main_expt"
"","bandit","140","1130517","0.0-101.0-0.0","21772469","wem/bandit_either_2","A320FDQ5EW0PM2","either","4","390","","","","","","","0","0","1","0.1325668513","","0.4","0.8","0.6","0.2","","","","","0.2939622289","0.1217284172","0.1325668513","0.2713547376","","","","","","","","75","K","2","","","61","main_expt"
"","bandit","141","1133037","0.0-102.0-0.0","21772469","wem/bandit_either_2","A320FDQ5EW0PM2","either","4","959","","","","","","","0","0","1","","0.1392905859","0.4","0.8","0.6","0.2","0.2907096119","0.1392905859","0.125492747","0.2800078023","","","","","","","","","","","","74","J","1","","","62","main_expt"
"","bandit","142","1135256","0.0-103.0-0.0","21772469","wem/bandit_either_2","A320FDQ5EW0PM2","either","4","660","","","","","","","0","0","1","0.1953314019","","0.4","0.8","0.6","0.2","","","","","0.2696382907","0.1953314019","0.1081989139","0.362183352","","","","","","","","74","J","1","","","63","main_expt"
"","bandit","143","1137244","0.0-104.0-0.0","21772469","wem/bandit_either_2","A320FDQ5EW0PM2","either","4","450","","","","","","","1","0","0","0.2496415039","","0.4","0.8","0.6","0.2","","","","","0.2496415039","0.2618523415","0.09104284411","0.3354395381","","","","","","","","72","H","0","img/none_selected.jpg","","64","main_expt"
"","bandit","144","1140266","0.0-105.0-0.0","21772469","wem/bandit_either_2","A320FDQ5EW0PM2","either","4","1485","","","","","","","0","0","1","0.2364994079","","0.4","0.8","0.6","0.2","","","","","0.2364994079","0.2686672798","0.1264903162","0.2893845237","","","","","","","","72","H","0","img/none_selected.jpg","","65","main_expt"
"","bandit","145","1143299","0.0-106.0-0.0","21772469","wem/bandit_either_2","A320FDQ5EW0PM2","either","4","1486","","","","","","","0","0","1","0.2541683514","","0.4","0.8","0.6","0.2","","","","","0.2541683514","0.2451656397","0.1665937301","0.2355717356","","","","","","","","72","H","0","img/none_selected.jpg","","66","main_expt"
"","bandit","146","1145397","0.0-107.0-0.0","21772469","wem/bandit_either_2","A320FDQ5EW0PM2","either","4","543","","","","","","","0","0","1","","0.2985471382","0.4","0.8","0.6","0.2","0.2985471382","0.2445320338","0.1740025863","0.2848755716","","","","","","","","","","","","72","H","0","img/none_selected.jpg","","67","main_expt"
"","bandit","147","1147475","0.0-108.0-0.0","21772469","wem/bandit_either_2","A320FDQ5EW0PM2","either","4","527","","","","","","","0","0","1","","0.3391290389","0.4","0.8","0.6","0.2","0.3391290389","0.2261158315","0.2300011382","0.3341158043","","","","","","","","","","","","72","H","0","img/none_selected.jpg","","68","main_expt"
"","bandit","148","1149619","0.0-109.0-0.0","21772469","wem/bandit_either_2","A320FDQ5EW0PM2","either","4","600","","","","","","","0","1","0","","0.1768594062","0.4","0.8","0.6","0.2","0.3114764975","0.1627286519","0.1768594062","0.3253412689","","","","","","","","","","","","75","K","2","","","69","main_expt"
"","bandit","149","1151983","0.0-110.0-0.0","21772469","wem/bandit_either_2","A320FDQ5EW0PM2","either","4","833","","","","","","","0","0","1","","0.1906145184","0.4","0.8","0.6","0.2","0.3056328376","0.1301009224","0.1906145184","0.3280915152","","","","","","","","","","","","75","K","2","","","70","main_expt"
"","bandit","150","1154305","0.0-111.0-0.0","21772469","wem/bandit_either_2","A320FDQ5EW0PM2","either","4","760","","","","","","","0","0","1","","0.1451664327","0.4","0.8","0.6","0.2","0.3445325487","0.1356707761","0.1451664327","0.3772643828","","","","","","","","","","","","75","K","2","","","71","main_expt"
"","bandit","151","1156344","0.0-112.0-0.0","21772469","wem/bandit_either_2","A320FDQ5EW0PM2","either","4","467","","","","","","","0","0","1","0.1091447996","","0.4","0.8","0.6","0.2","","","","","0.364612409","0.1045412551","0.1091447996","0.4074174212","","","","","","","","75","K","2","","","72","main_expt"
"","bandit","152","1158257","0.0-113.0-0.0","21772469","wem/bandit_either_2","A320FDQ5EW0PM2","either","4","371","","","","","","","0","0","1","","0.3736299767","0.4","0.8","0.6","0.2","0.4454774056","0.0867882282","0.1248737042","0.3736299767","","","","","","","","","","","","76","L","3","","","73","main_expt"
"","bandit","153","1160341","0.0-114.0-0.0","21772469","wem/bandit_either_2","A320FDQ5EW0PM2","either","4","550","","","","","","","0","1","0","","0.383211712","0.4","0.8","0.6","0.2","0.4492830973","0.1018359722","0.1073746888","0.383211712","","","","","","","","","","","","76","L","3","","","74","main_expt"
"","bandit","154","1162919","0.0-115.0-0.0","21772469","wem/bandit_either_2","A320FDQ5EW0PM2","either","4","1028","","","","","","","0","0","1","","0.3681962321","0.4","0.8","0.6","0.2","0.449321966","0.09443707336","0.1051395745","0.3681962321","","","","","","","","","","","","76","L","3","","","75","main_expt"
"","bandit","155","1165179","0.0-116.0-0.0","21772469","wem/bandit_either_2","A320FDQ5EW0PM2","either","4","725","","","","","","","0","1","0","","0.3574328021","0.4","0.8","0.6","0.2","0.4299726132","0.08768691443","0.09171451076","0.3574328021","","","","","","","","","","","","76","L","3","","","76","main_expt"
"","bandit","156","1167574","0.0-117.0-0.0","21772469","wem/bandit_either_2","A320FDQ5EW0PM2","either","4","865","","","","","","","0","1","0","","0.4041720962","0.4","0.8","0.6","0.2","0.4349340462","0.07744448812","0.1256070833","0.4041720962","","","","","","","","","","","","76","L","3","","","77","main_expt"
"","bandit","157","1169845","0.0-118.0-0.0","21772469","wem/bandit_either_2","A320FDQ5EW0PM2","either","4","733","","","","","","","0","0","1","","0.4000946746","0.4","0.8","0.6","0.2","0.4112950215","0.05712631425","0.1398604905","0.4000946746","","","","","","","","","","","","76","L","3","","","78","main_expt"
"","bandit","158","1171759","0.0-119.0-0.0","21772469","wem/bandit_either_2","A320FDQ5EW0PM2","either","4","368","","","","","","","0","1","0","","0.425248604","0.4","0.8","0.6","0.2","0.4123046053","0.03981704588","0.1303191282","0.425248604","","","","","","","","","","","","76","L","3","","","79","main_expt"
"","bandit","159","1175386","0.0-120.0-0.0","21772469","wem/bandit_either_2","A320FDQ5EW0PM2","either","4","2057","","","","","","","0","0","1","","0.4263383456","0.4","0.8","0.6","0.2","0.4345430878","0.02961196177","0.1491340647","0.4263383456","","","","","","","","","","","","76","L","3","","","80","main_expt"
"","bandit","160","1177427","0.0-121.0-0.0","21772469","wem/bandit_either_2","A320FDQ5EW0PM2","either","4","515","","","","","","","0","0","1","","0.4377411966","0.4","0.8","0.6","0.2","0.4255274095","0.0408206899","0.1484119081","0.4377411966","","","","","","","","","","","","76","L","3","","","81","main_expt"
"","bandit","161","1179664","0.0-122.0-0.0","21772469","wem/bandit_either_2","A320FDQ5EW0PM2","either","4","692","","","","","","","1","0","0","0.4263216968","","0.4","0.8","0.6","0.2","","","","","0.4266934287","0.03491361241","0.135460029","0.4263216968","","","","","","","","76","L","3","","","82","main_expt"
"","bandit","162","1182120","0.0-123.0-0.0","21772469","wem/bandit_either_2","A320FDQ5EW0PM2","either","4","914","","","","","","","0","1","0","","0.4536492548","0.4","0.8","0.6","0.2","0.4321646522","0.01881925386","0.09497461961","0.4536492548","","","","","","","","","","","","76","L","3","","","83","main_expt"
"","bandit","163","1184406","0.0-124.0-0.0","21772469","wem/bandit_either_2","A320FDQ5EW0PM2","either","4","749","","","","","","","0","0","1","","0.4344769981","0.4","0.8","0.6","0.2","0.43129245","0.03441768066","0.0956585677","0.4344769981","","","","","","","","","","","","76","L","3","","","84","main_expt"
"","bandit","164","1186360","0.0-125.0-0.0","21772469","wem/bandit_either_2","A320FDQ5EW0PM2","either","4","411","","","","","","","0","0","1","","0.4167097255","0.4","0.8","0.6","0.2","0.4307495417","0.04015732792","0.08427930603","0.4167097255","","","","","","","","","","","","76","L","3","","","85","main_expt"
"","bandit","165","1188300","0.0-126.0-0.0","21772469","wem/bandit_either_2","A320FDQ5EW0PM2","either","4","407","","","","","","","0","1","0","","0.4215971904","0.4","0.8","0.6","0.2","0.4327415212","0.0462821445","0.09540141202","0.4215971904","","","","","","","","","","","","76","L","3","","","86","main_expt"
"","bandit","166","1190595","0.0-127.0-0.0","21772469","wem/bandit_either_2","A320FDQ5EW0PM2","either","4","758","","","","","","","0","0","1","0.3962725568","","0.4","0.8","0.6","0.2","","","","","0.4507305815","0.07236867375","0.06504543429","0.3962725568","","","","","","","","76","L","3","","","87","main_expt"
"","bandit","167","1192152","0.0-128.0-0.0","21772469","wem/bandit_either_2","A320FDQ5EW0PM2","either","4","22","","","","","","","0","0","1","","0.4038430626","0.4","0.8","0.6","0.2","0.4571393315","0.1132918069","0.05894337134","0.4038430626","","","","","","","","","","","","76","L","3","","","88","main_expt"
"","bandit","168","1194308","0.0-129.0-0.0","21772469","wem/bandit_either_2","A320FDQ5EW0PM2","either","4","574","","","","","","","0","1","0","","0.4247877058","0.4","0.8","0.6","0.2","0.4639779763","0.1466354559","0.06803635399","0.4247877058","","","","","","","","","","","","76","L","3","","","89","main_expt"
"","bandit","169","1196856","0.0-130.0-0.0","21772469","wem/bandit_either_2","A320FDQ5EW0PM2","either","4","1001","","","","","","","0","0","1","","0.4196700557","0.4","0.8","0.6","0.2","0.4620017245","0.1746819083","0.09657856289","0.4196700557","","","","","","","","","","","","76","L","3","","","90","main_expt"
"","bandit","170","1198822","0.0-131.0-0.0","21772469","wem/bandit_either_2","A320FDQ5EW0PM2","either","4","425","","","","","","","0","0","1","","0.401758082","0.4","0.8","0.6","0.2","0.4492963398","0.1864657318","0.08522031428","0.401758082","","","","","","","","","","","","76","L","3","","","91","main_expt"
"","bandit","171","1200708","0.0-132.0-0.0","21772469","wem/bandit_either_2","A320FDQ5EW0PM2","either","4","341","","","","","","","0","1","0","","0.3422099147","0.4","0.8","0.6","0.2","0.462009279","0.2124622091","0.07078380504","0.3422099147","","","","","","","","","","","","76","L","3","","","92","main_expt"
"","bandit","172","1203011","0.0-133.0-0.0","21772469","wem/bandit_either_2","A320FDQ5EW0PM2","either","4","770","","","","","","","0","0","1","","0.3279059742","0.4","0.8","0.6","0.2","0.4363090379","0.245786276","0.0564278809","0.3279059742","","","","","","","","","","","","76","L","3","","","93","main_expt"
"","bandit","173","1204941","0.0-134.0-0.0","21772469","wem/bandit_either_2","A320FDQ5EW0PM2","either","4","376","","","","","","","0","0","1","","0.3155724737","0.4","0.8","0.6","0.2","0.4457519602","0.2316759231","0.06067733924","0.3155724737","","","","","","","","","","","","76","L","3","","","94","main_expt"
"","bandit","174","1207182","0.0-135.0-0.0","21772469","wem/bandit_either_2","A320FDQ5EW0PM2","either","4","694","","","","","","","0","0","1","","0.3519625041","0.4","0.8","0.6","0.2","0.4231248902","0.2231756969","0.08632751489","0.3519625041","","","","","","","","","","","","76","L","3","","","95","main_expt"
"","bandit","175","1209283","0.0-136.0-0.0","21772469","wem/bandit_either_2","A320FDQ5EW0PM2","either","4","550","","","","","","","0","0","1","","0.4210676831","0.4","0.8","0.6","0.2","0.4210676831","0.1957128212","0.08481729553","0.3661455107","","","","","","","","","","","","72","H","0","img/none_selected.jpg","","96","main_expt"
"","bandit","176","1211183","0.0-137.0-0.0","21772469","wem/bandit_either_2","A320FDQ5EW0PM2","either","4","354","","","","","","","0","0","1","0.4022895305","","0.4","0.8","0.6","0.2","","","","","0.4022895305","0.1638116915","0.08386440452","0.3558031673","","","","","","","","72","H","0","img/none_selected.jpg","","97","main_expt"
"","bandit","177","1213185","0.0-138.0-0.0","21772469","wem/bandit_either_2","A320FDQ5EW0PM2","either","4","461","","","","","","","0","1","0","","0.4187351015","0.4","0.8","0.6","0.2","0.4187351015","0.1405816365","0.0940701929","0.3558230887","","","","","","","","","","","","72","H","0","img/none_selected.jpg","","98","main_expt"
"","bandit","178","1215270","0.0-139.0-0.0","21772469","wem/bandit_either_2","A320FDQ5EW0PM2","either","4","531","","","","","","","0","0","1","","0.3981340028","0.4","0.8","0.6","0.2","0.3981340028","0.1435678602","0.1285058524","0.3064708089","","","","","","","","","","","","72","H","0","img/none_selected.jpg","","99","main_expt"
"","bandit","179","1217223","0.0-140.0-0.0","21772469","wem/bandit_either_2","A320FDQ5EW0PM2","either","4","377","","","","","","","0","0","1","0.3520446815","","0.4","0.8","0.6","0.2","","","","","0.3520446815","0.1478754355","0.065882019","0.352498313","","","","","","","","72","H","0","img/none_selected.jpg","","100","main_expt"
"","bandit","180","1218783","0.0-141.0-0.0","21772469","wem/bandit_either_2","A320FDQ5EW0PM2","either","4","4","","","","","","","0","0","1","","0.3715523215","0.4","0.8","0.6","0.2","0.3715523215","0.1532559328","0.05692140794","0.3511810171","","","","","","","","","","","","72","H","0","img/none_selected.jpg","","101","main_expt"
"","bandit","181","1220465","0.0-142.0-0.0","21772469","wem/bandit_either_2","A320FDQ5EW0PM2","either","4","145","","","","","","","0","0","1","0.3966955113","","0.4","0.8","0.6","0.2","","","","","0.3966955113","0.15857411","0.04322280369","0.3246867477","","","","","","","","72","H","0","img/none_selected.jpg","","102","main_expt"
"","bandit","182","1222679","0.0-143.0-0.0","21772469","wem/bandit_either_2","A320FDQ5EW0PM2","either","4","645","","","","","","","0","0","1","0.1552377357","","0.4","0.8","0.6","0.2","","","","","0.3865714765","0.1552377357","0.05121437093","0.2827689756","","","","","","","","74","J","1","","","103","main_expt"
"","bandit","183","1224493","0.0-144.0-0.0","21772469","wem/bandit_either_2","A320FDQ5EW0PM2","either","4","282","","","","","","","0","0","1","0.1584193753","","0.4","0.8","0.6","0.2","","","","","0.3440646931","0.1584193753","0.06548077564","0.3307995119","","","","","","","","74","J","1","","","104","main_expt"
"","bandit","184","1226494","0.0-145.0-0.0","21772469","wem/bandit_either_2","A320FDQ5EW0PM2","either","4","447","","","","","","","0","0","1","0.192058402","","0.4","0.8","0.6","0.2","","","","","0.330981063","0.192058402","0.07577357845","0.3078297571","","","","","","","","74","J","1","","","105","main_expt"
"","bandit","185","1228449","0.0-146.0-0.0","21772469","wem/bandit_either_2","A320FDQ5EW0PM2","either","4","397","","","","","","","0","0","1","","0.1562344916","0.4","0.8","0.6","0.2","0.3317280627","0.1562344916","0.09041352565","0.3202685942","","","","","","","","","","","","74","J","1","","","106","main_expt"
"","bandit","186","1230228","0.0-147.0-0.0","21772469","wem/bandit_either_2","A320FDQ5EW0PM2","either","4","241","","","","","","","0","0","1","","0.1184921167","0.4","0.8","0.6","0.2","0.2760665195","0.1493116313","0.1184921167","0.3163418234","","","","","","","","","","","","75","K","2","","","107","main_expt"
"","bandit","187","1232198","0.0-148.0-0.0","21772469","wem/bandit_either_2","A320FDQ5EW0PM2","either","4","434","","","","","","","0","1","0","","0.1057615429","0.4","0.8","0.6","0.2","0.2826301941","0.1357435498","0.1057615429","0.3425943818","","","","","","","","","","","","75","K","2","","","108","main_expt"
"","bandit","188","1234533","0.0-149.0-0.0","21772469","wem/bandit_either_2","A320FDQ5EW0PM2","either","4","762","","","","","","","1","0","0","0.1464484126","","0.4","0.8","0.6","0.2","","","","","0.318117281","0.1164074326","0.1464484126","0.2852030557","","","","","","","","75","K","2","","","109","main_expt"
"","bandit","189","1236657","0.0-150.0-0.0","21772469","wem/bandit_either_2","A320FDQ5EW0PM2","either","4","574","","","","","","","0","0","1","0.1641354829","","0.4","0.8","0.6","0.2","","","","","0.3358587519","0.1444451916","0.1641354829","0.3392406975","","","","","","","","75","K","2","","","110","main_expt"
"","bandit","190","1238715","0.0-151.0-0.0","21772469","wem/bandit_either_2","A320FDQ5EW0PM2","either","4","508","","","","","","","0","1","0","","0.1386891192","0.4","0.8","0.6","0.2","0.3031660534","0.09905323685","0.1386891192","0.3023411017","","","","","","","","","","","","75","K","2","","","111","main_expt"
"","bandit","191","1240877","0.0-152.0-0.0","21772469","wem/bandit_either_2","A320FDQ5EW0PM2","either","4","610","","","","","","","0","0","1","","0.1847512065","0.4","0.8","0.6","0.2","0.2773548355","0.09652445584","0.1847512065","0.296849772","","","","","","","","","","","","75","K","2","","","112","main_expt"
"","bandit","192","1242832","0.0-153.0-0.0","21772469","wem/bandit_either_2","A320FDQ5EW0PM2","either","4","402","","","","","","","0","1","0","","0.1304555333","0.4","0.8","0.6","0.2","0.2370758425","0.09961189632","0.1304555333","0.2673419259","","","","","","","","","","","","75","K","2","","","113","main_expt"
"","bandit","193","1244796","0.0-154.0-0.0","21772469","wem/bandit_either_2","A320FDQ5EW0PM2","either","4","439","","","","","","","0","0","1","","0.1770102637","0.4","0.8","0.6","0.2","0.1821928837","0.1036139638","0.1770102637","0.2670531803","","","","","","","","","","","","75","K","2","","","114","main_expt"
"","bandit","194","1246710","0.0-155.0-0.0","21772469","wem/bandit_either_2","A320FDQ5EW0PM2","either","4","360","","","","","","","0","0","1","0.1564651975","","0.4","0.8","0.6","0.2","","","","","0.1315453283","0.0968506792","0.1564651975","0.2825009356","","","","","","","","75","K","2","","","115","main_expt"
"","bandit","195","1248839","0.0-156.0-0.0","21772469","wem/bandit_either_2","A320FDQ5EW0PM2","either","4","588","","","","","","","0","0","1","0.1665702367","","0.4","0.8","0.6","0.2","","","","","0.1102777544","0.08782875681","0.1665702367","0.3237719372","","","","","","","","75","K","2","","","116","main_expt"
"","bandit","196","1250834","0.0-157.0-0.0","21772469","wem/bandit_either_2","A320FDQ5EW0PM2","either","4","439","","","","","","","0","0","1","0.1530687496","","0.4","0.8","0.6","0.2","","","","","0.1101610351","0.06031800864","0.1530687496","0.3154846423","","","","","","","","75","K","2","","","117","main_expt"
"","bandit","197","1252751","0.0-158.0-0.0","21772469","wem/bandit_either_2","A320FDQ5EW0PM2","either","4","351","","","","","","","0","0","1","","0.1674206906","0.4","0.8","0.6","0.2","0.122460482","0.05633053331","0.1674206906","0.2584508078","","","","","","","","","","","","75","K","2","","","118","main_expt"
"","bandit","198","1254650","0.0-159.0-0.0","21772469","wem/bandit_either_2","A320FDQ5EW0PM2","either","4","339","","","","","","","0","0","1","","0.2141905193","0.4","0.8","0.6","0.2","0.1451868924","0.07530514027","0.1990215448","0.2141905193","","","","","","","","","","","","76","L","3","","","119","main_expt"
"","bandit","199","1256629","0.0-160.0-0.0","21772469","wem/bandit_either_2","A320FDQ5EW0PM2","either","4","426","","","","","","","0","0","1","","0.2341954374","0.4","0.8","0.6","0.2","0.09092593383","0.09639595661","0.2208640619","0.2341954374","","","","","","","","","","","","76","L","3","","","120","main_expt"
"","bandit","200","1258280","0.0-161.0-0.0","21772469","wem/bandit_either_2","A320FDQ5EW0PM2","either","4","122","","","","","","","0","0","1","","0.1886372651","0.4","0.8","0.6","0.2","0.1080456108","0.1421799471","0.2602917539","0.1886372651","","","","","","","","","","","","76","L","3","","","121","main_expt"
"","bandit","201","1260101","0.0-162.0-0.0","21772469","wem/bandit_either_2","A320FDQ5EW0PM2","either","4","276","","","","","","","0","0","1","","0.1597592322","0.4","0.8","0.6","0.2","0.1169053248","0.1624760489","0.2512498235","0.1597592322","","","","","","","","","","","","76","L","3","","","122","main_expt"
"","bandit","202","1261993","0.0-163.0-0.0","21772469","wem/bandit_either_2","A320FDQ5EW0PM2","either","4","324","","","","","","","0","0","1","","0.1895266442","0.4","0.8","0.6","0.2","0.1571594809","0.1640214383","0.2266242761","0.1895266442","","","","","","","","","","","","76","L","3","","","123","main_expt"
"","bandit","203","1263752","0.0-164.0-0.0","21772469","wem/bandit_either_2","A320FDQ5EW0PM2","either","4","171","","","","","","","1","0","0","0.2231804049","","0.4","0.8","0.6","0.2","","","","","0.2231804049","0.2014340991","0.2373824638","0.2042850732","","","","","","","","72","H","0","img/none_selected.jpg","","124","main_expt"
"","bandit","204","1265852","0.0-165.0-0.0","21772469","wem/bandit_either_2","A320FDQ5EW0PM2","either","4","531","","","","","","","0","0","1","","0.2232794356","0.4","0.8","0.6","0.2","0.2232794356","0.2229229076","0.2538727107","0.1812515389","","","","","","","","","","","","72","H","0","img/none_selected.jpg","","125","main_expt"
"","bandit","205","1267755","0.0-166.0-0.0","21772469","wem/bandit_either_2","A320FDQ5EW0PM2","either","4","350","","","","","","","0","0","1","","0.2316903634","0.4","0.8","0.6","0.2","0.2316903634","0.2324712723","0.290219491","0.1694736183","","","","","","","","","","","","72","H","0","img/none_selected.jpg","","126","main_expt"
"","bandit","206","1269784","0.0-167.0-0.0","21772469","wem/bandit_either_2","A320FDQ5EW0PM2","either","4","472","","","","","","","0","0","1","","0.2337524142","0.4","0.8","0.6","0.2","0.2337524142","0.2628391623","0.2542505169","0.1624528765","","","","","","","","","","","","72","H","0","img/none_selected.jpg","","127","main_expt"
"","bandit","207","1271844","0.0-168.0-0.0","21772469","wem/bandit_either_2","A320FDQ5EW0PM2","either","4","514","","","","","","","0","0","1","0.2198210178","","0.4","0.8","0.6","0.2","","","","","0.2198210178","0.2654356302","0.2582316027","0.1632982916","","","","","","","","72","H","0","img/none_selected.jpg","","128","main_expt"
"","bandit","208","1273855","0.0-169.0-0.0","21772469","wem/bandit_either_2","A320FDQ5EW0PM2","either","4","442","","","","","","","1","0","0","0.2280168395","","0.4","0.8","0.6","0.2","","","","","0.2280168395","0.2070569149","0.3267566011","0.2264598068","","","","","","","","72","H","0","img/none_selected.jpg","","129","main_expt"
"","bandit","209","1275959","0.0-170.0-0.0","21772469","wem/bandit_either_2","A320FDQ5EW0PM2","either","4","557","","","","","","","0","0","1","0.243895296","","0.4","0.8","0.6","0.2","","","","","0.243895296","0.2579182239","0.3323271388","0.202760285","","","","","","","","72","H","0","img/none_selected.jpg","","130","main_expt"
"","bandit","210","1277929","0.0-171.0-0.0","21772469","wem/bandit_either_2","A320FDQ5EW0PM2","either","4","396","","","","","","","0","0","1","0.2164454501","","0.4","0.8","0.6","0.2","","","","","0.2164454501","0.2329110821","0.2666668646","0.1585094705","","","","","","","","72","H","0","img/none_selected.jpg","","131","main_expt"
"","bandit","211","1279970","0.0-172.0-0.0","21772469","wem/bandit_either_2","A320FDQ5EW0PM2","either","4","472","","","","","","","1","0","0","0.200468731","","0.4","0.8","0.6","0.2","","","","","0.200468731","0.2400232435","0.2359119393","0.1304261544","","","","","","","","72","H","0","img/none_selected.jpg","","132","main_expt"
"","bandit","212","1282021","0.0-173.0-0.0","21772469","wem/bandit_either_2","A320FDQ5EW0PM2","either","4","497","","","","","","","0","0","1","","0.2038597077","0.4","0.8","0.6","0.2","0.2038597077","0.2084798617","0.2540740643","0.09339990826","","","","","","","","","","","","72","H","0","img/none_selected.jpg","","133","main_expt"
"","bandit","213","1283981","0.0-174.0-0.0","21772469","wem/bandit_either_2","A320FDQ5EW0PM2","either","4","387","","","","","","","1","0","0","0.2263269307","","0.4","0.8","0.6","0.2","","","","","0.2263269307","0.2034544","0.2414927735","0.08524612959","","","","","","","","72","H","0","img/none_selected.jpg","","134","main_expt"
"","bandit","214","1286023","0.0-175.0-0.0","21772469","wem/bandit_either_2","A320FDQ5EW0PM2","either","4","483","","","","","","","0","0","1","","0.2686469146","0.4","0.8","0.6","0.2","0.2686469146","0.2088958693","0.2632369982","0.0622033461","","","","","","","","","","","","72","H","0","img/none_selected.jpg","","135","main_expt"
"","bandit","215","1287943","0.0-176.0-0.0","21772469","wem/bandit_either_2","A320FDQ5EW0PM2","either","4","366","","","","","","","0","1","0","","0.3170393738","0.4","0.8","0.6","0.2","0.3170393738","0.2573758916","0.3032623762","0.05632890875","","","","","","","","","","","","72","H","0","img/none_selected.jpg","","136","main_expt"
"","bandit","216","1289915","0.0-177.0-0.0","21772469","wem/bandit_either_2","A320FDQ5EW0PM2","either","4","392","","","","","","","0","0","1","","0.338962466","0.4","0.8","0.6","0.2","0.338962466","0.2467438462","0.2984046037","0.06052980877","","","","","","","","","","","","72","H","0","img/none_selected.jpg","","137","main_expt"
"","bandit","217","1292035","0.0-178.0-0.0","21772469","wem/bandit_either_2","A320FDQ5EW0PM2","either","4","560","","","","","","","0","0","1","","0.3586643031","0.4","0.8","0.6","0.2","0.3586643031","0.2221944767","0.3110629865","0.1038497792","","","","","","","","","","","","72","H","0","img/none_selected.jpg","","138","main_expt"
"","bandit","218","1293924","0.0-179.0-0.0","21772469","wem/bandit_either_2","A320FDQ5EW0PM2","either","4","360","","","","","","","0","0","1","0.3430902759","","0.4","0.8","0.6","0.2","","","","","0.3430902759","0.2750517365","0.3048373826","0.08561062373","","","","","","","","72","H","0","img/none_selected.jpg","","139","main_expt"
"","bandit","219","1295807","0.0-180.0-0.0","21772469","wem/bandit_either_2","A320FDQ5EW0PM2","either","4","338","","","","","","","0","1","0","","0.3777112835","0.4","0.8","0.6","0.2","0.3777112835","0.277474309","0.3163642845","0.08025295029","","","","","","","","","","","","72","H","0","img/none_selected.jpg","","140","main_expt"
"","bandit","220","1297975","0.0-181.0-0.0","21772469","wem/bandit_either_2","A320FDQ5EW0PM2","either","4","604","","","","","","","0","1","0","","0.4276051364","0.4","0.8","0.6","0.2","0.4276051364","0.2932007391","0.2213861514","0.09309891757","","","","","","","","","","","","72","H","0","img/none_selected.jpg","","141","main_expt"
"","bandit","221","1300036","0.0-182.0-0.0","21772469","wem/bandit_either_2","A320FDQ5EW0PM2","either","4","526","","","","","","","0","1","0","","0.4312347149","0.4","0.8","0.6","0.2","0.4312347149","0.3001807938","0.2492613222","0.1107976638","","","","","","","","","","","","72","H","0","img/none_selected.jpg","","142","main_expt"
"","bandit","222","1302011","0.0-183.0-0.0","21772469","wem/bandit_either_2","A320FDQ5EW0PM2","either","4","433","","","","","","","0","0","1","","0.386657586","0.4","0.8","0.6","0.2","0.386657586","0.3640878437","0.2645663874","0.09575525052","","","","","","","","","","","","72","H","0","img/none_selected.jpg","","143","main_expt"
"","bandit","223","1303956","0.0-184.0-0.0","21772469","wem/bandit_either_2","A320FDQ5EW0PM2","either","4","364","","","","","","","0","0","1","0.3409851627","","0.4","0.8","0.6","0.2","","","","","0.3409851627","0.2706796495","0.2928215939","0.07222794989","","","","","","","","72","H","0","img/none_selected.jpg","","144","main_expt"
"","bandit","224","1305972","0.0-185.0-0.0","21772469","wem/bandit_either_2","A320FDQ5EW0PM2","either","4","443","","","","","","","0","0","1","","0.3538709708","0.4","0.8","0.6","0.2","0.3538709708","0.2359726437","0.3178979655","0.03203798906","","","","","","","","","","","","72","H","0","img/none_selected.jpg","","145","main_expt"
"","bandit","225","1307928","0.0-186.0-0.0","21772469","wem/bandit_either_2","A320FDQ5EW0PM2","either","4","385","","","","","","","0","0","1","0.2745956728","","0.4","0.8","0.6","0.2","","","","","0.2745956728","0.2200332621","0.2850957273","0.03073079809","","","","","","","","72","H","0","img/none_selected.jpg","","146","main_expt"
"","bandit","226","1309938","0.0-187.0-0.0","21772469","wem/bandit_either_2","A320FDQ5EW0PM2","either","4","439","","","","","","","0","0","1","","0.2375793476","0.4","0.8","0.6","0.2","0.2375793476","0.1957794229","0.2483519338","0.05105424151","","","","","","","","","","","","72","H","0","img/none_selected.jpg","","147","main_expt"
"","bandit","227","1311830","0.0-188.0-0.0","21772469","wem/bandit_either_2","A320FDQ5EW0PM2","either","4","341","","","","","","","0","0","1","","0.1790722045","0.4","0.8","0.6","0.2","0.2954602587","0.1790722045","0.2309770791","0.04045355104","","","","","","","","","","","","74","J","1","","","148","main_expt"
"","bandit","228","1313842","0.0-189.0-0.0","21772469","wem/bandit_either_2","A320FDQ5EW0PM2","either","4","468","","","","","","","0","0","1","0.2189150546","","0.4","0.8","0.6","0.2","","","","","0.3435099865","0.2189150546","0.1759049641","0.06416506337","","","","","","","","74","J","1","","","149","main_expt"
"","bandit","229","1315984","0.0-190.0-0.0","21772469","wem/bandit_either_2","A320FDQ5EW0PM2","either","4","590","","","","","","","0","0","1","0.2119229637","","0.4","0.8","0.6","0.2","","","","","0.268900415","0.2119229637","0.1910702346","0.07819388902","","","","","","","","74","J","1","","","150","main_expt"
"","bandit","230","1318033","0.0-191.0-0.0","21772469","wem/bandit_either_2","A320FDQ5EW0PM2","either","4","507","","","","","","","0","0","1","0.2472398003","","0.4","0.8","0.6","0.2","","","","","0.2326488896","0.2472398003","0.1799178466","0.1186979887","","","","","","","","74","J","1","","","151","main_expt"
"","bandit","231","1319936","0.0-192.0-0.0","21772469","wem/bandit_either_2","A320FDQ5EW0PM2","either","4","352","","","","","","","0","0","1","0.1826140084","","0.4","0.8","0.6","0.2","","","","","0.2768057641","0.2148428051","0.1826140084","0.1084773402","","","","","","","","75","K","2","","","152","main_expt"
"","bandit","232","1321941","0.0-193.0-0.0","21772469","wem/bandit_either_2","A320FDQ5EW0PM2","either","4","450","","","","","","","0","0","1","0.147924298","","0.4","0.8","0.6","0.2","","","","","0.2997660112","0.1598057249","0.147924298","0.1314289417","","","","","","","","75","K","2","","","153","main_expt"
"","bandit","233","1323909","0.0-194.0-0.0","21772469","wem/bandit_either_2","A320FDQ5EW0PM2","either","4","401","","","","","","","0","0","1","0.1388357139","","0.4","0.8","0.6","0.2","","","","","0.3196464983","0.1489099923","0.1388357139","0.1354051011","","","","","","","","75","K","2","","","154","main_expt"
"","bandit","234","1325879","0.0-195.0-0.0","21772469","wem/bandit_either_2","A320FDQ5EW0PM2","either","4","410","","","","","","","0","0","1","","0.1658398244","0.4","0.8","0.6","0.2","0.3141654429","0.1502541116","0.1658398244","0.1085215933","","","","","","","","","","","","75","K","2","","","155","main_expt"
"","bandit","235","1327843","0.0-196.0-0.0","21772469","wem/bandit_either_2","A320FDQ5EW0PM2","either","4","407","","","","","","","0","0","1","","0.1383379057","0.4","0.8","0.6","0.2","0.2667217688","0.1605084188","0.1104921729","0.1383379057","","","","","","","","","","","","76","L","3","","","156","main_expt"
"","bandit","236","1329820","0.0-197.0-0.0","21772469","wem/bandit_either_2","A320FDQ5EW0PM2","either","4","405","","","","","","","0","0","1","","0.1428990181","0.4","0.8","0.6","0.2","0.2867075714","0.1684101418","0.09530810267","0.1428990181","","","","","","","","","","","","76","L","3","","","157","main_expt"
"","bandit","237","1331778","0.0-198.0-0.0","21772469","wem/bandit_either_2","A320FDQ5EW0PM2","either","4","414","","","","","","","0","0","1","","0.07455979893","0.4","0.8","0.6","0.2","0.2788639118","0.1807688322","0.1211627972","0.07455979893","","","","","","","","","","","","76","L","3","","","158","main_expt"
"","bandit","238","1333742","0.0-199.0-0.0","21772469","wem/bandit_either_2","A320FDQ5EW0PM2","either","4","417","","","","","","","0","0","1","0.1009372764","","0.4","0.8","0.6","0.2","","","","","0.3020710819","0.1516426412","0.1012897464","0.1009372764","","","","","","","","76","L","3","","","159","main_expt"
"","bandit","239","1336038","0.0-200.0-0.0","21772469","wem/bandit_either_2","A320FDQ5EW0PM2","either","4","742","","","","","","","0","0","1","","0.05118862797","0.4","0.8","0.6","0.2","0.3404227007","0.1638698877","0.1188035868","0.05118862797","","","","","","","","","","","","76","L","3","","","160","main_expt"
"","bandit","240","1337943","0.0-201.0-0.0","21772469","wem/bandit_either_2","A320FDQ5EW0PM2","either","4","370","","","","","","","0","0","1","0.2876249865","","0.4","0.8","0.6","0.2","","","","","0.2876249865","0.1645359983","0.1606836622","0.05265847637","","","","","","","","72","H","0","img/none_selected.jpg","","161","main_expt"
"","bandit","241","1339863","0.0-202.0-0.0","21772469","wem/bandit_either_2","A320FDQ5EW0PM2","either","4","353","","","","","","","0","0","1","","0.2401308511","0.4","0.8","0.6","0.2","0.2401308511","0.2509918509","0.1859884171","0.07938684611","","","","","","","","","","","","72","H","0","img/none_selected.jpg","","162","main_expt"
"","bandit","242","1341865","0.0-203.0-0.0","21772469","wem/bandit_either_2","A320FDQ5EW0PM2","either","4","438","","","","","","","0","0","1","0.2486605046","","0.4","0.8","0.6","0.2","","","","","0.2486605046","0.1883685458","0.2528258464","0.0970900163","","","","","","","","72","H","0","img/none_selected.jpg","","163","main_expt"
"","bandit","243","1343771","0.0-204.0-0.0","21772469","wem/bandit_either_2","A320FDQ5EW0PM2","either","4","323","","","","","","","0","0","1","","0.22675384","0.4","0.8","0.6","0.2","0.22675384","0.2179532334","0.2515292425","0.07401968201","","","","","","","","","","","","72","H","0","img/none_selected.jpg","","164","main_expt"
"","bandit","244","1345795","0.0-205.0-0.0","21772469","wem/bandit_either_2","A320FDQ5EW0PM2","either","4","480","","","","","","","0","0","1","0.2841151948","","0.4","0.8","0.6","0.2","","","","","0.2841151948","0.2143704678","0.2068970429","0.06633104104","","","","","","","","72","H","0","img/none_selected.jpg","","165","main_expt"
"","bandit","245","1347772","0.0-206.0-0.0","21772469","wem/bandit_either_2","A320FDQ5EW0PM2","either","4","419","","","","","","","0","0","1","","0.2175899085","0.4","0.8","0.6","0.2","0.2842980464","0.2175899085","0.1413778631","0.05309652092","","","","","","","","","","","","74","J","1","","","166","main_expt"
"","bandit","246","1349694","0.0-207.0-0.0","21772469","wem/bandit_either_2","A320FDQ5EW0PM2","either","4","350","","","","","","","1","0","0","0.2137120923","","0.4","0.8","0.6","0.2","","","","","0.3007590714","0.2137120923","0.1999497975","0.07357446968","","","","","","","","74","J","1","","","167","main_expt"
"","bandit","247","1351650","0.0-208.0-0.0","21772469","wem/bandit_either_2","A320FDQ5EW0PM2","either","4","418","","","","","","","0","0","1","0.2331560811","","0.4","0.8","0.6","0.2","","","","","0.2884936601","0.2331560811","0.1696145944","0.1054325378","","","","","","","","74","J","1","","","168","main_expt"
"","bandit","248","1353598","0.0-209.0-0.0","21772469","wem/bandit_either_2","A320FDQ5EW0PM2","either","4","381","","","","","","","1","0","0","0.2367963754","","0.4","0.8","0.6","0.2","","","","","0.2803439438","0.2367963754","0.1338518967","0.08536867429","","","","","","","","74","J","1","","","169","main_expt"
"","bandit","249","1355734","0.0-210.0-0.0","21772469","wem/bandit_either_2","A320FDQ5EW0PM2","either","4","586","","","","","","","0","0","1","0.2378050175","","0.4","0.8","0.6","0.2","","","","","0.3010437192","0.2378050175","0.1307598277","0.1083432756","","","","","","","","74","J","1","","","170","main_expt"
"","bandit","250","1357670","0.0-211.0-0.0","21772469","wem/bandit_either_2","A320FDQ5EW0PM2","either","4","403","","","","","","","0","0","1","0.2253696972","","0.4","0.8","0.6","0.2","","","","","0.3243802095","0.2253696972","0.1200375331","0.09185370626","","","","","","","","74","J","1","","","171","main_expt"
"","bandit","251","1359616","0.0-212.0-0.0","21772469","wem/bandit_either_2","A320FDQ5EW0PM2","either","4","392","","","","","","","1","0","0","0.2903394368","","0.4","0.8","0.6","0.2","","","","","0.3140094691","0.2903394368","0.07514546963","0.09458096772","","","","","","","","74","J","1","","","172","main_expt"
"","bandit","252","1361649","0.0-213.0-0.0","21772469","wem/bandit_either_2","A320FDQ5EW0PM2","either","4","492","","","","","","","0","0","1","","0.2384828248","0.4","0.8","0.6","0.2","0.2433770114","0.2384828248","0.07704486673","0.1016296913","","","","","","","","","","","","74","J","1","","","173","main_expt"
"","bandit","253","1363614","0.0-214.0-0.0","21772469","wem/bandit_either_2","A320FDQ5EW0PM2","either","4","422","","","","","","","0","0","1","","0.2823111034","0.4","0.8","0.6","0.2","0.2080779891","0.2823111034","0.04061738922","0.117107939","","","","","","","","","","","","74","J","1","","","174","main_expt"
"","bandit","254","1365695","0.0-215.0-0.0","21772469","wem/bandit_either_2","A320FDQ5EW0PM2","either","4","528","","","","","","","0","0","1","0.292147578","","0.4","0.8","0.6","0.2","","","","","0.2211365803","0.292147578","0.02968316822","0.1254773658","","","","","","","","74","J","1","","","175","main_expt"
"","bandit","255","1367581","0.0-216.0-0.0","21772469","wem/bandit_either_2","A320FDQ5EW0PM2","either","4","344","","","","","","","0","0","1","","0.2928295457","0.4","0.8","0.6","0.2","0.231280906","0.2928295457","0.04419366322","0.1518856622","","","","","","","","","","","","74","J","1","","","176","main_expt"
"","bandit","256","1369634","0.0-217.0-0.0","21772469","wem/bandit_either_2","A320FDQ5EW0PM2","either","4","475","","","","","","","0","0","1","0.297241693","","0.4","0.8","0.6","0.2","","","","","0.1689881391","0.297241693","0.04140429262","0.1502483312","","","","","","","","74","J","1","","","177","main_expt"
"","bandit","257","1371504","0.0-218.0-0.0","21772469","wem/bandit_either_2","A320FDQ5EW0PM2","either","4","326","","","","","","","0","0","1","0.276241128","","0.4","0.8","0.6","0.2","","","","","0.1699404395","0.276241128","0.06103489621","0.2073149786","","","","","","","","74","J","1","","","178","main_expt"
"","bandit","258","1373518","0.0-219.0-0.0","21772469","wem/bandit_either_2","A320FDQ5EW0PM2","either","4","476","","","","","","","0","0","1","0.2405339857","","0.4","0.8","0.6","0.2","","","","","0.1571972967","0.2405339857","0.053608248","0.1928578162","","","","","","","","74","J","1","","","179","main_expt"
"","bandit","259","1375380","0.0-220.0-0.0","21772469","wem/bandit_either_2","A320FDQ5EW0PM2","either","4","303","","","","","","","0","0","1","","0.06289379635","0.4","0.8","0.6","0.2","0.1567782565","0.233428307","0.06289379635","0.1412953234","","","","","","","","","","","","75","K","2","","","180","main_expt"
"","bandit","260","1377691","0.0-221.0-0.0","21772469","wem/bandit_either_2","A320FDQ5EW0PM2","either","4","738","","","","","","","0","0","1","","0.07748386732","0.4","0.8","0.6","0.2","0.1492691696","0.1459310114","0.07748386732","0.1258774719","","","","","","","","","","","","75","K","2","","","181","main_expt"
"","bandit","261","1379592","0.0-222.0-0.0","21772469","wem/bandit_either_2","A320FDQ5EW0PM2","either","4","326","","","","","","","0","0","1","0.096714051","","0.4","0.8","0.6","0.2","","","","","0.1609613705","0.1796360657","0.096714051","0.1121960069","","","","","","","","75","K","2","","","182","main_expt"
"","bandit","262","1381790","0.0-223.0-0.0","21772469","wem/bandit_either_2","A320FDQ5EW0PM2","either","4","646","","","","","","","0","0","1","","0.05351369794","0.4","0.8","0.6","0.2","0.1982891881","0.1907874973","0.05351369794","0.08335286121","","","","","","","","","","","","75","K","2","","","183","main_expt"
"","bandit","263","1383843","0.0-224.0-0.0","21772469","wem/bandit_either_2","A320FDQ5EW0PM2","either","4","493","","","","","","","0","0","1","0.08854511538","","0.4","0.8","0.6","0.2","","","","","0.1703318442","0.1451627339","0.08854511538","0.1085923678","","","","","","","","75","K","2","","","184","main_expt"
"","bandit","264","1385935","0.0-225.0-0.0","21772469","wem/bandit_either_2","A320FDQ5EW0PM2","either","4","500","","","","","","","0","0","1","","0.1113654269","0.4","0.8","0.6","0.2","0.09566746086","0.1692531577","0.136385666","0.1113654269","","","","","","","","","","","","76","L","3","","","185","main_expt"
"","bandit","265","1388013","0.0-226.0-0.0","21772469","wem/bandit_either_2","A320FDQ5EW0PM2","either","4","538","","","","","","","0","0","1","0.1383531569","","0.4","0.8","0.6","0.2","","","","","0.1254261761","0.1885113298","0.1848043888","0.1383531569","","","","","","","","76","L","3","","","186","main_expt"
"","bandit","266","1389894","0.0-227.0-0.0","21772469","wem/bandit_either_2","A320FDQ5EW0PM2","either","4","325","","","","","","","0","0","1","","0.1739713275","0.4","0.8","0.6","0.2","0.1081798115","0.2088125345","0.1640989128","0.1739713275","","","","","","","","","","","","76","L","3","","","187","main_expt"
"","bandit","267","1391799","0.0-228.0-0.0","21772469","wem/bandit_either_2","A320FDQ5EW0PM2","either","4","354","","","","","","","0","0","1","","0.1926366302","0.4","0.8","0.6","0.2","0.08529062399","0.2228369986","0.1301402021","0.1926366302","","","","","","","","","","","","76","L","3","","","188","main_expt"
"","bandit","268","1393854","0.0-229.0-0.0","21772469","wem/bandit_either_2","A320FDQ5EW0PM2","either","4","483","","","","","","","0","0","1","","0.2499935398","0.4","0.8","0.6","0.2","0.07250281893","0.2567428292","0.1980942663","0.2499935398","","","","","","","","","","","","76","L","3","","","189","main_expt"
"","bandit","269","1396069","0.0-230.0-0.0","21772469","wem/bandit_either_2","A320FDQ5EW0PM2","either","4","643","","","","","","","0","0","1","","0.07895395147","0.4","0.8","0.6","0.2","0.07895395147","0.3177850294","0.1842725295","0.2367317824","","","","","","","","","","","","72","H","0","img/none_selected.jpg","","190","main_expt"
"","bandit","270","1398047","0.0-231.0-0.0","21772469","wem/bandit_either_2","A320FDQ5EW0PM2","either","4","420","","","","","","","0","0","1","","0.06204701637","0.4","0.8","0.6","0.2","0.06204701637","0.2876912335","0.2087081259","0.2515026666","","","","","","","","","","","","72","H","0","img/none_selected.jpg","","191","main_expt"
"","bandit","271","1399929","0.0-232.0-0.0","21772469","wem/bandit_either_2","A320FDQ5EW0PM2","either","4","330","","","","","","","0","0","1","","0.064067899","0.4","0.8","0.6","0.2","0.064067899","0.2383873749","0.1800110976","0.2451916405","","","","","","","","","","","","72","H","0","img/none_selected.jpg","","192","main_expt"
"","bandit","272","1401879","0.0-233.0-0.0","21772469","wem/bandit_either_2","A320FDQ5EW0PM2","either","4","389","","","","","","","0","0","1","0.1286650472","","0.4","0.8","0.6","0.2","","","","","0.1286650472","0.24690957","0.1519186298","0.2353451433","","","","","","","","72","H","0","img/none_selected.jpg","","193","main_expt"
"","bandit","273","1403780","0.0-234.0-0.0","21772469","wem/bandit_either_2","A320FDQ5EW0PM2","either","4","334","","","","","","","0","0","1","","0.1746490116","0.4","0.8","0.6","0.2","0.1746490116","0.2728455101","0.1431656489","0.307075739","","","","","","","","","","","","72","H","0","img/none_selected.jpg","","194","main_expt"
"","bandit","274","1405751","0.0-235.0-0.0","21772469","wem/bandit_either_2","A320FDQ5EW0PM2","either","4","407","","","","","","","0","0","1","0.2421292151","","0.4","0.8","0.6","0.2","","","","","0.129035247","0.2421292151","0.1868251083","0.3011001907","","","","","","","","74","J","1","","","195","main_expt"
"","bandit","275","1407650","0.0-236.0-0.0","21772469","wem/bandit_either_2","A320FDQ5EW0PM2","either","4","331","","","","","","","0","0","1","0.2598052724","","0.4","0.8","0.6","0.2","","","","","0.09052040682","0.2598052724","0.176624335","0.2861216794","","","","","","","","74","J","1","","","196","main_expt"
"","bandit","276","1409753","0.0-237.0-0.0","21772469","wem/bandit_either_2","A320FDQ5EW0PM2","either","4","570","","","","","","","0","0","1","0.2540930088","","0.4","0.8","0.6","0.2","","","","","0.08675464884","0.2540930088","0.2383323772","0.2121549007","","","","","","","","74","J","1","","","197","main_expt"
"","bandit","277","1411506","0.0-238.0-0.0","21772469","wem/bandit_either_2","A320FDQ5EW0PM2","either","4","195","","","","","","","0","1","0","","0.2460150375","0.4","0.8","0.6","0.2","0.09429549835","0.2460150375","0.260618614","0.260340052","","","","","","","","","","","","74","J","1","","","198","main_expt"
"","bandit","278","1413438","0.0-239.0-0.0","21772469","wem/bandit_either_2","A320FDQ5EW0PM2","either","4","348","","","","","","","0","0","1","0.2217343644","","0.4","0.8","0.6","0.2","","","","","0.09303778716","0.2217343644","0.2935067364","0.3009562829","","","","","","","","74","J","1","","","199","main_expt"
"","bandit","279","1415361","0.0-240.0-0.0","21772469","wem/bandit_either_2","A320FDQ5EW0PM2","either","4","377","","","","","","","0","0","1","0.2830302048","","0.4","0.8","0.6","0.2","","","","","0.07354084322","0.2830302048","0.362920627","0.3430896668","","","","","","","","74","J","1","","","200","main_expt"
"","bandit","280","1417299","0.0-241.0-0.0","21772469","wem/bandit_either_2","A320FDQ5EW0PM2","either","4","399","","","","","","","0","0","1","0.3175621279","","0.4","0.8","0.6","0.2","","","","","0.08115367452","0.3175621279","0.3119044903","0.2973668079","","","","","","","","74","J","1","","","201","main_expt"
"","bandit","281","1419284","0.0-242.0-0.0","21772469","wem/bandit_either_2","A320FDQ5EW0PM2","either","4","400","","","","","","","0","0","1","0.3049471546","","0.4","0.8","0.6","0.2","","","","","0.0774842685","0.3049471546","0.3095695708","0.3219337599","","","","","","","","74","J","1","","","202","main_expt"
"","bandit","282","1421266","0.0-243.0-0.0","21772469","wem/bandit_either_2","A320FDQ5EW0PM2","either","4","431","","","","","","","0","0","1","0.2975042969","","0.4","0.8","0.6","0.2","","","","","0.09704724367","0.2975042969","0.3005459379","0.3229991028","","","","","","","","74","J","1","","","203","main_expt"
"","bandit","283","1423310","0.0-244.0-0.0","21772469","wem/bandit_either_2","A320FDQ5EW0PM2","either","4","498","","","","","","","0","0","1","0.2268457719","","0.4","0.8","0.6","0.2","","","","","0.1224111047","0.2268457719","0.3116824409","0.3077995671","","","","","","","","74","J","1","","","204","main_expt"
"","bandit","284","1425400","0.0-245.0-0.0","21772469","wem/bandit_either_2","A320FDQ5EW0PM2","either","4","536","","","","","","","1","0","0","0.2582085449","","0.4","0.8","0.6","0.2","","","","","0.1627664319","0.2582085449","0.3291635812","0.3070199156","","","","","","","","74","J","1","","","205","main_expt"
"","bandit","285","1427995","0.0-246.0-0.0","21772469","wem/bandit_either_2","A320FDQ5EW0PM2","either","4","1044","","","","","","","0","0","1","0.2841247045","","0.4","0.8","0.6","0.2","","","","","0.1604236747","0.2841247045","0.4008790519","0.3109683939","","","","","","","","74","J","1","","","206","main_expt"
"","bandit","286","1429917","0.0-247.0-0.0","21772469","wem/bandit_either_2","A320FDQ5EW0PM2","either","4","377","","","","","","","0","0","1","","0.3333225396","0.4","0.8","0.6","0.2","0.126388554","0.3333225396","0.4202180382","0.2845075958","","","","","","","","","","","","74","J","1","","","207","main_expt"
"","bandit","287","1431838","0.0-248.0-0.0","21772469","wem/bandit_either_2","A320FDQ5EW0PM2","either","4","376","","","","","","","0","1","0","","0.290219871","0.4","0.8","0.6","0.2","0.1602309633","0.290219871","0.4168586074","0.2419557814","","","","","","","","","","","","74","J","1","","","208","main_expt"
"","bandit","288","1433770","0.0-249.0-0.0","21772469","wem/bandit_either_2","A320FDQ5EW0PM2","either","4","393","","","","","","","0","0","1","0.3426384504","","0.4","0.8","0.6","0.2","","","","","0.2009997365","0.3426384504","0.3949328033","0.2449545816","","","","","","","","74","J","1","","","209","main_expt"
"","bandit","289","1435660","0.0-250.0-0.0","21772469","wem/bandit_either_2","A320FDQ5EW0PM2","either","4","317","","","","","","","0","0","1","0.2932754766","","0.4","0.8","0.6","0.2","","","","","0.1997114924","0.2932754766","0.41782505","0.2176860071","","","","","","","","74","J","1","","","210","main_expt"
"","bandit","290","1437565","0.0-251.0-0.0","21772469","wem/bandit_either_2","A320FDQ5EW0PM2","either","4","366","","","","","","","0","0","1","","0.2522206247","0.4","0.8","0.6","0.2","0.2631807131","0.2522206247","0.4377941382","0.2460847292","","","","","","","","","","","","74","J","1","","","211","main_expt"
"","bandit","291","1439550","0.0-252.0-0.0","21772469","wem/bandit_either_2","A320FDQ5EW0PM2","either","4","449","","","","","","","1","0","0","0.2323705111","","0.4","0.8","0.6","0.2","","","","","0.2008991105","0.2323705111","0.4619006446","0.2017704833","","","","","","","","74","J","1","","","212","main_expt"
"","bandit","292","1441487","0.0-253.0-0.0","21772469","wem/bandit_either_2","A320FDQ5EW0PM2","either","4","387","","","","","","","0","0","1","0.2815580385","","0.4","0.8","0.6","0.2","","","","","0.1656487101","0.2815580385","0.4508737721","0.1891715169","","","","","","","","74","J","1","","","213","main_expt"
"","bandit","293","1443389","0.0-254.0-0.0","21772469","wem/bandit_either_2","A320FDQ5EW0PM2","either","4","330","","","","","","","0","0","1","0.2955812139","","0.4","0.8","0.6","0.2","","","","","0.213788386","0.2955812139","0.4639731149","0.1819308411","","","","","","","","74","J","1","","","214","main_expt"
"","bandit","294","1445292","0.0-255.0-0.0","21772469","wem/bandit_either_2","A320FDQ5EW0PM2","either","4","328","","","","","","","1","0","0","0.2988647484","","0.4","0.8","0.6","0.2","","","","","0.2206736926","0.2988647484","0.4690757113","0.1406935411","","","","","","","","74","J","1","","","215","main_expt"
"","bandit","295","1447212","0.0-256.0-0.0","21772469","wem/bandit_either_2","A320FDQ5EW0PM2","either","4","360","","","","","","","0","0","1","0.3361974059","","0.4","0.8","0.6","0.2","","","","","0.2270120675","0.3361974059","0.4685680314","0.206739756","","","","","","","","74","J","1","","","216","main_expt"
"","bandit","296","1450387","0.0-257.0-0.0","21772469","wem/bandit_either_2","A320FDQ5EW0PM2","either","4","1610","","","","","","","0","0","1","0.2764506131","","0.4","0.8","0.6","0.2","","","","","0.2561581829","0.2764506131","0.4873952874","0.178624692","","","","","","","","74","J","1","","","217","main_expt"
"","bandit","297","1452598","0.0-258.0-0.0","21772469","wem/bandit_either_2","A320FDQ5EW0PM2","either","4","645","","","","","","","0","0","1","","0.299893698","0.4","0.8","0.6","0.2","0.2785758431","0.299893698","0.4790671899","0.2021641755","","","","","","","","","","","","74","J","1","","","218","main_expt"
"","bandit","298","1454513","0.0-259.0-0.0","21772469","wem/bandit_either_2","A320FDQ5EW0PM2","either","4","334","","","","","","","1","0","0","0.3213687962","","0.4","0.8","0.6","0.2","","","","","0.2707863597","0.3213687962","0.4769795117","0.2076996705","","","","","","","","74","J","1","","","219","main_expt"
"","bandit","299","1456535","0.0-260.0-0.0","21772469","wem/bandit_either_2","A320FDQ5EW0PM2","either","4","441","","","","","","","0","0","1","","0.3782095139","0.4","0.8","0.6","0.2","0.2262269101","0.3782095139","0.4746148145","0.2479045362","","","","","","","","","","","","74","J","1","","","220","main_expt"
"","bandit","300","1459841","0.0-261.0-0.0","21772469","wem/bandit_either_2","A320FDQ5EW0PM2","either","4","1734","","","","","","","0","0","1","0.3572699546","","0.4","0.8","0.6","0.2","","","","","0.2522421151","0.3572699546","0.4789253058","0.251163546","","","","","","","","74","J","1","","","221","main_expt"
"","bandit","301","1461978","0.0-262.0-0.0","21772469","wem/bandit_either_2","A320FDQ5EW0PM2","either","4","562","","","","","","","0","0","1","0.332217079","","0.4","0.8","0.6","0.2","","","","","0.2323100388","0.332217079","0.4765400837","0.2653622565","","","","","","","","74","J","1","","","222","main_expt"
"","bandit","302","1463916","0.0-263.0-0.0","21772469","wem/bandit_either_2","A320FDQ5EW0PM2","either","4","374","","","","","","","0","0","1","","0.3327789551","0.4","0.8","0.6","0.2","0.2013525365","0.3327789551","0.4872993944","0.2034578964","","","","","","","","","","","","74","J","1","","","223","main_expt"
"","bandit","303","1465559","0.0-264.0-0.0","21772469","wem/bandit_either_2","A320FDQ5EW0PM2","either","4","72","","","","","","","0","0","1","0.3720138676","","0.4","0.8","0.6","0.2","","","","","0.2017363432","0.3720138676","0.4864577786","0.1176985371","","","","","","","","74","J","1","","","224","main_expt"
"","bandit","304","1469132","0.0-265.0-0.0","21772469","wem/bandit_either_2","A320FDQ5EW0PM2","either","4","2017","","","","","","","0","0","1","","0.4035982493","0.4","0.8","0.6","0.2","0.1608447522","0.4035982493","0.4815865163","0.08531446518","","","","","","","","","","","","74","J","1","","","225","main_expt"
"","bandit","305","1470959","0.0-266.0-0.0","21772469","wem/bandit_either_2","A320FDQ5EW0PM2","either","4","245","","","","","","","1","0","0","0.3538577565","","0.4","0.8","0.6","0.2","","","","","0.2023183299","0.3538577565","0.4781941344","0.0901010045","","","","","","","","74","J","1","","","226","main_expt"
"","bandit","306","1473943","0.0-267.0-0.0","21772469","wem/bandit_either_2","A320FDQ5EW0PM2","either","4","1423","","","","","","","1","0","0","0.4205879778","","0.4","0.8","0.6","0.2","","","","","0.1555458008","0.4205879778","0.4742279627","0.06499555022","","","","","","","","74","J","1","","","227","main_expt"
"","bandit","307","1475934","0.0-268.0-0.0","21772469","wem/bandit_either_2","A320FDQ5EW0PM2","either","4","440","","","","","","","1","0","0","0.4082381823","","0.4","0.8","0.6","0.2","","","","","0.1210896773","0.4082381823","0.4597327255","0.06967502077","","","","","","","","74","J","1","","","228","main_expt"
"","bandit","308","1478170","0.0-269.0-0.0","21772469","wem/bandit_either_2","A320FDQ5EW0PM2","either","4","668","","","","","","","1","0","0","0.4274963613","","0.4","0.8","0.6","0.2","","","","","0.1206830913","0.4274963613","0.4733003713","0.07642173418","","","","","","","","74","J","1","","","229","main_expt"
"","bandit","309","1480182","0.0-270.0-0.0","21772469","wem/bandit_either_2","A320FDQ5EW0PM2","either","4","426","","","","","","","1","0","0","0.4362488765","","0.4","0.8","0.6","0.2","","","","","0.1334008039","0.4362488765","0.4832022084","0.04973788902","","","","","","","","74","J","1","","","230","main_expt"
"","bandit","310","1482170","0.0-271.0-0.0","21772469","wem/bandit_either_2","A320FDQ5EW0PM2","either","4","406","","","","","","","1","0","0","0.4420629534","","0.4","0.8","0.6","0.2","","","","","0.1048467088","0.4420629534","0.4802630573","0.07419495466","","","","","","","","74","J","1","","","231","main_expt"
"","bandit","311","1484208","0.0-272.0-0.0","21772469","wem/bandit_either_2","A320FDQ5EW0PM2","either","4","478","","","","","","","0","1","0","","0.4287414635","0.4","0.8","0.6","0.2","0.1184002818","0.4287414635","0.4739318499","0.08125260149","","","","","","","","","","","","74","J","1","","","232","main_expt"
"","bandit","312","1485959","0.0-273.0-0.0","21772469","wem/bandit_either_2","A320FDQ5EW0PM2","either","4","170","","","","","","","1","0","0","0.4395511981","","0.4","0.8","0.6","0.2","","","","","0.08533064469","0.4395511981","0.4709765286","0.06057073796","","","","","","","","74","J","1","","","233","main_expt"
"","bandit","313","1489190","0.0-274.0-0.0","21772469","wem/bandit_either_2","A320FDQ5EW0PM2","either","4","1678","","","","","","","1","0","0","0.4479240545","","0.4","0.8","0.6","0.2","","","","","0.1190123434","0.4479240545","0.4658145356","0.1037411708","","","","","","","","74","J","1","","","234","main_expt"
"","bandit","314","1491184","0.0-275.0-0.0","21772469","wem/bandit_either_2","A320FDQ5EW0PM2","either","4","427","","","","","","","0","0","1","0.4476644646","","0.4","0.8","0.6","0.2","","","","","0.1392024459","0.4476644646","0.4312508187","0.1267441937","","","","","","","","74","J","1","","","235","main_expt"
"","bandit","315","1493259","0.0-276.0-0.0","21772469","wem/bandit_either_2","A320FDQ5EW0PM2","either","4","533","","","","","","","0","0","1","0.457106966","","0.4","0.8","0.6","0.2","","","","","0.1076242464","0.457106966","0.4323277229","0.1002206095","","","","","","","","74","J","1","","","236","main_expt"
"","bandit","316","1495249","0.0-277.0-0.0","21772469","wem/bandit_either_2","A320FDQ5EW0PM2","either","4","421","","","","","","","1","0","0","0.4097288684","","0.4","0.8","0.6","0.2","","","","","0.1539911713","0.4097288684","0.4517679415","0.08353940566","","","","","","","","74","J","1","","","237","main_expt"
"","bandit","317","1497342","0.0-278.0-0.0","21772469","wem/bandit_either_2","A320FDQ5EW0PM2","either","4","535","","","","","","","0","0","1","0.4530646831","","0.4","0.8","0.6","0.2","","","","","0.1833253983","0.4530646831","0.4476427196","0.07847158511","","","","","","","","74","J","1","","","238","main_expt"
"","bandit","318","1499273","0.0-279.0-0.0","21772469","wem/bandit_either_2","A320FDQ5EW0PM2","either","4","366","","","","","","","1","0","0","0.4532148127","","0.4","0.8","0.6","0.2","","","","","0.185515968","0.4532148127","0.4421551546","0.1132310855","","","","","","","","74","J","1","","","239","main_expt"
"","bandit","319","1501215","0.0-280.0-0.0","21772469","wem/bandit_either_2","A320FDQ5EW0PM2","either","4","370","","","","","","","0","0","1","","0.4456906816","0.4","0.8","0.6","0.2","0.2545144829","0.4456906816","0.4205303603","0.130249024","","","","","","","","","","","","74","J","1","","","240","main_expt"
"","bandit","320","1503150","0.0-281.0-0.0","21772469","wem/bandit_either_2","A320FDQ5EW0PM2","either","4","371","","","","","","","0","0","1","0.4515134246","","0.4","0.8","0.6","0.2","","","","","0.1902236802","0.4515134246","0.4304808994","0.1356270161","","","","","","","","74","J","1","","","241","main_expt"
"","bandit","321","1504976","0.0-282.0-0.0","21772469","wem/bandit_either_2","A320FDQ5EW0PM2","either","4","256","","","","","","","0","0","1","0.4640222466","","0.4","0.8","0.6","0.2","","","","","0.2196571485","0.4640222466","0.4318168925","0.1402569013","","","","","","","","74","J","1","","","242","main_expt"
"","bandit","322","1506584","0.0-283.0-0.0","21772469","wem/bandit_either_2","A320FDQ5EW0PM2","either","4","48","","","","","","","0","0","1","","0.4305348251","0.4","0.8","0.6","0.2","0.2691755858","0.4305348251","0.4437639365","0.1851652895","","","","","","","","","","","","74","J","1","","","243","main_expt"
"","bandit","323","1508466","0.0-284.0-0.0","21772469","wem/bandit_either_2","A320FDQ5EW0PM2","either","4","308","","","","","","","1","0","0","0.4444417595","","0.4","0.8","0.6","0.2","","","","","0.2689580194","0.4444417595","0.4444545885","0.1871667761","","","","","","","","74","J","1","","","244","main_expt"
"","bandit","324","1510590","0.0-285.0-0.0","21772469","wem/bandit_either_2","A320FDQ5EW0PM2","either","4","551","","","","","","","1","0","0","0.4468105605","","0.4","0.8","0.6","0.2","","","","","0.1935089033","0.4468105605","0.445216333","0.1881322931","","","","","","","","74","J","1","","","245","main_expt"
