"consent","trial_type","trial_index","time_elapsed","internal_node_id","subjID","study","MID","cond","drift","rt","responses","key_press","expt_phase","like","value","connected","gems","bombs","no_reward","GemPrChosen","BombPrChosen","GainOverPainPr_0","GainOverPainPr_1","GainOverPainPr_2","GainOverPainPr_3","LosePr_0","LosePr_1","LosePr_2","LosePr_3","WinPr_0","WinPr_1","WinPr_2","WinPr_3","Q0","Q1","Q2","gender","age","ethnicity","target","respCharCode","respKey","respChoiceNum","respChoice","practice","trial_counter","trial_label"
"INL_behavioral_consent_30min_online.html","consent","0","7161","0.0-0.0","31596345","wem/bandit_either_2","A1T79J0XQXDDGC","either","7","","","","","","","","","","","","","","","","","","","","","","","","","","","","","","","","","","","","","",""
"","survey-text","1","11352","0.0-1.0","31596345","wem/bandit_either_2","A1T79J0XQXDDGC","either","7","3167","{""Q0"":""A1T79J0XQXDDGC""}","","","","","","","","","","","","","","","","","","","","","","","","","","","","","","","","","","","",""
"","text","2","15991","0.0-2.0","31596345","wem/bandit_either_2","A1T79J0XQXDDGC","either","7","3629","","32","","","","","","","","","","","","","","","","","","","","","","","","","","","","","","","","","","",""
"","text","3","19876","0.0-3.0","31596345","wem/bandit_either_2","A1T79J0XQXDDGC","either","7","3883","","32","","","","","","","","","","","","","","","","","","","","","","","","","","","","","","","","","","",""
"","text","4","270864","0.0-4.0","31596345","wem/bandit_either_2","A1T79J0XQXDDGC","either","7","250983","","32","","","","","","","","","","","","","","","","","","","","","","","","","","","","","","","","","","",""
"","text","5","340047","0.0-5.0","31596345","wem/bandit_either_2","A1T79J0XQXDDGC","either","7","69175","","32","","","","","","","","","","","","","","","","","","","","","","","","","","","","","","","","","","",""
"","text","6","348332","0.0-6.0","31596345","wem/bandit_either_2","A1T79J0XQXDDGC","either","7","8282","","32","","","","","","","","","","","","","","","","","","","","","","","","","","","","","","","","","","",""
"","text","7","352871","0.0-7.0","31596345","wem/bandit_either_2","A1T79J0XQXDDGC","either","7","4536","","32","","","","","","","","","","","","","","","","","","","","","","","","","","","","","","","","","","",""
"","text","8","357580","0.0-8.0","31596345","wem/bandit_either_2","A1T79J0XQXDDGC","either","7","4707","","32","","","","","","","","","","","","","","","","","","","","","","","","","","","","","","","","","","",""
"","identification","9","389844","0.0-9.0-0.0","31596345","wem/bandit_either_2","A1T79J0XQXDDGC","either","7","32235","","","","5","5","6","","","","","","","","","","","","","","","","","","","","","","","","the village of Zur","","","","","","",""
"","identification","10","395238","0.0-9.0-1.0","31596345","wem/bandit_either_2","A1T79J0XQXDDGC","either","7","4374","","","","2","1","1","","","","","","","","","","","","","","","","","","","","","","","","the village of Nyx","","","","","","",""
"","text","11","403892","0.0-10.0","31596345","wem/bandit_either_2","A1T79J0XQXDDGC","either","7","7648","","32","","","","","","","","","","","","","","","","","","","","","","","","","","","","","","","","","","",""
"","text","12","405268","0.0-11.0","31596345","wem/bandit_either_2","A1T79J0XQXDDGC","either","7","1374","","32","","","","","","","","","","","","","","","","","","","","","","","","","","","","","","","","","","",""
"","text","13","406973","0.0-12.0","31596345","wem/bandit_either_2","A1T79J0XQXDDGC","either","7","1702","","32","","","","","","","","","","","","","","","","","","","","","","","","","","","","","","","","","","",""
"","text","14","409742","0.0-13.0","31596345","wem/bandit_either_2","A1T79J0XQXDDGC","either","7","2767","","32","","","","","","","","","","","","","","","","","","","","","","","","","","","","","","","","","","",""
"","bandit","15","413496","0.0-14.0-0.0","31596345","wem/bandit_either_2","A1T79J0XQXDDGC","either","7","2194","","","","","","","0","0","1","0","0","","","","","0","","","","0","","","","","","","","","","","74","J","0","img/none_selected_demo.jpg","true","0",""
"","bandit","16","416811","0.0-15.0-0.0","31596345","wem/bandit_either_2","A1T79J0XQXDDGC","either","7","1804","","","","","","","0","0","1","0","0","","","","","0","","","","0","","","","","","","","","","","75","K","0","img/none_selected_demo.jpg","true","0",""
"","text","17","422205","0.0-16.0","31596345","wem/bandit_either_2","A1T79J0XQXDDGC","either","7","5392","","32","","","","","","","","","","","","","","","","","","","","","","","","","","","","","","","","","","",""
"","text","18","468417","0.0-17.0","31596345","wem/bandit_either_2","A1T79J0XQXDDGC","either","7","46206","","32","","","","","","","","","","","","","","","","","","","","","","","","","","","","","","","","","","",""
"","text","19","474488","0.0-18.0","31596345","wem/bandit_either_2","A1T79J0XQXDDGC","either","7","6064","","32","","","","","","","","","","","","","","","","","","","","","","","","","","","","","","","","","","",""
"","text","20","476926","0.0-19.0","31596345","wem/bandit_either_2","A1T79J0XQXDDGC","either","7","2434","","32","","","","","","","","","","","","","","","","","","","","","","","","","","","","","","","","","","",""
"","bandit","21","509291","0.0-20.0-0.0","31596345","wem/bandit_either_2","A1T79J0XQXDDGC","either","7","30822","","","","","","","0","1","0","","0.8","0.5","0.5","","","0.8","0.2","","","","","","","","","","","","","","74","J","0","img/none_selected_demo.jpg","true","0","80_20_practice"
"","bandit","22","511555","0.0-20.0-1.0","31596345","wem/bandit_either_2","A1T79J0XQXDDGC","either","7","672","","","","","","","0","1","0","","0.8","0.5","0.5","","","0.8","0.2","","","","","","","","","","","","","","74","J","0","img/none_selected_demo.jpg","true","0","80_20_practice"
"","bandit","23","513487","0.0-20.0-2.0","31596345","wem/bandit_either_2","A1T79J0XQXDDGC","either","7","407","","","","","","","1","0","0","0.8","","0.5","0.5","","","","","","","0.8","0.2","","","","","","","","","","74","J","0","img/none_selected_demo.jpg","true","0","80_20_practice"
"","bandit","24","515398","0.0-20.0-3.0","31596345","wem/bandit_either_2","A1T79J0XQXDDGC","either","7","376","","","","","","","0","0","1","","0.8","0.5","0.5","","","0.8","0.2","","","","","","","","","","","","","","74","J","0","img/none_selected_demo.jpg","true","0","80_20_practice"
"","bandit","25","517085","0.0-20.0-4.0","31596345","wem/bandit_either_2","A1T79J0XQXDDGC","either","7","161","","","","","","","1","0","0","0.8","","0.5","0.5","","","","","","","0.8","0.2","","","","","","","","","","74","J","0","img/none_selected_demo.jpg","true","0","80_20_practice"
"","bandit","26","518860","0.0-20.0-5.0","31596345","wem/bandit_either_2","A1T79J0XQXDDGC","either","7","249","","","","","","","0","0","1","0.8","","0.5","0.5","","","","","","","0.8","0.2","","","","","","","","","","74","J","0","img/none_selected_demo.jpg","true","0","80_20_practice"
"","bandit","27","520878","0.0-20.0-6.0","31596345","wem/bandit_either_2","A1T79J0XQXDDGC","either","7","501","","","","","","","0","0","1","","0.2","0.5","0.5","","","0.8","0.2","","","","","","","","","","","","","","75","K","1","","true","0","80_20_practice"
"","bandit","28","522597","0.0-20.0-7.0","31596345","wem/bandit_either_2","A1T79J0XQXDDGC","either","7","209","","","","","","","0","0","1","0.2","","0.5","0.5","","","","","","","0.8","0.2","","","","","","","","","","75","K","1","","true","0","80_20_practice"
"","bandit","29","524419","0.0-20.0-8.0","31596345","wem/bandit_either_2","A1T79J0XQXDDGC","either","7","284","","","","","","","0","0","1","0.2","","0.5","0.5","","","","","","","0.8","0.2","","","","","","","","","","75","K","1","","true","0","80_20_practice"
"","bandit","30","526163","0.0-20.0-9.0","31596345","wem/bandit_either_2","A1T79J0XQXDDGC","either","7","220","","","","","","","0","0","1","","0.2","0.5","0.5","","","0.8","0.2","","","","","","","","","","","","","","75","K","1","","true","0","80_20_practice"
"","bandit","31","527697","0.0-20.0-10.0","31596345","wem/bandit_either_2","A1T79J0XQXDDGC","either","7","13","","","","","","","1","0","0","0.8","","0.5","0.5","","","","","","","0.8","0.2","","","","","","","","","","74","J","0","img/none_selected_demo.jpg","true","0","80_20_practice"
"","bandit","32","529655","0.0-20.0-11.0","31596345","wem/bandit_either_2","A1T79J0XQXDDGC","either","7","447","","","","","","","0","1","0","","0.8","0.5","0.5","","","0.8","0.2","","","","","","","","","","","","","","74","J","0","img/none_selected_demo.jpg","true","0","80_20_practice"
"","bandit","33","531486","0.0-20.0-12.0","31596345","wem/bandit_either_2","A1T79J0XQXDDGC","either","7","271","","","","","","","1","0","0","0.8","","0.5","0.5","","","","","","","0.8","0.2","","","","","","","","","","74","J","0","img/none_selected_demo.jpg","true","0","80_20_practice"
"","bandit","34","533486","0.0-20.0-13.0","31596345","wem/bandit_either_2","A1T79J0XQXDDGC","either","7","467","","","","","","","1","0","0","0.8","","0.5","0.5","","","","","","","0.8","0.2","","","","","","","","","","74","J","0","img/none_selected_demo.jpg","true","0","80_20_practice"
"","bandit","35","535265","0.0-20.0-14.0","31596345","wem/bandit_either_2","A1T79J0XQXDDGC","either","7","271","","","","","","","1","0","0","0.8","","0.5","0.5","","","","","","","0.8","0.2","","","","","","","","","","74","J","0","img/none_selected_demo.jpg","true","0","80_20_practice"
"","bandit","36","536871","0.0-20.0-15.0","31596345","wem/bandit_either_2","A1T79J0XQXDDGC","either","7","90","","","","","","","1","0","0","0.8","","0.5","0.5","","","","","","","0.8","0.2","","","","","","","","","","74","J","0","img/none_selected_demo.jpg","true","0","80_20_practice"
"","bandit","37","538482","0.0-20.0-16.0","31596345","wem/bandit_either_2","A1T79J0XQXDDGC","either","7","50","","","","","","","1","0","0","0.8","","0.5","0.5","","","","","","","0.8","0.2","","","","","","","","","","74","J","0","img/none_selected_demo.jpg","true","0","80_20_practice"
"","bandit","38","540138","0.0-20.0-17.0","31596345","wem/bandit_either_2","A1T79J0XQXDDGC","either","7","129","","","","","","","1","0","0","0.8","","0.5","0.5","","","","","","","0.8","0.2","","","","","","","","","","74","J","0","img/none_selected_demo.jpg","true","0","80_20_practice"
"","bandit","39","541747","0.0-20.0-18.0","31596345","wem/bandit_either_2","A1T79J0XQXDDGC","either","7","91","","","","","","","0","1","0","","0.8","0.5","0.5","","","0.8","0.2","","","","","","","","","","","","","","74","J","0","img/none_selected_demo.jpg","true","0","80_20_practice"
"","bandit","40","543357","0.0-20.0-19.0","31596345","wem/bandit_either_2","A1T79J0XQXDDGC","either","7","76","","","","","","","0","1","0","","0.8","0.5","0.5","","","0.8","0.2","","","","","","","","","","","","","","74","J","0","img/none_selected_demo.jpg","true","0","80_20_practice"
"","text","41","547368","0.0-21.0","31596345","wem/bandit_either_2","A1T79J0XQXDDGC","either","7","4006","","32","","","","","","","","","","","","","","","","","","","","","","","","","","","","","","","","","","",""
"","bandit","42","549729","0.0-22.0-0.0","31596345","wem/bandit_either_2","A1T79J0XQXDDGC","either","7","837","","","","","","","1","0","0","1","0","","","","","0","1","","","1","0","","","","","","","","","","74","J","0","img/none_selected_demo.jpg","true","0",""
"","text","43","553870","0.0-23.0","31596345","wem/bandit_either_2","A1T79J0XQXDDGC","either","7","4138","","32","","","","","","","","","","","","","","","","","","","","","","","","","","","","","","","","","","",""
"","text","44","555149","0.0-24.0","31596345","wem/bandit_either_2","A1T79J0XQXDDGC","either","7","1275","","32","","","","","","","","","","","","","","","","","","","","","","","","","","","","","","","","","","",""
"","text","45","556373","0.0-25.0","31596345","wem/bandit_either_2","A1T79J0XQXDDGC","either","7","1221","","32","","","","","","","","","","","","","","","","","","","","","","","","","","","","","","","","","","",""
"","text","46","558256","0.0-26.0","31596345","wem/bandit_either_2","A1T79J0XQXDDGC","either","7","1880","","32","","","","","","","","","","","","","","","","","","","","","","","","","","","","","","","","","","",""
"","text","47","561718","0.0-27.0","31596345","wem/bandit_either_2","A1T79J0XQXDDGC","either","7","3456","","32","","","","","","","","","","","","","","","","","","","","","","","","","","","","","","","","","","",""
"","text","48","563565","0.0-28.0","31596345","wem/bandit_either_2","A1T79J0XQXDDGC","either","7","1843","","32","","","","","","","","","","","","","","","","","","","","","","","","","","","","","","","","","","",""
"","text","49","564886","0.0-29.0","31596345","wem/bandit_either_2","A1T79J0XQXDDGC","either","7","1317","","32","","","","","","","","","","","","","","","","","","","","","","","","","","","","","","","","","","",""
"","text","50","568340","0.0-30.0","31596345","wem/bandit_either_2","A1T79J0XQXDDGC","either","7","3451","","32","","","","","","","","","","","","","","","","","","","","","","","","","","","","","","","","","","",""
"","text","51","591002","0.0-31.0","31596345","wem/bandit_either_2","A1T79J0XQXDDGC","either","7","22658","","32","","","","","","","","","","","","","","","","","","","","","","","","","","","","","","","","","","",""
"","text","52","592165","0.0-32.0","31596345","wem/bandit_either_2","A1T79J0XQXDDGC","either","7","1159","","32","","","","","","","","","","","","","","","","","","","","","","","","","","","","","","","","","","",""
"","text","53","594205","0.0-33.0","31596345","wem/bandit_either_2","A1T79J0XQXDDGC","either","7","2037","","32","","","","","","","","","","","","","","","","","","","","","","","","","","","","","","","","","","",""
"","bandit","54","596357","0.0-34.0-0.0","31596345","wem/bandit_either_2","A1T79J0XQXDDGC","either","7","627","","","","","","","0","0","1","0.2","","0.5","0.5","0.5","0.5","","","","","0.8","0.2","0.6","0.2","","","","","","","","74","J","1","","true","0","full_practice"
"","bandit","55","598197","0.0-34.0-1.0","31596345","wem/bandit_either_2","A1T79J0XQXDDGC","either","7","303","","","","","","","0","1","0","","0.6","0.5","0.5","0.5","0.5","0.8","0.2","0.6","0.2","","","","","","","","","","","","75","K","2","","true","0","full_practice"
"","bandit","56","600049","0.0-34.0-2.0","31596345","wem/bandit_either_2","A1T79J0XQXDDGC","either","7","319","","","","","","","0","0","1","","0.2","0.5","0.5","0.5","0.5","0.8","0.2","0.6","0.2","","","","","","","","","","","","76","L","3","","true","0","full_practice"
"","bandit","57","602099","0.0-34.0-3.0","31596345","wem/bandit_either_2","A1T79J0XQXDDGC","either","7","516","","","","","","","0","1","0","","0.8","0.5","0.5","0.5","0.5","0.8","0.2","0.6","0.2","","","","","","","","","","","","72","H","0","img/none_selected.jpg","true","0","full_practice"
"","bandit","58","603840","0.0-34.0-4.0","31596345","wem/bandit_either_2","A1T79J0XQXDDGC","either","7","227","","","","","","","1","0","0","0.8","","0.5","0.5","0.5","0.5","","","","","0.8","0.2","0.6","0.2","","","","","","","","72","H","0","img/none_selected.jpg","true","0","full_practice"
"","bandit","59","605562","0.0-34.0-5.0","31596345","wem/bandit_either_2","A1T79J0XQXDDGC","either","7","201","","","","","","","0","1","0","","0.8","0.5","0.5","0.5","0.5","0.8","0.2","0.6","0.2","","","","","","","","","","","","72","H","0","img/none_selected.jpg","true","0","full_practice"
"","bandit","60","607350","0.0-34.0-6.0","31596345","wem/bandit_either_2","A1T79J0XQXDDGC","either","7","252","","","","","","","0","1","0","","0.8","0.5","0.5","0.5","0.5","0.8","0.2","0.6","0.2","","","","","","","","","","","","72","H","0","img/none_selected.jpg","true","0","full_practice"
"","bandit","61","609152","0.0-34.0-7.0","31596345","wem/bandit_either_2","A1T79J0XQXDDGC","either","7","263","","","","","","","0","0","1","","0.2","0.5","0.5","0.5","0.5","0.8","0.2","0.6","0.2","","","","","","","","","","","","76","L","3","","true","0","full_practice"
"","bandit","62","610718","0.0-34.0-8.0","31596345","wem/bandit_either_2","A1T79J0XQXDDGC","either","7","46","","","","","","","0","0","1","","0.6","0.5","0.5","0.5","0.5","0.8","0.2","0.6","0.2","","","","","","","","","","","","75","K","2","","true","0","full_practice"
"","bandit","63","612298","0.0-34.0-9.0","31596345","wem/bandit_either_2","A1T79J0XQXDDGC","either","7","65","","","","","","","0","1","0","","0.2","0.5","0.5","0.5","0.5","0.8","0.2","0.6","0.2","","","","","","","","","","","","74","J","1","","true","0","full_practice"
"","bandit","64","613994","0.0-34.0-10.0","31596345","wem/bandit_either_2","A1T79J0XQXDDGC","either","7","184","","","","","","","1","0","0","0.2","","0.5","0.5","0.5","0.5","","","","","0.8","0.2","0.6","0.2","","","","","","","","74","J","1","","true","0","full_practice"
"","bandit","65","615736","0.0-34.0-11.0","31596345","wem/bandit_either_2","A1T79J0XQXDDGC","either","7","227","","","","","","","0","1","0","","0.2","0.5","0.5","0.5","0.5","0.8","0.2","0.6","0.2","","","","","","","","","","","","74","J","1","","true","0","full_practice"
"","bandit","66","621220","0.0-34.0-12.0","31596345","wem/bandit_either_2","A1T79J0XQXDDGC","either","7","3967","","","","","","","1","0","0","0.2","","0.5","0.5","0.5","0.5","","","","","0.8","0.2","0.6","0.2","","","","","","","","74","J","1","","true","0","full_practice"
"","bandit","67","622760","0.0-34.0-13.0","31596345","wem/bandit_either_2","A1T79J0XQXDDGC","either","7","24","","","","","","","1","0","0","0.2","","0.5","0.5","0.5","0.5","","","","","0.8","0.2","0.6","0.2","","","","","","","","74","J","1","","true","0","full_practice"
"","bandit","68","625435","0.0-34.0-14.0","31596345","wem/bandit_either_2","A1T79J0XQXDDGC","either","7","425","","","","","","","0","0","1","","0.2","0.5","0.5","0.5","0.5","0.8","0.2","0.6","0.2","","","","","","","","","","","","74","J","1","","true","0","full_practice"
"","bandit","69","629434","0.0-34.0-15.0","31596345","wem/bandit_either_2","A1T79J0XQXDDGC","either","7","1741","","","","","","","1","0","0","0.8","","0.5","0.5","0.5","0.5","","","","","0.8","0.2","0.6","0.2","","","","","","","","72","H","0","img/none_selected.jpg","true","0","full_practice"
"","bandit","70","644183","0.0-34.0-16.0","31596345","wem/bandit_either_2","A1T79J0XQXDDGC","either","7","13234","","","","","","","1","0","0","0.8","","0.5","0.5","0.5","0.5","","","","","0.8","0.2","0.6","0.2","","","","","","","","72","H","0","img/none_selected.jpg","true","0","full_practice"
"","bandit","71","646004","0.0-34.0-17.0","31596345","wem/bandit_either_2","A1T79J0XQXDDGC","either","7","267","","","","","","","0","0","1","","0.8","0.5","0.5","0.5","0.5","0.8","0.2","0.6","0.2","","","","","","","","","","","","72","H","0","img/none_selected.jpg","true","0","full_practice"
"","bandit","72","647628","0.0-34.0-18.0","31596345","wem/bandit_either_2","A1T79J0XQXDDGC","either","7","108","","","","","","","0","0","1","0.2","","0.5","0.5","0.5","0.5","","","","","0.8","0.2","0.6","0.2","","","","","","","","74","J","1","","true","0","full_practice"
"","bandit","73","649503","0.0-34.0-19.0","31596345","wem/bandit_either_2","A1T79J0XQXDDGC","either","7","13","","","","","","","0","0","1","","0.6","0.5","0.5","0.5","0.5","0.8","0.2","0.6","0.2","","","","","","","","","","","","75","K","2","","true","0","full_practice"
"","text","74","671050","0.0-35.0","31596345","wem/bandit_either_2","A1T79J0XQXDDGC","either","7","21537","","32","","","","","","","","","","","","","","","","","","","","","","","","","","","","","","","","","","",""
"","text","75","676848","0.0-36.0","31596345","wem/bandit_either_2","A1T79J0XQXDDGC","either","7","4787","","32","","","","","","","","","","","","","","","","","","","","","","","","","","","","","","","","","","",""
"","text","76","705813","0.0-37.0","31596345","wem/bandit_either_2","A1T79J0XQXDDGC","either","7","28957","","32","","","","","","","","","","","","","","","","","","","","","","","","","","","","","","","","","","",""
"","text","77","707493","0.0-38.0","31596345","wem/bandit_either_2","A1T79J0XQXDDGC","either","7","1675","","32","","","","","","","","","","","","","","","","","","","","","","","","","","","","","","","","","","",""
"","text","78","710039","0.0-39.0","31596345","wem/bandit_either_2","A1T79J0XQXDDGC","either","7","2543","","32","","","","","","","","","","","","","","","","","","","","","","","","","","","","","","","","","","",""
"","text","79","711332","0.0-40.0","31596345","wem/bandit_either_2","A1T79J0XQXDDGC","either","7","1287","","32","","","","","","","","","","","","","","","","","","","","","","","","","","","","","","","","","","",""
"","bandit","80","713670","0.0-41.0-0.0","31596345","wem/bandit_either_2","A1T79J0XQXDDGC","either","7","805","","","","","","","0","0","1","","0.1480066451","0.6","0.4","0.8","0.2","0.06530018083","0.1952616071","0.1480066451","0.01738065524","","","","","","","","","","","","75","K","2","","","1","main_expt"
"","bandit","81","717433","0.0-42.0-0.0","31596345","wem/bandit_either_2","A1T79J0XQXDDGC","either","7","385","","","","","","","0","0","1","","0.0196943787","0.6","0.4","0.8","0.2","0.1011701763","0.1652234336","0.1053714073","0.0196943787","","","","","","","","","","","","76","L","3","","","2","main_expt"
"","bandit","82","721434","0.0-43.0-0.0","31596345","wem/bandit_either_2","A1T79J0XQXDDGC","either","7","1488","","","","","","","0","0","1","0.1347382479","","0.6","0.4","0.8","0.2","","","","","0.09486719381","0.1347382479","0.1460078221","0.01678573497","","","","","","","","74","J","1","","","3","main_expt"
"","bandit","83","726314","0.0-44.0-0.0","31596345","wem/bandit_either_2","A1T79J0XQXDDGC","either","7","3357","","","","","","","0","0","1","0.02981965743","","0.6","0.4","0.8","0.2","","","","","0.06705802814","0.1684625442","0.1866138214","0.02981965743","","","","","","","","76","L","3","","","4","main_expt"
"","bandit","84","728012","0.0-45.0-0.0","31596345","wem/bandit_either_2","A1T79J0XQXDDGC","either","7","164","","","","","","","0","1","0","","0.1792029032","0.6","0.4","0.8","0.2","0.0822298525","0.1792029032","0.2445348717","0.02600208211","","","","","","","","","","","","74","J","1","","","5","main_expt"
"","bandit","85","729775","0.0-46.0-0.0","31596345","wem/bandit_either_2","A1T79J0XQXDDGC","either","7","240","","","","","","","0","0","1","0.2153873139","","0.6","0.4","0.8","0.2","","","","","0.09162209411","0.2153873139","0.2546962146","0.02332436933","","","","","","","","74","J","1","","","6","main_expt"
"","bandit","86","731357","0.0-47.0-0.0","31596345","wem/bandit_either_2","A1T79J0XQXDDGC","either","7","49","","","","","","","0","0","1","0.2344841702","","0.6","0.4","0.8","0.2","","","","","0.1028820098","0.1757762721","0.2344841702","0.02864040813","","","","","","","","75","K","2","","","7","main_expt"
"","bandit","87","734306","0.0-48.0-0.0","31596345","wem/bandit_either_2","A1T79J0XQXDDGC","either","7","478","","","","","","","0","0","1","0.1532270122","","0.6","0.4","0.8","0.2","","","","","0.1532270122","0.2241229746","0.2473344203","0.02951264166","","","","","","","","72","H","0","img/none_selected.jpg","","8","main_expt"
"","bandit","88","736317","0.0-49.0-0.0","31596345","wem/bandit_either_2","A1T79J0XQXDDGC","either","7","483","","","","","","","0","0","1","","0.2131450397","0.6","0.4","0.8","0.2","0.2131450397","0.2199426203","0.2642160399","0.02997011939","","","","","","","","","","","","72","H","0","img/none_selected.jpg","","9","main_expt"
"","bandit","89","738438","0.0-50.0-0.0","31596345","wem/bandit_either_2","A1T79J0XQXDDGC","either","7","13","","","","","","","0","0","1","","0.1520686932","0.6","0.4","0.8","0.2","0.2985754635","0.1520686932","0.2104627424","0.02489651457","","","","","","","","","","","","74","J","1","","","10","main_expt"
"","bandit","90","752818","0.0-51.0-0.0","31596345","wem/bandit_either_2","A1T79J0XQXDDGC","either","7","12860","","","","","","","0","0","1","0.219372878","","0.6","0.4","0.8","0.2","","","","","0.2924640086","0.2013349999","0.219372878","0.01651058827","","","","","","","","75","K","2","","","11","main_expt"
"","bandit","91","754483","0.0-52.0-0.0","31596345","wem/bandit_either_2","A1T79J0XQXDDGC","either","7","140","","","","","","","0","0","1","","0.2156800105","0.6","0.4","0.8","0.2","0.3264291113","0.2156800105","0.2105839871","0.02341729431","","","","","","","","","","","","74","J","1","","","12","main_expt"
"","bandit","92","756434","0.0-53.0-0.0","31596345","wem/bandit_either_2","A1T79J0XQXDDGC","either","7","125","","","","","","","0","0","1","","0.0257410372","0.6","0.4","0.8","0.2","0.3254913314","0.1833947696","0.2511698571","0.0257410372","","","","","","","","","","","","76","L","3","","","13","main_expt"
"","bandit","93","776274","0.0-54.0-0.0","31596345","wem/bandit_either_2","A1T79J0XQXDDGC","either","7","18310","","","","","","","0","0","1","","0.02570014082","0.6","0.4","0.8","0.2","0.3428504842","0.243643366","0.2158977649","0.02570014082","","","","","","","","","","","","76","L","3","","","14","main_expt"
"","bandit","94","778080","0.0-55.0-0.0","31596345","wem/bandit_either_2","A1T79J0XQXDDGC","either","7","270","","","","","","","0","0","1","0.2762480727","","0.6","0.4","0.8","0.2","","","","","0.3244047679","0.2265365198","0.2762480727","0.04268316416","","","","","","","","75","K","2","","","15","main_expt"
"","bandit","95","779666","0.0-56.0-0.0","31596345","wem/bandit_either_2","A1T79J0XQXDDGC","either","7","60","","","","","","","0","0","1","0.3202890724","","0.6","0.4","0.8","0.2","","","","","0.3025313629","0.2484951132","0.3202890724","0.04667408308","","","","","","","","75","K","2","","","16","main_expt"
"","bandit","96","781193","0.0-57.0-0.0","31596345","wem/bandit_either_2","A1T79J0XQXDDGC","either","7","4","","","","","","","0","0","1","0.2570267238","","0.6","0.4","0.8","0.2","","","","","0.3291216938","0.2570267238","0.3680552247","0.0506688767","","","","","","","","74","J","1","","","17","main_expt"
"","bandit","97","782743","0.0-58.0-0.0","31596345","wem/bandit_either_2","A1T79J0XQXDDGC","either","7","27","","","","","","","0","0","1","","0.2987881532","0.6","0.4","0.8","0.2","0.2987881532","0.287418789","0.3968593921","0.02988526167","","","","","","","","","","","","72","H","0","img/none_selected.jpg","","18","main_expt"
"","bandit","98","784359","0.0-59.0-0.0","31596345","wem/bandit_either_2","A1T79J0XQXDDGC","either","7","77","","","","","","","0","0","1","","0.281207523","0.6","0.4","0.8","0.2","0.281207523","0.2338710899","0.4192996399","0.03476350355","","","","","","","","","","","","72","H","0","img/none_selected.jpg","","19","main_expt"
"","bandit","99","785885","0.0-60.0-0.0","31596345","wem/bandit_either_2","A1T79J0XQXDDGC","either","7","4","","","","","","","1","0","0","0.291129981","","0.6","0.4","0.8","0.2","","","","","0.291129981","0.2335293464","0.4362768361","0.0233687216","","","","","","","","72","H","0","img/none_selected.jpg","","20","main_expt"
"","bandit","100","787656","0.0-61.0-0.0","31596345","wem/bandit_either_2","A1T79J0XQXDDGC","either","7","253","","","","","","","0","0","1","0.2729578326","","0.6","0.4","0.8","0.2","","","","","0.2729578326","0.2434826965","0.4599691003","0.01272547494","","","","","","","","72","H","0","img/none_selected.jpg","","21","main_expt"
"","bandit","101","789263","0.0-62.0-0.0","31596345","wem/bandit_either_2","A1T79J0XQXDDGC","either","7","83","","","","","","","0","0","1","0.2805141014","","0.6","0.4","0.8","0.2","","","","","0.2805141014","0.2702300591","0.44353765","0.01739491555","","","","","","","","72","H","0","img/none_selected.jpg","","22","main_expt"
"","bandit","102","791435","0.0-63.0-0.0","31596345","wem/bandit_either_2","A1T79J0XQXDDGC","either","7","14","","","","","","","0","0","1","0.3016389313","","0.6","0.4","0.8","0.2","","","","","0.3016389313","0.2424740502","0.4105594395","0.006692102231","","","","","","","","72","H","0","img/none_selected.jpg","","23","main_expt"
"","bandit","103","793628","0.0-64.0-0.0","31596345","wem/bandit_either_2","A1T79J0XQXDDGC","either","7","678","","","","","","","0","0","1","","0.01209419849","0.6","0.4","0.8","0.2","0.2475621169","0.1754503809","0.4243351486","0.01209419849","","","","","","","","","","","","76","L","3","","","24","main_expt"
"","bandit","104","795208","0.0-65.0-0.0","31596345","wem/bandit_either_2","A1T79J0XQXDDGC","either","7","57","","","","","","","0","1","0","","0.4172780312","0.6","0.4","0.8","0.2","0.2607476102","0.2023019753","0.4172780312","0.009734580702","","","","","","","","","","","","75","K","2","","","25","main_expt"
"","bandit","105","796783","0.0-66.0-0.0","31596345","wem/bandit_either_2","A1T79J0XQXDDGC","either","7","50","","","","","","","0","0","1","0.3981062588","","0.6","0.4","0.8","0.2","","","","","0.292589008","0.1887270612","0.3981062588","0.008596148908","","","","","","","","75","K","2","","","26","main_expt"
"","bandit","106","798315","0.0-67.0-0.0","31596345","wem/bandit_either_2","A1T79J0XQXDDGC","either","7","19","","","","","","","1","0","0","0.3889188119","","0.6","0.4","0.8","0.2","","","","","0.2978950393","0.2526986378","0.3889188119","0.01380650739","","","","","","","","75","K","2","","","27","main_expt"
"","bandit","107","799914","0.0-68.0-0.0","31596345","wem/bandit_either_2","A1T79J0XQXDDGC","either","7","77","","","","","","","1","0","0","0.3699095679","","0.6","0.4","0.8","0.2","","","","","0.337392419","0.2536033627","0.3699095679","0.01160852189","","","","","","","","75","K","2","","","28","main_expt"
"","bandit","108","801829","0.0-69.0-0.0","31596345","wem/bandit_either_2","A1T79J0XQXDDGC","either","7","393","","","","","","","1","0","0","0.4087832773","","0.6","0.4","0.8","0.2","","","","","0.3830759015","0.258258936","0.4087832773","0.02858314752","","","","","","","","75","K","2","","","29","main_expt"
"","bandit","109","805435","0.0-70.0-0.0","31596345","wem/bandit_either_2","A1T79J0XQXDDGC","either","7","266","","","","","","","1","0","0","0.4162513677","","0.6","0.4","0.8","0.2","","","","","0.3778881599","0.3152574144","0.4162513677","0.0265596094","","","","","","","","75","K","2","","","30","main_expt"
"","bandit","110","811481","0.0-71.0-0.0","31596345","wem/bandit_either_2","A1T79J0XQXDDGC","either","7","4531","","","","","","","1","0","0","0.43337534","","0.6","0.4","0.8","0.2","","","","","0.3585458117","0.3508579725","0.43337534","0.02828816112","","","","","","","","75","K","2","","","31","main_expt"
"","bandit","111","813123","0.0-72.0-0.0","31596345","wem/bandit_either_2","A1T79J0XQXDDGC","either","7","104","","","","","","","0","0","1","0.4399105216","","0.6","0.4","0.8","0.2","","","","","0.3511664436","0.3902021543","0.4399105216","0.03857304495","","","","","","","","75","K","2","","","32","main_expt"
"","bandit","112","814875","0.0-73.0-0.0","31596345","wem/bandit_either_2","A1T79J0XQXDDGC","either","7","232","","","","","","","0","0","1","0.3859623535","","0.6","0.4","0.8","0.2","","","","","0.3924960189","0.4112626521","0.3859623535","0.02642959278","","","","","","","","75","K","2","","","33","main_expt"
"","bandit","113","816481","0.0-74.0-0.0","31596345","wem/bandit_either_2","A1T79J0XQXDDGC","either","7","79","","","","","","","0","0","1","0.4231921331","","0.6","0.4","0.8","0.2","","","","","0.3713907517","0.3912589523","0.4231921331","0.06800028167","","","","","","","","75","K","2","","","34","main_expt"
"","bandit","114","818021","0.0-75.0-0.0","31596345","wem/bandit_either_2","A1T79J0XQXDDGC","either","7","23","","","","","","","1","0","0","0.3950458867","","0.6","0.4","0.8","0.2","","","","","0.3929004689","0.3663646496","0.3950458867","0.05710280771","","","","","","","","75","K","2","","","35","main_expt"
"","bandit","115","819661","0.0-76.0-0.0","31596345","wem/bandit_either_2","A1T79J0XQXDDGC","either","7","119","","","","","","","0","0","1","","0.4005306787","0.6","0.4","0.8","0.2","0.3820467604","0.3045225128","0.4005306787","0.07756943076","","","","","","","","","","","","75","K","2","","","36","main_expt"
"","bandit","116","821364","0.0-77.0-0.0","31596345","wem/bandit_either_2","A1T79J0XQXDDGC","either","7","175","","","","","","","0","0","1","","0.06074629621","0.6","0.4","0.8","0.2","0.3948022939","0.2806474599","0.3972735937","0.06074629621","","","","","","","","","","","","76","L","3","","","37","main_expt"
"","bandit","117","823006","0.0-78.0-0.0","31596345","wem/bandit_either_2","A1T79J0XQXDDGC","either","7","120","","","","","","","0","0","1","0.3558759705","","0.6","0.4","0.8","0.2","","","","","0.3769579019","0.3558759705","0.38339591","0.07063042774","","","","","","","","74","J","1","","","38","main_expt"
"","bandit","118","824832","0.0-79.0-0.0","31596345","wem/bandit_either_2","A1T79J0XQXDDGC","either","7","308","","","","","","","0","0","1","","0.4030344636","0.6","0.4","0.8","0.2","0.4030344636","0.3194138052","0.3906354184","0.06209293178","","","","","","","","","","","","72","H","0","img/none_selected.jpg","","39","main_expt"
"","bandit","119","826387","0.0-80.0-0.0","31596345","wem/bandit_either_2","A1T79J0XQXDDGC","either","7","32","","","","","","","0","0","1","","0.06952578958","0.6","0.4","0.8","0.2","0.3622335218","0.3549086085","0.3623676206","0.06952578958","","","","","","","","","","","","76","L","3","","","40","main_expt"
"","bandit","120","827927","0.0-81.0-0.0","31596345","wem/bandit_either_2","A1T79J0XQXDDGC","either","7","18","","","","","","","0","0","1","0.3873704927","","0.6","0.4","0.8","0.2","","","","","0.3911596719","0.3452113815","0.3873704927","0.1291245709","","","","","","","","75","K","2","","","41","main_expt"
"","bandit","121","829813","0.0-82.0-0.0","31596345","wem/bandit_either_2","A1T79J0XQXDDGC","either","7","356","","","","","","","0","0","1","0.1174523948","","0.6","0.4","0.8","0.2","","","","","0.3921858285","0.3522960267","0.359823116","0.1174523948","","","","","","","","76","L","3","","","42","main_expt"
"","bandit","122","831496","0.0-83.0-0.0","31596345","wem/bandit_either_2","A1T79J0XQXDDGC","either","7","146","","","","","","","0","0","1","","0.1201484523","0.6","0.4","0.8","0.2","0.3831213528","0.3093122096","0.3710191411","0.1201484523","","","","","","","","","","","","76","L","3","","","43","main_expt"
"","bandit","123","833023","0.0-84.0-0.0","31596345","wem/bandit_either_2","A1T79J0XQXDDGC","either","7","16","","","","","","","0","0","1","0.3518708159","","0.6","0.4","0.8","0.2","","","","","0.3518708159","0.3026159556","0.3874065465","0.09958360536","","","","","","","","72","H","0","img/none_selected.jpg","","44","main_expt"
"","bandit","124","834875","0.0-85.0-0.0","31596345","wem/bandit_either_2","A1T79J0XQXDDGC","either","7","330","","","","","","","0","0","1","","0.3336294247","0.6","0.4","0.8","0.2","0.3122870636","0.3336294247","0.3851533971","0.05173655998","","","","","","","","","","","","74","J","1","","","45","main_expt"
"","bandit","125","836880","0.0-86.0-0.0","31596345","wem/bandit_either_2","A1T79J0XQXDDGC","either","7","478","","","","","","","0","0","1","0.4055883719","","0.6","0.4","0.8","0.2","","","","","0.2635721956","0.3400222736","0.4055883719","0.05945041096","","","","","","","","75","K","2","","","46","main_expt"
"","bandit","126","838732","0.0-87.0-0.0","31596345","wem/bandit_either_2","A1T79J0XQXDDGC","either","7","338","","","","","","","1","0","0","0.3671593179","","0.6","0.4","0.8","0.2","","","","","0.2856785865","0.328707825","0.3671593179","0.04375763727","","","","","","","","75","K","2","","","47","main_expt"
"","bandit","127","843443","0.0-88.0-0.0","31596345","wem/bandit_either_2","A1T79J0XQXDDGC","either","7","2250","","","","","","","0","0","1","0.3198203038","","0.6","0.4","0.8","0.2","","","","","0.2649087478","0.3307690822","0.3198203038","0.0666370861","","","","","","","","75","K","2","","","48","main_expt"
"","bandit","128","858009","0.0-89.0-0.0","31596345","wem/bandit_either_2","A1T79J0XQXDDGC","either","7","13046","","","","","","","0","0","1","","0.3111357295","0.6","0.4","0.8","0.2","0.2462979357","0.3438067684","0.3111357295","0.08266213623","","","","","","","","","","","","75","K","2","","","49","main_expt"
"","bandit","129","859647","0.0-90.0-0.0","31596345","wem/bandit_either_2","A1T79J0XQXDDGC","either","7","104","","","","","","","0","0","1","0.3196682981","","0.6","0.4","0.8","0.2","","","","","0.2490076798","0.4037002216","0.3196682981","0.08795051988","","","","","","","","75","K","2","","","50","main_expt"
"","bandit","130","861208","0.0-91.0-0.0","31596345","wem/bandit_either_2","A1T79J0XQXDDGC","either","7","33","","","","","","","0","0","1","0.3088596379","","0.6","0.4","0.8","0.2","","","","","0.305209751","0.3557518394","0.3088596379","0.07533366945","","","","","","","","75","K","2","","","51","main_expt"
"","bandit","131","862757","0.0-92.0-0.0","31596345","wem/bandit_either_2","A1T79J0XQXDDGC","either","7","34","","","","","","","0","0","1","","0.06506638851","0.6","0.4","0.8","0.2","0.3087204988","0.3254324358","0.3060924957","0.06506638851","","","","","","","","","","","","76","L","3","","","52","main_expt"
"","bandit","132","864323","0.0-93.0-0.0","31596345","wem/bandit_either_2","A1T79J0XQXDDGC","either","7","50","","","","","","","0","0","1","","0.06562792832","0.6","0.4","0.8","0.2","0.2984188648","0.2952150256","0.3229319808","0.06562792832","","","","","","","","","","","","76","L","3","","","53","main_expt"
"","bandit","133","865883","0.0-94.0-0.0","31596345","wem/bandit_either_2","A1T79J0XQXDDGC","either","7","29","","","","","","","0","0","1","","0.04630081711","0.6","0.4","0.8","0.2","0.3353917468","0.300320608","0.3280138586","0.04630081711","","","","","","","","","","","","76","L","3","","","54","main_expt"
"","bandit","134","867491","0.0-95.0-0.0","31596345","wem/bandit_either_2","A1T79J0XQXDDGC","either","7","91","","","","","","","0","1","0","","0.3259144651","0.6","0.4","0.8","0.2","0.3259144651","0.2985084879","0.2777260571","0.03868373719","","","","","","","","","","","","72","H","0","img/none_selected.jpg","","55","main_expt"
"","bandit","135","869025","0.0-96.0-0.0","31596345","wem/bandit_either_2","A1T79J0XQXDDGC","either","7","8","","","","","","","1","0","0","0.3259049121","","0.6","0.4","0.8","0.2","","","","","0.3259049121","0.2607009345","0.1791004868","0.06235362297","","","","","","","","72","H","0","img/none_selected.jpg","","56","main_expt"
"","bandit","136","870614","0.0-97.0-0.0","31596345","wem/bandit_either_2","A1T79J0XQXDDGC","either","7","70","","","","","","","1","0","0","0.3687904078","","0.6","0.4","0.8","0.2","","","","","0.3687904078","0.2565854794","0.2182265394","0.04639461243","","","","","","","","72","H","0","img/none_selected.jpg","","57","main_expt"
"","bandit","137","872330","0.0-98.0-0.0","31596345","wem/bandit_either_2","A1T79J0XQXDDGC","either","7","195","","","","","","","0","0","1","0.3422038875","","0.6","0.4","0.8","0.2","","","","","0.3422038875","0.319121847","0.2970860181","0.08954448139","","","","","","","","72","H","0","img/none_selected.jpg","","58","main_expt"
"","bandit","138","873874","0.0-99.0-0.0","31596345","wem/bandit_either_2","A1T79J0XQXDDGC","either","7","23","","","","","","","0","0","1","0.3771421139","","0.6","0.4","0.8","0.2","","","","","0.3771421139","0.3269923399","0.3249685468","0.07390342289","","","","","","","","72","H","0","img/none_selected.jpg","","59","main_expt"
"","bandit","139","875490","0.0-100.0-0.0","31596345","wem/bandit_either_2","A1T79J0XQXDDGC","either","7","80","","","","","","","1","0","0","0.3620124399","","0.6","0.4","0.8","0.2","","","","","0.3620124399","0.3150968823","0.2931470039","0.05801548519","","","","","","","","72","H","0","img/none_selected.jpg","","60","main_expt"
"","bandit","140","877458","0.0-101.0-0.0","31596345","wem/bandit_either_2","A1T79J0XQXDDGC","either","7","189","","","","","","","0","0","1","0.3958116198","","0.6","0.4","0.8","0.2","","","","","0.3958116198","0.324539239","0.2646536279","0.07333263924","","","","","","","","72","H","0","img/none_selected.jpg","","61","main_expt"
"","bandit","141","885466","0.0-102.0-0.0","31596345","wem/bandit_either_2","A1T79J0XQXDDGC","either","7","6479","","","","","","","0","1","0","","0.3615218546","0.6","0.4","0.8","0.2","0.3615218546","0.3066306166","0.242461968","0.07563430262","","","","","","","","","","","","72","H","0","img/none_selected.jpg","","62","main_expt"
"","bandit","142","886981","0.0-103.0-0.0","31596345","wem/bandit_either_2","A1T79J0XQXDDGC","either","7","7","","","","","","","1","0","0","0.3574266064","","0.6","0.4","0.8","0.2","","","","","0.3574266064","0.3068900116","0.2206683029","0.06826526778","","","","","","","","72","H","0","img/none_selected.jpg","","63","main_expt"
"","bandit","143","888728","0.0-104.0-0.0","31596345","wem/bandit_either_2","A1T79J0XQXDDGC","either","7","233","","","","","","","0","0","1","0.3541915859","","0.6","0.4","0.8","0.2","","","","","0.3541915859","0.2936494982","0.2288959862","0.1175271989","","","","","","","","72","H","0","img/none_selected.jpg","","64","main_expt"
"","bandit","144","890344","0.0-105.0-0.0","31596345","wem/bandit_either_2","A1T79J0XQXDDGC","either","7","87","","","","","","","1","0","0","0.3339820985","","0.6","0.4","0.8","0.2","","","","","0.3339820985","0.290236101","0.2346523549","0.1273865191","","","","","","","","72","H","0","img/none_selected.jpg","","65","main_expt"
"","bandit","145","891967","0.0-106.0-0.0","31596345","wem/bandit_either_2","A1T79J0XQXDDGC","either","7","96","","","","","","","0","1","0","","0.3195467083","0.6","0.4","0.8","0.2","0.3195467083","0.2512036594","0.1881688105","0.09075088943","","","","","","","","","","","","72","H","0","img/none_selected.jpg","","66","main_expt"
"","bandit","146","893927","0.0-107.0-0.0","31596345","wem/bandit_either_2","A1T79J0XQXDDGC","either","7","438","","","","","","","0","0","1","0.3477383846","","0.6","0.4","0.8","0.2","","","","","0.3477383846","0.263747572","0.231043846","0.08077075725","","","","","","","","72","H","0","img/none_selected.jpg","","67","main_expt"
"","bandit","147","896014","0.0-108.0-0.0","31596345","wem/bandit_either_2","A1T79J0XQXDDGC","either","7","1","","","","","","","0","1","0","","0.3365352069","0.6","0.4","0.8","0.2","0.3365352069","0.2892519303","0.2576664243","0.08810311296","","","","","","","","","","","","72","H","0","img/none_selected.jpg","","68","main_expt"
"","bandit","148","898435","0.0-109.0-0.0","31596345","wem/bandit_either_2","A1T79J0XQXDDGC","either","7","193","","","","","","","1","0","0","0.3148812039","","0.6","0.4","0.8","0.2","","","","","0.3148812039","0.2383664846","0.2183283259","0.1260156682","","","","","","","","72","H","0","img/none_selected.jpg","","69","main_expt"
"","bandit","149","907507","0.0-110.0-0.0","31596345","wem/bandit_either_2","A1T79J0XQXDDGC","either","7","7562","","","","","","","0","0","1","","0.3154014692","0.6","0.4","0.8","0.2","0.3154014692","0.2497111545","0.2260484764","0.08773951932","","","","","","","","","","","","72","H","0","img/none_selected.jpg","","70","main_expt"
"","bandit","150","909479","0.0-111.0-0.0","31596345","wem/bandit_either_2","A1T79J0XQXDDGC","either","7","124","","","","","","","0","0","1","","0.2095843002","0.6","0.4","0.8","0.2","0.219815459","0.2095843002","0.3196469567","0.1154304285","","","","","","","","","","","","74","J","1","","","71","main_expt"
"","bandit","151","913077","0.0-112.0-0.0","31596345","wem/bandit_either_2","A1T79J0XQXDDGC","either","7","2073","","","","","","","0","0","1","0.3644141189","","0.6","0.4","0.8","0.2","","","","","0.2623730272","0.1972488467","0.3644141189","0.10097247","","","","","","","","75","K","2","","","72","main_expt"
"","bandit","152","914673","0.0-113.0-0.0","31596345","wem/bandit_either_2","A1T79J0XQXDDGC","either","7","62","","","","","","","0","0","1","0.15494396","","0.6","0.4","0.8","0.2","","","","","0.2639805735","0.15494396","0.4081842109","0.0746930591","","","","","","","","74","J","1","","","73","main_expt"
"","bandit","153","916254","0.0-114.0-0.0","31596345","wem/bandit_either_2","A1T79J0XQXDDGC","either","7","56","","","","","","","0","0","1","","0.1124392477","0.6","0.4","0.8","0.2","0.2770925356","0.1324790415","0.4506698749","0.1124392477","","","","","","","","","","","","76","L","3","","","74","main_expt"
"","bandit","154","917806","0.0-115.0-0.0","31596345","wem/bandit_either_2","A1T79J0XQXDDGC","either","7","17","","","","","","","0","0","1","","0.2796652475","0.6","0.4","0.8","0.2","0.2796652475","0.179195356","0.454520075","0.113494578","","","","","","","","","","","","72","H","0","img/none_selected.jpg","","75","main_expt"
"","bandit","155","919390","0.0-116.0-0.0","31596345","wem/bandit_either_2","A1T79J0XQXDDGC","either","7","45","","","","","","","1","0","0","0.3153427244","","0.6","0.4","0.8","0.2","","","","","0.3153427244","0.215808919","0.466199952","0.1469344428","","","","","","","","72","H","0","img/none_selected.jpg","","76","main_expt"
"","bandit","156","921124","0.0-117.0-0.0","31596345","wem/bandit_either_2","A1T79J0XQXDDGC","either","7","208","","","","","","","0","0","1","","0.3676911864","0.6","0.4","0.8","0.2","0.3676911864","0.2312347408","0.4402141775","0.2152215887","","","","","","","","","","","","72","H","0","img/none_selected.jpg","","77","main_expt"
"","bandit","157","922653","0.0-118.0-0.0","31596345","wem/bandit_either_2","A1T79J0XQXDDGC","either","7","3","","","","","","","0","0","1","","0.3434277392","0.6","0.4","0.8","0.2","0.3434277392","0.2197025874","0.4525957793","0.2055177618","","","","","","","","","","","","72","H","0","img/none_selected.jpg","","78","main_expt"
"","bandit","158","924316","0.0-119.0-0.0","31596345","wem/bandit_either_2","A1T79J0XQXDDGC","either","7","124","","","","","","","0","1","0","","0.3758616161","0.6","0.4","0.8","0.2","0.3758616161","0.2227420924","0.4630799716","0.222262525","","","","","","","","","","","","72","H","0","img/none_selected.jpg","","79","main_expt"
"","bandit","159","925968","0.0-120.0-0.0","31596345","wem/bandit_either_2","A1T79J0XQXDDGC","either","7","108","","","","","","","1","0","0","0.3862393514","","0.6","0.4","0.8","0.2","","","","","0.3862393514","0.2283057493","0.423693353","0.2700860438","","","","","","","","72","H","0","img/none_selected.jpg","","80","main_expt"
"","bandit","160","927587","0.0-121.0-0.0","31596345","wem/bandit_either_2","A1T79J0XQXDDGC","either","7","89","","","","","","","1","0","0","0.3593770893","","0.6","0.4","0.8","0.2","","","","","0.3593770893","0.2721525977","0.4319112677","0.2642688004","","","","","","","","72","H","0","img/none_selected.jpg","","81","main_expt"
"","bandit","161","929291","0.0-122.0-0.0","31596345","wem/bandit_either_2","A1T79J0XQXDDGC","either","7","165","","","","","","","1","0","0","0.4035110645","","0.6","0.4","0.8","0.2","","","","","0.4035110645","0.2850237184","0.441827487","0.2824164754","","","","","","","","72","H","0","img/none_selected.jpg","","82","main_expt"
"","bandit","162","930920","0.0-123.0-0.0","31596345","wem/bandit_either_2","A1T79J0XQXDDGC","either","7","95","","","","","","","0","0","1","","0.3719627038","0.6","0.4","0.8","0.2","0.3719627038","0.3236436683","0.4288861504","0.2819095575","","","","","","","","","","","","72","H","0","img/none_selected.jpg","","83","main_expt"
"","bandit","163","932550","0.0-124.0-0.0","31596345","wem/bandit_either_2","A1T79J0XQXDDGC","either","7","105","","","","","","","1","0","0","0.3349288927","","0.6","0.4","0.8","0.2","","","","","0.3349288927","0.3339638593","0.4350385517","0.2589745902","","","","","","","","72","H","0","img/none_selected.jpg","","84","main_expt"
"","bandit","164","934440","0.0-125.0-0.0","31596345","wem/bandit_either_2","A1T79J0XQXDDGC","either","7","164","","","","","","","0","0","1","0.3247899262","","0.6","0.4","0.8","0.2","","","","","0.3247899262","0.3795022601","0.4255505645","0.3626504113","","","","","","","","72","H","0","img/none_selected.jpg","","85","main_expt"
"","bandit","165","936670","0.0-126.0-0.0","31596345","wem/bandit_either_2","A1T79J0XQXDDGC","either","7","717","","","","","","","0","0","1","","0.3443557019","0.6","0.4","0.8","0.2","0.3443557019","0.3835523064","0.4330938692","0.3598915268","","","","","","","","","","","","72","H","0","img/none_selected.jpg","","86","main_expt"
"","bandit","166","938205","0.0-127.0-0.0","31596345","wem/bandit_either_2","A1T79J0XQXDDGC","either","7","2","","","","","","","0","0","1","","0.3648776167","0.6","0.4","0.8","0.2","0.3648776167","0.3772514457","0.4548398529","0.3433052933","","","","","","","","","","","","72","H","0","img/none_selected.jpg","","87","main_expt"
"","bandit","167","939732","0.0-128.0-0.0","31596345","wem/bandit_either_2","A1T79J0XQXDDGC","either","7","1","","","","","","","0","0","1","0.3609631839","","0.6","0.4","0.8","0.2","","","","","0.3609631839","0.3766830519","0.4493124031","0.4022938878","","","","","","","","72","H","0","img/none_selected.jpg","","88","main_expt"
"","bandit","168","941442","0.0-129.0-0.0","31596345","wem/bandit_either_2","A1T79J0XQXDDGC","either","7","170","","","","","","","0","1","0","","0.3636167192","0.6","0.4","0.8","0.2","0.3636167192","0.3537755119","0.4161110063","0.4141493151","","","","","","","","","","","","72","H","0","img/none_selected.jpg","","89","main_expt"
"","bandit","169","942967","0.0-130.0-0.0","31596345","wem/bandit_either_2","A1T79J0XQXDDGC","either","7","0","","","","","","","0","0","1","","0.3563441379","0.6","0.4","0.8","0.2","0.3563441379","0.3014761449","0.405260856","0.4136124289","","","","","","","","","","","","72","H","0","img/none_selected.jpg","","90","main_expt"
"","bandit","170","944748","0.0-131.0-0.0","31596345","wem/bandit_either_2","A1T79J0XQXDDGC","either","7","245","","","","","","","0","0","1","","0.2694038268","0.6","0.4","0.8","0.2","0.3389138503","0.2694038268","0.3827048226","0.4184852842","","","","","","","","","","","","74","J","1","","","91","main_expt"
"","bandit","171","946313","0.0-132.0-0.0","31596345","wem/bandit_either_2","A1T79J0XQXDDGC","either","7","35","","","","","","","1","0","0","0.3552182969","","0.6","0.4","0.8","0.2","","","","","0.3263360165","0.2651536323","0.3552182969","0.4456808576","","","","","","","","75","K","2","","","92","main_expt"
"","bandit","172","948020","0.0-133.0-0.0","31596345","wem/bandit_either_2","A1T79J0XQXDDGC","either","7","172","","","","","","","1","0","0","0.3286897504","","0.6","0.4","0.8","0.2","","","","","0.2844131911","0.1997208586","0.3286897504","0.4355219805","","","","","","","","75","K","2","","","93","main_expt"
"","bandit","173","950431","0.0-134.0-0.0","31596345","wem/bandit_either_2","A1T79J0XQXDDGC","either","7","20","","","","","","","0","0","1","0.3422490236","","0.6","0.4","0.8","0.2","","","","","0.2978465223","0.2442555344","0.3422490236","0.4609821192","","","","","","","","75","K","2","","","94","main_expt"
"","bandit","174","952486","0.0-135.0-0.0","31596345","wem/bandit_either_2","A1T79J0XQXDDGC","either","7","262","","","","","","","1","0","0","0.3160161054","","0.6","0.4","0.8","0.2","","","","","0.2638723705","0.2638839348","0.3160161054","0.4419374505","","","","","","","","75","K","2","","","95","main_expt"
"","bandit","175","954497","0.0-136.0-0.0","31596345","wem/bandit_either_2","A1T79J0XQXDDGC","either","7","472","","","","","","","1","0","0","0.2945538732","","0.6","0.4","0.8","0.2","","","","","0.2276010735","0.2265245807","0.2945538732","0.39438674","","","","","","","","75","K","2","","","96","main_expt"
"","bandit","176","956015","0.0-137.0-0.0","31596345","wem/bandit_either_2","A1T79J0XQXDDGC","either","7","1","","","","","","","1","0","0","0.393563827","","0.6","0.4","0.8","0.2","","","","","0.2045446072","0.1969189177","0.393563827","0.3617668419","","","","","","","","75","K","2","","","97","main_expt"
"","bandit","177","957571","0.0-138.0-0.0","31596345","wem/bandit_either_2","A1T79J0XQXDDGC","either","7","39","","","","","","","0","0","1","","0.4046254927","0.6","0.4","0.8","0.2","0.2436418828","0.1761144245","0.4046254927","0.3737913853","","","","","","","","","","","","75","K","2","","","98","main_expt"
"","bandit","178","959164","0.0-139.0-0.0","31596345","wem/bandit_either_2","A1T79J0XQXDDGC","either","7","62","","","","","","","1","0","0","0.3659012549","","0.6","0.4","0.8","0.2","","","","","0.2473144087","0.1211630765","0.3659012549","0.4221129479","","","","","","","","75","K","2","","","99","main_expt"
"","bandit","179","961486","0.0-140.0-0.0","31596345","wem/bandit_either_2","A1T79J0XQXDDGC","either","7","296","","","","","","","0","0","1","","0.400368336","0.6","0.4","0.8","0.2","0.2707360286","0.1257326749","0.400368336","0.3857893684","","","","","","","","","","","","75","K","2","","","100","main_expt"
"","bandit","180","963012","0.0-141.0-0.0","31596345","wem/bandit_either_2","A1T79J0XQXDDGC","either","7","0","","","","","","","0","0","1","0.4367931528","","0.6","0.4","0.8","0.2","","","","","0.3250409822","0.09975532208","0.4367931528","0.3635527264","","","","","","","","75","K","2","","","101","main_expt"
"","bandit","181","964860","0.0-142.0-0.0","31596345","wem/bandit_either_2","A1T79J0XQXDDGC","either","7","313","","","","","","","0","0","1","0.4371155326","","0.6","0.4","0.8","0.2","","","","","0.3088580598","0.1127414424","0.4371155326","0.3738375489","","","","","","","","75","K","2","","","102","main_expt"
"","bandit","182","966613","0.0-143.0-0.0","31596345","wem/bandit_either_2","A1T79J0XQXDDGC","either","7","244","","","","","","","0","0","1","","0.388648264","0.6","0.4","0.8","0.2","0.2901001995","0.1232600734","0.388648264","0.3860163181","","","","","","","","","","","","75","K","2","","","103","main_expt"
"","bandit","183","968185","0.0-144.0-0.0","31596345","wem/bandit_either_2","A1T79J0XQXDDGC","either","7","46","","","","","","","1","0","0","0.3718469433","","0.6","0.4","0.8","0.2","","","","","0.309645936","0.08156843846","0.3718469433","0.390692362","","","","","","","","75","K","2","","","104","main_expt"
"","bandit","184","970457","0.0-145.0-0.0","31596345","wem/bandit_either_2","A1T79J0XQXDDGC","either","7","127","","","","","","","0","0","1","0.3920304628","","0.6","0.4","0.8","0.2","","","","","0.3386062745","0.08245659199","0.3920304628","0.4139082553","","","","","","","","75","K","2","","","105","main_expt"
"","bandit","185","975714","0.0-146.0-0.0","31596345","wem/bandit_either_2","A1T79J0XQXDDGC","either","7","3744","","","","","","","0","0","1","","0.3295275825","0.6","0.4","0.8","0.2","0.3827539061","0.1276639339","0.3733497125","0.3295275825","","","","","","","","","","","","76","L","3","","","106","main_expt"
"","bandit","186","977461","0.0-147.0-0.0","31596345","wem/bandit_either_2","A1T79J0XQXDDGC","either","7","54","","","","","","","0","0","1","0.3878439861","","0.6","0.4","0.8","0.2","","","","","0.3401355396","0.1812689745","0.3878439861","0.3499712774","","","","","","","","75","K","2","","","107","main_expt"
"","bandit","187","981430","0.0-148.0-0.0","31596345","wem/bandit_either_2","A1T79J0XQXDDGC","either","7","1696","","","","","","","0","0","1","","0.2187982558","0.6","0.4","0.8","0.2","0.3258039352","0.2187982558","0.3529013302","0.2666891207","","","","","","","","","","","","74","J","1","","","108","main_expt"
"","bandit","188","1000291","0.0-149.0-0.0","31596345","wem/bandit_either_2","A1T79J0XQXDDGC","either","7","17343","","","","","","","0","1","0","","0.2201216928","0.6","0.4","0.8","0.2","0.374919859","0.2201216928","0.3457683734","0.2575067634","","","","","","","","","","","","74","J","1","","","109","main_expt"
"","bandit","189","1001977","0.0-150.0-0.0","31596345","wem/bandit_either_2","A1T79J0XQXDDGC","either","7","152","","","","","","","0","0","1","","0.1789817232","0.6","0.4","0.8","0.2","0.3656186065","0.1789817232","0.3316873257","0.2664913793","","","","","","","","","","","","74","J","1","","","110","main_expt"
"","bandit","190","1004452","0.0-151.0-0.0","31596345","wem/bandit_either_2","A1T79J0XQXDDGC","either","7","134","","","","","","","0","0","1","","0.2404947452","0.6","0.4","0.8","0.2","0.3649701027","0.2404947452","0.3434945318","0.2233446911","","","","","","","","","","","","74","J","1","","","111","main_expt"
"","bandit","191","1007930","0.0-152.0-0.0","31596345","wem/bandit_either_2","A1T79J0XQXDDGC","either","7","1961","","","","","","","0","0","1","0.3371716456","","0.6","0.4","0.8","0.2","","","","","0.3371716456","0.2959558532","0.2729480053","0.2170082082","","","","","","","","72","H","0","img/none_selected.jpg","","112","main_expt"
"","bandit","192","1010429","0.0-153.0-0.0","31596345","wem/bandit_either_2","A1T79J0XQXDDGC","either","7","98","","","","","","","0","0","1","","0.2966985553","0.6","0.4","0.8","0.2","0.2587224119","0.2966985553","0.2579672073","0.1912277411","","","","","","","","","","","","74","J","1","","","113","main_expt"
"","bandit","193","1032404","0.0-154.0-0.0","31596345","wem/bandit_either_2","A1T79J0XQXDDGC","either","7","20459","","","","","","","1","0","0","0.3289730608","","0.6","0.4","0.8","0.2","","","","","0.2384324947","0.3289730608","0.24654084","0.1691995451","","","","","","","","74","J","1","","","114","main_expt"
"","bandit","194","1033931","0.0-155.0-0.0","31596345","wem/bandit_either_2","A1T79J0XQXDDGC","either","7","15","","","","","","","0","1","0","","0.2783705844","0.6","0.4","0.8","0.2","0.2705755989","0.2783705844","0.246649757","0.1263730162","","","","","","","","","","","","74","J","1","","","115","main_expt"
"","bandit","195","1035480","0.0-156.0-0.0","31596345","wem/bandit_either_2","A1T79J0XQXDDGC","either","7","19","","","","","","","0","1","0","","0.2990421824","0.6","0.4","0.8","0.2","0.2666822","0.2990421824","0.2190482835","0.1130092975","","","","","","","","","","","","74","J","1","","","116","main_expt"
"","bandit","196","1038429","0.0-157.0-0.0","31596345","wem/bandit_either_2","A1T79J0XQXDDGC","either","7","35","","","","","","","0","0","1","","0.3214730448","0.6","0.4","0.8","0.2","0.2664749026","0.3214730448","0.1860086181","0.1317362661","","","","","","","","","","","","74","J","1","","","117","main_expt"
"","bandit","197","1040579","0.0-158.0-0.0","31596345","wem/bandit_either_2","A1T79J0XQXDDGC","either","7","622","","","","","","","0","0","1","","0.3996160597","0.6","0.4","0.8","0.2","0.285497096","0.3996160597","0.1765749983","0.08460291254","","","","","","","","","","","","74","J","1","","","118","main_expt"
"","bandit","198","1042262","0.0-159.0-0.0","31596345","wem/bandit_either_2","A1T79J0XQXDDGC","either","7","138","","","","","","","0","0","1","","0.4143362638","0.6","0.4","0.8","0.2","0.3004427434","0.4143362638","0.1840588368","0.09168363065","","","","","","","","","","","","74","J","1","","","119","main_expt"
"","bandit","199","1044781","0.0-160.0-0.0","31596345","wem/bandit_either_2","A1T79J0XQXDDGC","either","7","3","","","","","","","1","0","0","0.372340151","","0.6","0.4","0.8","0.2","","","","","0.2419855731","0.372340151","0.1988357929","0.06729372802","","","","","","","","74","J","1","","","120","main_expt"
"","bandit","200","1046482","0.0-161.0-0.0","31596345","wem/bandit_either_2","A1T79J0XQXDDGC","either","7","192","","","","","","","0","0","1","0.3910424524","","0.6","0.4","0.8","0.2","","","","","0.3054132847","0.3910424524","0.2315674","0.08346408207","","","","","","","","74","J","1","","","121","main_expt"
"","bandit","201","1048283","0.0-162.0-0.0","31596345","wem/bandit_either_2","A1T79J0XQXDDGC","either","7","266","","","","","","","0","0","1","0.2473202095","","0.6","0.4","0.8","0.2","","","","","0.2473202095","0.3813410711","0.2041322171","0.05632743158","","","","","","","","72","H","0","img/none_selected.jpg","","122","main_expt"
"","bandit","202","1049811","0.0-163.0-0.0","31596345","wem/bandit_either_2","A1T79J0XQXDDGC","either","7","3","","","","","","","0","0","1","0.2909195989","","0.6","0.4","0.8","0.2","","","","","0.2909195989","0.4247291795","0.1945268209","0.05516745574","","","","","","","","72","H","0","img/none_selected.jpg","","123","main_expt"
"","bandit","203","1051378","0.0-164.0-0.0","31596345","wem/bandit_either_2","A1T79J0XQXDDGC","either","7","35","","","","","","","0","0","1","","0.2206749142","0.6","0.4","0.8","0.2","0.3493750294","0.4311179713","0.2206749142","0.05528311039","","","","","","","","","","","","75","K","2","","","124","main_expt"
"","bandit","204","1052970","0.0-165.0-0.0","31596345","wem/bandit_either_2","A1T79J0XQXDDGC","either","7","72","","","","","","","0","0","1","0.212012295","","0.6","0.4","0.8","0.2","","","","","0.3883668019","0.4085782939","0.212012295","0.07149807259","","","","","","","","75","K","2","","","125","main_expt"
"","bandit","205","1054836","0.0-166.0-0.0","31596345","wem/bandit_either_2","A1T79J0XQXDDGC","either","7","348","","","","","","","0","0","1","0.1137803622","","0.6","0.4","0.8","0.2","","","","","0.3888129637","0.4110861309","0.1656684785","0.1137803622","","","","","","","","76","L","3","","","126","main_expt"
"","bandit","206","1056405","0.0-167.0-0.0","31596345","wem/bandit_either_2","A1T79J0XQXDDGC","either","7","49","","","","","","","0","0","1","","0.1003054442","0.6","0.4","0.8","0.2","0.3659195129","0.4214671818","0.1685301808","0.1003054442","","","","","","","","","","","","76","L","3","","","127","main_expt"
"","bandit","207","1057953","0.0-168.0-0.0","31596345","wem/bandit_either_2","A1T79J0XQXDDGC","either","7","16","","","","","","","0","0","1","","0.1378169536","0.6","0.4","0.8","0.2","0.3689954399","0.36889317","0.1703551811","0.1378169536","","","","","","","","","","","","76","L","3","","","128","main_expt"
"","bandit","208","1059940","0.0-169.0-0.0","31596345","wem/bandit_either_2","A1T79J0XQXDDGC","either","7","469","","","","","","","0","0","1","","0.1333081235","0.6","0.4","0.8","0.2","0.3600340942","0.3840267129","0.1624753709","0.1333081235","","","","","","","","","","","","76","L","3","","","129","main_expt"
"","bandit","209","1061599","0.0-170.0-0.0","31596345","wem/bandit_either_2","A1T79J0XQXDDGC","either","7","112","","","","","","","0","0","1","","0.1682212827","0.6","0.4","0.8","0.2","0.3580797835","0.3809677701","0.2335662737","0.1682212827","","","","","","","","","","","","76","L","3","","","130","main_expt"
"","bandit","210","1063339","0.0-171.0-0.0","31596345","wem/bandit_either_2","A1T79J0XQXDDGC","either","7","46","","","","","","","0","0","1","","0.240441026","0.6","0.4","0.8","0.2","0.3785893338","0.3681933818","0.240441026","0.2193829955","","","","","","","","","","","","75","K","2","","","131","main_expt"
"","bandit","211","1065011","0.0-172.0-0.0","31596345","wem/bandit_either_2","A1T79J0XQXDDGC","either","7","152","","","","","","","0","0","1","0.2266699971","","0.6","0.4","0.8","0.2","","","","","0.3764735404","0.3664045944","0.2266699971","0.2693349046","","","","","","","","75","K","2","","","132","main_expt"
"","bandit","212","1066639","0.0-173.0-0.0","31596345","wem/bandit_either_2","A1T79J0XQXDDGC","either","7","95","","","","","","","0","1","0","","0.1994193025","0.6","0.4","0.8","0.2","0.3433534211","0.4046437197","0.1994193025","0.2576546077","","","","","","","","","","","","75","K","2","","","133","main_expt"
"","bandit","213","1068182","0.0-174.0-0.0","31596345","wem/bandit_either_2","A1T79J0XQXDDGC","either","7","9","","","","","","","0","0","1","0.1891464922","","0.6","0.4","0.8","0.2","","","","","0.3606247271","0.364490756","0.1891464922","0.2412372273","","","","","","","","75","K","2","","","134","main_expt"
"","bandit","214","1069720","0.0-175.0-0.0","31596345","wem/bandit_either_2","A1T79J0XQXDDGC","either","7","6","","","","","","","0","0","1","0.311914316","","0.6","0.4","0.8","0.2","","","","","0.3268624306","0.311914316","0.1614798668","0.2198641054","","","","","","","","74","J","1","","","135","main_expt"
"","bandit","215","1071333","0.0-176.0-0.0","31596345","wem/bandit_either_2","A1T79J0XQXDDGC","either","7","85","","","","","","","0","1","0","","0.2653901568","0.6","0.4","0.8","0.2","0.2854606769","0.2653901568","0.1880386222","0.2504132697","","","","","","","","","","","","74","J","1","","","136","main_expt"
"","bandit","216","1073305","0.0-177.0-0.0","31596345","wem/bandit_either_2","A1T79J0XQXDDGC","either","7","428","","","","","","","0","0","1","0.2413295316","","0.6","0.4","0.8","0.2","","","","","0.3311747399","0.2413295316","0.1961818793","0.1912230989","","","","","","","","74","J","1","","","137","main_expt"
"","bandit","217","1074862","0.0-178.0-0.0","31596345","wem/bandit_either_2","A1T79J0XQXDDGC","either","7","10","","","","","","","0","0","1","0.2570785188","","0.6","0.4","0.8","0.2","","","","","0.2570785188","0.2060295423","0.2857678963","0.1576256809","","","","","","","","72","H","0","img/none_selected.jpg","","138","main_expt"
"","bandit","218","1076483","0.0-179.0-0.0","31596345","wem/bandit_either_2","A1T79J0XQXDDGC","either","7","102","","","","","","","0","0","1","","0.2858060749","0.6","0.4","0.8","0.2","0.2858060749","0.1809645164","0.3449131854","0.1019788138","","","","","","","","","","","","72","H","0","img/none_selected.jpg","","139","main_expt"
"","bandit","219","1078106","0.0-180.0-0.0","31596345","wem/bandit_either_2","A1T79J0XQXDDGC","either","7","104","","","","","","","0","0","1","0.2975559752","","0.6","0.4","0.8","0.2","","","","","0.2975559752","0.1843216893","0.2537716732","0.07754087054","","","","","","","","72","H","0","img/none_selected.jpg","","140","main_expt"
"","bandit","220","1079671","0.0-181.0-0.0","31596345","wem/bandit_either_2","A1T79J0XQXDDGC","either","7","51","","","","","","","1","0","0","0.2802168405","","0.6","0.4","0.8","0.2","","","","","0.2802168405","0.1651876155","0.2858111263","0.09489610577","","","","","","","","72","H","0","img/none_selected.jpg","","141","main_expt"
"","bandit","221","1081388","0.0-182.0-0.0","31596345","wem/bandit_either_2","A1T79J0XQXDDGC","either","7","174","","","","","","","0","0","1","","0.2231986748","0.6","0.4","0.8","0.2","0.2231986748","0.1536427928","0.303049367","0.09601428546","","","","","","","","","","","","72","H","0","img/none_selected.jpg","","142","main_expt"
"","bandit","222","1083262","0.0-183.0-0.0","31596345","wem/bandit_either_2","A1T79J0XQXDDGC","either","7","354","","","","","","","1","0","0","0.2032880393","","0.6","0.4","0.8","0.2","","","","","0.2032880393","0.1546140226","0.2969419413","0.08301142993","","","","","","","","72","H","0","img/none_selected.jpg","","143","main_expt"
"","bandit","223","1085433","0.0-184.0-0.0","31596345","wem/bandit_either_2","A1T79J0XQXDDGC","either","7","238","","","","","","","0","0","1","0.1967741464","","0.6","0.4","0.8","0.2","","","","","0.1967741464","0.1746031107","0.3128690494","0.09599686985","","","","","","","","72","H","0","img/none_selected.jpg","","144","main_expt"
"","bandit","224","1090571","0.0-185.0-0.0","31596345","wem/bandit_either_2","A1T79J0XQXDDGC","either","7","3629","","","","","","","0","0","1","0.2283154954","","0.6","0.4","0.8","0.2","","","","","0.2283154954","0.2021387556","0.2991796355","0.07499383622","","","","","","","","72","H","0","img/none_selected.jpg","","145","main_expt"
"","bandit","225","1092287","0.0-186.0-0.0","31596345","wem/bandit_either_2","A1T79J0XQXDDGC","either","7","193","","","","","","","0","0","1","0.2118700154","","0.6","0.4","0.8","0.2","","","","","0.2118700154","0.2504344391","0.3163763193","0.09566861","","","","","","","","72","H","0","img/none_selected.jpg","","146","main_expt"
"","bandit","226","1094018","0.0-187.0-0.0","31596345","wem/bandit_either_2","A1T79J0XQXDDGC","either","7","201","","","","","","","0","0","1","","0.210437557","0.6","0.4","0.8","0.2","0.210437557","0.2437718569","0.3198025905","0.08578591382","","","","","","","","","","","","72","H","0","img/none_selected.jpg","","147","main_expt"
"","bandit","227","1095570","0.0-188.0-0.0","31596345","wem/bandit_either_2","A1T79J0XQXDDGC","either","7","26","","","","","","","0","0","1","","0.2370661354","0.6","0.4","0.8","0.2","0.2370661354","0.2446677265","0.2588245921","0.1147887709","","","","","","","","","","","","72","H","0","img/none_selected.jpg","","148","main_expt"
"","bandit","228","1097430","0.0-189.0-0.0","31596345","wem/bandit_either_2","A1T79J0XQXDDGC","either","7","28","","","","","","","0","0","1","","0.2430363771","0.6","0.4","0.8","0.2","0.2430363771","0.2911002833","0.248712437","0.1378203382","","","","","","","","","","","","72","H","0","img/none_selected.jpg","","149","main_expt"
"","bandit","229","1099995","0.0-190.0-0.0","31596345","wem/bandit_either_2","A1T79J0XQXDDGC","either","7","1055","","","","","","","0","0","1","0.2242182381","","0.6","0.4","0.8","0.2","","","","","0.2242182381","0.3529655025","0.179144869","0.1414499273","","","","","","","","72","H","0","img/none_selected.jpg","","150","main_expt"
"","bandit","230","1102436","0.0-191.0-0.0","31596345","wem/bandit_either_2","A1T79J0XQXDDGC","either","7","493","","","","","","","0","0","1","0.3885741111","","0.6","0.4","0.8","0.2","","","","","0.1997145133","0.3885741111","0.1545669956","0.07852348772","","","","","","","","74","J","1","","","151","main_expt"
"","bandit","231","1104278","0.0-192.0-0.0","31596345","wem/bandit_either_2","A1T79J0XQXDDGC","either","7","327","","","","","","","0","1","0","","0.3690499696","0.6","0.4","0.8","0.2","0.2195927633","0.3690499696","0.1651714415","0.08485793113","","","","","","","","","","","","74","J","1","","","152","main_expt"
"","bandit","232","1105812","0.0-193.0-0.0","31596345","wem/bandit_either_2","A1T79J0XQXDDGC","either","7","13","","","","","","","0","0","1","0.3710492515","","0.6","0.4","0.8","0.2","","","","","0.2121816628","0.3710492515","0.2396245514","0.1083789561","","","","","","","","74","J","1","","","153","main_expt"
"","bandit","233","1107505","0.0-194.0-0.0","31596345","wem/bandit_either_2","A1T79J0XQXDDGC","either","7","168","","","","","","","0","1","0","","0.3483335413","0.6","0.4","0.8","0.2","0.1830588608","0.3483335413","0.2085838567","0.109098481","","","","","","","","","","","","74","J","1","","","154","main_expt"
"","bandit","234","1110442","0.0-195.0-0.0","31596345","wem/bandit_either_2","A1T79J0XQXDDGC","either","7","575","","","","","","","0","1","0","","0.3343760247","0.6","0.4","0.8","0.2","0.2031423662","0.3343760247","0.1864274254","0.1758262092","","","","","","","","","","","","74","J","1","","","155","main_expt"
"","bandit","235","1112531","0.0-196.0-0.0","31596345","wem/bandit_either_2","A1T79J0XQXDDGC","either","7","554","","","","","","","1","0","0","0.1750870897","","0.6","0.4","0.8","0.2","","","","","0.2022731065","0.3742013553","0.1750870897","0.2046597001","","","","","","","","75","K","2","","","156","main_expt"
"","bandit","236","1115434","0.0-197.0-0.0","31596345","wem/bandit_either_2","A1T79J0XQXDDGC","either","7","81","","","","","","","0","0","1","","0.1321985386","0.6","0.4","0.8","0.2","0.1826661219","0.3620366094","0.1321985386","0.1774751899","","","","","","","","","","","","75","K","2","","","157","main_expt"
"","bandit","237","1132126","0.0-198.0-0.0","31596345","wem/bandit_either_2","A1T79J0XQXDDGC","either","7","15152","","","","","","","0","0","1","0.1341899746","","0.6","0.4","0.8","0.2","","","","","0.1658993888","0.3671714071","0.1341899746","0.1612033886","","","","","","","","75","K","2","","","158","main_expt"
"","bandit","238","1134439","0.0-199.0-0.0","31596345","wem/bandit_either_2","A1T79J0XQXDDGC","either","7","56","","","","","","","0","0","1","0.1567784951","","0.6","0.4","0.8","0.2","","","","","0.1620079643","0.4015988616","0.1567784951","0.1586838935","","","","","","","","75","K","2","","","159","main_expt"
"","bandit","239","1156631","0.0-200.0-0.0","31596345","wem/bandit_either_2","A1T79J0XQXDDGC","either","7","20659","","","","","","","1","0","0","0.1615549635","","0.6","0.4","0.8","0.2","","","","","0.2453635642","0.4004877553","0.1615549635","0.2159944071","","","","","","","","75","K","2","","","160","main_expt"
"","bandit","240","1158252","0.0-201.0-0.0","31596345","wem/bandit_either_2","A1T79J0XQXDDGC","either","7","62","","","","","","","0","0","1","0.1854631015","","0.6","0.4","0.8","0.2","","","","","0.2456373749","0.4095849454","0.1854631015","0.2105769377","","","","","","","","75","K","2","","","161","main_expt"
"","bandit","241","1160341","0.0-202.0-0.0","31596345","wem/bandit_either_2","A1T79J0XQXDDGC","either","7","64","","","","","","","0","0","1","0.21229469","","0.6","0.4","0.8","0.2","","","","","0.2460125232","0.3978002783","0.21229469","0.2006925765","","","","","","","","75","K","2","","","162","main_expt"
"","bandit","242","1162072","0.0-203.0-0.0","31596345","wem/bandit_either_2","A1T79J0XQXDDGC","either","7","211","","","","","","","0","0","1","0.162194177","","0.6","0.4","0.8","0.2","","","","","0.2013568893","0.4180552148","0.162194177","0.2365124807","","","","","","","","75","K","2","","","163","main_expt"
"","bandit","243","1164435","0.0-204.0-0.0","31596345","wem/bandit_either_2","A1T79J0XQXDDGC","either","7","107","","","","","","","0","0","1","0.1535707797","","0.6","0.4","0.8","0.2","","","","","0.1933595846","0.4407560021","0.1535707797","0.2157370886","","","","","","","","75","K","2","","","164","main_expt"
"","bandit","244","1167042","0.0-205.0-0.0","31596345","wem/bandit_either_2","A1T79J0XQXDDGC","either","7","1080","","","","","","","1","0","0","0.2315934193","","0.6","0.4","0.8","0.2","","","","","0.167552211","0.4582960521","0.2315934193","0.2166787898","","","","","","","","75","K","2","","","165","main_expt"
"","bandit","245","1168640","0.0-206.0-0.0","31596345","wem/bandit_either_2","A1T79J0XQXDDGC","either","7","60","","","","","","","0","0","1","","0.2579087381","0.6","0.4","0.8","0.2","0.1311237951","0.4337500892","0.2579087381","0.1846262972","","","","","","","","","","","","75","K","2","","","166","main_expt"
"","bandit","246","1170287","0.0-207.0-0.0","31596345","wem/bandit_either_2","A1T79J0XQXDDGC","either","7","107","","","","","","","0","0","1","0.2496457694","","0.6","0.4","0.8","0.2","","","","","0.1714029316","0.4537582576","0.2496457694","0.1888750078","","","","","","","","75","K","2","","","167","main_expt"
"","bandit","247","1171908","0.0-208.0-0.0","31596345","wem/bandit_either_2","A1T79J0XQXDDGC","either","7","80","","","","","","","1","0","0","0.234558796","","0.6","0.4","0.8","0.2","","","","","0.1494402723","0.4473485534","0.234558796","0.2315683769","","","","","","","","75","K","2","","","168","main_expt"
"","bandit","248","1173620","0.0-209.0-0.0","31596345","wem/bandit_either_2","A1T79J0XQXDDGC","either","7","165","","","","","","","0","0","1","0.2458600006","","0.6","0.4","0.8","0.2","","","","","0.1819888556","0.4471591033","0.2458600006","0.2018123945","","","","","","","","75","K","2","","","169","main_expt"
"","bandit","249","1175181","0.0-210.0-0.0","31596345","wem/bandit_either_2","A1T79J0XQXDDGC","either","7","38","","","","","","","0","0","1","0.2214583157","","0.6","0.4","0.8","0.2","","","","","0.2329206984","0.4581839475","0.2214583157","0.139238222","","","","","","","","75","K","2","","","170","main_expt"
"","bandit","250","1177471","0.0-211.0-0.0","31596345","wem/bandit_either_2","A1T79J0XQXDDGC","either","7","78","","","","","","","0","0","1","0.296208115","","0.6","0.4","0.8","0.2","","","","","0.2000607923","0.4674995421","0.296208115","0.1466511374","","","","","","","","75","K","2","","","171","main_expt"
"","bandit","251","1181430","0.0-212.0-0.0","31596345","wem/bandit_either_2","A1T79J0XQXDDGC","either","7","1668","","","","","","","0","0","1","0.3062379281","","0.6","0.4","0.8","0.2","","","","","0.2342957318","0.4455620345","0.3062379281","0.1348290388","","","","","","","","75","K","2","","","172","main_expt"
"","bandit","252","1183682","0.0-213.0-0.0","31596345","wem/bandit_either_2","A1T79J0XQXDDGC","either","7","736","","","","","","","0","0","1","0.2498067723","","0.6","0.4","0.8","0.2","","","","","0.2189308077","0.4471610379","0.2498067723","0.1521691919","","","","","","","","75","K","2","","","173","main_expt"
"","bandit","253","1185500","0.0-214.0-0.0","31596345","wem/bandit_either_2","A1T79J0XQXDDGC","either","7","299","","","","","","","0","0","1","","0.1803522277","0.6","0.4","0.8","0.2","0.2373932689","0.4496576915","0.1803522277","0.2191935525","","","","","","","","","","","","75","K","2","","","174","main_expt"
"","bandit","254","1187293","0.0-215.0-0.0","31596345","wem/bandit_either_2","A1T79J0XQXDDGC","either","7","263","","","","","","","0","0","1","","0.219961305","0.6","0.4","0.8","0.2","0.2160264752","0.4715297358","0.2014319342","0.219961305","","","","","","","","","","","","76","L","3","","","175","main_expt"
"","bandit","255","1190524","0.0-216.0-0.0","31596345","wem/bandit_either_2","A1T79J0XQXDDGC","either","7","1707","","","","","","","0","0","1","","0.1882485239","0.6","0.4","0.8","0.2","0.1990604306","0.477956151","0.2122003168","0.1882485239","","","","","","","","","","","","76","L","3","","","176","main_expt"
"","bandit","256","1192056","0.0-217.0-0.0","31596345","wem/bandit_either_2","A1T79J0XQXDDGC","either","7","7","","","","","","","0","0","1","","0.1644902553","0.6","0.4","0.8","0.2","0.1729978196","0.4563721206","0.2629069455","0.1644902553","","","","","","","","","","","","76","L","3","","","177","main_expt"
"","bandit","257","1194434","0.0-218.0-0.0","31596345","wem/bandit_either_2","A1T79J0XQXDDGC","either","7","186","","","","","","","0","0","1","0.1633080779","","0.6","0.4","0.8","0.2","","","","","0.1633080779","0.4409869931","0.2336104206","0.1713669852","","","","","","","","72","H","0","img/none_selected.jpg","","178","main_expt"
"","bandit","258","1199432","0.0-219.0-0.0","31596345","wem/bandit_either_2","A1T79J0XQXDDGC","either","7","2816","","","","","","","0","0","1","","0.1243251356","0.6","0.4","0.8","0.2","0.1243251356","0.4243126063","0.1887504226","0.2263400462","","","","","","","","","","","","72","H","0","img/none_selected.jpg","","179","main_expt"
"","bandit","259","1203251","0.0-220.0-0.0","31596345","wem/bandit_either_2","A1T79J0XQXDDGC","either","7","2280","","","","","","","0","0","1","0.1150149055","","0.6","0.4","0.8","0.2","","","","","0.1150149055","0.4312830743","0.138376641","0.2036870175","","","","","","","","72","H","0","img/none_selected.jpg","","180","main_expt"
"","bandit","260","1204844","0.0-221.0-0.0","31596345","wem/bandit_either_2","A1T79J0XQXDDGC","either","7","55","","","","","","","0","0","1","0.1407924877","","0.6","0.4","0.8","0.2","","","","","0.1407924877","0.4433127893","0.1883992559","0.1934599198","","","","","","","","72","H","0","img/none_selected.jpg","","181","main_expt"
"","bandit","261","1206690","0.0-222.0-0.0","31596345","wem/bandit_either_2","A1T79J0XQXDDGC","either","7","320","","","","","","","0","0","1","0.09672650852","","0.6","0.4","0.8","0.2","","","","","0.09672650852","0.440136403","0.128889003","0.2424515525","","","","","","","","72","H","0","img/none_selected.jpg","","182","main_expt"
"","bandit","262","1208258","0.0-223.0-0.0","31596345","wem/bandit_either_2","A1T79J0XQXDDGC","either","7","32","","","","","","","0","1","0","","0.4347693449","0.6","0.4","0.8","0.2","0.09888002855","0.4347693449","0.1748769843","0.1961777535","","","","","","","","","","","","74","J","1","","","183","main_expt"
"","bandit","263","1211434","0.0-224.0-0.0","31596345","wem/bandit_either_2","A1T79J0XQXDDGC","either","7","18","","","","","","","0","0","1","","0.4277130926","0.6","0.4","0.8","0.2","0.07200145298","0.4277130926","0.1945994373","0.1489283113","","","","","","","","","","","","74","J","1","","","184","main_expt"
"","bandit","264","1229721","0.0-225.0-0.0","31596345","wem/bandit_either_2","A1T79J0XQXDDGC","either","7","16764","","","","","","","0","0","1","","0.3956248437","0.6","0.4","0.8","0.2","0.09476413333","0.3956248437","0.1644748654","0.1499965078","","","","","","","","","","","","74","J","1","","","185","main_expt"
"","bandit","265","1231405","0.0-226.0-0.0","31596345","wem/bandit_either_2","A1T79J0XQXDDGC","either","7","157","","","","","","","0","0","1","","0.3748928266","0.6","0.4","0.8","0.2","0.06556422103","0.3748928266","0.1504635592","0.2169832988","","","","","","","","","","","","74","J","1","","","186","main_expt"
"","bandit","266","1233485","0.0-227.0-0.0","31596345","wem/bandit_either_2","A1T79J0XQXDDGC","either","7","218","","","","","","","0","0","1","0.3848139325","","0.6","0.4","0.8","0.2","","","","","0.08901149072","0.3848139325","0.1760039214","0.2655186329","","","","","","","","74","J","1","","","187","main_expt"
"","bandit","267","1236434","0.0-228.0-0.0","31596345","wem/bandit_either_2","A1T79J0XQXDDGC","either","7","1165","","","","","","","0","0","1","","0.1203267588","0.6","0.4","0.8","0.2","0.09471428588","0.3990176401","0.1203267588","0.2738785118","","","","","","","","","","","","75","K","2","","","188","main_expt"
"","bandit","268","1249706","0.0-229.0-0.0","31596345","wem/bandit_either_2","A1T79J0XQXDDGC","either","7","11757","","","","","","","1","0","0","0.1171540391","","0.6","0.4","0.8","0.2","","","","","0.05118235823","0.3581396838","0.1171540391","0.3041874674","","","","","","","","75","K","2","","","189","main_expt"
"","bandit","269","1251429","0.0-230.0-0.0","31596345","wem/bandit_either_2","A1T79J0XQXDDGC","either","7","193","","","","","","","0","0","1","0.1535230761","","0.6","0.4","0.8","0.2","","","","","0.05788318751","0.2882972244","0.1535230761","0.3229453735","","","","","","","","75","K","2","","","190","main_expt"
"","bandit","270","1253006","0.0-231.0-0.0","31596345","wem/bandit_either_2","A1T79J0XQXDDGC","either","7","52","","","","","","","1","0","0","0.1372750947","","0.6","0.4","0.8","0.2","","","","","0.08736915481","0.3145326233","0.1372750947","0.3818249757","","","","","","","","75","K","2","","","191","main_expt"
"","bandit","271","1255432","0.0-232.0-0.0","31596345","wem/bandit_either_2","A1T79J0XQXDDGC","either","7","118","","","","","","","0","0","1","0.1047771501","","0.6","0.4","0.8","0.2","","","","","0.08251019118","0.3270603702","0.1047771501","0.4157726243","","","","","","","","75","K","2","","","192","main_expt"
"","bandit","272","1261165","0.0-233.0-0.0","31596345","wem/bandit_either_2","A1T79J0XQXDDGC","either","7","4223","","","","","","","0","0","1","0.1100845432","","0.6","0.4","0.8","0.2","","","","","0.06897628064","0.3604030797","0.1100845432","0.4611608212","","","","","","","","75","K","2","","","193","main_expt"
"","bandit","273","1263433","0.0-234.0-0.0","31596345","wem/bandit_either_2","A1T79J0XQXDDGC","either","7","11","","","","","","","0","0","1","0.1468163818","","0.6","0.4","0.8","0.2","","","","","0.06801266305","0.357423186","0.1468163818","0.4508818777","","","","","","","","75","K","2","","","194","main_expt"
"","bandit","274","1270171","0.0-235.0-0.0","31596345","wem/bandit_either_2","A1T79J0XQXDDGC","either","7","5228","","","","","","","0","0","1","","0.1495594621","0.6","0.4","0.8","0.2","0.09923709358","0.3697779856","0.1495594621","0.4278921451","","","","","","","","","","","","75","K","2","","","195","main_expt"
"","bandit","275","1272432","0.0-236.0-0.0","31596345","wem/bandit_either_2","A1T79J0XQXDDGC","either","7","9","","","","","","","0","0","1","","0.2263220537","0.6","0.4","0.8","0.2","0.1103063831","0.3617177512","0.2263220537","0.4256293003","","","","","","","","","","","","75","K","2","","","196","main_expt"
"","bandit","276","1274201","0.0-237.0-0.0","31596345","wem/bandit_either_2","A1T79J0XQXDDGC","either","7","229","","","","","","","0","0","1","0.2204718804","","0.6","0.4","0.8","0.2","","","","","0.07377144043","0.3775990084","0.2204718804","0.4476975038","","","","","","","","75","K","2","","","197","main_expt"
"","bandit","277","1275884","0.0-238.0-0.0","31596345","wem/bandit_either_2","A1T79J0XQXDDGC","either","7","154","","","","","","","1","0","0","0.4434357272","","0.6","0.4","0.8","0.2","","","","","0.08863448313","0.4144042571","0.2401118457","0.4434357272","","","","","","","","76","L","3","","","198","main_expt"
"","bandit","278","1278455","0.0-239.0-0.0","31596345","wem/bandit_either_2","A1T79J0XQXDDGC","either","7","49","","","","","","","0","0","1","","0.4245114622","0.6","0.4","0.8","0.2","0.1082179128","0.4081775392","0.2673724497","0.4245114622","","","","","","","","","","","","76","L","3","","","199","main_expt"
"","bandit","279","1280381","0.0-240.0-0.0","31596345","wem/bandit_either_2","A1T79J0XQXDDGC","either","7","400","","","","","","","0","0","1","","0.4087100315","0.6","0.4","0.8","0.2","0.09350688576","0.4166156547","0.3125307902","0.4087100315","","","","","","","","","","","","76","L","3","","","200","main_expt"
"","bandit","280","1282479","0.0-241.0-0.0","31596345","wem/bandit_either_2","A1T79J0XQXDDGC","either","7","125","","","","","","","0","1","0","","0.4361521275","0.6","0.4","0.8","0.2","0.1036625099","0.4306537176","0.2914574258","0.4361521275","","","","","","","","","","","","76","L","3","","","201","main_expt"
"","bandit","281","1284036","0.0-242.0-0.0","31596345","wem/bandit_either_2","A1T79J0XQXDDGC","either","7","34","","","","","","","1","0","0","0.3332596158","","0.6","0.4","0.8","0.2","","","","","0.1216733889","0.449382563","0.2550600684","0.3332596158","","","","","","","","76","L","3","","","202","main_expt"
"","bandit","282","1285596","0.0-243.0-0.0","31596345","wem/bandit_either_2","A1T79J0XQXDDGC","either","7","28","","","","","","","0","1","0","","0.3581848779","0.6","0.4","0.8","0.2","0.120655788","0.4506576586","0.2769745997","0.3581848779","","","","","","","","","","","","76","L","3","","","203","main_expt"
"","bandit","283","1287159","0.0-244.0-0.0","31596345","wem/bandit_either_2","A1T79J0XQXDDGC","either","7","34","","","","","","","0","1","0","","0.3597133043","0.6","0.4","0.8","0.2","0.1082970726","0.454839243","0.2752990059","0.3597133043","","","","","","","","","","","","76","L","3","","","204","main_expt"
"","bandit","284","1288817","0.0-245.0-0.0","31596345","wem/bandit_either_2","A1T79J0XQXDDGC","either","7","114","","","","","","","0","1","0","","0.3630183988","0.6","0.4","0.8","0.2","0.09143681274","0.4512889682","0.2901512169","0.3630183988","","","","","","","","","","","","76","L","3","","","205","main_expt"
"","bandit","285","1290477","0.0-246.0-0.0","31596345","wem/bandit_either_2","A1T79J0XQXDDGC","either","7","89","","","","","","","0","0","1","","0.3737494834","0.6","0.4","0.8","0.2","0.08377413986","0.4591490044","0.2823763913","0.3737494834","","","","","","","","","","","","76","L","3","","","206","main_expt"
"","bandit","286","1292072","0.0-247.0-0.0","31596345","wem/bandit_either_2","A1T79J0XQXDDGC","either","7","47","","","","","","","0","0","1","","0.3668784438","0.6","0.4","0.8","0.2","0.1585073664","0.4650593633","0.2708062506","0.3668784438","","","","","","","","","","","","76","L","3","","","207","main_expt"
"","bandit","287","1293723","0.0-248.0-0.0","31596345","wem/bandit_either_2","A1T79J0XQXDDGC","either","7","112","","","","","","","0","1","0","","0.4045351895","0.6","0.4","0.8","0.2","0.162299901","0.4641513068","0.2641553663","0.4045351895","","","","","","","","","","","","76","L","3","","","208","main_expt"
"","bandit","288","1295256","0.0-249.0-0.0","31596345","wem/bandit_either_2","A1T79J0XQXDDGC","either","7","7","","","","","","","0","0","1","","0.4402386934","0.6","0.4","0.8","0.2","0.1542266077","0.4567807332","0.2704675845","0.4402386934","","","","","","","","","","","","76","L","3","","","209","main_expt"
"","bandit","289","1296806","0.0-250.0-0.0","31596345","wem/bandit_either_2","A1T79J0XQXDDGC","either","7","23","","","","","","","0","1","0","","0.428253188","0.6","0.4","0.8","0.2","0.1890415559","0.428253188","0.3420868926","0.4483623408","","","","","","","","","","","","74","J","1","","","210","main_expt"
"","bandit","290","1298567","0.0-251.0-0.0","31596345","wem/bandit_either_2","A1T79J0XQXDDGC","either","7","143","","","","","","","0","1","0","","0.410271385","0.6","0.4","0.8","0.2","0.1818133019","0.410271385","0.3069688952","0.4471415093","","","","","","","","","","","","74","J","1","","","211","main_expt"
"","bandit","291","1300155","0.0-252.0-0.0","31596345","wem/bandit_either_2","A1T79J0XQXDDGC","either","7","57","","","","","","","0","0","1","0.4065587724","","0.6","0.4","0.8","0.2","","","","","0.1782747956","0.4065587724","0.3005379093","0.4374655127","","","","","","","","74","J","1","","","212","main_expt"
"","bandit","292","1301700","0.0-253.0-0.0","31596345","wem/bandit_either_2","A1T79J0XQXDDGC","either","7","4","","","","","","","0","0","1","0.1935195711","","0.6","0.4","0.8","0.2","","","","","0.1935195711","0.4007116542","0.213882915","0.4381457257","","","","","","","","72","H","0","img/none_selected.jpg","","213","main_expt"
"","bandit","293","1303435","0.0-254.0-0.0","31596345","wem/bandit_either_2","A1T79J0XQXDDGC","either","7","14","","","","","","","0","0","1","","0.2421176173","0.6","0.4","0.8","0.2","0.2421176173","0.4246209323","0.2138557204","0.4643769008","","","","","","","","","","","","72","H","0","img/none_selected.jpg","","214","main_expt"
"","bandit","294","1308486","0.0-255.0-0.0","31596345","wem/bandit_either_2","A1T79J0XQXDDGC","either","7","3504","","","","","","","0","0","1","","0.2629876012","0.6","0.4","0.8","0.2","0.2629876012","0.3993057066","0.2142566612","0.4328812357","","","","","","","","","","","","72","H","0","img/none_selected.jpg","","215","main_expt"
"","bandit","295","1310027","0.0-256.0-0.0","31596345","wem/bandit_either_2","A1T79J0XQXDDGC","either","7","27","","","","","","","1","0","0","0.1900351118","","0.6","0.4","0.8","0.2","","","","","0.2977714141","0.3987772474","0.1900351118","0.4064507999","","","","","","","","75","K","2","","","216","main_expt"
"","bandit","296","1312432","0.0-257.0-0.0","31596345","wem/bandit_either_2","A1T79J0XQXDDGC","either","7","38","","","","","","","0","0","1","0.2185169477","","0.6","0.4","0.8","0.2","","","","","0.3017601552","0.4101433534","0.2185169477","0.4197961641","","","","","","","","75","K","2","","","217","main_expt"
"","bandit","297","1316476","0.0-258.0-0.0","31596345","wem/bandit_either_2","A1T79J0XQXDDGC","either","7","2510","","","","","","","1","0","0","0.2240895604","","0.6","0.4","0.8","0.2","","","","","0.2888566207","0.4448029092","0.2240895604","0.4167397569","","","","","","","","75","K","2","","","218","main_expt"
"","bandit","298","1318010","0.0-259.0-0.0","31596345","wem/bandit_either_2","A1T79J0XQXDDGC","either","7","23","","","","","","","0","0","1","0.1990808675","","0.6","0.4","0.8","0.2","","","","","0.2844008008","0.4454766299","0.1990808675","0.4250944588","","","","","","","","75","K","2","","","219","main_expt"
"","bandit","299","1323061","0.0-260.0-0.0","31596345","wem/bandit_either_2","A1T79J0XQXDDGC","either","7","3540","","","","","","","0","0","1","","0.266602996","0.6","0.4","0.8","0.2","0.2225062479","0.4610997771","0.266602996","0.4173336587","","","","","","","","","","","","75","K","2","","","220","main_expt"
"","bandit","300","1324654","0.0-261.0-0.0","31596345","wem/bandit_either_2","A1T79J0XQXDDGC","either","7","67","","","","","","","1","0","0","0.2443661227","","0.6","0.4","0.8","0.2","","","","","0.2409900116","0.4642289789","0.2443661227","0.3944711005","","","","","","","","75","K","2","","","221","main_expt"
"","bandit","301","1326483","0.0-262.0-0.0","31596345","wem/bandit_either_2","A1T79J0XQXDDGC","either","7","29","","","","","","","0","0","1","0.2205922116","","0.6","0.4","0.8","0.2","","","","","0.1989678636","0.4641270597","0.2205922116","0.3619306912","","","","","","","","75","K","2","","","222","main_expt"
"","bandit","302","1328137","0.0-263.0-0.0","31596345","wem/bandit_either_2","A1T79J0XQXDDGC","either","7","119","","","","","","","0","0","1","0.1861223506","","0.6","0.4","0.8","0.2","","","","","0.1902867071","0.4697433819","0.1861223506","0.4117842179","","","","","","","","75","K","2","","","223","main_expt"
"","bandit","303","1329738","0.0-264.0-0.0","31596345","wem/bandit_either_2","A1T79J0XQXDDGC","either","7","70","","","","","","","0","0","1","0.1668884863","","0.6","0.4","0.8","0.2","","","","","0.2076415522","0.460898083","0.1668884863","0.3965092367","","","","","","","","75","K","2","","","224","main_expt"
"","bandit","304","1331361","0.0-265.0-0.0","31596345","wem/bandit_either_2","A1T79J0XQXDDGC","either","7","95","","","","","","","0","0","1","0.1481472712","","0.6","0.4","0.8","0.2","","","","","0.2393469174","0.4394890665","0.1481472712","0.4084477862","","","","","","","","75","K","2","","","225","main_expt"
"","bandit","305","1334432","0.0-266.0-0.0","31596345","wem/bandit_either_2","A1T79J0XQXDDGC","either","7","100","","","","","","","0","0","1","0.1140846591","","0.6","0.4","0.8","0.2","","","","","0.2425440376","0.4520955237","0.1140846591","0.4104601526","","","","","","","","75","K","2","","","226","main_expt"
"","bandit","306","1340069","0.0-267.0-0.0","31596345","wem/bandit_either_2","A1T79J0XQXDDGC","either","7","4107","","","","","","","0","0","1","","0.3899733519","0.6","0.4","0.8","0.2","0.2365603363","0.4324220164","0.1074218354","0.3899733519","","","","","","","","","","","","76","L","3","","","227","main_expt"
"","bandit","307","1342434","0.0-268.0-0.0","31596345","wem/bandit_either_2","A1T79J0XQXDDGC","either","7","88","","","","","","","0","1","0","","0.3796730737","0.6","0.4","0.8","0.2","0.2127958296","0.4220482421","0.08065165665","0.3796730737","","","","","","","","","","","","76","L","3","","","228","main_expt"
"","bandit","308","1346439","0.0-269.0-0.0","31596345","wem/bandit_either_2","A1T79J0XQXDDGC","either","7","1350","","","","","","","0","1","0","","0.4046866514","0.6","0.4","0.8","0.2","0.2207861463","0.3885749154","0.07774059362","0.4046866514","","","","","","","","","","","","76","L","3","","","229","main_expt"
"","bandit","309","1349682","0.0-270.0-0.0","31596345","wem/bandit_either_2","A1T79J0XQXDDGC","either","7","1709","","","","","","","0","0","1","","0.3988793555","0.6","0.4","0.8","0.2","0.2589226453","0.4023755806","0.1109483114","0.3988793555","","","","","","","","","","","","76","L","3","","","230","main_expt"
"","bandit","310","1351327","0.0-271.0-0.0","31596345","wem/bandit_either_2","A1T79J0XQXDDGC","either","7","114","","","","","","","0","0","1","","0.3981898202","0.6","0.4","0.8","0.2","0.2956158432","0.3768725222","0.05902300203","0.3981898202","","","","","","","","","","","","76","L","3","","","231","main_expt"
"","bandit","311","1352873","0.0-272.0-0.0","31596345","wem/bandit_either_2","A1T79J0XQXDDGC","either","7","3","","","","","","","0","0","1","0.3619917427","","0.6","0.4","0.8","0.2","","","","","0.3202484073","0.3619917427","0.06675855664","0.4411941832","","","","","","","","74","J","1","","","232","main_expt"
"","bandit","312","1355433","0.0-273.0-0.0","31596345","wem/bandit_either_2","A1T79J0XQXDDGC","either","7","34","","","","","","","0","0","1","0.2933644042","","0.6","0.4","0.8","0.2","","","","","0.2933644042","0.3833578816","0.06703699679","0.42967461","","","","","","","","72","H","0","img/none_selected.jpg","","233","main_expt"
"","bandit","313","1361219","0.0-274.0-0.0","31596345","wem/bandit_either_2","A1T79J0XQXDDGC","either","7","4265","","","","","","","0","0","1","","0.3106154811","0.6","0.4","0.8","0.2","0.3106154811","0.3552131768","0.05331023031","0.4242798354","","","","","","","","","","","","72","H","0","img/none_selected.jpg","","234","main_expt"
"","bandit","314","1362761","0.0-275.0-0.0","31596345","wem/bandit_either_2","A1T79J0XQXDDGC","either","7","30","","","","","","","1","0","0","0.3158990995","","0.6","0.4","0.8","0.2","","","","","0.3158990995","0.3135084543","0.05187545802","0.4617388459","","","","","","","","72","H","0","img/none_selected.jpg","","235","main_expt"
"","bandit","315","1364460","0.0-276.0-0.0","31596345","wem/bandit_either_2","A1T79J0XQXDDGC","either","7","130","","","","","","","0","0","1","","0.3036927748","0.6","0.4","0.8","0.2","0.3036927748","0.244945467","0.06939909985","0.4619510484","","","","","","","","","","","","72","H","0","img/none_selected.jpg","","236","main_expt"
"","bandit","316","1374407","0.0-277.0-0.0","31596345","wem/bandit_either_2","A1T79J0XQXDDGC","either","7","8435","","","","","","","0","1","0","","0.3491021326","0.6","0.4","0.8","0.2","0.3491021326","0.1823839079","0.1210409879","0.4482398789","","","","","","","","","","","","72","H","0","img/none_selected.jpg","","237","main_expt"
"","bandit","317","1376048","0.0-278.0-0.0","31596345","wem/bandit_either_2","A1T79J0XQXDDGC","either","7","119","","","","","","","1","0","0","0.3939254097","","0.6","0.4","0.8","0.2","","","","","0.3939254097","0.1685050226","0.1147840357","0.4193969143","","","","","","","","72","H","0","img/none_selected.jpg","","238","main_expt"
"","bandit","318","1378432","0.0-279.0-0.0","31596345","wem/bandit_either_2","A1T79J0XQXDDGC","either","7","74","","","","","","","0","0","1","","0.379108978","0.6","0.4","0.8","0.2","0.379108978","0.1606472637","0.1006463842","0.4203848948","","","","","","","","","","","","72","H","0","img/none_selected.jpg","","239","main_expt"
"","bandit","319","1381821","0.0-280.0-0.0","31596345","wem/bandit_either_2","A1T79J0XQXDDGC","either","7","1853","","","","","","","0","0","1","","0.3876209848","0.6","0.4","0.8","0.2","0.3876209848","0.1512795466","0.1008771133","0.4489383263","","","","","","","","","","","","72","H","0","img/none_selected.jpg","","240","main_expt"
"","bandit","320","1383374","0.0-281.0-0.0","31596345","wem/bandit_either_2","A1T79J0XQXDDGC","either","7","36","","","","","","","1","0","0","0.3839625774","","0.6","0.4","0.8","0.2","","","","","0.3839625774","0.1916219391","0.09981833296","0.4636195567","","","","","","","","72","H","0","img/none_selected.jpg","","241","main_expt"
"","bandit","321","1385434","0.0-282.0-0.0","31596345","wem/bandit_either_2","A1T79J0XQXDDGC","either","7","111","","","","","","","0","0","1","0.3477958629","","0.6","0.4","0.8","0.2","","","","","0.3477958629","0.1641013935","0.1171772993","0.4575307695","","","","","","","","72","H","0","img/none_selected.jpg","","242","main_expt"
"","bandit","322","1387062","0.0-283.0-0.0","31596345","wem/bandit_either_2","A1T79J0XQXDDGC","either","7","104","","","","","","","1","0","0","0.3500658948","","0.6","0.4","0.8","0.2","","","","","0.3500658948","0.2064320789","0.1239984651","0.4449554393","","","","","","","","72","H","0","img/none_selected.jpg","","243","main_expt"
"","bandit","323","1388618","0.0-284.0-0.0","31596345","wem/bandit_either_2","A1T79J0XQXDDGC","either","7","25","","","","","","","0","1","0","","0.3452717574","0.6","0.4","0.8","0.2","0.3452717574","0.2205496082","0.1126152289","0.4525763452","","","","","","","","","","","","72","H","0","img/none_selected.jpg","","244","main_expt"
"","bandit","324","1390171","0.0-285.0-0.0","31596345","wem/bandit_either_2","A1T79J0XQXDDGC","either","7","23","","","","","","","0","0","1","0.3162288444","","0.6","0.4","0.8","0.2","","","","","0.3162288444","0.214276823","0.1524829061","0.4753838692","","","","","","","","72","H","0","img/none_selected.jpg","","245","main_expt"
"","bandit","325","1392545","0.0-286.0-0.0","31596345","wem/bandit_either_2","A1T79J0XQXDDGC","either","7","66","","","","","","","0","0","1","0.2894596967","","0.6","0.4","0.8","0.2","","","","","0.2894596967","0.2084567316","0.1921750243","0.4623654582","","","","","","","","72","H","0","img/none_selected.jpg","","246","main_expt"
