"consent","trial_type","trial_index","time_elapsed","internal_node_id","subjID","study","MID","cond","drift","rt","responses","key_press","expt_phase","like","value","connected","gems","bombs","no_reward","GemPrChosen","BombPrChosen","GainOverPainPr_0","GainOverPainPr_1","GainOverPainPr_2","GainOverPainPr_3","LosePr_0","LosePr_1","LosePr_2","LosePr_3","WinPr_0","WinPr_1","WinPr_2","WinPr_3","Q0","Q1","Q2","gender","age","ethnicity","target","respCharCode","respKey","respChoiceNum","respChoice","practice","trial_counter","trial_label"
"INL_behavioral_consent_30min_online.html","consent","0","13753","0.0-0.0","32347450","wem/bandit_either_2","A163J5TEJBO43B","either","4","","","","","","","","","","","","","","","","","","","","","","","","","","","","","","","","","","","","","",""
"","survey-text","1","19928","0.0-1.0","32347450","wem/bandit_either_2","A163J5TEJBO43B","either","4","5160","{""Q0"":""A163J5TEJBO43B""}","","","","","","","","","","","","","","","","","","","","","","","","","","","","","","","","","","","",""
"","text","2","30597","0.0-2.0","32347450","wem/bandit_either_2","A163J5TEJBO43B","either","4","9664","","32","","","","","","","","","","","","","","","","","","","","","","","","","","","","","","","","","","",""
"","text","3","40115","0.0-3.0","32347450","wem/bandit_either_2","A163J5TEJBO43B","either","4","9515","","32","","","","","","","","","","","","","","","","","","","","","","","","","","","","","","","","","","",""
"","text","4","68244","0.0-4.0","32347450","wem/bandit_either_2","A163J5TEJBO43B","either","4","28127","","32","","","","","","","","","","","","","","","","","","","","","","","","","","","","","","","","","","",""
"","text","5","84188","0.0-5.0","32347450","wem/bandit_either_2","A163J5TEJBO43B","either","4","15942","","32","","","","","","","","","","","","","","","","","","","","","","","","","","","","","","","","","","",""
"","text","6","97893","0.0-6.0","32347450","wem/bandit_either_2","A163J5TEJBO43B","either","4","13703","","32","","","","","","","","","","","","","","","","","","","","","","","","","","","","","","","","","","",""
"","text","7","107755","0.0-7.0","32347450","wem/bandit_either_2","A163J5TEJBO43B","either","4","9858","","32","","","","","","","","","","","","","","","","","","","","","","","","","","","","","","","","","","",""
"","text","8","115292","0.0-8.0","32347450","wem/bandit_either_2","A163J5TEJBO43B","either","4","7532","","32","","","","","","","","","","","","","","","","","","","","","","","","","","","","","","","","","","",""
"","identification","9","123934","0.0-9.0-0.0","32347450","wem/bandit_either_2","A163J5TEJBO43B","either","4","8560","","","","6","6","6","","","","","","","","","","","","","","","","","","","","","","","","the village of Zur","","","","","","",""
"","identification","10","129075","0.0-9.0-1.0","32347450","wem/bandit_either_2","A163J5TEJBO43B","either","4","4091","","","","0","0","0","","","","","","","","","","","","","","","","","","","","","","","","the village of Nyx","","","","","","",""
"","text","11","135859","0.0-10.0","32347450","wem/bandit_either_2","A163J5TEJBO43B","either","4","5780","","32","","","","","","","","","","","","","","","","","","","","","","","","","","","","","","","","","","",""
"","text","12","137501","0.0-11.0","32347450","wem/bandit_either_2","A163J5TEJBO43B","either","4","1640","","32","","","","","","","","","","","","","","","","","","","","","","","","","","","","","","","","","","",""
"","text","13","139107","0.0-12.0","32347450","wem/bandit_either_2","A163J5TEJBO43B","either","4","1602","","32","","","","","","","","","","","","","","","","","","","","","","","","","","","","","","","","","","",""
"","text","14","142139","0.0-13.0","32347450","wem/bandit_either_2","A163J5TEJBO43B","either","4","3030","","32","","","","","","","","","","","","","","","","","","","","","","","","","","","","","","","","","","",""
"","bandit","15","146350","0.0-14.0-0.0","32347450","wem/bandit_either_2","A163J5TEJBO43B","either","4","2695","","","","","","","0","0","1","0","0","","","","","0","","","","0","","","","","","","","","","","74","J","0","img/none_selected_demo.jpg","true","0",""
"","bandit","16","150037","0.0-15.0-0.0","32347450","wem/bandit_either_2","A163J5TEJBO43B","either","4","2176","","","","","","","0","0","1","0","0","","","","","0","","","","0","","","","","","","","","","","75","K","0","img/none_selected_demo.jpg","true","0",""
"","text","17","155298","0.0-16.0","32347450","wem/bandit_either_2","A163J5TEJBO43B","either","4","5255","","32","","","","","","","","","","","","","","","","","","","","","","","","","","","","","","","","","","",""
"","text","18","160756","0.0-17.0","32347450","wem/bandit_either_2","A163J5TEJBO43B","either","4","5455","","32","","","","","","","","","","","","","","","","","","","","","","","","","","","","","","","","","","",""
"","text","19","168186","0.0-18.0","32347450","wem/bandit_either_2","A163J5TEJBO43B","either","4","7425","","32","","","","","","","","","","","","","","","","","","","","","","","","","","","","","","","","","","",""
"","text","20","172180","0.0-19.0","32347450","wem/bandit_either_2","A163J5TEJBO43B","either","4","3991","","32","","","","","","","","","","","","","","","","","","","","","","","","","","","","","","","","","","",""
"","bandit","21","174979","0.0-20.0-0.0","32347450","wem/bandit_either_2","A163J5TEJBO43B","either","4","1290","","","","","","","0","1","0","","0.8","0.5","0.5","","","0.8","0.2","","","","","","","","","","","","","","74","J","0","img/none_selected_demo.jpg","true","0","80_20_practice"
"","bandit","22","176715","0.0-20.0-1.0","32347450","wem/bandit_either_2","A163J5TEJBO43B","either","4","223","","","","","","","0","1","0","","0.8","0.5","0.5","","","0.8","0.2","","","","","","","","","","","","","","74","J","0","img/none_selected_demo.jpg","true","0","80_20_practice"
"","bandit","23","178460","0.0-20.0-2.0","32347450","wem/bandit_either_2","A163J5TEJBO43B","either","4","233","","","","","","","1","0","0","0.8","","0.5","0.5","","","","","","","0.8","0.2","","","","","","","","","","74","J","0","img/none_selected_demo.jpg","true","0","80_20_practice"
"","bandit","24","180227","0.0-20.0-3.0","32347450","wem/bandit_either_2","A163J5TEJBO43B","either","4","255","","","","","","","0","0","1","","0.8","0.5","0.5","","","0.8","0.2","","","","","","","","","","","","","","74","J","0","img/none_selected_demo.jpg","true","0","80_20_practice"
"","bandit","25","181754","0.0-20.0-4.0","32347450","wem/bandit_either_2","A163J5TEJBO43B","either","4","17","","","","","","","0","1","0","","0.8","0.5","0.5","","","0.8","0.2","","","","","","","","","","","","","","74","J","0","img/none_selected_demo.jpg","true","0","80_20_practice"
"","bandit","26","183491","0.0-20.0-5.0","32347450","wem/bandit_either_2","A163J5TEJBO43B","either","4","227","","","","","","","0","1","0","","0.8","0.5","0.5","","","0.8","0.2","","","","","","","","","","","","","","74","J","0","img/none_selected_demo.jpg","true","0","80_20_practice"
"","bandit","27","185252","0.0-20.0-6.0","32347450","wem/bandit_either_2","A163J5TEJBO43B","either","4","251","","","","","","","0","1","0","","0.2","0.5","0.5","","","0.8","0.2","","","","","","","","","","","","","","75","K","1","","true","0","80_20_practice"
"","bandit","28","186771","0.0-20.0-7.0","32347450","wem/bandit_either_2","A163J5TEJBO43B","either","4","8","","","","","","","0","0","1","0.2","","0.5","0.5","","","","","","","0.8","0.2","","","","","","","","","","75","K","1","","true","0","80_20_practice"
"","bandit","29","188389","0.0-20.0-8.0","32347450","wem/bandit_either_2","A163J5TEJBO43B","either","4","104","","","","","","","0","0","1","0.2","","0.5","0.5","","","","","","","0.8","0.2","","","","","","","","","","75","K","1","","true","0","80_20_practice"
"","bandit","30","190204","0.0-20.0-9.0","32347450","wem/bandit_either_2","A163J5TEJBO43B","either","4","302","","","","","","","0","0","1","","0.8","0.5","0.5","","","0.8","0.2","","","","","","","","","","","","","","74","J","0","img/none_selected_demo.jpg","true","0","80_20_practice"
"","bandit","31","192331","0.0-20.0-10.0","32347450","wem/bandit_either_2","A163J5TEJBO43B","either","4","617","","","","","","","1","0","0","0.8","","0.5","0.5","","","","","","","0.8","0.2","","","","","","","","","","74","J","0","img/none_selected_demo.jpg","true","0","80_20_practice"
"","bandit","32","194042","0.0-20.0-11.0","32347450","wem/bandit_either_2","A163J5TEJBO43B","either","4","201","","","","","","","0","0","1","","0.8","0.5","0.5","","","0.8","0.2","","","","","","","","","","","","","","74","J","0","img/none_selected_demo.jpg","true","0","80_20_practice"
"","bandit","33","195939","0.0-20.0-12.0","32347450","wem/bandit_either_2","A163J5TEJBO43B","either","4","386","","","","","","","1","0","0","0.8","","0.5","0.5","","","","","","","0.8","0.2","","","","","","","","","","74","J","0","img/none_selected_demo.jpg","true","0","80_20_practice"
"","bandit","34","197467","0.0-20.0-13.0","32347450","wem/bandit_either_2","A163J5TEJBO43B","either","4","14","","","","","","","1","0","0","0.8","","0.5","0.5","","","","","","","0.8","0.2","","","","","","","","","","74","J","0","img/none_selected_demo.jpg","true","0","80_20_practice"
"","bandit","35","199062","0.0-20.0-14.0","32347450","wem/bandit_either_2","A163J5TEJBO43B","either","4","81","","","","","","","1","0","0","0.8","","0.5","0.5","","","","","","","0.8","0.2","","","","","","","","","","74","J","0","img/none_selected_demo.jpg","true","0","80_20_practice"
"","bandit","36","200787","0.0-20.0-15.0","32347450","wem/bandit_either_2","A163J5TEJBO43B","either","4","211","","","","","","","1","0","0","0.8","","0.5","0.5","","","","","","","0.8","0.2","","","","","","","","","","74","J","0","img/none_selected_demo.jpg","true","0","80_20_practice"
"","bandit","37","204762","0.0-20.0-16.0","32347450","wem/bandit_either_2","A163J5TEJBO43B","either","4","2464","","","","","","","1","0","0","0.8","","0.5","0.5","","","","","","","0.8","0.2","","","","","","","","","","74","J","0","img/none_selected_demo.jpg","true","0","80_20_practice"
"","bandit","38","207803","0.0-20.0-17.0","32347450","wem/bandit_either_2","A163J5TEJBO43B","either","4","1529","","","","","","","0","0","1","","0.8","0.5","0.5","","","0.8","0.2","","","","","","","","","","","","","","74","J","0","img/none_selected_demo.jpg","true","0","80_20_practice"
"","bandit","39","209515","0.0-20.0-18.0","32347450","wem/bandit_either_2","A163J5TEJBO43B","either","4","201","","","","","","","0","1","0","","0.8","0.5","0.5","","","0.8","0.2","","","","","","","","","","","","","","74","J","0","img/none_selected_demo.jpg","true","0","80_20_practice"
"","bandit","40","211315","0.0-20.0-19.0","32347450","wem/bandit_either_2","A163J5TEJBO43B","either","4","289","","","","","","","1","0","0","0.8","","0.5","0.5","","","","","","","0.8","0.2","","","","","","","","","","74","J","0","img/none_selected_demo.jpg","true","0","80_20_practice"
"","text","41","213611","0.0-21.0","32347450","wem/bandit_either_2","A163J5TEJBO43B","either","4","2291","","32","","","","","","","","","","","","","","","","","","","","","","","","","","","","","","","","","","",""
"","bandit","42","215780","0.0-22.0-0.0","32347450","wem/bandit_either_2","A163J5TEJBO43B","either","4","659","","","","","","","1","0","0","1","0","","","","","0","1","","","1","0","","","","","","","","","","74","J","0","img/none_selected_demo.jpg","true","0",""
"","text","43","225692","0.0-23.0","32347450","wem/bandit_either_2","A163J5TEJBO43B","either","4","9907","","32","","","","","","","","","","","","","","","","","","","","","","","","","","","","","","","","","","",""
"","text","44","230899","0.0-24.0","32347450","wem/bandit_either_2","A163J5TEJBO43B","either","4","5203","","32","","","","","","","","","","","","","","","","","","","","","","","","","","","","","","","","","","",""
"","text","45","233659","0.0-25.0","32347450","wem/bandit_either_2","A163J5TEJBO43B","either","4","2757","","32","","","","","","","","","","","","","","","","","","","","","","","","","","","","","","","","","","",""
"","text","46","237396","0.0-26.0","32347450","wem/bandit_either_2","A163J5TEJBO43B","either","4","3732","","32","","","","","","","","","","","","","","","","","","","","","","","","","","","","","","","","","","",""
"","text","47","244051","0.0-27.0","32347450","wem/bandit_either_2","A163J5TEJBO43B","either","4","6651","","32","","","","","","","","","","","","","","","","","","","","","","","","","","","","","","","","","","",""
"","text","48","247123","0.0-28.0","32347450","wem/bandit_either_2","A163J5TEJBO43B","either","4","3067","","32","","","","","","","","","","","","","","","","","","","","","","","","","","","","","","","","","","",""
"","text","49","249877","0.0-29.0","32347450","wem/bandit_either_2","A163J5TEJBO43B","either","4","2750","","32","","","","","","","","","","","","","","","","","","","","","","","","","","","","","","","","","","",""
"","text","50","254402","0.0-30.0","32347450","wem/bandit_either_2","A163J5TEJBO43B","either","4","4521","","32","","","","","","","","","","","","","","","","","","","","","","","","","","","","","","","","","","",""
"","text","51","265725","0.0-31.0","32347450","wem/bandit_either_2","A163J5TEJBO43B","either","4","11319","","32","","","","","","","","","","","","","","","","","","","","","","","","","","","","","","","","","","",""
"","text","52","268571","0.0-32.0","32347450","wem/bandit_either_2","A163J5TEJBO43B","either","4","2841","","32","","","","","","","","","","","","","","","","","","","","","","","","","","","","","","","","","","",""
"","text","53","272843","0.0-33.0","32347450","wem/bandit_either_2","A163J5TEJBO43B","either","4","4268","","32","","","","","","","","","","","","","","","","","","","","","","","","","","","","","","","","","","",""
"","bandit","54","274963","0.0-34.0-0.0","32347450","wem/bandit_either_2","A163J5TEJBO43B","either","4","609","","","","","","","0","1","0","","0.8","0.5","0.5","0.5","0.5","0.8","0.2","0.6","0.2","","","","","","","","","","","","72","H","0","img/none_selected.jpg","true","0","full_practice"
"","bandit","55","276659","0.0-34.0-1.0","32347450","wem/bandit_either_2","A163J5TEJBO43B","either","4","184","","","","","","","1","0","0","0.8","","0.5","0.5","0.5","0.5","","","","","0.8","0.2","0.6","0.2","","","","","","","","72","H","0","img/none_selected.jpg","true","0","full_practice"
"","bandit","56","278237","0.0-34.0-2.0","32347450","wem/bandit_either_2","A163J5TEJBO43B","either","4","65","","","","","","","1","0","0","0.8","","0.5","0.5","0.5","0.5","","","","","0.8","0.2","0.6","0.2","","","","","","","","72","H","0","img/none_selected.jpg","true","0","full_practice"
"","bandit","57","279827","0.0-34.0-3.0","32347450","wem/bandit_either_2","A163J5TEJBO43B","either","4","77","","","","","","","0","1","0","","0.8","0.5","0.5","0.5","0.5","0.8","0.2","0.6","0.2","","","","","","","","","","","","72","H","0","img/none_selected.jpg","true","0","full_practice"
"","bandit","58","282058","0.0-34.0-4.0","32347450","wem/bandit_either_2","A163J5TEJBO43B","either","4","718","","","","","","","0","1","0","","0.8","0.5","0.5","0.5","0.5","0.8","0.2","0.6","0.2","","","","","","","","","","","","72","H","0","img/none_selected.jpg","true","0","full_practice"
"","bandit","59","283772","0.0-34.0-5.0","32347450","wem/bandit_either_2","A163J5TEJBO43B","either","4","200","","","","","","","0","1","0","","0.8","0.5","0.5","0.5","0.5","0.8","0.2","0.6","0.2","","","","","","","","","","","","72","H","0","img/none_selected.jpg","true","0","full_practice"
"","bandit","60","285378","0.0-34.0-6.0","32347450","wem/bandit_either_2","A163J5TEJBO43B","either","4","95","","","","","","","0","1","0","","0.8","0.5","0.5","0.5","0.5","0.8","0.2","0.6","0.2","","","","","","","","","","","","72","H","0","img/none_selected.jpg","true","0","full_practice"
"","bandit","61","287122","0.0-34.0-7.0","32347450","wem/bandit_either_2","A163J5TEJBO43B","either","4","233","","","","","","","0","1","0","","0.8","0.5","0.5","0.5","0.5","0.8","0.2","0.6","0.2","","","","","","","","","","","","72","H","0","img/none_selected.jpg","true","0","full_practice"
"","bandit","62","288757","0.0-34.0-8.0","32347450","wem/bandit_either_2","A163J5TEJBO43B","either","4","122","","","","","","","0","1","0","","0.8","0.5","0.5","0.5","0.5","0.8","0.2","0.6","0.2","","","","","","","","","","","","72","H","0","img/none_selected.jpg","true","0","full_practice"
"","bandit","63","290339","0.0-34.0-9.0","32347450","wem/bandit_either_2","A163J5TEJBO43B","either","4","70","","","","","","","0","0","1","","0.8","0.5","0.5","0.5","0.5","0.8","0.2","0.6","0.2","","","","","","","","","","","","72","H","0","img/none_selected.jpg","true","0","full_practice"
"","bandit","64","292354","0.0-34.0-10.0","32347450","wem/bandit_either_2","A163J5TEJBO43B","either","4","504","","","","","","","1","0","0","0.8","","0.5","0.5","0.5","0.5","","","","","0.8","0.2","0.6","0.2","","","","","","","","72","H","0","img/none_selected.jpg","true","0","full_practice"
"","bandit","65","293971","0.0-34.0-11.0","32347450","wem/bandit_either_2","A163J5TEJBO43B","either","4","104","","","","","","","0","0","1","0.2","","0.5","0.5","0.5","0.5","","","","","0.8","0.2","0.6","0.2","","","","","","","","74","J","1","","true","0","full_practice"
"","bandit","66","295578","0.0-34.0-12.0","32347450","wem/bandit_either_2","A163J5TEJBO43B","either","4","97","","","","","","","0","0","1","","0.2","0.5","0.5","0.5","0.5","0.8","0.2","0.6","0.2","","","","","","","","","","","","74","J","1","","true","0","full_practice"
"","bandit","67","297212","0.0-34.0-13.0","32347450","wem/bandit_either_2","A163J5TEJBO43B","either","4","120","","","","","","","1","0","0","0.6","","0.5","0.5","0.5","0.5","","","","","0.8","0.2","0.6","0.2","","","","","","","","75","K","2","","true","0","full_practice"
"","bandit","68","298943","0.0-34.0-14.0","32347450","wem/bandit_either_2","A163J5TEJBO43B","either","4","214","","","","","","","0","0","1","0.6","","0.5","0.5","0.5","0.5","","","","","0.8","0.2","0.6","0.2","","","","","","","","75","K","2","","true","0","full_practice"
"","bandit","69","300643","0.0-34.0-15.0","32347450","wem/bandit_either_2","A163J5TEJBO43B","either","4","185","","","","","","","0","0","1","0.2","","0.5","0.5","0.5","0.5","","","","","0.8","0.2","0.6","0.2","","","","","","","","76","L","3","","true","0","full_practice"
"","bandit","70","302266","0.0-34.0-16.0","32347450","wem/bandit_either_2","A163J5TEJBO43B","either","4","112","","","","","","","0","0","1","","0.2","0.5","0.5","0.5","0.5","0.8","0.2","0.6","0.2","","","","","","","","","","","","76","L","3","","true","0","full_practice"
"","bandit","71","303909","0.0-34.0-17.0","32347450","wem/bandit_either_2","A163J5TEJBO43B","either","4","128","","","","","","","0","1","0","","0.8","0.5","0.5","0.5","0.5","0.8","0.2","0.6","0.2","","","","","","","","","","","","72","H","0","img/none_selected.jpg","true","0","full_practice"
"","bandit","72","305596","0.0-34.0-18.0","32347450","wem/bandit_either_2","A163J5TEJBO43B","either","4","171","","","","","","","1","0","0","0.8","","0.5","0.5","0.5","0.5","","","","","0.8","0.2","0.6","0.2","","","","","","","","72","H","0","img/none_selected.jpg","true","0","full_practice"
"","bandit","73","307316","0.0-34.0-19.0","32347450","wem/bandit_either_2","A163J5TEJBO43B","either","4","208","","","","","","","0","1","0","","0.8","0.5","0.5","0.5","0.5","0.8","0.2","0.6","0.2","","","","","","","","","","","","72","H","0","img/none_selected.jpg","true","0","full_practice"
"","text","74","309627","0.0-35.0","32347450","wem/bandit_either_2","A163J5TEJBO43B","either","4","2295","","32","","","","","","","","","","","","","","","","","","","","","","","","","","","","","","","","","","",""
"","text","75","322636","0.0-36.0","32347450","wem/bandit_either_2","A163J5TEJBO43B","either","4","12003","","32","","","","","","","","","","","","","","","","","","","","","","","","","","","","","","","","","","",""
"","text","76","331866","0.0-37.0","32347450","wem/bandit_either_2","A163J5TEJBO43B","either","4","9225","","32","","","","","","","","","","","","","","","","","","","","","","","","","","","","","","","","","","",""
"","text","77","334180","0.0-38.0","32347450","wem/bandit_either_2","A163J5TEJBO43B","either","4","2310","","32","","","","","","","","","","","","","","","","","","","","","","","","","","","","","","","","","","",""
"","text","78","336451","0.0-39.0","32347450","wem/bandit_either_2","A163J5TEJBO43B","either","4","2265","","32","","","","","","","","","","","","","","","","","","","","","","","","","","","","","","","","","","",""
"","text","79","340899","0.0-40.0","32347450","wem/bandit_either_2","A163J5TEJBO43B","either","4","4443","","32","","","","","","","","","","","","","","","","","","","","","","","","","","","","","","","","","","",""
"","bandit","80","344780","0.0-41.0-0.0","32347450","wem/bandit_either_2","A163J5TEJBO43B","either","4","2368","","","","","","","0","0","1","0.3894728165","","0.6","0.4","0.2","0.8","","","","","0.2771551185","0.3242650943","0.3525715257","0.3894728165","","","","","","","","76","L","3","","","1","main_expt"
"","bandit","81","346525","0.0-42.0-0.0","32347450","wem/bandit_either_2","A163J5TEJBO43B","either","4","231","","","","","","","0","1","0","","0.363660736","0.6","0.4","0.2","0.8","0.3030893157","0.3296228245","0.390153736","0.363660736","","","","","","","","","","","","76","L","3","","","2","main_expt"
"","bandit","82","348283","0.0-43.0-0.0","32347450","wem/bandit_either_2","A163J5TEJBO43B","either","4","245","","","","","","","1","0","0","0.3842171554","","0.6","0.4","0.2","0.8","","","","","0.3211059343","0.3102780753","0.3725447061","0.3842171554","","","","","","","","76","L","3","","","3","main_expt"
"","bandit","83","349978","0.0-44.0-0.0","32347450","wem/bandit_either_2","A163J5TEJBO43B","either","4","168","","","","","","","1","0","0","0.3831963053","","0.6","0.4","0.2","0.8","","","","","0.2804386453","0.2749892112","0.3431524481","0.3831963053","","","","","","","","76","L","3","","","4","main_expt"
"","bandit","84","351731","0.0-45.0-0.0","32347450","wem/bandit_either_2","A163J5TEJBO43B","either","4","239","","","","","","","0","0","1","","0.4056596471","0.6","0.4","0.2","0.8","0.2609559086","0.3037824898","0.3448007793","0.4056596471","","","","","","","","","","","","76","L","3","","","5","main_expt"
"","bandit","85","353452","0.0-46.0-0.0","32347450","wem/bandit_either_2","A163J5TEJBO43B","either","4","208","","","","","","","0","1","0","","0.4409946319","0.6","0.4","0.2","0.8","0.2259287768","0.3217417103","0.3980888019","0.4409946319","","","","","","","","","","","","76","L","3","","","6","main_expt"
"","bandit","86","355140","0.0-47.0-0.0","32347450","wem/bandit_either_2","A163J5TEJBO43B","either","4","172","","","","","","","0","0","1","0.3821747998","","0.6","0.4","0.2","0.8","","","","","0.2433618728","0.3018715163","0.3693121862","0.3821747998","","","","","","","","76","L","3","","","7","main_expt"
"","bandit","87","356757","0.0-48.0-0.0","32347450","wem/bandit_either_2","A163J5TEJBO43B","either","4","104","","","","","","","0","0","1","","0.3841844813","0.6","0.4","0.2","0.8","0.2025356769","0.3643645816","0.2933697555","0.3841844813","","","","","","","","","","","","76","L","3","","","8","main_expt"
"","bandit","88","358684","0.0-49.0-0.0","32347450","wem/bandit_either_2","A163J5TEJBO43B","either","4","412","","","","","","","0","1","0","","0.3036212831","0.6","0.4","0.2","0.8","0.1441028094","0.3418610374","0.3036212831","0.3412237964","","","","","","","","","","","","75","K","2","","","9","main_expt"
"","bandit","89","360210","0.0-50.0-0.0","32347450","wem/bandit_either_2","A163J5TEJBO43B","either","4","15","","","","","","","0","0","1","0.308020301","","0.6","0.4","0.2","0.8","","","","","0.1736005971","0.3190157878","0.308020301","0.3256420777","","","","","","","","75","K","2","","","10","main_expt"
"","bandit","90","361747","0.0-51.0-0.0","32347450","wem/bandit_either_2","A163J5TEJBO43B","either","4","23","","","","","","","0","1","0","","0.3065973113","0.6","0.4","0.2","0.8","0.1836365694","0.2998731478","0.3065973113","0.3514007431","","","","","","","","","","","","75","K","2","","","11","main_expt"
"","bandit","91","363283","0.0-52.0-0.0","32347450","wem/bandit_either_2","A163J5TEJBO43B","either","4","23","","","","","","","0","0","1","","0.3271859636","0.6","0.4","0.2","0.8","0.2143869662","0.2942822571","0.3271859636","0.3722032088","","","","","","","","","","","","75","K","2","","","12","main_expt"
"","bandit","92","365220","0.0-53.0-0.0","32347450","wem/bandit_either_2","A163J5TEJBO43B","either","4","424","","","","","","","0","1","0","","0.2761076709","0.6","0.4","0.2","0.8","0.1637139448","0.3009212619","0.2761076709","0.3681707299","","","","","","","","","","","","75","K","2","","","13","main_expt"
"","bandit","93","366853","0.0-54.0-0.0","32347450","wem/bandit_either_2","A163J5TEJBO43B","either","4","120","","","","","","","0","0","1","","0.2311164494","0.6","0.4","0.2","0.8","0.1488535162","0.3227424667","0.2311164494","0.3528222564","","","","","","","","","","","","75","K","2","","","14","main_expt"
"","bandit","94","368525","0.0-55.0-0.0","32347450","wem/bandit_either_2","A163J5TEJBO43B","either","4","156","","","","","","","0","0","1","","0.3547546862","0.6","0.4","0.2","0.8","0.1332411271","0.3547546862","0.2905977425","0.3738838661","","","","","","","","","","","","74","J","1","","","15","main_expt"
"","bandit","95","370133","0.0-56.0-0.0","32347450","wem/bandit_either_2","A163J5TEJBO43B","either","4","95","","","","","","","1","0","0","0.3241157583","","0.6","0.4","0.2","0.8","","","","","0.09882415698","0.3241157583","0.2924554969","0.3385239332","","","","","","","","74","J","1","","","16","main_expt"
"","bandit","96","371796","0.0-57.0-0.0","32347450","wem/bandit_either_2","A163J5TEJBO43B","either","4","150","","","","","","","0","0","1","0.3363410386","","0.6","0.4","0.2","0.8","","","","","0.1069157009","0.3363410386","0.3114836302","0.3111355138","","","","","","","","74","J","1","","","17","main_expt"
"","bandit","97","373340","0.0-58.0-0.0","32347450","wem/bandit_either_2","A163J5TEJBO43B","either","4","31","","","","","","","0","0","1","","0.134958137","0.6","0.4","0.2","0.8","0.134958137","0.3880947854","0.3215333475","0.3487767647","","","","","","","","","","","","72","H","0","img/none_selected.jpg","","18","main_expt"
"","bandit","98","375052","0.0-59.0-0.0","32347450","wem/bandit_either_2","A163J5TEJBO43B","either","4","198","","","","","","","0","0","1","0.1230418706","","0.6","0.4","0.2","0.8","","","","","0.1230418706","0.4116912081","0.2733398822","0.3010303499","","","","","","","","72","H","0","img/none_selected.jpg","","19","main_expt"
"","bandit","99","376668","0.0-60.0-0.0","32347450","wem/bandit_either_2","A163J5TEJBO43B","either","4","100","","","","","","","0","0","1","","0.2907203997","0.6","0.4","0.2","0.8","0.09866604889","0.3973894305","0.2351410235","0.2907203997","","","","","","","","","","","","76","L","3","","","20","main_expt"
"","bandit","100","378213","0.0-61.0-0.0","32347450","wem/bandit_either_2","A163J5TEJBO43B","either","4","30","","","","","","","0","0","1","","0.3088108907","0.6","0.4","0.2","0.8","0.1021222834","0.369037109","0.2257810982","0.3088108907","","","","","","","","","","","","76","L","3","","","21","main_expt"
"","bandit","101","379925","0.0-62.0-0.0","32347450","wem/bandit_either_2","A163J5TEJBO43B","either","4","199","","","","","","","0","0","1","0.4179468344","","0.6","0.4","0.2","0.8","","","","","0.1234138809","0.4179468344","0.2221856846","0.349202701","","","","","","","","74","J","1","","","22","main_expt"
"","bandit","102","381596","0.0-63.0-0.0","32347450","wem/bandit_either_2","A163J5TEJBO43B","either","4","158","","","","","","","0","0","1","0.2127124712","","0.6","0.4","0.2","0.8","","","","","0.1030640584","0.4276062926","0.2127124712","0.3785068464","","","","","","","","75","K","2","","","23","main_expt"
"","bandit","103","383236","0.0-64.0-0.0","32347450","wem/bandit_either_2","A163J5TEJBO43B","either","4","126","","","","","","","0","0","1","","0.1882566648","0.6","0.4","0.2","0.8","0.1261035851","0.4078122208","0.1882566648","0.4012919653","","","","","","","","","","","","75","K","2","","","24","main_expt"
"","bandit","104","384781","0.0-65.0-0.0","32347450","wem/bandit_either_2","A163J5TEJBO43B","either","4","31","","","","","","","0","0","1","","0.1273223766","0.6","0.4","0.2","0.8","0.1796705612","0.3950411191","0.1273223766","0.400899794","","","","","","","","","","","","75","K","2","","","25","main_expt"
"","bandit","105","386539","0.0-66.0-0.0","32347450","wem/bandit_either_2","A163J5TEJBO43B","either","4","245","","","","","","","0","0","1","0.2414651519","","0.6","0.4","0.2","0.8","","","","","0.2414651519","0.4322303329","0.15747458","0.4126274585","","","","","","","","72","H","0","img/none_selected.jpg","","26","main_expt"
"","bandit","106","388069","0.0-67.0-0.0","32347450","wem/bandit_either_2","A163J5TEJBO43B","either","4","14","","","","","","","0","1","0","","0.2005374927","0.6","0.4","0.2","0.8","0.2005374927","0.4353643722","0.1442684908","0.3992263875","","","","","","","","","","","","72","H","0","img/none_selected.jpg","","27","main_expt"
"","bandit","107","389725","0.0-68.0-0.0","32347450","wem/bandit_either_2","A163J5TEJBO43B","either","4","141","","","","","","","0","0","1","0.3197257227","","0.6","0.4","0.2","0.8","","","","","0.3197257227","0.4464017809","0.2255404594","0.3846584236","","","","","","","","72","H","0","img/none_selected.jpg","","28","main_expt"
"","bandit","108","391276","0.0-69.0-0.0","32347450","wem/bandit_either_2","A163J5TEJBO43B","either","4","38","","","","","","","0","1","0","","0.3141869899","0.6","0.4","0.2","0.8","0.3141869899","0.4417109462","0.2730951691","0.3561298134","","","","","","","","","","","","72","H","0","img/none_selected.jpg","","29","main_expt"
"","bandit","109","393060","0.0-70.0-0.0","32347450","wem/bandit_either_2","A163J5TEJBO43B","either","4","270","","","","","","","0","0","1","0.4065908859","","0.6","0.4","0.2","0.8","","","","","0.3445991012","0.4065908859","0.2890412698","0.3101363315","","","","","","","","74","J","1","","","30","main_expt"
"","bandit","110","394628","0.0-71.0-0.0","32347450","wem/bandit_either_2","A163J5TEJBO43B","either","4","53","","","","","","","0","0","1","0.3954582793","","0.6","0.4","0.2","0.8","","","","","0.3456655029","0.3954582793","0.3309226042","0.3322219809","","","","","","","","74","J","1","","","31","main_expt"
"","bandit","111","396580","0.0-72.0-0.0","32347450","wem/bandit_either_2","A163J5TEJBO43B","either","4","437","","","","","","","0","0","1","0.3516269472","","0.6","0.4","0.2","0.8","","","","","0.3826172224","0.3716723047","0.3519301717","0.3516269472","","","","","","","","76","L","3","","","32","main_expt"
"","bandit","112","398359","0.0-73.0-0.0","32347450","wem/bandit_either_2","A163J5TEJBO43B","either","4","263","","","","","","","1","0","0","0.3852085553","","0.6","0.4","0.2","0.8","","","","","0.3804083149","0.3799724366","0.3414953842","0.3852085553","","","","","","","","76","L","3","","","33","main_expt"
"","bandit","113","400213","0.0-74.0-0.0","32347450","wem/bandit_either_2","A163J5TEJBO43B","either","4","339","","","","","","","0","0","1","0.4196644934","","0.6","0.4","0.2","0.8","","","","","0.3808178469","0.409480615","0.2938412915","0.4196644934","","","","","","","","76","L","3","","","34","main_expt"
"","bandit","114","401893","0.0-75.0-0.0","32347450","wem/bandit_either_2","A163J5TEJBO43B","either","4","166","","","","","","","0","0","1","","0.2256616696","0.6","0.4","0.2","0.8","0.376129724","0.3869649509","0.2256616696","0.420891004","","","","","","","","","","","","75","K","2","","","35","main_expt"
"","bandit","115","403410","0.0-76.0-0.0","32347450","wem/bandit_either_2","A163J5TEJBO43B","either","4","3","","","","","","","0","0","1","","0.2525957923","0.6","0.4","0.2","0.8","0.4027809904","0.3045389962","0.2525957923","0.3808881167","","","","","","","","","","","","75","K","2","","","36","main_expt"
"","bandit","116","405027","0.0-77.0-0.0","32347450","wem/bandit_either_2","A163J5TEJBO43B","either","4","102","","","","","","","0","0","1","","0.2333373749","0.6","0.4","0.2","0.8","0.3715556026","0.2954217214","0.2333373749","0.3634360393","","","","","","","","","","","","75","K","2","","","37","main_expt"
"","bandit","117","406724","0.0-78.0-0.0","32347450","wem/bandit_either_2","A163J5TEJBO43B","either","4","182","","","","","","","1","0","0","0.2749906923","","0.6","0.4","0.2","0.8","","","","","0.354842885","0.2749906923","0.2126884676","0.3432691328","","","","","","","","74","J","1","","","38","main_expt"
"","bandit","118","408630","0.0-79.0-0.0","32347450","wem/bandit_either_2","A163J5TEJBO43B","either","4","392","","","","","","","0","0","1","","0.2911873598","0.6","0.4","0.2","0.8","0.3066825603","0.2911873598","0.212498526","0.3113322025","","","","","","","","","","","","74","J","1","","","39","main_expt"
"","bandit","119","410403","0.0-80.0-0.0","32347450","wem/bandit_either_2","A163J5TEJBO43B","either","4","260","","","","","","","0","0","1","0.3066149412","","0.6","0.4","0.2","0.8","","","","","0.3208648015","0.3066149412","0.2031275136","0.3298138996","","","","","","","","74","J","1","","","40","main_expt"
"","bandit","120","412420","0.0-81.0-0.0","32347450","wem/bandit_either_2","A163J5TEJBO43B","either","4","503","","","","","","","0","0","1","","0.2612722093","0.6","0.4","0.2","0.8","0.2774570704","0.2612722093","0.2409224204","0.3590557929","","","","","","","","","","","","74","J","1","","","41","main_expt"
"","bandit","121","414236","0.0-82.0-0.0","32347450","wem/bandit_either_2","A163J5TEJBO43B","either","4","301","","","","","","","0","0","1","0.3092882543","","0.6","0.4","0.2","0.8","","","","","0.3092882543","0.2579482203","0.2166695961","0.3455434044","","","","","","","","72","H","0","img/none_selected.jpg","","42","main_expt"
"","bandit","122","416014","0.0-83.0-0.0","32347450","wem/bandit_either_2","A163J5TEJBO43B","either","4","262","","","","","","","0","0","1","","0.3161251671","0.6","0.4","0.2","0.8","0.3161251671","0.2232302517","0.2314197793","0.4020043176","","","","","","","","","","","","72","H","0","img/none_selected.jpg","","43","main_expt"
"","bandit","123","418046","0.0-84.0-0.0","32347450","wem/bandit_either_2","A163J5TEJBO43B","either","4","516","","","","","","","0","0","1","","0.1889371852","0.6","0.4","0.2","0.8","0.3032549762","0.2435669349","0.1889371852","0.4088695108","","","","","","","","","","","","75","K","2","","","44","main_expt"
"","bandit","124","419815","0.0-85.0-0.0","32347450","wem/bandit_either_2","A163J5TEJBO43B","either","4","255","","","","","","","0","0","1","","0.2152104473","0.6","0.4","0.2","0.8","0.3012359134","0.1885724617","0.2152104473","0.3914045207","","","","","","","","","","","","75","K","2","","","45","main_expt"
"","bandit","125","421918","0.0-86.0-0.0","32347450","wem/bandit_either_2","A163J5TEJBO43B","either","4","586","","","","","","","1","0","0","0.3682142312","","0.6","0.4","0.2","0.8","","","","","0.2994346937","0.104230756","0.2260726972","0.3682142312","","","","","","","","76","L","3","","","46","main_expt"
"","bandit","126","423580","0.0-87.0-0.0","32347450","wem/bandit_either_2","A163J5TEJBO43B","either","4","147","","","","","","","0","0","1","0.3462276735","","0.6","0.4","0.2","0.8","","","","","0.3169549043","0.09013225529","0.2330399618","0.3462276735","","","","","","","","76","L","3","","","47","main_expt"
"","bandit","127","425284","0.0-88.0-0.0","32347450","wem/bandit_either_2","A163J5TEJBO43B","either","4","190","","","","","","","0","0","1","0.3501405617","","0.6","0.4","0.2","0.8","","","","","0.3137179834","0.1066227192","0.2769685944","0.3501405617","","","","","","","","76","L","3","","","48","main_expt"
"","bandit","128","426828","0.0-89.0-0.0","32347450","wem/bandit_either_2","A163J5TEJBO43B","either","4","27","","","","","","","0","1","0","","0.1273062614","0.6","0.4","0.2","0.8","0.3026837323","0.1273062614","0.2954986192","0.3607669766","","","","","","","","","","","","74","J","1","","","49","main_expt"
"","bandit","129","428547","0.0-90.0-0.0","32347450","wem/bandit_either_2","A163J5TEJBO43B","either","4","204","","","","","","","0","0","1","","0.08158159543","0.6","0.4","0.2","0.8","0.2690248343","0.08158159543","0.2730110453","0.3776327681","","","","","","","","","","","","74","J","1","","","50","main_expt"
"","bandit","130","430238","0.0-91.0-0.0","32347450","wem/bandit_either_2","A163J5TEJBO43B","either","4","175","","","","","","","0","0","1","","0.08035098666","0.6","0.4","0.2","0.8","0.2407215714","0.08035098666","0.2672659715","0.3922012959","","","","","","","","","","","","74","J","1","","","51","main_expt"
"","bandit","131","432028","0.0-92.0-0.0","32347450","wem/bandit_either_2","A163J5TEJBO43B","either","4","274","","","","","","","0","1","0","","0.1007468434","0.6","0.4","0.2","0.8","0.2758158767","0.1007468434","0.2552972095","0.3532085343","","","","","","","","","","","","74","J","1","","","52","main_expt"
"","bandit","132","433685","0.0-93.0-0.0","32347450","wem/bandit_either_2","A163J5TEJBO43B","either","4","140","","","","","","","0","0","1","","0.1479770317","0.6","0.4","0.2","0.8","0.2661511239","0.1479770317","0.1954439593","0.3597378762","","","","","","","","","","","","74","J","1","","","53","main_expt"
"","bandit","133","435396","0.0-94.0-0.0","32347450","wem/bandit_either_2","A163J5TEJBO43B","either","4","194","","","","","","","0","0","1","","0.1250298759","0.6","0.4","0.2","0.8","0.250303373","0.1450389045","0.1250298759","0.3553644404","","","","","","","","","","","","75","K","2","","","54","main_expt"
"","bandit","134","437484","0.0-95.0-0.0","32347450","wem/bandit_either_2","A163J5TEJBO43B","either","4","573","","","","","","","0","0","1","","0.1224949652","0.6","0.4","0.2","0.8","0.1850572083","0.1678096349","0.1224949652","0.3427354451","","","","","","","","","","","","75","K","2","","","55","main_expt"
"","bandit","135","439021","0.0-96.0-0.0","32347450","wem/bandit_either_2","A163J5TEJBO43B","either","4","20","","","","","","","0","0","1","0.2410157884","","0.6","0.4","0.2","0.8","","","","","0.2410157884","0.1748395718","0.1312048923","0.3158877586","","","","","","","","72","H","0","img/none_selected.jpg","","56","main_expt"
"","bandit","136","440581","0.0-97.0-0.0","32347450","wem/bandit_either_2","A163J5TEJBO43B","either","4","44","","","","","","","0","1","0","","0.3224611445","0.6","0.4","0.2","0.8","0.2657224069","0.146986137","0.14452077","0.3224611445","","","","","","","","","","","","76","L","3","","","57","main_expt"
"","bandit","137","442478","0.0-98.0-0.0","32347450","wem/bandit_either_2","A163J5TEJBO43B","either","4","381","","","","","","","1","0","0","0.2361308133","","0.6","0.4","0.2","0.8","","","","","0.2361308133","0.1316135006","0.1198415177","0.3378672788","","","","","","","","72","H","0","img/none_selected.jpg","","58","main_expt"
"","bandit","138","444379","0.0-99.0-0.0","32347450","wem/bandit_either_2","A163J5TEJBO43B","either","4","382","","","","","","","1","0","0","0.1776120447","","0.6","0.4","0.2","0.8","","","","","0.2078360154","0.1776120447","0.1674914914","0.3438075972","","","","","","","","74","J","1","","","59","main_expt"
"","bandit","139","446507","0.0-100.0-0.0","32347450","wem/bandit_either_2","A163J5TEJBO43B","either","4","611","","","","","","","0","0","1","0.2256957235","","0.6","0.4","0.2","0.8","","","","","0.2256957235","0.2034864675","0.147959707","0.2950987239","","","","","","","","72","H","0","img/none_selected.jpg","","60","main_expt"
"","bandit","140","448268","0.0-101.0-0.0","32347450","wem/bandit_either_2","A163J5TEJBO43B","either","4","243","","","","","","","0","0","1","0.2939622289","","0.6","0.4","0.2","0.8","","","","","0.2713547376","0.1325668513","0.1217284172","0.2939622289","","","","","","","","76","L","3","","","61","main_expt"
"","bandit","141","450110","0.0-102.0-0.0","32347450","wem/bandit_either_2","A163J5TEJBO43B","either","4","324","","","","","","","0","0","1","","0.1392905859","0.6","0.4","0.2","0.8","0.2800078023","0.125492747","0.1392905859","0.2907096119","","","","","","","","","","","","75","K","2","","","62","main_expt"
"","bandit","142","451877","0.0-103.0-0.0","32347450","wem/bandit_either_2","A163J5TEJBO43B","either","4","250","","","","","","","0","0","1","","0.1081989139","0.6","0.4","0.2","0.8","0.362183352","0.1081989139","0.1953314019","0.2696382907","","","","","","","","","","","","74","J","1","","","63","main_expt"
"","bandit","143","453611","0.0-104.0-0.0","32347450","wem/bandit_either_2","A163J5TEJBO43B","either","4","217","","","","","","","0","0","1","","0.2618523415","0.6","0.4","0.2","0.8","0.3354395381","0.09104284411","0.2618523415","0.2496415039","","","","","","","","","","","","75","K","2","","","64","main_expt"
"","bandit","144","455476","0.0-105.0-0.0","32347450","wem/bandit_either_2","A163J5TEJBO43B","either","4","349","","","","","","","0","0","1","0.2893845237","","0.6","0.4","0.2","0.8","","","","","0.2893845237","0.1264903162","0.2686672798","0.2364994079","","","","","","","","72","H","0","img/none_selected.jpg","","65","main_expt"
"","bandit","145","457172","0.0-106.0-0.0","32347450","wem/bandit_either_2","A163J5TEJBO43B","either","4","180","","","","","","","0","0","1","0.2541683514","","0.6","0.4","0.2","0.8","","","","","0.2355717356","0.1665937301","0.2451656397","0.2541683514","","","","","","","","76","L","3","","","66","main_expt"
"","bandit","146","459060","0.0-107.0-0.0","32347450","wem/bandit_either_2","A163J5TEJBO43B","either","4","370","","","","","","","0","0","1","0.1740025863","","0.6","0.4","0.2","0.8","","","","","0.2848755716","0.1740025863","0.2445320338","0.2985471382","","","","","","","","74","J","1","","","67","main_expt"
"","bandit","147","460860","0.0-108.0-0.0","32347450","wem/bandit_either_2","A163J5TEJBO43B","either","4","283","","","","","","","0","0","1","","0.2261158315","0.6","0.4","0.2","0.8","0.3341158043","0.2300011382","0.2261158315","0.3391290389","","","","","","","","","","","","75","K","2","","","68","main_expt"
"","bandit","148","462598","0.0-109.0-0.0","32347450","wem/bandit_either_2","A163J5TEJBO43B","either","4","221","","","","","","","0","0","1","","0.3114764975","0.6","0.4","0.2","0.8","0.3253412689","0.1768594062","0.1627286519","0.3114764975","","","","","","","","","","","","76","L","3","","","69","main_expt"
"","bandit","149","464382","0.0-110.0-0.0","32347450","wem/bandit_either_2","A163J5TEJBO43B","either","4","265","","","","","","","0","0","1","0.3056328376","","0.6","0.4","0.2","0.8","","","","","0.3280915152","0.1906145184","0.1301009224","0.3056328376","","","","","","","","76","L","3","","","70","main_expt"
"","bandit","150","466195","0.0-111.0-0.0","32347450","wem/bandit_either_2","A163J5TEJBO43B","either","4","298","","","","","","","0","1","0","","0.1451664327","0.6","0.4","0.2","0.8","0.3772643828","0.1451664327","0.1356707761","0.3445325487","","","","","","","","","","","","74","J","1","","","71","main_expt"
"","bandit","151","467916","0.0-112.0-0.0","32347450","wem/bandit_either_2","A163J5TEJBO43B","either","4","204","","","","","","","0","0","1","","0.1091447996","0.6","0.4","0.2","0.8","0.4074174212","0.1091447996","0.1045412551","0.364612409","","","","","","","","","","","","74","J","1","","","72","main_expt"
"","bandit","152","469580","0.0-113.0-0.0","32347450","wem/bandit_either_2","A163J5TEJBO43B","either","4","148","","","","","","","0","0","1","0.1248737042","","0.6","0.4","0.2","0.8","","","","","0.3736299767","0.1248737042","0.0867882282","0.4454774056","","","","","","","","74","J","1","","","73","main_expt"
"","bandit","153","471299","0.0-114.0-0.0","32347450","wem/bandit_either_2","A163J5TEJBO43B","either","4","202","","","","","","","0","0","1","","0.1018359722","0.6","0.4","0.2","0.8","0.383211712","0.1073746888","0.1018359722","0.4492830973","","","","","","","","","","","","75","K","2","","","74","main_expt"
"","bandit","154","472998","0.0-115.0-0.0","32347450","wem/bandit_either_2","A163J5TEJBO43B","either","4","181","","","","","","","1","0","0","0.3681962321","","0.6","0.4","0.2","0.8","","","","","0.3681962321","0.1051395745","0.09443707336","0.449321966","","","","","","","","72","H","0","img/none_selected.jpg","","75","main_expt"
"","bandit","155","474731","0.0-116.0-0.0","32347450","wem/bandit_either_2","A163J5TEJBO43B","either","4","218","","","","","","","1","0","0","0.3574328021","","0.6","0.4","0.2","0.8","","","","","0.3574328021","0.09171451076","0.08768691443","0.4299726132","","","","","","","","72","H","0","img/none_selected.jpg","","76","main_expt"
"","bandit","156","476491","0.0-117.0-0.0","32347450","wem/bandit_either_2","A163J5TEJBO43B","either","4","244","","","","","","","0","0","1","","0.4041720962","0.6","0.4","0.2","0.8","0.4041720962","0.1256070833","0.07744448812","0.4349340462","","","","","","","","","","","","72","H","0","img/none_selected.jpg","","77","main_expt"
"","bandit","157","478116","0.0-118.0-0.0","32347450","wem/bandit_either_2","A163J5TEJBO43B","either","4","108","","","","","","","0","1","0","","0.4000946746","0.6","0.4","0.2","0.8","0.4000946746","0.1398604905","0.05712631425","0.4112950215","","","","","","","","","","","","72","H","0","img/none_selected.jpg","","78","main_expt"
"","bandit","158","479875","0.0-119.0-0.0","32347450","wem/bandit_either_2","A163J5TEJBO43B","either","4","242","","","","","","","0","0","1","0.425248604","","0.6","0.4","0.2","0.8","","","","","0.425248604","0.1303191282","0.03981704588","0.4123046053","","","","","","","","72","H","0","img/none_selected.jpg","","79","main_expt"
"","bandit","159","481636","0.0-120.0-0.0","32347450","wem/bandit_either_2","A163J5TEJBO43B","either","4","243","","","","","","","1","0","0","0.4263383456","","0.6","0.4","0.2","0.8","","","","","0.4263383456","0.1491340647","0.02961196177","0.4345430878","","","","","","","","72","H","0","img/none_selected.jpg","","80","main_expt"
"","bandit","160","483381","0.0-121.0-0.0","32347450","wem/bandit_either_2","A163J5TEJBO43B","either","4","229","","","","","","","0","0","1","0.4377411966","","0.6","0.4","0.2","0.8","","","","","0.4377411966","0.1484119081","0.0408206899","0.4255274095","","","","","","","","72","H","0","img/none_selected.jpg","","81","main_expt"
"","bandit","161","485124","0.0-122.0-0.0","32347450","wem/bandit_either_2","A163J5TEJBO43B","either","4","227","","","","","","","0","0","1","0.4263216968","","0.6","0.4","0.2","0.8","","","","","0.4263216968","0.135460029","0.03491361241","0.4266934287","","","","","","","","72","H","0","img/none_selected.jpg","","82","main_expt"
"","bandit","162","486747","0.0-123.0-0.0","32347450","wem/bandit_either_2","A163J5TEJBO43B","either","4","107","","","","","","","1","0","0","0.4536492548","","0.6","0.4","0.2","0.8","","","","","0.4536492548","0.09497461961","0.01881925386","0.4321646522","","","","","","","","72","H","0","img/none_selected.jpg","","83","main_expt"
"","bandit","163","488451","0.0-124.0-0.0","32347450","wem/bandit_either_2","A163J5TEJBO43B","either","4","186","","","","","","","0","0","1","0.4344769981","","0.6","0.4","0.2","0.8","","","","","0.4344769981","0.0956585677","0.03441768066","0.43129245","","","","","","","","72","H","0","img/none_selected.jpg","","84","main_expt"
"","bandit","164","490196","0.0-125.0-0.0","32347450","wem/bandit_either_2","A163J5TEJBO43B","either","4","228","","","","","","","0","0","1","","0.04015732792","0.6","0.4","0.2","0.8","0.4167097255","0.08427930603","0.04015732792","0.4307495417","","","","","","","","","","","","75","K","2","","","85","main_expt"
"","bandit","165","491787","0.0-126.0-0.0","32347450","wem/bandit_either_2","A163J5TEJBO43B","either","4","74","","","","","","","0","0","1","","0.0462821445","0.6","0.4","0.2","0.8","0.4215971904","0.09540141202","0.0462821445","0.4327415212","","","","","","","","","","","","75","K","2","","","86","main_expt"
"","bandit","166","493549","0.0-127.0-0.0","32347450","wem/bandit_either_2","A163J5TEJBO43B","either","4","243","","","","","","","0","0","1","","0.07236867375","0.6","0.4","0.2","0.8","0.3962725568","0.06504543429","0.07236867375","0.4507305815","","","","","","","","","","","","75","K","2","","","87","main_expt"
"","bandit","167","495412","0.0-128.0-0.0","32347450","wem/bandit_either_2","A163J5TEJBO43B","either","4","346","","","","","","","0","0","1","","0.05894337134","0.6","0.4","0.2","0.8","0.4038430626","0.05894337134","0.1132918069","0.4571393315","","","","","","","","","","","","74","J","1","","","88","main_expt"
"","bandit","168","497271","0.0-129.0-0.0","32347450","wem/bandit_either_2","A163J5TEJBO43B","either","4","336","","","","","","","0","0","1","","0.06803635399","0.6","0.4","0.2","0.8","0.4247877058","0.06803635399","0.1466354559","0.4639779763","","","","","","","","","","","","74","J","1","","","89","main_expt"
"","bandit","169","499101","0.0-130.0-0.0","32347450","wem/bandit_either_2","A163J5TEJBO43B","either","4","312","","","","","","","0","0","1","0.09657856289","","0.6","0.4","0.2","0.8","","","","","0.4196700557","0.09657856289","0.1746819083","0.4620017245","","","","","","","","74","J","1","","","90","main_expt"
"","bandit","170","500923","0.0-131.0-0.0","32347450","wem/bandit_either_2","A163J5TEJBO43B","either","4","303","","","","","","","1","0","0","0.4492963398","","0.6","0.4","0.2","0.8","","","","","0.401758082","0.08522031428","0.1864657318","0.4492963398","","","","","","","","76","L","3","","","91","main_expt"
"","bandit","171","502491","0.0-132.0-0.0","32347450","wem/bandit_either_2","A163J5TEJBO43B","either","4","48","","","","","","","0","0","1","","0.462009279","0.6","0.4","0.2","0.8","0.3422099147","0.07078380504","0.2124622091","0.462009279","","","","","","","","","","","","76","L","3","","","92","main_expt"
"","bandit","172","504254","0.0-133.0-0.0","32347450","wem/bandit_either_2","A163J5TEJBO43B","either","4","246","","","","","","","0","1","0","","0.4363090379","0.6","0.4","0.2","0.8","0.3279059742","0.0564278809","0.245786276","0.4363090379","","","","","","","","","","","","76","L","3","","","93","main_expt"
"","bandit","173","506002","0.0-134.0-0.0","32347450","wem/bandit_either_2","A163J5TEJBO43B","either","4","231","","","","","","","0","0","1","0.4457519602","","0.6","0.4","0.2","0.8","","","","","0.3155724737","0.06067733924","0.2316759231","0.4457519602","","","","","","","","76","L","3","","","94","main_expt"
"","bandit","174","507676","0.0-135.0-0.0","32347450","wem/bandit_either_2","A163J5TEJBO43B","either","4","156","","","","","","","0","0","1","0.4231248902","","0.6","0.4","0.2","0.8","","","","","0.3519625041","0.08632751489","0.2231756969","0.4231248902","","","","","","","","76","L","3","","","95","main_expt"
"","bandit","175","509533","0.0-136.0-0.0","32347450","wem/bandit_either_2","A163J5TEJBO43B","either","4","339","","","","","","","0","0","1","","0.1957128212","0.6","0.4","0.2","0.8","0.3661455107","0.08481729553","0.1957128212","0.4210676831","","","","","","","","","","","","75","K","2","","","96","main_expt"
"","bandit","176","511244","0.0-137.0-0.0","32347450","wem/bandit_either_2","A163J5TEJBO43B","either","4","192","","","","","","","0","0","1","","0.1638116915","0.6","0.4","0.2","0.8","0.3558031673","0.08386440452","0.1638116915","0.4022895305","","","","","","","","","","","","75","K","2","","","97","main_expt"
"","bandit","177","513060","0.0-138.0-0.0","32347450","wem/bandit_either_2","A163J5TEJBO43B","either","4","299","","","","","","","0","0","1","","0.1405816365","0.6","0.4","0.2","0.8","0.3558230887","0.0940701929","0.1405816365","0.4187351015","","","","","","","","","","","","75","K","2","","","98","main_expt"
"","bandit","178","514934","0.0-139.0-0.0","32347450","wem/bandit_either_2","A163J5TEJBO43B","either","4","355","","","","","","","0","0","1","","0.3064708089","0.6","0.4","0.2","0.8","0.3064708089","0.1285058524","0.1435678602","0.3981340028","","","","","","","","","","","","72","H","0","img/none_selected.jpg","","99","main_expt"
"","bandit","179","516579","0.0-140.0-0.0","32347450","wem/bandit_either_2","A163J5TEJBO43B","either","4","125","","","","","","","0","0","1","0.352498313","","0.6","0.4","0.2","0.8","","","","","0.352498313","0.065882019","0.1478754355","0.3520446815","","","","","","","","72","H","0","img/none_selected.jpg","","100","main_expt"
"","bandit","180","518491","0.0-141.0-0.0","32347450","wem/bandit_either_2","A163J5TEJBO43B","either","4","395","","","","","","","1","0","0","0.3511810171","","0.6","0.4","0.2","0.8","","","","","0.3511810171","0.05692140794","0.1532559328","0.3715523215","","","","","","","","72","H","0","img/none_selected.jpg","","101","main_expt"
"","bandit","181","520356","0.0-142.0-0.0","32347450","wem/bandit_either_2","A163J5TEJBO43B","either","4","347","","","","","","","0","0","1","","0.3246867477","0.6","0.4","0.2","0.8","0.3246867477","0.04322280369","0.15857411","0.3966955113","","","","","","","","","","","","72","H","0","img/none_selected.jpg","","102","main_expt"
"","bandit","182","522004","0.0-143.0-0.0","32347450","wem/bandit_either_2","A163J5TEJBO43B","either","4","128","","","","","","","0","0","1","","0.05121437093","0.6","0.4","0.2","0.8","0.2827689756","0.05121437093","0.1552377357","0.3865714765","","","","","","","","","","","","74","J","1","","","103","main_expt"
"","bandit","183","524204","0.0-144.0-0.0","32347450","wem/bandit_either_2","A163J5TEJBO43B","either","4","681","","","","","","","0","0","1","0.06548077564","","0.6","0.4","0.2","0.8","","","","","0.3307995119","0.06548077564","0.1584193753","0.3440646931","","","","","","","","74","J","1","","","104","main_expt"
"","bandit","184","525925","0.0-145.0-0.0","32347450","wem/bandit_either_2","A163J5TEJBO43B","either","4","204","","","","","","","0","0","1","","0.330981063","0.6","0.4","0.2","0.8","0.3078297571","0.07577357845","0.192058402","0.330981063","","","","","","","","","","","","76","L","3","","","105","main_expt"
"","bandit","185","528101","0.0-146.0-0.0","32347450","wem/bandit_either_2","A163J5TEJBO43B","either","4","656","","","","","","","0","1","0","","0.3202685942","0.6","0.4","0.2","0.8","0.3202685942","0.09041352565","0.1562344916","0.3317280627","","","","","","","","","","","","72","H","0","img/none_selected.jpg","","106","main_expt"
"","bandit","186","529643","0.0-147.0-0.0","32347450","wem/bandit_either_2","A163J5TEJBO43B","either","4","23","","","","","","","0","0","1","0.3163418234","","0.6","0.4","0.2","0.8","","","","","0.3163418234","0.1184921167","0.1493116313","0.2760665195","","","","","","","","72","H","0","img/none_selected.jpg","","107","main_expt"
"","bandit","187","531558","0.0-148.0-0.0","32347450","wem/bandit_either_2","A163J5TEJBO43B","either","4","398","","","","","","","0","0","1","0.3425943818","","0.6","0.4","0.2","0.8","","","","","0.3425943818","0.1057615429","0.1357435498","0.2826301941","","","","","","","","72","H","0","img/none_selected.jpg","","108","main_expt"
"","bandit","188","533363","0.0-149.0-0.0","32347450","wem/bandit_either_2","A163J5TEJBO43B","either","4","284","","","","","","","0","0","1","0.2852030557","","0.6","0.4","0.2","0.8","","","","","0.2852030557","0.1464484126","0.1164074326","0.318117281","","","","","","","","72","H","0","img/none_selected.jpg","","109","main_expt"
"","bandit","189","535171","0.0-150.0-0.0","32347450","wem/bandit_either_2","A163J5TEJBO43B","either","4","290","","","","","","","1","0","0","0.3358587519","","0.6","0.4","0.2","0.8","","","","","0.3392406975","0.1641354829","0.1444451916","0.3358587519","","","","","","","","76","L","3","","","110","main_expt"
"","bandit","190","536877","0.0-151.0-0.0","32347450","wem/bandit_either_2","A163J5TEJBO43B","either","4","188","","","","","","","0","0","1","0.3031660534","","0.6","0.4","0.2","0.8","","","","","0.3023411017","0.1386891192","0.09905323685","0.3031660534","","","","","","","","76","L","3","","","111","main_expt"
"","bandit","191","538636","0.0-152.0-0.0","32347450","wem/bandit_either_2","A163J5TEJBO43B","either","4","239","","","","","","","0","0","1","","0.2773548355","0.6","0.4","0.2","0.8","0.296849772","0.1847512065","0.09652445584","0.2773548355","","","","","","","","","","","","76","L","3","","","112","main_expt"
"","bandit","192","540253","0.0-153.0-0.0","32347450","wem/bandit_either_2","A163J5TEJBO43B","either","4","98","","","","","","","0","0","1","","0.09961189632","0.6","0.4","0.2","0.8","0.2673419259","0.1304555333","0.09961189632","0.2370758425","","","","","","","","","","","","75","K","2","","","113","main_expt"
"","bandit","193","541884","0.0-154.0-0.0","32347450","wem/bandit_either_2","A163J5TEJBO43B","either","4","112","","","","","","","0","0","1","","0.1770102637","0.6","0.4","0.2","0.8","0.2670531803","0.1770102637","0.1036139638","0.1821928837","","","","","","","","","","","","74","J","1","","","114","main_expt"
"","bandit","194","543524","0.0-155.0-0.0","32347450","wem/bandit_either_2","A163J5TEJBO43B","either","4","122","","","","","","","0","0","1","","0.1564651975","0.6","0.4","0.2","0.8","0.2825009356","0.1564651975","0.0968506792","0.1315453283","","","","","","","","","","","","74","J","1","","","115","main_expt"
"","bandit","195","545090","0.0-156.0-0.0","32347450","wem/bandit_either_2","A163J5TEJBO43B","either","4","50","","","","","","","0","0","1","0.1665702367","","0.6","0.4","0.2","0.8","","","","","0.3237719372","0.1665702367","0.08782875681","0.1102777544","","","","","","","","74","J","1","","","116","main_expt"
"","bandit","196","546628","0.0-157.0-0.0","32347450","wem/bandit_either_2","A163J5TEJBO43B","either","4","19","","","","","","","0","0","1","0.1101610351","","0.6","0.4","0.2","0.8","","","","","0.3154846423","0.1530687496","0.06031800864","0.1101610351","","","","","","","","76","L","3","","","117","main_expt"
"","bandit","197","548147","0.0-158.0-0.0","32347450","wem/bandit_either_2","A163J5TEJBO43B","either","4","1","","","","","","","0","0","1","","0.122460482","0.6","0.4","0.2","0.8","0.2584508078","0.1674206906","0.05633053331","0.122460482","","","","","","","","","","","","76","L","3","","","118","main_expt"
"","bandit","198","550252","0.0-159.0-0.0","32347450","wem/bandit_either_2","A163J5TEJBO43B","either","4","585","","","","","","","0","0","1","0.2141905193","","0.6","0.4","0.2","0.8","","","","","0.2141905193","0.1990215448","0.07530514027","0.1451868924","","","","","","","","72","H","0","img/none_selected.jpg","","119","main_expt"
"","bandit","199","552052","0.0-160.0-0.0","32347450","wem/bandit_either_2","A163J5TEJBO43B","either","4","280","","","","","","","0","0","1","","0.2341954374","0.6","0.4","0.2","0.8","0.2341954374","0.2208640619","0.09639595661","0.09092593383","","","","","","","","","","","","72","H","0","img/none_selected.jpg","","120","main_expt"
"","bandit","200","553820","0.0-161.0-0.0","32347450","wem/bandit_either_2","A163J5TEJBO43B","either","4","249","","","","","","","0","0","1","","0.2602917539","0.6","0.4","0.2","0.8","0.1886372651","0.2602917539","0.1421799471","0.1080456108","","","","","","","","","","","","74","J","1","","","121","main_expt"
"","bandit","201","555612","0.0-162.0-0.0","32347450","wem/bandit_either_2","A163J5TEJBO43B","either","4","273","","","","","","","0","0","1","0.1169053248","","0.6","0.4","0.2","0.8","","","","","0.1597592322","0.2512498235","0.1624760489","0.1169053248","","","","","","","","76","L","3","","","122","main_expt"
"","bandit","202","557268","0.0-163.0-0.0","32347450","wem/bandit_either_2","A163J5TEJBO43B","either","4","136","","","","","","","0","0","1","0.1895266442","","0.6","0.4","0.2","0.8","","","","","0.1895266442","0.2266242761","0.1640214383","0.1571594809","","","","","","","","72","H","0","img/none_selected.jpg","","123","main_expt"
"","bandit","203","558878","0.0-164.0-0.0","32347450","wem/bandit_either_2","A163J5TEJBO43B","either","4","92","","","","","","","0","0","1","","0.2373824638","0.6","0.4","0.2","0.8","0.2042850732","0.2373824638","0.2014340991","0.2231804049","","","","","","","","","","","","74","J","1","","","124","main_expt"
"","bandit","204","560692","0.0-165.0-0.0","32347450","wem/bandit_either_2","A163J5TEJBO43B","either","4","294","","","","","","","1","0","0","0.2538727107","","0.6","0.4","0.2","0.8","","","","","0.1812515389","0.2538727107","0.2229229076","0.2232794356","","","","","","","","74","J","1","","","125","main_expt"
"","bandit","205","562413","0.0-166.0-0.0","32347450","wem/bandit_either_2","A163J5TEJBO43B","either","4","202","","","","","","","0","0","1","0.290219491","","0.6","0.4","0.2","0.8","","","","","0.1694736183","0.290219491","0.2324712723","0.2316903634","","","","","","","","74","J","1","","","126","main_expt"
"","bandit","206","564124","0.0-167.0-0.0","32347450","wem/bandit_either_2","A163J5TEJBO43B","either","4","192","","","","","","","0","0","1","","0.2628391623","0.6","0.4","0.2","0.8","0.1624528765","0.2542505169","0.2628391623","0.2337524142","","","","","","","","","","","","75","K","2","","","127","main_expt"
"","bandit","207","565759","0.0-168.0-0.0","32347450","wem/bandit_either_2","A163J5TEJBO43B","either","4","114","","","","","","","0","1","0","","0.1632982916","0.6","0.4","0.2","0.8","0.1632982916","0.2582316027","0.2654356302","0.2198210178","","","","","","","","","","","","72","H","0","img/none_selected.jpg","","128","main_expt"
"","bandit","208","567501","0.0-169.0-0.0","32347450","wem/bandit_either_2","A163J5TEJBO43B","either","4","223","","","","","","","0","0","1","0.2264598068","","0.6","0.4","0.2","0.8","","","","","0.2264598068","0.3267566011","0.2070569149","0.2280168395","","","","","","","","72","H","0","img/none_selected.jpg","","129","main_expt"
"","bandit","209","569312","0.0-170.0-0.0","32347450","wem/bandit_either_2","A163J5TEJBO43B","either","4","291","","","","","","","0","0","1","","0.202760285","0.6","0.4","0.2","0.8","0.202760285","0.3323271388","0.2579182239","0.243895296","","","","","","","","","","","","72","H","0","img/none_selected.jpg","","130","main_expt"
"","bandit","210","571135","0.0-171.0-0.0","32347450","wem/bandit_either_2","A163J5TEJBO43B","either","4","302","","","","","","","0","0","1","0.2164454501","","0.6","0.4","0.2","0.8","","","","","0.1585094705","0.2666668646","0.2329110821","0.2164454501","","","","","","","","76","L","3","","","131","main_expt"
"","bandit","211","572868","0.0-172.0-0.0","32347450","wem/bandit_either_2","A163J5TEJBO43B","either","4","213","","","","","","","0","0","1","","0.200468731","0.6","0.4","0.2","0.8","0.1304261544","0.2359119393","0.2400232435","0.200468731","","","","","","","","","","","","76","L","3","","","132","main_expt"
"","bandit","212","574550","0.0-173.0-0.0","32347450","wem/bandit_either_2","A163J5TEJBO43B","either","4","161","","","","","","","1","0","0","0.09339990826","","0.6","0.4","0.2","0.8","","","","","0.09339990826","0.2540740643","0.2084798617","0.2038597077","","","","","","","","72","H","0","img/none_selected.jpg","","133","main_expt"
"","bandit","213","578492","0.0-174.0-0.0","32347450","wem/bandit_either_2","A163J5TEJBO43B","either","4","2423","","","","","","","0","0","1","","0.08524612959","0.6","0.4","0.2","0.8","0.08524612959","0.2414927735","0.2034544","0.2263269307","","","","","","","","","","","","72","H","0","img/none_selected.jpg","","134","main_expt"
"","bandit","214","580239","0.0-175.0-0.0","32347450","wem/bandit_either_2","A163J5TEJBO43B","either","4","221","","","","","","","0","0","1","","0.2632369982","0.6","0.4","0.2","0.8","0.0622033461","0.2632369982","0.2088958693","0.2686469146","","","","","","","","","","","","74","J","1","","","135","main_expt"
"","bandit","215","581973","0.0-176.0-0.0","32347450","wem/bandit_either_2","A163J5TEJBO43B","either","4","213","","","","","","","0","1","0","","0.3032623762","0.6","0.4","0.2","0.8","0.05632890875","0.3032623762","0.2573758916","0.3170393738","","","","","","","","","","","","74","J","1","","","136","main_expt"
"","bandit","216","583742","0.0-177.0-0.0","32347450","wem/bandit_either_2","A163J5TEJBO43B","either","4","248","","","","","","","0","1","0","","0.2984046037","0.6","0.4","0.2","0.8","0.06052980877","0.2984046037","0.2467438462","0.338962466","","","","","","","","","","","","74","J","1","","","137","main_expt"
"","bandit","217","585524","0.0-178.0-0.0","32347450","wem/bandit_either_2","A163J5TEJBO43B","either","4","261","","","","","","","0","1","0","","0.3110629865","0.6","0.4","0.2","0.8","0.1038497792","0.3110629865","0.2221944767","0.3586643031","","","","","","","","","","","","74","J","1","","","138","main_expt"
"","bandit","218","587284","0.0-179.0-0.0","32347450","wem/bandit_either_2","A163J5TEJBO43B","either","4","242","","","","","","","0","0","1","","0.3048373826","0.6","0.4","0.2","0.8","0.08561062373","0.3048373826","0.2750517365","0.3430902759","","","","","","","","","","","","74","J","1","","","139","main_expt"
"","bandit","219","589110","0.0-180.0-0.0","32347450","wem/bandit_either_2","A163J5TEJBO43B","either","4","306","","","","","","","1","0","0","0.3163642845","","0.6","0.4","0.2","0.8","","","","","0.08025295029","0.3163642845","0.277474309","0.3777112835","","","","","","","","74","J","1","","","140","main_expt"
"","bandit","220","590869","0.0-181.0-0.0","32347450","wem/bandit_either_2","A163J5TEJBO43B","either","4","239","","","","","","","1","0","0","0.2213861514","","0.6","0.4","0.2","0.8","","","","","0.09309891757","0.2213861514","0.2932007391","0.4276051364","","","","","","","","74","J","1","","","141","main_expt"
"","bandit","221","592637","0.0-182.0-0.0","32347450","wem/bandit_either_2","A163J5TEJBO43B","either","4","247","","","","","","","0","0","1","0.2492613222","","0.6","0.4","0.2","0.8","","","","","0.1107976638","0.2492613222","0.3001807938","0.4312347149","","","","","","","","74","J","1","","","142","main_expt"
"","bandit","222","594414","0.0-183.0-0.0","32347450","wem/bandit_either_2","A163J5TEJBO43B","either","4","255","","","","","","","1","0","0","0.2645663874","","0.6","0.4","0.2","0.8","","","","","0.09575525052","0.2645663874","0.3640878437","0.386657586","","","","","","","","74","J","1","","","143","main_expt"
"","bandit","223","596132","0.0-184.0-0.0","32347450","wem/bandit_either_2","A163J5TEJBO43B","either","4","200","","","","","","","0","1","0","","0.2928215939","0.6","0.4","0.2","0.8","0.07222794989","0.2928215939","0.2706796495","0.3409851627","","","","","","","","","","","","74","J","1","","","144","main_expt"
"","bandit","224","597814","0.0-185.0-0.0","32347450","wem/bandit_either_2","A163J5TEJBO43B","either","4","159","","","","","","","0","0","1","","0.3178979655","0.6","0.4","0.2","0.8","0.03203798906","0.3178979655","0.2359726437","0.3538709708","","","","","","","","","","","","74","J","1","","","145","main_expt"
"","bandit","225","599589","0.0-186.0-0.0","32347450","wem/bandit_either_2","A163J5TEJBO43B","either","4","257","","","","","","","0","0","1","0.2850957273","","0.6","0.4","0.2","0.8","","","","","0.03073079809","0.2850957273","0.2200332621","0.2745956728","","","","","","","","74","J","1","","","146","main_expt"
"","bandit","226","601375","0.0-187.0-0.0","32347450","wem/bandit_either_2","A163J5TEJBO43B","either","4","263","","","","","","","0","0","1","","0.2483519338","0.6","0.4","0.2","0.8","0.05105424151","0.2483519338","0.1957794229","0.2375793476","","","","","","","","","","","","74","J","1","","","147","main_expt"
"","bandit","227","603301","0.0-188.0-0.0","32347450","wem/bandit_either_2","A163J5TEJBO43B","either","4","407","","","","","","","0","0","1","","0.04045355104","0.6","0.4","0.2","0.8","0.04045355104","0.2309770791","0.1790722045","0.2954602587","","","","","","","","","","","","72","H","0","img/none_selected.jpg","","148","main_expt"
"","bandit","228","605109","0.0-189.0-0.0","32347450","wem/bandit_either_2","A163J5TEJBO43B","either","4","289","","","","","","","0","0","1","","0.06416506337","0.6","0.4","0.2","0.8","0.06416506337","0.1759049641","0.2189150546","0.3435099865","","","","","","","","","","","","72","H","0","img/none_selected.jpg","","149","main_expt"
"","bandit","229","606973","0.0-190.0-0.0","32347450","wem/bandit_either_2","A163J5TEJBO43B","either","4","342","","","","","","","0","0","1","0.07819388902","","0.6","0.4","0.2","0.8","","","","","0.07819388902","0.1910702346","0.2119229637","0.268900415","","","","","","","","72","H","0","img/none_selected.jpg","","150","main_expt"
"","bandit","230","608717","0.0-191.0-0.0","32347450","wem/bandit_either_2","A163J5TEJBO43B","either","4","223","","","","","","","0","0","1","0.2326488896","","0.6","0.4","0.2","0.8","","","","","0.1186979887","0.1799178466","0.2472398003","0.2326488896","","","","","","","","76","L","3","","","151","main_expt"
"","bandit","231","610539","0.0-192.0-0.0","32347450","wem/bandit_either_2","A163J5TEJBO43B","either","4","300","","","","","","","0","0","1","","0.2768057641","0.6","0.4","0.2","0.8","0.1084773402","0.1826140084","0.2148428051","0.2768057641","","","","","","","","","","","","76","L","3","","","152","main_expt"
"","bandit","232","612214","0.0-193.0-0.0","32347450","wem/bandit_either_2","A163J5TEJBO43B","either","4","152","","","","","","","0","1","0","","0.1598057249","0.6","0.4","0.2","0.8","0.1314289417","0.147924298","0.1598057249","0.2997660112","","","","","","","","","","","","75","K","2","","","153","main_expt"
"","bandit","233","614139","0.0-194.0-0.0","32347450","wem/bandit_either_2","A163J5TEJBO43B","either","4","403","","","","","","","0","0","1","0.1489099923","","0.6","0.4","0.2","0.8","","","","","0.1354051011","0.1388357139","0.1489099923","0.3196464983","","","","","","","","75","K","2","","","154","main_expt"
"","bandit","234","615916","0.0-195.0-0.0","32347450","wem/bandit_either_2","A163J5TEJBO43B","either","4","256","","","","","","","0","0","1","","0.1502541116","0.6","0.4","0.2","0.8","0.1085215933","0.1658398244","0.1502541116","0.3141654429","","","","","","","","","","","","75","K","2","","","155","main_expt"
"","bandit","235","617819","0.0-196.0-0.0","32347450","wem/bandit_either_2","A163J5TEJBO43B","either","4","382","","","","","","","0","0","1","","0.1104921729","0.6","0.4","0.2","0.8","0.1383379057","0.1104921729","0.1605084188","0.2667217688","","","","","","","","","","","","74","J","1","","","156","main_expt"
"","bandit","236","619787","0.0-197.0-0.0","32347450","wem/bandit_either_2","A163J5TEJBO43B","either","4","448","","","","","","","0","0","1","0.2867075714","","0.6","0.4","0.2","0.8","","","","","0.1428990181","0.09530810267","0.1684101418","0.2867075714","","","","","","","","76","L","3","","","157","main_expt"
"","bandit","237","621524","0.0-198.0-0.0","32347450","wem/bandit_either_2","A163J5TEJBO43B","either","4","213","","","","","","","0","0","1","0.2788639118","","0.6","0.4","0.2","0.8","","","","","0.07455979893","0.1211627972","0.1807688322","0.2788639118","","","","","","","","76","L","3","","","158","main_expt"
"","bandit","238","623277","0.0-199.0-0.0","32347450","wem/bandit_either_2","A163J5TEJBO43B","either","4","230","","","","","","","1","0","0","0.1009372764","","0.6","0.4","0.2","0.8","","","","","0.1009372764","0.1012897464","0.1516426412","0.3020710819","","","","","","","","72","H","0","img/none_selected.jpg","","159","main_expt"
"","bandit","239","624974","0.0-200.0-0.0","32347450","wem/bandit_either_2","A163J5TEJBO43B","either","4","173","","","","","","","0","0","1","","0.05118862797","0.6","0.4","0.2","0.8","0.05118862797","0.1188035868","0.1638698877","0.3404227007","","","","","","","","","","","","72","H","0","img/none_selected.jpg","","160","main_expt"
"","bandit","240","626764","0.0-201.0-0.0","32347450","wem/bandit_either_2","A163J5TEJBO43B","either","4","270","","","","","","","0","0","1","0.05265847637","","0.6","0.4","0.2","0.8","","","","","0.05265847637","0.1606836622","0.1645359983","0.2876249865","","","","","","","","72","H","0","img/none_selected.jpg","","161","main_expt"
"","bandit","241","628483","0.0-202.0-0.0","32347450","wem/bandit_either_2","A163J5TEJBO43B","either","4","196","","","","","","","0","0","1","","0.2509918509","0.6","0.4","0.2","0.8","0.07938684611","0.1859884171","0.2509918509","0.2401308511","","","","","","","","","","","","75","K","2","","","162","main_expt"
"","bandit","242","630107","0.0-203.0-0.0","32347450","wem/bandit_either_2","A163J5TEJBO43B","either","4","103","","","","","","","0","0","1","","0.1883685458","0.6","0.4","0.2","0.8","0.0970900163","0.2528258464","0.1883685458","0.2486605046","","","","","","","","","","","","75","K","2","","","163","main_expt"
"","bandit","243","631908","0.0-204.0-0.0","32347450","wem/bandit_either_2","A163J5TEJBO43B","either","4","279","","","","","","","0","0","1","0.07401968201","","0.6","0.4","0.2","0.8","","","","","0.07401968201","0.2515292425","0.2179532334","0.22675384","","","","","","","","72","H","0","img/none_selected.jpg","","164","main_expt"
"","bandit","244","633615","0.0-205.0-0.0","32347450","wem/bandit_either_2","A163J5TEJBO43B","either","4","186","","","","","","","0","0","1","0.2841151948","","0.6","0.4","0.2","0.8","","","","","0.06633104104","0.2068970429","0.2143704678","0.2841151948","","","","","","","","76","L","3","","","165","main_expt"
"","bandit","245","635413","0.0-206.0-0.0","32347450","wem/bandit_either_2","A163J5TEJBO43B","either","4","275","","","","","","","0","0","1","","0.05309652092","0.6","0.4","0.2","0.8","0.05309652092","0.1413778631","0.2175899085","0.2842980464","","","","","","","","","","","","72","H","0","img/none_selected.jpg","","166","main_expt"
"","bandit","246","637068","0.0-207.0-0.0","32347450","wem/bandit_either_2","A163J5TEJBO43B","either","4","135","","","","","","","0","0","1","0.1999497975","","0.6","0.4","0.2","0.8","","","","","0.07357446968","0.1999497975","0.2137120923","0.3007590714","","","","","","","","74","J","1","","","167","main_expt"
"","bandit","247","639029","0.0-208.0-0.0","32347450","wem/bandit_either_2","A163J5TEJBO43B","either","4","438","","","","","","","0","1","0","","0.2884936601","0.6","0.4","0.2","0.8","0.1054325378","0.1696145944","0.2331560811","0.2884936601","","","","","","","","","","","","76","L","3","","","168","main_expt"
"","bandit","248","640676","0.0-209.0-0.0","32347450","wem/bandit_either_2","A163J5TEJBO43B","either","4","125","","","","","","","0","0","1","0.2803439438","","0.6","0.4","0.2","0.8","","","","","0.08536867429","0.1338518967","0.2367963754","0.2803439438","","","","","","","","76","L","3","","","169","main_expt"
"","bandit","249","642460","0.0-210.0-0.0","32347450","wem/bandit_either_2","A163J5TEJBO43B","either","4","260","","","","","","","0","0","1","","0.3010437192","0.6","0.4","0.2","0.8","0.1083432756","0.1307598277","0.2378050175","0.3010437192","","","","","","","","","","","","76","L","3","","","170","main_expt"
"","bandit","250","644246","0.0-211.0-0.0","32347450","wem/bandit_either_2","A163J5TEJBO43B","either","4","264","","","","","","","0","0","1","","0.3243802095","0.6","0.4","0.2","0.8","0.09185370626","0.1200375331","0.2253696972","0.3243802095","","","","","","","","","","","","76","L","3","","","171","main_expt"
"","bandit","251","645941","0.0-212.0-0.0","32347450","wem/bandit_either_2","A163J5TEJBO43B","either","4","172","","","","","","","0","1","0","","0.2903394368","0.6","0.4","0.2","0.8","0.09458096772","0.07514546963","0.2903394368","0.3140094691","","","","","","","","","","","","75","K","2","","","172","main_expt"
"","bandit","252","647620","0.0-213.0-0.0","32347450","wem/bandit_either_2","A163J5TEJBO43B","either","4","159","","","","","","","0","0","1","","0.2384828248","0.6","0.4","0.2","0.8","0.1016296913","0.07704486673","0.2384828248","0.2433770114","","","","","","","","","","","","75","K","2","","","173","main_expt"
"","bandit","253","649420","0.0-214.0-0.0","32347450","wem/bandit_either_2","A163J5TEJBO43B","either","4","278","","","","","","","0","0","1","","0.2823111034","0.6","0.4","0.2","0.8","0.117107939","0.04061738922","0.2823111034","0.2080779891","","","","","","","","","","","","75","K","2","","","174","main_expt"
"","bandit","254","650949","0.0-215.0-0.0","32347450","wem/bandit_either_2","A163J5TEJBO43B","either","4","7","","","","","","","0","0","1","","0.02968316822","0.6","0.4","0.2","0.8","0.1254773658","0.02968316822","0.292147578","0.2211365803","","","","","","","","","","","","74","J","1","","","175","main_expt"
"","bandit","255","652582","0.0-216.0-0.0","32347450","wem/bandit_either_2","A163J5TEJBO43B","either","4","109","","","","","","","0","0","1","","0.2928295457","0.6","0.4","0.2","0.8","0.1518856622","0.04419366322","0.2928295457","0.231280906","","","","","","","","","","","","75","K","2","","","176","main_expt"
"","bandit","256","654453","0.0-217.0-0.0","32347450","wem/bandit_either_2","A163J5TEJBO43B","either","4","351","","","","","","","0","0","1","","0.1502483312","0.6","0.4","0.2","0.8","0.1502483312","0.04140429262","0.297241693","0.1689881391","","","","","","","","","","","","72","H","0","img/none_selected.jpg","","177","main_expt"
"","bandit","257","656166","0.0-218.0-0.0","32347450","wem/bandit_either_2","A163J5TEJBO43B","either","4","189","","","","","","","0","0","1","0.06103489621","","0.6","0.4","0.2","0.8","","","","","0.2073149786","0.06103489621","0.276241128","0.1699404395","","","","","","","","74","J","1","","","178","main_expt"
"","bandit","258","657843","0.0-219.0-0.0","32347450","wem/bandit_either_2","A163J5TEJBO43B","either","4","156","","","","","","","0","0","1","0.1928578162","","0.6","0.4","0.2","0.8","","","","","0.1928578162","0.053608248","0.2405339857","0.1571972967","","","","","","","","72","H","0","img/none_selected.jpg","","179","main_expt"
"","bandit","259","659636","0.0-220.0-0.0","32347450","wem/bandit_either_2","A163J5TEJBO43B","either","4","270","","","","","","","0","0","1","0.1567782565","","0.6","0.4","0.2","0.8","","","","","0.1412953234","0.06289379635","0.233428307","0.1567782565","","","","","","","","76","L","3","","","180","main_expt"
"","bandit","260","661435","0.0-221.0-0.0","32347450","wem/bandit_either_2","A163J5TEJBO43B","either","4","277","","","","","","","0","0","1","","0.1459310114","0.6","0.4","0.2","0.8","0.1258774719","0.07748386732","0.1459310114","0.1492691696","","","","","","","","","","","","75","K","2","","","181","main_expt"
"","bandit","261","663181","0.0-222.0-0.0","32347450","wem/bandit_either_2","A163J5TEJBO43B","either","4","221","","","","","","","0","0","1","0.096714051","","0.6","0.4","0.2","0.8","","","","","0.1121960069","0.096714051","0.1796360657","0.1609613705","","","","","","","","74","J","1","","","182","main_expt"
"","bandit","262","664925","0.0-223.0-0.0","32347450","wem/bandit_either_2","A163J5TEJBO43B","either","4","220","","","","","","","0","0","1","","0.05351369794","0.6","0.4","0.2","0.8","0.08335286121","0.05351369794","0.1907874973","0.1982891881","","","","","","","","","","","","74","J","1","","","183","main_expt"
"","bandit","263","666779","0.0-224.0-0.0","32347450","wem/bandit_either_2","A163J5TEJBO43B","either","4","328","","","","","","","0","0","1","0.1085923678","","0.6","0.4","0.2","0.8","","","","","0.1085923678","0.08854511538","0.1451627339","0.1703318442","","","","","","","","72","H","0","img/none_selected.jpg","","184","main_expt"
"","bandit","264","668557","0.0-225.0-0.0","32347450","wem/bandit_either_2","A163J5TEJBO43B","either","4","255","","","","","","","0","0","1","0.1113654269","","0.6","0.4","0.2","0.8","","","","","0.1113654269","0.136385666","0.1692531577","0.09566746086","","","","","","","","72","H","0","img/none_selected.jpg","","185","main_expt"
"","bandit","265","670269","0.0-226.0-0.0","32347450","wem/bandit_either_2","A163J5TEJBO43B","either","4","190","","","","","","","0","0","1","","0.1254261761","0.6","0.4","0.2","0.8","0.1383531569","0.1848043888","0.1885113298","0.1254261761","","","","","","","","","","","","76","L","3","","","186","main_expt"
"","bandit","266","672228","0.0-227.0-0.0","32347450","wem/bandit_either_2","A163J5TEJBO43B","either","4","437","","","","","","","0","0","1","0.1081798115","","0.6","0.4","0.2","0.8","","","","","0.1739713275","0.1640989128","0.2088125345","0.1081798115","","","","","","","","76","L","3","","","187","main_expt"
"","bandit","267","673973","0.0-228.0-0.0","32347450","wem/bandit_either_2","A163J5TEJBO43B","either","4","219","","","","","","","0","0","1","","0.2228369986","0.6","0.4","0.2","0.8","0.1926366302","0.1301402021","0.2228369986","0.08529062399","","","","","","","","","","","","75","K","2","","","188","main_expt"
"","bandit","268","675766","0.0-229.0-0.0","32347450","wem/bandit_either_2","A163J5TEJBO43B","either","4","270","","","","","","","0","0","1","","0.2567428292","0.6","0.4","0.2","0.8","0.2499935398","0.1980942663","0.2567428292","0.07250281893","","","","","","","","","","","","75","K","2","","","189","main_expt"
"","bandit","269","677995","0.0-230.0-0.0","32347450","wem/bandit_either_2","A163J5TEJBO43B","either","4","706","","","","","","","0","0","1","","0.3177850294","0.6","0.4","0.2","0.8","0.2367317824","0.1842725295","0.3177850294","0.07895395147","","","","","","","","","","","","75","K","2","","","190","main_expt"
"","bandit","270","679741","0.0-231.0-0.0","32347450","wem/bandit_either_2","A163J5TEJBO43B","either","4","222","","","","","","","0","0","1","0.2087081259","","0.6","0.4","0.2","0.8","","","","","0.2515026666","0.2087081259","0.2876912335","0.06204701637","","","","","","","","74","J","1","","","191","main_expt"
"","bandit","271","681300","0.0-232.0-0.0","32347450","wem/bandit_either_2","A163J5TEJBO43B","either","4","36","","","","","","","0","0","1","0.064067899","","0.6","0.4","0.2","0.8","","","","","0.2451916405","0.1800110976","0.2383873749","0.064067899","","","","","","","","76","L","3","","","192","main_expt"
"","bandit","272","683046","0.0-233.0-0.0","32347450","wem/bandit_either_2","A163J5TEJBO43B","either","4","221","","","","","","","0","0","1","","0.24690957","0.6","0.4","0.2","0.8","0.2353451433","0.1519186298","0.24690957","0.1286650472","","","","","","","","","","","","75","K","2","","","193","main_expt"
"","bandit","273","684732","0.0-234.0-0.0","32347450","wem/bandit_either_2","A163J5TEJBO43B","either","4","162","","","","","","","0","0","1","0.307075739","","0.6","0.4","0.2","0.8","","","","","0.307075739","0.1431656489","0.2728455101","0.1746490116","","","","","","","","72","H","0","img/none_selected.jpg","","194","main_expt"
"","bandit","274","686445","0.0-235.0-0.0","32347450","wem/bandit_either_2","A163J5TEJBO43B","either","4","189","","","","","","","0","0","1","0.1868251083","","0.6","0.4","0.2","0.8","","","","","0.3011001907","0.1868251083","0.2421292151","0.129035247","","","","","","","","74","J","1","","","195","main_expt"
"","bandit","275","688100","0.0-236.0-0.0","32347450","wem/bandit_either_2","A163J5TEJBO43B","either","4","130","","","","","","","0","0","1","0.09052040682","","0.6","0.4","0.2","0.8","","","","","0.2861216794","0.176624335","0.2598052724","0.09052040682","","","","","","","","76","L","3","","","196","main_expt"
"","bandit","276","689877","0.0-237.0-0.0","32347450","wem/bandit_either_2","A163J5TEJBO43B","either","4","254","","","","","","","0","0","1","","0.2540930088","0.6","0.4","0.2","0.8","0.2121549007","0.2383323772","0.2540930088","0.08675464884","","","","","","","","","","","","75","K","2","","","197","main_expt"
"","bandit","277","691675","0.0-238.0-0.0","32347450","wem/bandit_either_2","A163J5TEJBO43B","either","4","275","","","","","","","0","0","1","0.260340052","","0.6","0.4","0.2","0.8","","","","","0.260340052","0.260618614","0.2460150375","0.09429549835","","","","","","","","72","H","0","img/none_selected.jpg","","198","main_expt"
"","bandit","278","693525","0.0-239.0-0.0","32347450","wem/bandit_either_2","A163J5TEJBO43B","either","4","322","","","","","","","0","0","1","","0.2935067364","0.6","0.4","0.2","0.8","0.3009562829","0.2935067364","0.2217343644","0.09303778716","","","","","","","","","","","","74","J","1","","","199","main_expt"
"","bandit","279","695627","0.0-240.0-0.0","32347450","wem/bandit_either_2","A163J5TEJBO43B","either","4","579","","","","","","","0","0","1","0.3430896668","","0.6","0.4","0.2","0.8","","","","","0.3430896668","0.362920627","0.2830302048","0.07354084322","","","","","","","","72","H","0","img/none_selected.jpg","","200","main_expt"
"","bandit","280","697263","0.0-241.0-0.0","32347450","wem/bandit_either_2","A163J5TEJBO43B","either","4","112","","","","","","","0","0","1","0.08115367452","","0.6","0.4","0.2","0.8","","","","","0.2973668079","0.3119044903","0.3175621279","0.08115367452","","","","","","","","76","L","3","","","201","main_expt"
"","bandit","281","698894","0.0-242.0-0.0","32347450","wem/bandit_either_2","A163J5TEJBO43B","either","4","107","","","","","","","0","0","1","","0.3049471546","0.6","0.4","0.2","0.8","0.3219337599","0.3095695708","0.3049471546","0.0774842685","","","","","","","","","","","","75","K","2","","","202","main_expt"
"","bandit","282","700779","0.0-243.0-0.0","32347450","wem/bandit_either_2","A163J5TEJBO43B","either","4","362","","","","","","","0","0","1","0.3229991028","","0.6","0.4","0.2","0.8","","","","","0.3229991028","0.3005459379","0.2975042969","0.09704724367","","","","","","","","72","H","0","img/none_selected.jpg","","203","main_expt"
"","bandit","283","702693","0.0-244.0-0.0","32347450","wem/bandit_either_2","A163J5TEJBO43B","either","4","390","","","","","","","0","0","1","","0.3116824409","0.6","0.4","0.2","0.8","0.3077995671","0.3116824409","0.2268457719","0.1224111047","","","","","","","","","","","","74","J","1","","","204","main_expt"
"","bandit","284","704476","0.0-245.0-0.0","32347450","wem/bandit_either_2","A163J5TEJBO43B","either","4","260","","","","","","","0","0","1","","0.2582085449","0.6","0.4","0.2","0.8","0.3070199156","0.3291635812","0.2582085449","0.1627664319","","","","","","","","","","","","75","K","2","","","205","main_expt"
"","bandit","285","706636","0.0-246.0-0.0","32347450","wem/bandit_either_2","A163J5TEJBO43B","either","4","631","","","","","","","0","0","1","0.3109683939","","0.6","0.4","0.2","0.8","","","","","0.3109683939","0.4008790519","0.2841247045","0.1604236747","","","","","","","","72","H","0","img/none_selected.jpg","","206","main_expt"
"","bandit","286","708439","0.0-247.0-0.0","32347450","wem/bandit_either_2","A163J5TEJBO43B","either","4","279","","","","","","","0","0","1","0.4202180382","","0.6","0.4","0.2","0.8","","","","","0.2845075958","0.4202180382","0.3333225396","0.126388554","","","","","","","","74","J","1","","","207","main_expt"
"","bandit","287","710284","0.0-248.0-0.0","32347450","wem/bandit_either_2","A163J5TEJBO43B","either","4","321","","","","","","","0","0","1","0.1602309633","","0.6","0.4","0.2","0.8","","","","","0.2419557814","0.4168586074","0.290219871","0.1602309633","","","","","","","","76","L","3","","","208","main_expt"
"","bandit","288","712133","0.0-249.0-0.0","32347450","wem/bandit_either_2","A163J5TEJBO43B","either","4","324","","","","","","","0","0","1","0.2009997365","","0.6","0.4","0.2","0.8","","","","","0.2449545816","0.3949328033","0.3426384504","0.2009997365","","","","","","","","76","L","3","","","209","main_expt"
"","bandit","289","714012","0.0-250.0-0.0","32347450","wem/bandit_either_2","A163J5TEJBO43B","either","4","356","","","","","","","0","0","1","0.1997114924","","0.6","0.4","0.2","0.8","","","","","0.2176860071","0.41782505","0.2932754766","0.1997114924","","","","","","","","76","L","3","","","210","main_expt"
"","bandit","290","715732","0.0-251.0-0.0","32347450","wem/bandit_either_2","A163J5TEJBO43B","either","4","196","","","","","","","0","0","1","","0.2522206247","0.6","0.4","0.2","0.8","0.2460847292","0.4377941382","0.2522206247","0.2631807131","","","","","","","","","","","","75","K","2","","","211","main_expt"
"","bandit","291","717565","0.0-252.0-0.0","32347450","wem/bandit_either_2","A163J5TEJBO43B","either","4","309","","","","","","","0","0","1","","0.2323705111","0.6","0.4","0.2","0.8","0.2017704833","0.4619006446","0.2323705111","0.2008991105","","","","","","","","","","","","75","K","2","","","212","main_expt"
"","bandit","292","719373","0.0-253.0-0.0","32347450","wem/bandit_either_2","A163J5TEJBO43B","either","4","284","","","","","","","0","1","0","","0.2815580385","0.6","0.4","0.2","0.8","0.1891715169","0.4508737721","0.2815580385","0.1656487101","","","","","","","","","","","","75","K","2","","","213","main_expt"
"","bandit","293","721132","0.0-254.0-0.0","32347450","wem/bandit_either_2","A163J5TEJBO43B","either","4","236","","","","","","","0","0","1","","0.2955812139","0.6","0.4","0.2","0.8","0.1819308411","0.4639731149","0.2955812139","0.213788386","","","","","","","","","","","","75","K","2","","","214","main_expt"
"","bandit","294","723630","0.0-255.0-0.0","32347450","wem/bandit_either_2","A163J5TEJBO43B","either","4","972","","","","","","","0","0","1","","0.2988647484","0.6","0.4","0.2","0.8","0.1406935411","0.4690757113","0.2988647484","0.2206736926","","","","","","","","","","","","75","K","2","","","215","main_expt"
"","bandit","295","725303","0.0-256.0-0.0","32347450","wem/bandit_either_2","A163J5TEJBO43B","either","4","147","","","","","","","0","0","1","","0.206739756","0.6","0.4","0.2","0.8","0.206739756","0.4685680314","0.3361974059","0.2270120675","","","","","","","","","","","","72","H","0","img/none_selected.jpg","","216","main_expt"
"","bandit","296","726988","0.0-257.0-0.0","32347450","wem/bandit_either_2","A163J5TEJBO43B","either","4","162","","","","","","","0","0","1","0.178624692","","0.6","0.4","0.2","0.8","","","","","0.178624692","0.4873952874","0.2764506131","0.2561581829","","","","","","","","72","H","0","img/none_selected.jpg","","217","main_expt"
"","bandit","297","728668","0.0-258.0-0.0","32347450","wem/bandit_either_2","A163J5TEJBO43B","either","4","154","","","","","","","0","1","0","","0.4790671899","0.6","0.4","0.2","0.8","0.2021641755","0.4790671899","0.299893698","0.2785758431","","","","","","","","","","","","74","J","1","","","218","main_expt"
"","bandit","298","730231","0.0-259.0-0.0","32347450","wem/bandit_either_2","A163J5TEJBO43B","either","4","36","","","","","","","0","0","1","0.4769795117","","0.6","0.4","0.2","0.8","","","","","0.2076996705","0.4769795117","0.3213687962","0.2707863597","","","","","","","","74","J","1","","","219","main_expt"
"","bandit","299","731956","0.0-260.0-0.0","32347450","wem/bandit_either_2","A163J5TEJBO43B","either","4","198","","","","","","","0","0","1","0.4746148145","","0.6","0.4","0.2","0.8","","","","","0.2479045362","0.4746148145","0.3782095139","0.2262269101","","","","","","","","74","J","1","","","220","main_expt"
"","bandit","300","733524","0.0-261.0-0.0","32347450","wem/bandit_either_2","A163J5TEJBO43B","either","4","44","","","","","","","0","0","1","0.251163546","","0.6","0.4","0.2","0.8","","","","","0.251163546","0.4789253058","0.3572699546","0.2522421151","","","","","","","","72","H","0","img/none_selected.jpg","","221","main_expt"
"","bandit","301","735236","0.0-262.0-0.0","32347450","wem/bandit_either_2","A163J5TEJBO43B","either","4","188","","","","","","","1","0","0","0.2323100388","","0.6","0.4","0.2","0.8","","","","","0.2653622565","0.4765400837","0.332217079","0.2323100388","","","","","","","","76","L","3","","","222","main_expt"
"","bandit","302","737013","0.0-263.0-0.0","32347450","wem/bandit_either_2","A163J5TEJBO43B","either","4","250","","","","","","","0","0","1","0.2013525365","","0.6","0.4","0.2","0.8","","","","","0.2034578964","0.4872993944","0.3327789551","0.2013525365","","","","","","","","76","L","3","","","223","main_expt"
"","bandit","303","738845","0.0-264.0-0.0","32347450","wem/bandit_either_2","A163J5TEJBO43B","either","4","307","","","","","","","0","0","1","0.2017363432","","0.6","0.4","0.2","0.8","","","","","0.1176985371","0.4864577786","0.3720138676","0.2017363432","","","","","","","","76","L","3","","","224","main_expt"
"","bandit","304","740741","0.0-265.0-0.0","32347450","wem/bandit_either_2","A163J5TEJBO43B","either","4","370","","","","","","","0","0","1","","0.08531446518","0.6","0.4","0.2","0.8","0.08531446518","0.4815865163","0.4035982493","0.1608447522","","","","","","","","","","","","72","H","0","img/none_selected.jpg","","225","main_expt"
"","bandit","305","743012","0.0-266.0-0.0","32347450","wem/bandit_either_2","A163J5TEJBO43B","either","4","748","","","","","","","1","0","0","0.4781941344","","0.6","0.4","0.2","0.8","","","","","0.0901010045","0.4781941344","0.3538577565","0.2023183299","","","","","","","","74","J","1","","","226","main_expt"
"","bandit","306","744687","0.0-267.0-0.0","32347450","wem/bandit_either_2","A163J5TEJBO43B","either","4","148","","","","","","","0","1","0","","0.4742279627","0.6","0.4","0.2","0.8","0.06499555022","0.4742279627","0.4205879778","0.1555458008","","","","","","","","","","","","74","J","1","","","227","main_expt"
"","bandit","307","746477","0.0-268.0-0.0","32347450","wem/bandit_either_2","A163J5TEJBO43B","either","4","265","","","","","","","1","0","0","0.4597327255","","0.6","0.4","0.2","0.8","","","","","0.06967502077","0.4597327255","0.4082381823","0.1210896773","","","","","","","","74","J","1","","","228","main_expt"
"","bandit","308","748229","0.0-269.0-0.0","32347450","wem/bandit_either_2","A163J5TEJBO43B","either","4","227","","","","","","","0","0","1","","0.4733003713","0.6","0.4","0.2","0.8","0.07642173418","0.4733003713","0.4274963613","0.1206830913","","","","","","","","","","","","74","J","1","","","229","main_expt"
"","bandit","309","749988","0.0-270.0-0.0","32347450","wem/bandit_either_2","A163J5TEJBO43B","either","4","235","","","","","","","0","0","1","","0.4832022084","0.6","0.4","0.2","0.8","0.04973788902","0.4832022084","0.4362488765","0.1334008039","","","","","","","","","","","","74","J","1","","","230","main_expt"
"","bandit","310","751749","0.0-271.0-0.0","32347450","wem/bandit_either_2","A163J5TEJBO43B","either","4","236","","","","","","","1","0","0","0.4802630573","","0.6","0.4","0.2","0.8","","","","","0.07419495466","0.4802630573","0.4420629534","0.1048467088","","","","","","","","74","J","1","","","231","main_expt"
"","bandit","311","753381","0.0-272.0-0.0","32347450","wem/bandit_either_2","A163J5TEJBO43B","either","4","105","","","","","","","0","1","0","","0.4739318499","0.6","0.4","0.2","0.8","0.08125260149","0.4739318499","0.4287414635","0.1184002818","","","","","","","","","","","","74","J","1","","","232","main_expt"
"","bandit","312","755093","0.0-273.0-0.0","32347450","wem/bandit_either_2","A163J5TEJBO43B","either","4","187","","","","","","","0","0","1","","0.4709765286","0.6","0.4","0.2","0.8","0.06057073796","0.4709765286","0.4395511981","0.08533064469","","","","","","","","","","","","74","J","1","","","233","main_expt"
"","bandit","313","756692","0.0-274.0-0.0","32347450","wem/bandit_either_2","A163J5TEJBO43B","either","4","72","","","","","","","0","0","1","","0.4658145356","0.6","0.4","0.2","0.8","0.1037411708","0.4658145356","0.4479240545","0.1190123434","","","","","","","","","","","","74","J","1","","","234","main_expt"
"","bandit","314","758445","0.0-275.0-0.0","32347450","wem/bandit_either_2","A163J5TEJBO43B","either","4","226","","","","","","","1","0","0","0.4312508187","","0.6","0.4","0.2","0.8","","","","","0.1267441937","0.4312508187","0.4476644646","0.1392024459","","","","","","","","74","J","1","","","235","main_expt"
"","bandit","315","760150","0.0-276.0-0.0","32347450","wem/bandit_either_2","A163J5TEJBO43B","either","4","180","","","","","","","1","0","0","0.4323277229","","0.6","0.4","0.2","0.8","","","","","0.1002206095","0.4323277229","0.457106966","0.1076242464","","","","","","","","74","J","1","","","236","main_expt"
"","bandit","316","761905","0.0-277.0-0.0","32347450","wem/bandit_either_2","A163J5TEJBO43B","either","4","227","","","","","","","0","1","0","","0.4517679415","0.6","0.4","0.2","0.8","0.08353940566","0.4517679415","0.4097288684","0.1539911713","","","","","","","","","","","","74","J","1","","","237","main_expt"
"","bandit","317","763685","0.0-278.0-0.0","32347450","wem/bandit_either_2","A163J5TEJBO43B","either","4","256","","","","","","","0","0","1","","0.4476427196","0.6","0.4","0.2","0.8","0.07847158511","0.4476427196","0.4530646831","0.1833253983","","","","","","","","","","","","74","J","1","","","238","main_expt"
"","bandit","318","765485","0.0-279.0-0.0","32347450","wem/bandit_either_2","A163J5TEJBO43B","either","4","272","","","","","","","0","1","0","","0.4421551546","0.6","0.4","0.2","0.8","0.1132310855","0.4421551546","0.4532148127","0.185515968","","","","","","","","","","","","74","J","1","","","239","main_expt"
"","bandit","319","767131","0.0-280.0-0.0","32347450","wem/bandit_either_2","A163J5TEJBO43B","either","4","122","","","","","","","0","0","1","","0.4205303603","0.6","0.4","0.2","0.8","0.130249024","0.4205303603","0.4456906816","0.2545144829","","","","","","","","","","","","74","J","1","","","240","main_expt"
"","bandit","320","768901","0.0-281.0-0.0","32347450","wem/bandit_either_2","A163J5TEJBO43B","either","4","245","","","","","","","0","0","1","0.4304808994","","0.6","0.4","0.2","0.8","","","","","0.1356270161","0.4304808994","0.4515134246","0.1902236802","","","","","","","","74","J","1","","","241","main_expt"
"","bandit","321","770635","0.0-282.0-0.0","32347450","wem/bandit_either_2","A163J5TEJBO43B","either","4","205","","","","","","","1","0","0","0.4318168925","","0.6","0.4","0.2","0.8","","","","","0.1402569013","0.4318168925","0.4640222466","0.2196571485","","","","","","","","74","J","1","","","242","main_expt"
"","bandit","322","772431","0.0-283.0-0.0","32347450","wem/bandit_either_2","A163J5TEJBO43B","either","4","267","","","","","","","1","0","0","0.4437639365","","0.6","0.4","0.2","0.8","","","","","0.1851652895","0.4437639365","0.4305348251","0.2691755858","","","","","","","","74","J","1","","","243","main_expt"
"","bandit","323","774165","0.0-284.0-0.0","32347450","wem/bandit_either_2","A163J5TEJBO43B","either","4","210","","","","","","","1","0","0","0.4444545885","","0.6","0.4","0.2","0.8","","","","","0.1871667761","0.4444545885","0.4444417595","0.2689580194","","","","","","","","74","J","1","","","244","main_expt"
"","bandit","324","775859","0.0-285.0-0.0","32347450","wem/bandit_either_2","A163J5TEJBO43B","either","4","168","","","","","","","0","1","0","","0.445216333","0.6","0.4","0.2","0.8","0.1881322931","0.445216333","0.4468105605","0.1935089033","","","","","","","","","","","","74","J","1","","","245","main_expt"
"","bandit","325","777501","0.0-286.0-0.0","32347450","wem/bandit_either_2","A163J5TEJBO43B","either","4","114","","","","","","","1","0","0","0.4767449203","","0.6","0.4","0.2","0.8","","","","","0.187853128","0.4767449203","0.4453418505","0.1466547275","","","","","","","","74","J","1","","","246","main_expt"
"","bandit","326","779548","0.0-287.0-0.0","32347450","wem/bandit_either_2","A163J5TEJBO43B","either","4","523","","","","","","","0","0","1","0.4530054638","","0.6","0.4","0.2","0.8","","","","","0.1952756904","0.4530054638","0.4426138654","0.1275107348","","","","","","","","74","J","1","","","247","main_expt"
