"consent","trial_type","trial_index","time_elapsed","internal_node_id","subjID","study","MID","cond","drift","rt","responses","key_press","expt_phase","like","value","connected","gems","bombs","no_reward","GemPrChosen","BombPrChosen","GainOverPainPr_0","GainOverPainPr_1","GainOverPainPr_2","GainOverPainPr_3","LosePr_0","LosePr_1","LosePr_2","LosePr_3","WinPr_0","WinPr_1","WinPr_2","WinPr_3","Q0","Q1","Q2","gender","age","ethnicity","target","respCharCode","respKey","respChoiceNum","respChoice","practice","trial_counter","trial_label"
"INL_behavioral_consent_30min_online.html","consent","0","44201","0.0-0.0","36774644","wem/bandit_either_2","A2W8ZV9DQWVHJK","either","1","","","","","","","","","","","","","","","","","","","","","","","","","","","","","","","","","","","","","",""
"","survey-text","1","117400","0.0-1.0","36774644","wem/bandit_either_2","A2W8ZV9DQWVHJK","either","1","72188","{""Q0"":""A2W8ZV9DQWVHJK""}","","","","","","","","","","","","","","","","","","","","","","","","","","","","","","","","","","","",""
"","text","2","780508","0.0-2.0","36774644","wem/bandit_either_2","A2W8ZV9DQWVHJK","either","1","661223","","32","","","","","","","","","","","","","","","","","","","","","","","","","","","","","","","","","","",""
"","text","3","786595","0.0-3.0","36774644","wem/bandit_either_2","A2W8ZV9DQWVHJK","either","1","6043","","32","","","","","","","","","","","","","","","","","","","","","","","","","","","","","","","","","","",""
"","text","4","810610","0.0-4.0","36774644","wem/bandit_either_2","A2W8ZV9DQWVHJK","either","1","23911","","32","","","","","","","","","","","","","","","","","","","","","","","","","","","","","","","","","","",""
"","text","5","858403","0.0-5.0","36774644","wem/bandit_either_2","A2W8ZV9DQWVHJK","either","1","47775","","32","","","","","","","","","","","","","","","","","","","","","","","","","","","","","","","","","","",""
"","text","6","907426","0.0-6.0","36774644","wem/bandit_either_2","A2W8ZV9DQWVHJK","either","1","49007","","32","","","","","","","","","","","","","","","","","","","","","","","","","","","","","","","","","","",""
"","text","7","910628","0.0-7.0","36774644","wem/bandit_either_2","A2W8ZV9DQWVHJK","either","1","3195","","32","","","","","","","","","","","","","","","","","","","","","","","","","","","","","","","","","","",""
"","text","8","1138148","0.0-8.0","36774644","wem/bandit_either_2","A2W8ZV9DQWVHJK","either","1","227518","","32","","","","","","","","","","","","","","","","","","","","","","","","","","","","","","","","","","",""
"","identification","9","1171748","0.0-9.0-0.0","36774644","wem/bandit_either_2","A2W8ZV9DQWVHJK","either","1","33247","","","","2","4","2","","","","","","","","","","","","","","","","","","","","","","","","the village of Zur","","","","","","",""
"","identification","10","1191854","0.0-9.0-1.0","36774644","wem/bandit_either_2","A2W8ZV9DQWVHJK","either","1","19068","","","","3","6","5","","","","","","","","","","","","","","","","","","","","","","","","the village of Nyx","","","","","","",""
"","text","11","1228813","0.0-10.0","36774644","wem/bandit_either_2","A2W8ZV9DQWVHJK","either","1","35956","","32","","","","","","","","","","","","","","","","","","","","","","","","","","","","","","","","","","",""
"","text","12","1239788","0.0-11.0","36774644","wem/bandit_either_2","A2W8ZV9DQWVHJK","either","1","10973","","32","","","","","","","","","","","","","","","","","","","","","","","","","","","","","","","","","","",""
"","text","13","1247972","0.0-12.0","36774644","wem/bandit_either_2","A2W8ZV9DQWVHJK","either","1","8182","","32","","","","","","","","","","","","","","","","","","","","","","","","","","","","","","","","","","",""
"","text","14","1279908","0.0-13.0","36774644","wem/bandit_either_2","A2W8ZV9DQWVHJK","either","1","31934","","32","","","","","","","","","","","","","","","","","","","","","","","","","","","","","","","","","","",""
"","bandit","15","1284833","0.0-14.0-0.0","36774644","wem/bandit_either_2","A2W8ZV9DQWVHJK","either","1","3393","","","","","","","0","0","1","0","0","","","","","0","","","","0","","","","","","","","","","","74","J","0","img/none_selected_demo.jpg","true","0",""
"","bandit","16","1304226","0.0-15.0-0.0","36774644","wem/bandit_either_2","A2W8ZV9DQWVHJK","either","1","17888","","","","","","","0","0","1","0","0","","","","","0","","","","0","","","","","","","","","","","75","K","0","img/none_selected_demo.jpg","true","0",""
"","text","17","1307860","0.0-16.0","36774644","wem/bandit_either_2","A2W8ZV9DQWVHJK","either","1","3631","","32","","","","","","","","","","","","","","","","","","","","","","","","","","","","","","","","","","",""
"","text","18","1324892","0.0-17.0","36774644","wem/bandit_either_2","A2W8ZV9DQWVHJK","either","1","17030","","32","","","","","","","","","","","","","","","","","","","","","","","","","","","","","","","","","","",""
"","text","19","1338245","0.0-18.0","36774644","wem/bandit_either_2","A2W8ZV9DQWVHJK","either","1","13350","","32","","","","","","","","","","","","","","","","","","","","","","","","","","","","","","","","","","",""
"","text","20","1358028","0.0-19.0","36774644","wem/bandit_either_2","A2W8ZV9DQWVHJK","either","1","19781","","32","","","","","","","","","","","","","","","","","","","","","","","","","","","","","","","","","","",""
"","bandit","21","1361475","0.0-20.0-0.0","36774644","wem/bandit_either_2","A2W8ZV9DQWVHJK","either","1","1731","","","","","","","0","0","1","","0.2","0.5","0.5","","","0.8","0.2","","","","","","","","","","","","","","75","K","1","","true","0","80_20_practice"
"","bandit","22","1367187","0.0-20.0-1.0","36774644","wem/bandit_either_2","A2W8ZV9DQWVHJK","either","1","4206","","","","","","","0","0","1","0.8","","0.5","0.5","","","","","","","0.8","0.2","","","","","","","","","","74","J","0","img/none_selected_demo.jpg","true","0","80_20_practice"
"","bandit","23","1371099","0.0-20.0-2.0","36774644","wem/bandit_either_2","A2W8ZV9DQWVHJK","either","1","2406","","","","","","","0","0","1","0.2","","0.5","0.5","","","","","","","0.8","0.2","","","","","","","","","","75","K","1","","true","0","80_20_practice"
"","bandit","24","1373579","0.0-20.0-3.0","36774644","wem/bandit_either_2","A2W8ZV9DQWVHJK","either","1","974","","","","","","","0","0","1","","0.2","0.5","0.5","","","0.8","0.2","","","","","","","","","","","","","","75","K","1","","true","0","80_20_practice"
"","bandit","25","1376899","0.0-20.0-4.0","36774644","wem/bandit_either_2","A2W8ZV9DQWVHJK","either","1","1799","","","","","","","0","0","1","0.8","","0.5","0.5","","","","","","","0.8","0.2","","","","","","","","","","74","J","0","img/none_selected_demo.jpg","true","0","80_20_practice"
"","bandit","26","1379338","0.0-20.0-5.0","36774644","wem/bandit_either_2","A2W8ZV9DQWVHJK","either","1","933","","","","","","","0","1","0","","0.8","0.5","0.5","","","0.8","0.2","","","","","","","","","","","","","","74","J","0","img/none_selected_demo.jpg","true","0","80_20_practice"
"","bandit","27","1381786","0.0-20.0-6.0","36774644","wem/bandit_either_2","A2W8ZV9DQWVHJK","either","1","943","","","","","","","0","0","1","0.2","","0.5","0.5","","","","","","","0.8","0.2","","","","","","","","","","75","K","1","","true","0","80_20_practice"
"","bandit","28","1383859","0.0-20.0-7.0","36774644","wem/bandit_either_2","A2W8ZV9DQWVHJK","either","1","566","","","","","","","0","0","1","","0.2","0.5","0.5","","","0.8","0.2","","","","","","","","","","","","","","75","K","1","","true","0","80_20_practice"
"","bandit","29","1385723","0.0-20.0-8.0","36774644","wem/bandit_either_2","A2W8ZV9DQWVHJK","either","1","344","","","","","","","0","0","1","0.2","","0.5","0.5","","","","","","","0.8","0.2","","","","","","","","","","75","K","1","","true","0","80_20_practice"
"","bandit","30","1387603","0.0-20.0-9.0","36774644","wem/bandit_either_2","A2W8ZV9DQWVHJK","either","1","350","","","","","","","0","1","0","","0.8","0.5","0.5","","","0.8","0.2","","","","","","","","","","","","","","74","J","0","img/none_selected_demo.jpg","true","0","80_20_practice"
"","bandit","31","1389559","0.0-20.0-10.0","36774644","wem/bandit_either_2","A2W8ZV9DQWVHJK","either","1","438","","","","","","","0","0","1","","0.2","0.5","0.5","","","0.8","0.2","","","","","","","","","","","","","","75","K","1","","true","0","80_20_practice"
"","bandit","32","1391427","0.0-20.0-11.0","36774644","wem/bandit_either_2","A2W8ZV9DQWVHJK","either","1","362","","","","","","","0","0","1","0.2","","0.5","0.5","","","","","","","0.8","0.2","","","","","","","","","","75","K","1","","true","0","80_20_practice"
"","bandit","33","1393259","0.0-20.0-12.0","36774644","wem/bandit_either_2","A2W8ZV9DQWVHJK","either","1","324","","","","","","","0","0","1","","0.2","0.5","0.5","","","0.8","0.2","","","","","","","","","","","","","","75","K","1","","true","0","80_20_practice"
"","bandit","34","1395114","0.0-20.0-13.0","36774644","wem/bandit_either_2","A2W8ZV9DQWVHJK","either","1","349","","","","","","","0","1","0","","0.8","0.5","0.5","","","0.8","0.2","","","","","","","","","","","","","","74","J","0","img/none_selected_demo.jpg","true","0","80_20_practice"
"","bandit","35","1397061","0.0-20.0-14.0","36774644","wem/bandit_either_2","A2W8ZV9DQWVHJK","either","1","413","","","","","","","0","1","0","","0.8","0.5","0.5","","","0.8","0.2","","","","","","","","","","","","","","74","J","0","img/none_selected_demo.jpg","true","0","80_20_practice"
"","bandit","36","1399196","0.0-20.0-15.0","36774644","wem/bandit_either_2","A2W8ZV9DQWVHJK","either","1","629","","","","","","","0","0","1","","0.2","0.5","0.5","","","0.8","0.2","","","","","","","","","","","","","","75","K","1","","true","0","80_20_practice"
"","bandit","37","1401019","0.0-20.0-16.0","36774644","wem/bandit_either_2","A2W8ZV9DQWVHJK","either","1","316","","","","","","","0","0","1","0.2","","0.5","0.5","","","","","","","0.8","0.2","","","","","","","","","","75","K","1","","true","0","80_20_practice"
"","bandit","38","1403012","0.0-20.0-17.0","36774644","wem/bandit_either_2","A2W8ZV9DQWVHJK","either","1","482","","","","","","","0","0","1","0.2","","0.5","0.5","","","","","","","0.8","0.2","","","","","","","","","","75","K","1","","true","0","80_20_practice"
"","bandit","39","1404666","0.0-20.0-18.0","36774644","wem/bandit_either_2","A2W8ZV9DQWVHJK","either","1","149","","","","","","","1","0","0","0.8","","0.5","0.5","","","","","","","0.8","0.2","","","","","","","","","","74","J","0","img/none_selected_demo.jpg","true","0","80_20_practice"
"","bandit","40","1416570","0.0-20.0-19.0","36774644","wem/bandit_either_2","A2W8ZV9DQWVHJK","either","1","10394","","","","","","","1","0","0","0.8","","0.5","0.5","","","","","","","0.8","0.2","","","","","","","","","","74","J","0","img/none_selected_demo.jpg","true","0","80_20_practice"
"","text","41","1422820","0.0-21.0","36774644","wem/bandit_either_2","A2W8ZV9DQWVHJK","either","1","6248","","32","","","","","","","","","","","","","","","","","","","","","","","","","","","","","","","","","","",""
"","bandit","42","1425728","0.0-22.0-0.0","36774644","wem/bandit_either_2","A2W8ZV9DQWVHJK","either","1","1397","","","","","","","1","0","0","1","0","","","","","0","1","","","1","0","","","","","","","","","","74","J","0","img/none_selected_demo.jpg","true","0",""
"","text","43","1442612","0.0-23.0","36774644","wem/bandit_either_2","A2W8ZV9DQWVHJK","either","1","16870","","32","","","","","","","","","","","","","","","","","","","","","","","","","","","","","","","","","","",""
"","text","44","1465700","0.0-24.0","36774644","wem/bandit_either_2","A2W8ZV9DQWVHJK","either","1","23086","","32","","","","","","","","","","","","","","","","","","","","","","","","","","","","","","","","","","",""
"","text","45","1471605","0.0-25.0","36774644","wem/bandit_either_2","A2W8ZV9DQWVHJK","either","1","5902","","32","","","","","","","","","","","","","","","","","","","","","","","","","","","","","","","","","","",""
"","text","46","1472692","0.0-26.0","36774644","wem/bandit_either_2","A2W8ZV9DQWVHJK","either","1","1084","","32","","","","","","","","","","","","","","","","","","","","","","","","","","","","","","","","","","",""
"","text","47","1477590","0.0-27.0","36774644","wem/bandit_either_2","A2W8ZV9DQWVHJK","either","1","4895","","32","","","","","","","","","","","","","","","","","","","","","","","","","","","","","","","","","","",""
"","text","48","1481268","0.0-28.0","36774644","wem/bandit_either_2","A2W8ZV9DQWVHJK","either","1","3676","","32","","","","","","","","","","","","","","","","","","","","","","","","","","","","","","","","","","",""
"","text","49","1497092","0.0-29.0","36774644","wem/bandit_either_2","A2W8ZV9DQWVHJK","either","1","15821","","32","","","","","","","","","","","","","","","","","","","","","","","","","","","","","","","","","","",""
"","text","50","1501084","0.0-30.0","36774644","wem/bandit_either_2","A2W8ZV9DQWVHJK","either","1","3990","","32","","","","","","","","","","","","","","","","","","","","","","","","","","","","","","","","","","",""
"","text","51","1506965","0.0-31.0","36774644","wem/bandit_either_2","A2W8ZV9DQWVHJK","either","1","5878","","32","","","","","","","","","","","","","","","","","","","","","","","","","","","","","","","","","","",""
"","text","52","1516852","0.0-32.0","36774644","wem/bandit_either_2","A2W8ZV9DQWVHJK","either","1","9885","","32","","","","","","","","","","","","","","","","","","","","","","","","","","","","","","","","","","",""
"","text","53","1529900","0.0-33.0","36774644","wem/bandit_either_2","A2W8ZV9DQWVHJK","either","1","13044","","32","","","","","","","","","","","","","","","","","","","","","","","","","","","","","","","","","","",""
"","bandit","54","1532795","0.0-34.0-0.0","36774644","wem/bandit_either_2","A2W8ZV9DQWVHJK","either","1","1386","","","","","","","1","0","0","0.8","","0.5","0.5","0.5","0.5","","","","","0.8","0.2","0.6","0.2","","","","","","","","72","H","0","img/none_selected.jpg","true","0","full_practice"
"","bandit","55","1535475","0.0-34.0-1.0","36774644","wem/bandit_either_2","A2W8ZV9DQWVHJK","either","1","1173","","","","","","","0","0","1","","0.2","0.5","0.5","0.5","0.5","0.8","0.2","0.6","0.2","","","","","","","","","","","","76","L","3","","true","0","full_practice"
"","bandit","56","1540146","0.0-34.0-2.0","36774644","wem/bandit_either_2","A2W8ZV9DQWVHJK","either","1","3165","","","","","","","0","1","0","","0.6","0.5","0.5","0.5","0.5","0.8","0.2","0.6","0.2","","","","","","","","","","","","75","K","2","","true","0","full_practice"
"","bandit","57","1542364","0.0-34.0-3.0","36774644","wem/bandit_either_2","A2W8ZV9DQWVHJK","either","1","712","","","","","","","1","0","0","0.8","","0.5","0.5","0.5","0.5","","","","","0.8","0.2","0.6","0.2","","","","","","","","72","H","0","img/none_selected.jpg","true","0","full_practice"
"","bandit","58","1544346","0.0-34.0-4.0","36774644","wem/bandit_either_2","A2W8ZV9DQWVHJK","either","1","473","","","","","","","0","0","1","","0.2","0.5","0.5","0.5","0.5","0.8","0.2","0.6","0.2","","","","","","","","","","","","74","J","1","","true","0","full_practice"
"","bandit","59","1551871","0.0-34.0-5.0","36774644","wem/bandit_either_2","A2W8ZV9DQWVHJK","either","1","6001","","","","","","","0","0","1","0.2","","0.5","0.5","0.5","0.5","","","","","0.8","0.2","0.6","0.2","","","","","","","","74","J","1","","true","0","full_practice"
"","bandit","60","1554747","0.0-34.0-6.0","36774644","wem/bandit_either_2","A2W8ZV9DQWVHJK","either","1","1367","","","","","","","1","0","0","0.8","","0.5","0.5","0.5","0.5","","","","","0.8","0.2","0.6","0.2","","","","","","","","72","H","0","img/none_selected.jpg","true","0","full_practice"
"","bandit","61","1558323","0.0-34.0-7.0","36774644","wem/bandit_either_2","A2W8ZV9DQWVHJK","either","1","2038","","","","","","","1","0","0","0.8","","0.5","0.5","0.5","0.5","","","","","0.8","0.2","0.6","0.2","","","","","","","","72","H","0","img/none_selected.jpg","true","0","full_practice"
"","bandit","62","1560416","0.0-34.0-8.0","36774644","wem/bandit_either_2","A2W8ZV9DQWVHJK","either","1","573","","","","","","","1","0","0","0.8","","0.5","0.5","0.5","0.5","","","","","0.8","0.2","0.6","0.2","","","","","","","","72","H","0","img/none_selected.jpg","true","0","full_practice"
"","bandit","63","1562372","0.0-34.0-9.0","36774644","wem/bandit_either_2","A2W8ZV9DQWVHJK","either","1","445","","","","","","","0","0","1","0.2","","0.5","0.5","0.5","0.5","","","","","0.8","0.2","0.6","0.2","","","","","","","","76","L","3","","true","0","full_practice"
"","bandit","64","1567319","0.0-34.0-10.0","36774644","wem/bandit_either_2","A2W8ZV9DQWVHJK","either","1","3048","","","","","","","0","0","1","","0.2","0.5","0.5","0.5","0.5","0.8","0.2","0.6","0.2","","","","","","","","","","","","74","J","1","","true","0","full_practice"
"","bandit","65","1572227","0.0-34.0-11.0","36774644","wem/bandit_either_2","A2W8ZV9DQWVHJK","either","1","3401","","","","","","","0","0","1","","0.2","0.5","0.5","0.5","0.5","0.8","0.2","0.6","0.2","","","","","","","","","","","","76","L","3","","true","0","full_practice"
"","bandit","66","1574466","0.0-34.0-12.0","36774644","wem/bandit_either_2","A2W8ZV9DQWVHJK","either","1","733","","","","","","","0","0","1","","0.2","0.5","0.5","0.5","0.5","0.8","0.2","0.6","0.2","","","","","","","","","","","","74","J","1","","true","0","full_practice"
"","bandit","67","1577992","0.0-34.0-13.0","36774644","wem/bandit_either_2","A2W8ZV9DQWVHJK","either","1","2006","","","","","","","0","1","0","","0.8","0.5","0.5","0.5","0.5","0.8","0.2","0.6","0.2","","","","","","","","","","","","72","H","0","img/none_selected.jpg","true","0","full_practice"
"","bandit","68","1579975","0.0-34.0-14.0","36774644","wem/bandit_either_2","A2W8ZV9DQWVHJK","either","1","462","","","","","","","0","1","0","","0.2","0.5","0.5","0.5","0.5","0.8","0.2","0.6","0.2","","","","","","","","","","","","74","J","1","","true","0","full_practice"
"","bandit","69","1581554","0.0-34.0-15.0","36774644","wem/bandit_either_2","A2W8ZV9DQWVHJK","either","1","74","","","","","","","0","0","1","","0.2","0.5","0.5","0.5","0.5","0.8","0.2","0.6","0.2","","","","","","","","","","","","74","J","1","","true","0","full_practice"
"","bandit","70","1586252","0.0-34.0-16.0","36774644","wem/bandit_either_2","A2W8ZV9DQWVHJK","either","1","3190","","","","","","","0","0","1","","0.2","0.5","0.5","0.5","0.5","0.8","0.2","0.6","0.2","","","","","","","","","","","","74","J","1","","true","0","full_practice"
"","bandit","71","1592026","0.0-34.0-17.0","36774644","wem/bandit_either_2","A2W8ZV9DQWVHJK","either","1","4268","","","","","","","1","0","0","0.8","","0.5","0.5","0.5","0.5","","","","","0.8","0.2","0.6","0.2","","","","","","","","72","H","0","img/none_selected.jpg","true","0","full_practice"
"","bandit","72","1594811","0.0-34.0-18.0","36774644","wem/bandit_either_2","A2W8ZV9DQWVHJK","either","1","1278","","","","","","","0","0","1","0.2","","0.5","0.5","0.5","0.5","","","","","0.8","0.2","0.6","0.2","","","","","","","","74","J","1","","true","0","full_practice"
"","bandit","73","1598944","0.0-34.0-19.0","36774644","wem/bandit_either_2","A2W8ZV9DQWVHJK","either","1","2613","","","","","","","0","1","0","","0.2","0.5","0.5","0.5","0.5","0.8","0.2","0.6","0.2","","","","","","","","","","","","76","L","3","","true","0","full_practice"
"","text","74","1601868","0.0-35.0","36774644","wem/bandit_either_2","A2W8ZV9DQWVHJK","either","1","2899","","32","","","","","","","","","","","","","","","","","","","","","","","","","","","","","","","","","","",""
"","text","75","1624804","0.0-36.0","36774644","wem/bandit_either_2","A2W8ZV9DQWVHJK","either","1","21932","","32","","","","","","","","","","","","","","","","","","","","","","","","","","","","","","","","","","",""
"","text","76","1634301","0.0-37.0","36774644","wem/bandit_either_2","A2W8ZV9DQWVHJK","either","1","9494","","32","","","","","","","","","","","","","","","","","","","","","","","","","","","","","","","","","","",""
"","text","77","1641397","0.0-38.0","36774644","wem/bandit_either_2","A2W8ZV9DQWVHJK","either","1","7093","","32","","","","","","","","","","","","","","","","","","","","","","","","","","","","","","","","","","",""
"","text","78","1645333","0.0-39.0","36774644","wem/bandit_either_2","A2W8ZV9DQWVHJK","either","1","3933","","32","","","","","","","","","","","","","","","","","","","","","","","","","","","","","","","","","","",""
"","text","79","1663052","0.0-40.0","36774644","wem/bandit_either_2","A2W8ZV9DQWVHJK","either","1","17717","","32","","","","","","","","","","","","","","","","","","","","","","","","","","","","","","","","","","",""
"","bandit","80","1666003","0.0-41.0-0.0","36774644","wem/bandit_either_2","A2W8ZV9DQWVHJK","either","1","1430","","","","","","","0","0","1","0.0798457429","","0.6","0.8","0.4","0.2","","","","","0.02943109976","0.3592836462","0.0798457429","0.4269289603","","","","","","","","75","K","2","","","1","main_expt"
"","bandit","81","1675283","0.0-42.0-0.0","36774644","wem/bandit_either_2","A2W8ZV9DQWVHJK","either","1","6909","","","","","","","0","0","1","","0.06336112212","0.6","0.8","0.4","0.2","0.06336112212","0.3454903542","0.07621336767","0.4660243271","","","","","","","","","","","","72","H","0","img/none_selected.jpg","","2","main_expt"
"","bandit","82","1679338","0.0-43.0-0.0","36774644","wem/bandit_either_2","A2W8ZV9DQWVHJK","either","1","2547","","","","","","","0","0","1","","0.2941512374","0.6","0.8","0.4","0.2","0.07335687118","0.2941512374","0.07476295528","0.4738503749","","","","","","","","","","","","74","J","1","","","3","main_expt"
"","bandit","83","1684031","0.0-44.0-0.0","36774644","wem/bandit_either_2","A2W8ZV9DQWVHJK","either","1","3185","","","","","","","0","1","0","","0.4618500418","0.6","0.8","0.4","0.2","0.06156305515","0.2851241965","0.06526985361","0.4618500418","","","","","","","","","","","","76","L","3","","","4","main_expt"
"","bandit","84","1686104","0.0-45.0-0.0","36774644","wem/bandit_either_2","A2W8ZV9DQWVHJK","either","1","553","","","","","","","0","0","1","0.05487735528","","0.6","0.8","0.4","0.2","","","","","0.08141194251","0.3172925843","0.05487735528","0.4488935273","","","","","","","","75","K","2","","","5","main_expt"
"","bandit","85","1688664","0.0-46.0-0.0","36774644","wem/bandit_either_2","A2W8ZV9DQWVHJK","either","1","1040","","","","","","","0","1","0","","0.3319153021","0.6","0.8","0.4","0.2","0.1104821702","0.3319153021","0.04340015571","0.4437832297","","","","","","","","","","","","74","J","1","","","6","main_expt"
"","bandit","86","1690610","0.0-47.0-0.0","36774644","wem/bandit_either_2","A2W8ZV9DQWVHJK","either","1","441","","","","","","","0","0","1","0.1191408541","","0.6","0.8","0.4","0.2","","","","","0.1191408541","0.3553039772","0.04575060371","0.4310077805","","","","","","","","72","H","0","img/none_selected.jpg","","7","main_expt"
"","bandit","87","1693131","0.0-48.0-0.0","36774644","wem/bandit_either_2","A2W8ZV9DQWVHJK","either","1","1014","","","","","","","0","0","1","","0.4480386191","0.6","0.8","0.4","0.2","0.1517570037","0.3868093767","0.06112087539","0.4480386191","","","","","","","","","","","","76","L","3","","","8","main_expt"
"","bandit","88","1695021","0.0-49.0-0.0","36774644","wem/bandit_either_2","A2W8ZV9DQWVHJK","either","1","380","","","","","","","0","0","1","0.07854191076","","0.6","0.8","0.4","0.2","","","","","0.1738087075","0.3754406694","0.07854191076","0.4460224538","","","","","","","","75","K","2","","","9","main_expt"
"","bandit","89","1697374","0.0-50.0-0.0","36774644","wem/bandit_either_2","A2W8ZV9DQWVHJK","either","1","836","","","","","","","0","0","1","0.2033535465","","0.6","0.8","0.4","0.2","","","","","0.2033535465","0.3537433427","0.06865483858","0.3954493452","","","","","","","","72","H","0","img/none_selected.jpg","","10","main_expt"
"","bandit","90","1699829","0.0-51.0-0.0","36774644","wem/bandit_either_2","A2W8ZV9DQWVHJK","either","1","937","","","","","","","0","0","1","","0.05083805298","0.6","0.8","0.4","0.2","0.1751631116","0.3793358735","0.05083805298","0.4064238371","","","","","","","","","","","","75","K","2","","","11","main_expt"
"","bandit","91","1701707","0.0-52.0-0.0","36774644","wem/bandit_either_2","A2W8ZV9DQWVHJK","either","1","370","","","","","","","0","0","1","0.3800839449","","0.6","0.8","0.4","0.2","","","","","0.1787487179","0.3800428212","0.1038792476","0.3800839449","","","","","","","","76","L","3","","","12","main_expt"
"","bandit","92","1703605","0.0-53.0-0.0","36774644","wem/bandit_either_2","A2W8ZV9DQWVHJK","either","1","373","","","","","","","1","0","0","0.3647981021","","0.6","0.8","0.4","0.2","","","","","0.1794712961","0.3647981021","0.1197284353","0.3866628193","","","","","","","","74","J","1","","","13","main_expt"
"","bandit","93","1705485","0.0-54.0-0.0","36774644","wem/bandit_either_2","A2W8ZV9DQWVHJK","either","1","364","","","","","","","0","0","1","0.3646471907","","0.6","0.8","0.4","0.2","","","","","0.2482140722","0.3646471907","0.135681701","0.326509825","","","","","","","","74","J","1","","","14","main_expt"
"","bandit","94","1708803","0.0-55.0-0.0","36774644","wem/bandit_either_2","A2W8ZV9DQWVHJK","either","1","1808","","","","","","","0","0","1","0.3549291363","","0.6","0.8","0.4","0.2","","","","","0.2859415589","0.3549291363","0.125153919","0.2428529647","","","","","","","","74","J","1","","","15","main_expt"
"","bandit","95","1710938","0.0-56.0-0.0","36774644","wem/bandit_either_2","A2W8ZV9DQWVHJK","either","1","629","","","","","","","0","0","1","","0.2332962783","0.6","0.8","0.4","0.2","0.26587149","0.3727350689","0.1096891688","0.2332962783","","","","","","","","","","","","76","L","3","","","16","main_expt"
"","bandit","96","1712882","0.0-57.0-0.0","36774644","wem/bandit_either_2","A2W8ZV9DQWVHJK","either","1","438","","","","","","","0","0","1","","0.1051581447","0.6","0.8","0.4","0.2","0.2776265896","0.3112083829","0.1051581447","0.2271032234","","","","","","","","","","","","75","K","2","","","17","main_expt"
"","bandit","97","1715307","0.0-58.0-0.0","36774644","wem/bandit_either_2","A2W8ZV9DQWVHJK","either","1","919","","","","","","","1","0","0","0.3223387563","","0.6","0.8","0.4","0.2","","","","","0.3223387563","0.2403081055","0.1437943492","0.1701710303","","","","","","","","72","H","0","img/none_selected.jpg","","18","main_expt"
"","bandit","98","1717219","0.0-59.0-0.0","36774644","wem/bandit_either_2","A2W8ZV9DQWVHJK","either","1","405","","","","","","","0","0","1","0.3192918255","","0.6","0.8","0.4","0.2","","","","","0.3192918255","0.2377482675","0.1405615485","0.2070198111","","","","","","","","72","H","0","img/none_selected.jpg","","19","main_expt"
"","bandit","99","1719091","0.0-60.0-0.0","36774644","wem/bandit_either_2","A2W8ZV9DQWVHJK","either","1","364","","","","","","","0","0","1","0.2739159796","","0.6","0.8","0.4","0.2","","","","","0.2739159796","0.2607530295","0.1063334751","0.2412547966","","","","","","","","72","H","0","img/none_selected.jpg","","20","main_expt"
"","bandit","100","1720954","0.0-61.0-0.0","36774644","wem/bandit_either_2","A2W8ZV9DQWVHJK","either","1","358","","","","","","","0","0","1","0.2454385858","","0.6","0.8","0.4","0.2","","","","","0.2454385858","0.2919400674","0.07848250716","0.2184758186","","","","","","","","72","H","0","img/none_selected.jpg","","21","main_expt"
"","bandit","101","1722835","0.0-62.0-0.0","36774644","wem/bandit_either_2","A2W8ZV9DQWVHJK","either","1","374","","","","","","","0","0","1","","0.2995681058","0.6","0.8","0.4","0.2","0.2340842041","0.2995681058","0.1005082742","0.1849325376","","","","","","","","","","","","74","J","1","","","22","main_expt"
"","bandit","102","1724715","0.0-63.0-0.0","36774644","wem/bandit_either_2","A2W8ZV9DQWVHJK","either","1","373","","","","","","","0","0","1","","0.1521197653","0.6","0.8","0.4","0.2","0.1840173947","0.292554742","0.0792694407","0.1521197653","","","","","","","","","","","","76","L","3","","","23","main_expt"
"","bandit","103","1726667","0.0-64.0-0.0","36774644","wem/bandit_either_2","A2W8ZV9DQWVHJK","either","1","446","","","","","","","1","0","0","0.07358699385","","0.6","0.8","0.4","0.2","","","","","0.1745529383","0.3616894364","0.07358699385","0.1759403195","","","","","","","","75","K","2","","","24","main_expt"
"","bandit","104","1728641","0.0-65.0-0.0","36774644","wem/bandit_either_2","A2W8ZV9DQWVHJK","either","1","438","","","","","","","0","1","0","","0.142208116","0.6","0.8","0.4","0.2","0.1756582033","0.3575757263","0.142208116","0.09479311865","","","","","","","","","","","","75","K","2","","","25","main_expt"
"","bandit","105","1730866","0.0-66.0-0.0","36774644","wem/bandit_either_2","A2W8ZV9DQWVHJK","either","1","717","","","","","","","0","0","1","0.2086365416","","0.6","0.8","0.4","0.2","","","","","0.2086365416","0.3635346368","0.1245113583","0.08156123497","","","","","","","","72","H","0","img/none_selected.jpg","","26","main_expt"
"","bandit","106","1732831","0.0-67.0-0.0","36774644","wem/bandit_either_2","A2W8ZV9DQWVHJK","either","1","454","","","","","","","0","0","1","","0.2139763749","0.6","0.8","0.4","0.2","0.2139763749","0.4109801844","0.118364605","0.1102307873","","","","","","","","","","","","72","H","0","img/none_selected.jpg","","27","main_expt"
"","bandit","107","1734770","0.0-68.0-0.0","36774644","wem/bandit_either_2","A2W8ZV9DQWVHJK","either","1","431","","","","","","","0","0","1","","0.08274430796","0.6","0.8","0.4","0.2","0.1613483267","0.3772962545","0.1105930361","0.08274430796","","","","","","","","","","","","76","L","3","","","28","main_expt"
"","bandit","108","1739580","0.0-69.0-0.0","36774644","wem/bandit_either_2","A2W8ZV9DQWVHJK","either","1","3301","","","","","","","0","0","1","0.1712488152","","0.6","0.8","0.4","0.2","","","","","0.1712488152","0.3875745016","0.1118713044","0.1086911099","","","","","","","","72","H","0","img/none_selected.jpg","","29","main_expt"
"","bandit","109","1743010","0.0-70.0-0.0","36774644","wem/bandit_either_2","A2W8ZV9DQWVHJK","either","1","1922","","","","","","","1","0","0","0.3780019893","","0.6","0.8","0.4","0.2","","","","","0.1675524316","0.3780019893","0.1914750456","0.1116575632","","","","","","","","74","J","1","","","30","main_expt"
"","bandit","110","1746473","0.0-71.0-0.0","36774644","wem/bandit_either_2","A2W8ZV9DQWVHJK","either","1","1942","","","","","","","0","1","0","","0.416860241","0.6","0.8","0.4","0.2","0.140325158","0.416860241","0.2367730164","0.07828091442","","","","","","","","","","","","74","J","1","","","31","main_expt"
"","bandit","111","1756166","0.0-72.0-0.0","36774644","wem/bandit_either_2","A2W8ZV9DQWVHJK","either","1","8180","","","","","","","1","0","0","0.4242573056","","0.6","0.8","0.4","0.2","","","","","0.1553940025","0.4242573056","0.2109574779","0.07550395781","","","","","","","","74","J","1","","","32","main_expt"
"","bandit","112","1759106","0.0-73.0-0.0","36774644","wem/bandit_either_2","A2W8ZV9DQWVHJK","either","1","1432","","","","","","","0","0","1","","0.1925614924","0.6","0.8","0.4","0.2","0.1925614924","0.4185546122","0.2005542758","0.1445529326","","","","","","","","","","","","72","H","0","img/none_selected.jpg","","33","main_expt"
"","bandit","113","1761066","0.0-74.0-0.0","36774644","wem/bandit_either_2","A2W8ZV9DQWVHJK","either","1","454","","","","","","","0","1","0","","0.4268308419","0.6","0.8","0.4","0.2","0.2150530123","0.4268308419","0.180377021","0.1091775744","","","","","","","","","","","","74","J","1","","","34","main_expt"
"","bandit","114","1763178","0.0-75.0-0.0","36774644","wem/bandit_either_2","A2W8ZV9DQWVHJK","either","1","606","","","","","","","0","1","0","","0.1297995116","0.6","0.8","0.4","0.2","0.2688968874","0.4265642185","0.2111187229","0.1297995116","","","","","","","","","","","","76","L","3","","","35","main_expt"
"","bandit","115","1764970","0.0-76.0-0.0","36774644","wem/bandit_either_2","A2W8ZV9DQWVHJK","either","1","285","","","","","","","0","0","1","","0.2119332756","0.6","0.8","0.4","0.2","0.2977459964","0.4066287969","0.2119332756","0.09468550628","","","","","","","","","","","","75","K","2","","","36","main_expt"
"","bandit","116","1766914","0.0-77.0-0.0","36774644","wem/bandit_either_2","A2W8ZV9DQWVHJK","either","1","427","","","","","","","0","0","1","0.2684429955","","0.6","0.8","0.4","0.2","","","","","0.2684429955","0.4611471687","0.2256131965","0.09396978408","","","","","","","","72","H","0","img/none_selected.jpg","","37","main_expt"
"","bandit","117","1768767","0.0-78.0-0.0","36774644","wem/bandit_either_2","A2W8ZV9DQWVHJK","either","1","326","","","","","","","0","0","1","0.4482708269","","0.6","0.8","0.4","0.2","","","","","0.2490186117","0.4482708269","0.1975147253","0.1062257399","","","","","","","","74","J","1","","","38","main_expt"
"","bandit","118","1770611","0.0-79.0-0.0","36774644","wem/bandit_either_2","A2W8ZV9DQWVHJK","either","1","335","","","","","","","0","0","1","","0.09676453159","0.6","0.8","0.4","0.2","0.2548033483","0.4402774387","0.1595648847","0.09676453159","","","","","","","","","","","","76","L","3","","","39","main_expt"
"","bandit","119","1772507","0.0-80.0-0.0","36774644","wem/bandit_either_2","A2W8ZV9DQWVHJK","either","1","389","","","","","","","0","0","1","","0.08197179495","0.6","0.8","0.4","0.2","0.2688720753","0.4385128538","0.1626610004","0.08197179495","","","","","","","","","","","","76","L","3","","","40","main_expt"
"","bandit","120","1774508","0.0-81.0-0.0","36774644","wem/bandit_either_2","A2W8ZV9DQWVHJK","either","1","491","","","","","","","0","0","1","","0.14416382","0.6","0.8","0.4","0.2","0.297778532","0.4380640779","0.1982402655","0.14416382","","","","","","","","","","","","76","L","3","","","41","main_expt"
"","bandit","121","1776057","0.0-82.0-0.0","36774644","wem/bandit_either_2","A2W8ZV9DQWVHJK","either","1","36","","","","","","","0","0","1","0.1863610343","","0.6","0.8","0.4","0.2","","","","","0.2449207522","0.4265224768","0.1863610343","0.1070927036","","","","","","","","75","K","2","","","42","main_expt"
"","bandit","122","1777641","0.0-83.0-0.0","36774644","wem/bandit_either_2","A2W8ZV9DQWVHJK","either","1","62","","","","","","","0","0","1","0.2457567503","","0.6","0.8","0.4","0.2","","","","","0.2457567503","0.435880106","0.2418389683","0.1214526226","","","","","","","","72","H","0","img/none_selected.jpg","","43","main_expt"
"","bandit","123","1781659","0.0-84.0-0.0","36774644","wem/bandit_either_2","A2W8ZV9DQWVHJK","either","1","2510","","","","","","","0","0","1","0.2432732657","","0.6","0.8","0.4","0.2","","","","","0.2432732657","0.4450576882","0.1943491227","0.1450738833","","","","","","","","72","H","0","img/none_selected.jpg","","44","main_expt"
"","bandit","124","1783522","0.0-85.0-0.0","36774644","wem/bandit_either_2","A2W8ZV9DQWVHJK","either","1","357","","","","","","","0","1","0","","0.4382030275","0.6","0.8","0.4","0.2","0.2656772236","0.4382030275","0.1543250971","0.09632230927","","","","","","","","","","","","74","J","1","","","45","main_expt"
"","bandit","125","1785727","0.0-86.0-0.0","36774644","wem/bandit_either_2","A2W8ZV9DQWVHJK","either","1","692","","","","","","","0","0","1","","0.103211431","0.6","0.8","0.4","0.2","0.2432112423","0.4412369426","0.09719433791","0.103211431","","","","","","","","","","","","76","L","3","","","46","main_expt"
"","bandit","126","1787460","0.0-87.0-0.0","36774644","wem/bandit_either_2","A2W8ZV9DQWVHJK","either","1","216","","","","","","","0","0","1","0.1228880329","","0.6","0.8","0.4","0.2","","","","","0.2992745976","0.4588863431","0.1228880329","0.09916324924","","","","","","","","75","K","2","","","47","main_expt"
"","bandit","127","1789415","0.0-88.0-0.0","36774644","wem/bandit_either_2","A2W8ZV9DQWVHJK","either","1","434","","","","","","","0","0","1","","0.1068532567","0.6","0.8","0.4","0.2","0.2594611615","0.4408788818","0.1068532567","0.1090242341","","","","","","","","","","","","75","K","2","","","48","main_expt"
"","bandit","128","1791419","0.0-89.0-0.0","36774644","wem/bandit_either_2","A2W8ZV9DQWVHJK","either","1","498","","","","","","","0","0","1","0.4232064109","","0.6","0.8","0.4","0.2","","","","","0.2767916858","0.4232064109","0.1044048509","0.1265186769","","","","","","","","74","J","1","","","49","main_expt"
"","bandit","129","1793386","0.0-90.0-0.0","36774644","wem/bandit_either_2","A2W8ZV9DQWVHJK","either","1","458","","","","","","","1","0","0","0.2762534014","","0.6","0.8","0.4","0.2","","","","","0.2762534014","0.4210883962","0.1072026782","0.1397440907","","","","","","","","72","H","0","img/none_selected.jpg","","50","main_expt"
"","bandit","130","1795445","0.0-91.0-0.0","36774644","wem/bandit_either_2","A2W8ZV9DQWVHJK","either","1","549","","","","","","","0","0","1","0.3379376541","","0.6","0.8","0.4","0.2","","","","","0.3379376541","0.4225635581","0.1287882573","0.153600331","","","","","","","","72","H","0","img/none_selected.jpg","","51","main_expt"
"","bandit","131","1798740","0.0-92.0-0.0","36774644","wem/bandit_either_2","A2W8ZV9DQWVHJK","either","1","1786","","","","","","","0","0","1","","0.3395267946","0.6","0.8","0.4","0.2","0.3395267946","0.4146237098","0.1298059469","0.1718407591","","","","","","","","","","","","72","H","0","img/none_selected.jpg","","52","main_expt"
"","bandit","132","1800619","0.0-93.0-0.0","36774644","wem/bandit_either_2","A2W8ZV9DQWVHJK","either","1","370","","","","","","","0","0","1","0.29674647","","0.6","0.8","0.4","0.2","","","","","0.29674647","0.3763623321","0.07423060895","0.1945727614","","","","","","","","72","H","0","img/none_selected.jpg","","53","main_expt"
"","bandit","133","1802500","0.0-94.0-0.0","36774644","wem/bandit_either_2","A2W8ZV9DQWVHJK","either","1","372","","","","","","","1","0","0","0.3289081181","","0.6","0.8","0.4","0.2","","","","","0.3372955831","0.3289081181","0.08562383645","0.2450542523","","","","","","","","74","J","1","","","54","main_expt"
"","bandit","134","1804386","0.0-95.0-0.0","36774644","wem/bandit_either_2","A2W8ZV9DQWVHJK","either","1","377","","","","","","","1","0","0","0.3025984711","","0.6","0.8","0.4","0.2","","","","","0.3506099842","0.3025984711","0.0757818623","0.2547241938","","","","","","","","74","J","1","","","55","main_expt"
"","bandit","135","1806284","0.0-96.0-0.0","36774644","wem/bandit_either_2","A2W8ZV9DQWVHJK","either","1","387","","","","","","","1","0","0","0.2921333137","","0.6","0.8","0.4","0.2","","","","","0.3418029788","0.2921333137","0.09897923035","0.2595112895","","","","","","","","74","J","1","","","56","main_expt"
"","bandit","136","1809108","0.0-97.0-0.0","36774644","wem/bandit_either_2","A2W8ZV9DQWVHJK","either","1","1310","","","","","","","1","0","0","0.3317177772","","0.6","0.8","0.4","0.2","","","","","0.3162475816","0.3317177772","0.1160875525","0.2610276213","","","","","","","","74","J","1","","","57","main_expt"
"","bandit","137","1810931","0.0-98.0-0.0","36774644","wem/bandit_either_2","A2W8ZV9DQWVHJK","either","1","314","","","","","","","1","0","0","0.3240244649","","0.6","0.8","0.4","0.2","","","","","0.3269881105","0.3240244649","0.1134641846","0.2354201416","","","","","","","","74","J","1","","","58","main_expt"
"","bandit","138","1812819","0.0-99.0-0.0","36774644","wem/bandit_either_2","A2W8ZV9DQWVHJK","either","1","382","","","","","","","1","0","0","0.2988076671","","0.6","0.8","0.4","0.2","","","","","0.2901324944","0.2988076671","0.1177083384","0.2346370837","","","","","","","","74","J","1","","","59","main_expt"
"","bandit","139","1814635","0.0-100.0-0.0","36774644","wem/bandit_either_2","A2W8ZV9DQWVHJK","either","1","306","","","","","","","0","0","1","0.3096792726","","0.6","0.8","0.4","0.2","","","","","0.289588464","0.3096792726","0.1125723432","0.2315637733","","","","","","","","74","J","1","","","60","main_expt"
"","bandit","140","1816721","0.0-101.0-0.0","36774644","wem/bandit_either_2","A2W8ZV9DQWVHJK","either","1","580","","","","","","","0","0","1","0.09911093426","","0.6","0.8","0.4","0.2","","","","","0.2782845563","0.2821336973","0.09911093426","0.2599537756","","","","","","","","75","K","2","","","61","main_expt"
"","bandit","141","1818629","0.0-102.0-0.0","36774644","wem/bandit_either_2","A2W8ZV9DQWVHJK","either","1","381","","","","","","","0","1","0","","0.2594941563","0.6","0.8","0.4","0.2","0.3165490401","0.2414244345","0.09440438105","0.2594941563","","","","","","","","","","","","76","L","3","","","62","main_expt"
"","bandit","142","1820595","0.0-103.0-0.0","36774644","wem/bandit_either_2","A2W8ZV9DQWVHJK","either","1","459","","","","","","","1","0","0","0.3034564924","","0.6","0.8","0.4","0.2","","","","","0.3034564924","0.213639373","0.1015409351","0.2660839385","","","","","","","","72","H","0","img/none_selected.jpg","","63","main_expt"
"","bandit","143","1822363","0.0-104.0-0.0","36774644","wem/bandit_either_2","A2W8ZV9DQWVHJK","either","1","260","","","","","","","0","0","1","0.2506654962","","0.6","0.8","0.4","0.2","","","","","0.2506654962","0.1876308072","0.07049798599","0.2426585031","","","","","","","","72","H","0","img/none_selected.jpg","","64","main_expt"
"","bandit","144","1824193","0.0-105.0-0.0","36774644","wem/bandit_either_2","A2W8ZV9DQWVHJK","either","1","317","","","","","","","0","0","1","0.253414466","","0.6","0.8","0.4","0.2","","","","","0.253414466","0.1841803182","0.05735603507","0.2581047566","","","","","","","","72","H","0","img/none_selected.jpg","","65","main_expt"
"","bandit","145","1826119","0.0-106.0-0.0","36774644","wem/bandit_either_2","A2W8ZV9DQWVHJK","either","1","414","","","","","","","0","0","1","0.187417598","","0.6","0.8","0.4","0.2","","","","","0.2836500186","0.187417598","0.0621258055","0.2872127433","","","","","","","","74","J","1","","","66","main_expt"
"","bandit","146","1828022","0.0-107.0-0.0","36774644","wem/bandit_either_2","A2W8ZV9DQWVHJK","either","1","392","","","","","","","0","0","1","0.1395950637","","0.6","0.8","0.4","0.2","","","","","0.3217852231","0.1395950637","0.06966106928","0.3232337643","","","","","","","","74","J","1","","","67","main_expt"
"","bandit","147","1829805","0.0-108.0-0.0","36774644","wem/bandit_either_2","A2W8ZV9DQWVHJK","either","1","265","","","","","","","0","0","1","0.09965709916","","0.6","0.8","0.4","0.2","","","","","0.3574581916","0.1363519197","0.09965709916","0.3376006622","","","","","","","","75","K","2","","","68","main_expt"
"","bandit","148","1831682","0.0-109.0-0.0","36774644","wem/bandit_either_2","A2W8ZV9DQWVHJK","either","1","369","","","","","","","0","0","1","","0.2917609244","0.6","0.8","0.4","0.2","0.3884563005","0.1117144852","0.1428217854","0.2917609244","","","","","","","","","","","","76","L","3","","","69","main_expt"
"","bandit","149","1833939","0.0-110.0-0.0","36774644","wem/bandit_either_2","A2W8ZV9DQWVHJK","either","1","748","","","","","","","0","0","1","0.3920047773","","0.6","0.8","0.4","0.2","","","","","0.3920047773","0.09667493602","0.1866845388","0.2218665627","","","","","","","","72","H","0","img/none_selected.jpg","","70","main_expt"
"","bandit","150","1835884","0.0-111.0-0.0","36774644","wem/bandit_either_2","A2W8ZV9DQWVHJK","either","1","429","","","","","","","0","0","1","","0.4066376731","0.6","0.8","0.4","0.2","0.4066376731","0.09186933139","0.1702545286","0.2409383839","","","","","","","","","","","","72","H","0","img/none_selected.jpg","","71","main_expt"
"","bandit","151","1837732","0.0-112.0-0.0","36774644","wem/bandit_either_2","A2W8ZV9DQWVHJK","either","1","322","","","","","","","0","0","1","0.3443789926","","0.6","0.8","0.4","0.2","","","","","0.3443789926","0.09472009463","0.1836279043","0.1920783453","","","","","","","","72","H","0","img/none_selected.jpg","","72","main_expt"
"","bandit","152","1839714","0.0-113.0-0.0","36774644","wem/bandit_either_2","A2W8ZV9DQWVHJK","either","1","475","","","","","","","0","0","1","0.1167805336","","0.6","0.8","0.4","0.2","","","","","0.3227553012","0.1167805336","0.1644348242","0.1905254877","","","","","","","","74","J","1","","","73","main_expt"
"","bandit","153","1841690","0.0-114.0-0.0","36774644","wem/bandit_either_2","A2W8ZV9DQWVHJK","either","1","468","","","","","","","0","0","1","0.1833421201","","0.6","0.8","0.4","0.2","","","","","0.3336652139","0.1465151254","0.1833421201","0.184198213","","","","","","","","75","K","2","","","74","main_expt"
"","bandit","154","1843653","0.0-115.0-0.0","36774644","wem/bandit_either_2","A2W8ZV9DQWVHJK","either","1","453","","","","","","","0","0","1","","0.1519653276","0.6","0.8","0.4","0.2","0.2890150868","0.123285719","0.1519653276","0.1881920243","","","","","","","","","","","","75","K","2","","","75","main_expt"
"","bandit","155","1845418","0.0-116.0-0.0","36774644","wem/bandit_either_2","A2W8ZV9DQWVHJK","either","1","257","","","","","","","0","0","1","0.1988930589","","0.6","0.8","0.4","0.2","","","","","0.2673490463","0.1392606081","0.1506622639","0.1988930589","","","","","","","","76","L","3","","","76","main_expt"
"","bandit","156","1847108","0.0-117.0-0.0","36774644","wem/bandit_either_2","A2W8ZV9DQWVHJK","either","1","180","","","","","","","0","0","1","0.2858541315","","0.6","0.8","0.4","0.2","","","","","0.2858541315","0.099337717","0.1860897766","0.2255968657","","","","","","","","72","H","0","img/none_selected.jpg","","77","main_expt"
"","bandit","157","1850331","0.0-118.0-0.0","36774644","wem/bandit_either_2","A2W8ZV9DQWVHJK","either","1","1714","","","","","","","0","0","1","0.2639968829","","0.6","0.8","0.4","0.2","","","","","0.2639968829","0.09666605973","0.1618556875","0.1917014014","","","","","","","","72","H","0","img/none_selected.jpg","","78","main_expt"
"","bandit","158","1854963","0.0-119.0-0.0","36774644","wem/bandit_either_2","A2W8ZV9DQWVHJK","either","1","3123","","","","","","","0","0","1","0.2304888896","","0.6","0.8","0.4","0.2","","","","","0.2304888896","0.09639353985","0.1976853889","0.2092129429","","","","","","","","72","H","0","img/none_selected.jpg","","79","main_expt"
"","bandit","159","1857016","0.0-120.0-0.0","36774644","wem/bandit_either_2","A2W8ZV9DQWVHJK","either","1","532","","","","","","","0","0","1","0.09566996791","","0.6","0.8","0.4","0.2","","","","","0.1991809665","0.09566996791","0.2198838985","0.1974306726","","","","","","","","74","J","1","","","80","main_expt"
"","bandit","160","1859018","0.0-121.0-0.0","36774644","wem/bandit_either_2","A2W8ZV9DQWVHJK","either","1","471","","","","","","","0","0","1","","0.2167005254","0.6","0.8","0.4","0.2","0.1627434897","0.07958501382","0.2167005254","0.1414754506","","","","","","","","","","","","75","K","2","","","81","main_expt"
"","bandit","161","1860835","0.0-122.0-0.0","36774644","wem/bandit_either_2","A2W8ZV9DQWVHJK","either","1","309","","","","","","","0","0","1","","0.1422587364","0.6","0.8","0.4","0.2","0.1624637972","0.08833774835","0.2527486409","0.1422587364","","","","","","","","","","","","76","L","3","","","82","main_expt"
"","bandit","162","1863360","0.0-123.0-0.0","36774644","wem/bandit_either_2","A2W8ZV9DQWVHJK","either","1","1011","","","","","","","0","0","1","0.09109006352","","0.6","0.8","0.4","0.2","","","","","0.1900332","0.09109006352","0.2569721607","0.1079415531","","","","","","","","74","J","1","","","83","main_expt"
"","bandit","163","1866283","0.0-124.0-0.0","36774644","wem/bandit_either_2","A2W8ZV9DQWVHJK","either","1","1394","","","","","","","0","0","1","0.1705646391","","0.6","0.8","0.4","0.2","","","","","0.1705646391","0.05321730921","0.2535394321","0.07696487024","","","","","","","","72","H","0","img/none_selected.jpg","","84","main_expt"
"","bandit","164","1869014","0.0-125.0-0.0","36774644","wem/bandit_either_2","A2W8ZV9DQWVHJK","either","1","1217","","","","","","","0","0","1","0.2053302659","","0.6","0.8","0.4","0.2","","","","","0.2053302659","0.03321009489","0.2255799186","0.08313016423","","","","","","","","72","H","0","img/none_selected.jpg","","85","main_expt"
"","bandit","165","1870962","0.0-126.0-0.0","36774644","wem/bandit_either_2","A2W8ZV9DQWVHJK","either","1","441","","","","","","","0","0","1","","0.04864990798","0.6","0.8","0.4","0.2","0.2128685413","0.04864990798","0.2197080914","0.102083396","","","","","","","","","","","","74","J","1","","","86","main_expt"
"","bandit","166","1873205","0.0-127.0-0.0","36774644","wem/bandit_either_2","A2W8ZV9DQWVHJK","either","1","731","","","","","","","0","0","1","0.2230338057","","0.6","0.8","0.4","0.2","","","","","0.213778815","0.07919268752","0.2230338057","0.09067070718","","","","","","","","75","K","2","","","87","main_expt"
"","bandit","167","1875219","0.0-128.0-0.0","36774644","wem/bandit_either_2","A2W8ZV9DQWVHJK","either","1","505","","","","","","","0","0","1","","0.1421970704","0.6","0.8","0.4","0.2","0.2102340809","0.05835116993","0.2484269739","0.1421970704","","","","","","","","","","","","76","L","3","","","88","main_expt"
"","bandit","168","1877389","0.0-129.0-0.0","36774644","wem/bandit_either_2","A2W8ZV9DQWVHJK","either","1","640","","","","","","","0","0","1","0.05115519592","","0.6","0.8","0.4","0.2","","","","","0.1809358483","0.05115519592","0.2733562597","0.219142046","","","","","","","","74","J","1","","","89","main_expt"
"","bandit","169","1879215","0.0-130.0-0.0","36774644","wem/bandit_either_2","A2W8ZV9DQWVHJK","either","1","307","","","","","","","0","0","1","0.1293356972","","0.6","0.8","0.4","0.2","","","","","0.1293356972","0.07819273649","0.2973868449","0.2806923657","","","","","","","","72","H","0","img/none_selected.jpg","","90","main_expt"
"","bandit","170","1881514","0.0-131.0-0.0","36774644","wem/bandit_either_2","A2W8ZV9DQWVHJK","either","1","788","","","","","","","0","0","1","0.05564661524","","0.6","0.8","0.4","0.2","","","","","0.1136224352","0.05564661524","0.3067689268","0.2819660137","","","","","","","","74","J","1","","","91","main_expt"
"","bandit","171","1883242","0.0-132.0-0.0","36774644","wem/bandit_either_2","A2W8ZV9DQWVHJK","either","1","219","","","","","","","0","0","1","0.2719776188","","0.6","0.8","0.4","0.2","","","","","0.07539152519","0.05914103421","0.2719776188","0.3370305887","","","","","","","","75","K","2","","","92","main_expt"
"","bandit","172","1884955","0.0-133.0-0.0","36774644","wem/bandit_either_2","A2W8ZV9DQWVHJK","either","1","204","","","","","","","0","1","0","","0.3722719914","0.6","0.8","0.4","0.2","0.08243558305","0.03944324463","0.3081791896","0.3722719914","","","","","","","","","","","","76","L","3","","","93","main_expt"
"","bandit","173","1886878","0.0-134.0-0.0","36774644","wem/bandit_either_2","A2W8ZV9DQWVHJK","either","1","410","","","","","","","0","0","1","0.05023017475","","0.6","0.8","0.4","0.2","","","","","0.09807673793","0.05023017475","0.356667856","0.3840030774","","","","","","","","74","J","1","","","94","main_expt"
"","bandit","174","1889723","0.0-135.0-0.0","36774644","wem/bandit_either_2","A2W8ZV9DQWVHJK","either","1","1336","","","","","","","0","0","1","0.07311956304","","0.6","0.8","0.4","0.2","","","","","0.09746204728","0.07311956304","0.3300765204","0.4050844552","","","","","","","","74","J","1","","","95","main_expt"
"","bandit","175","1891675","0.0-136.0-0.0","36774644","wem/bandit_either_2","A2W8ZV9DQWVHJK","either","1","443","","","","","","","0","0","1","0.08559835745","","0.6","0.8","0.4","0.2","","","","","0.08559835745","0.09573717159","0.3642735905","0.4081076376","","","","","","","","72","H","0","img/none_selected.jpg","","96","main_expt"
"","bandit","176","1893683","0.0-137.0-0.0","36774644","wem/bandit_either_2","A2W8ZV9DQWVHJK","either","1","451","","","","","","","0","0","1","","0.0732645996","0.6","0.8","0.4","0.2","0.0732645996","0.1235519285","0.3885664579","0.4142780263","","","","","","","","","","","","72","H","0","img/none_selected.jpg","","97","main_expt"
"","bandit","177","1895787","0.0-138.0-0.0","36774644","wem/bandit_either_2","A2W8ZV9DQWVHJK","either","1","593","","","","","","","1","0","0","0.4162912028","","0.6","0.8","0.4","0.2","","","","","0.05343209845","0.1274282425","0.4162912028","0.4131193208","","","","","","","","75","K","2","","","98","main_expt"
"","bandit","178","1897563","0.0-139.0-0.0","36774644","wem/bandit_either_2","A2W8ZV9DQWVHJK","either","1","257","","","","","","","0","0","1","","0.4074153657","0.6","0.8","0.4","0.2","0.05144299931","0.1457321849","0.4074153657","0.428944851","","","","","","","","","","","","75","K","2","","","99","main_expt"
"","bandit","179","1899402","0.0-140.0-0.0","36774644","wem/bandit_either_2","A2W8ZV9DQWVHJK","either","1","322","","","","","","","0","0","1","","0.3349137267","0.6","0.8","0.4","0.2","0.03934302155","0.1492128348","0.3349137267","0.4279797645","","","","","","","","","","","","75","K","2","","","100","main_expt"
"","bandit","180","1901251","0.0-141.0-0.0","36774644","wem/bandit_either_2","A2W8ZV9DQWVHJK","either","1","341","","","","","","","0","0","1","","0.2732947861","0.6","0.8","0.4","0.2","0.05783306622","0.125019219","0.2732947861","0.4189249443","","","","","","","","","","","","75","K","2","","","101","main_expt"
"","bandit","181","1902930","0.0-142.0-0.0","36774644","wem/bandit_either_2","A2W8ZV9DQWVHJK","either","1","169","","","","","","","1","0","0","0.1008510245","","0.6","0.8","0.4","0.2","","","","","0.06484492547","0.1008510245","0.2584454073","0.4279241466","","","","","","","","74","J","1","","","102","main_expt"
"","bandit","182","1904740","0.0-143.0-0.0","36774644","wem/bandit_either_2","A2W8ZV9DQWVHJK","either","1","300","","","","","","","0","0","1","","0.1087281004","0.6","0.8","0.4","0.2","0.0701259157","0.1087281004","0.2143891894","0.419390052","","","","","","","","","","","","74","J","1","","","103","main_expt"
"","bandit","183","1906426","0.0-144.0-0.0","36774644","wem/bandit_either_2","A2W8ZV9DQWVHJK","either","1","178","","","","","","","0","0","1","0.143855427","","0.6","0.8","0.4","0.2","","","","","0.06922647753","0.143855427","0.1354346047","0.3761202226","","","","","","","","74","J","1","","","104","main_expt"
"","bandit","184","1908510","0.0-145.0-0.0","36774644","wem/bandit_either_2","A2W8ZV9DQWVHJK","either","1","563","","","","","","","0","0","1","0.4229881466","","0.6","0.8","0.4","0.2","","","","","0.07802312096","0.1606853024","0.1615963473","0.4229881466","","","","","","","","76","L","3","","","105","main_expt"
"","bandit","185","1910660","0.0-146.0-0.0","36774644","wem/bandit_either_2","A2W8ZV9DQWVHJK","either","1","641","","","","","","","0","0","1","0.1738621023","","0.6","0.8","0.4","0.2","","","","","0.08930313369","0.1612939645","0.1738621023","0.4110558218","","","","","","","","75","K","2","","","106","main_expt"
"","bandit","186","1912524","0.0-147.0-0.0","36774644","wem/bandit_either_2","A2W8ZV9DQWVHJK","either","1","323","","","","","","","0","0","1","","0.1397733654","0.6","0.8","0.4","0.2","0.1397733654","0.1778053335","0.1799671425","0.4176599015","","","","","","","","","","","","72","H","0","img/none_selected.jpg","","107","main_expt"
"","bandit","187","1914426","0.0-148.0-0.0","36774644","wem/bandit_either_2","A2W8ZV9DQWVHJK","either","1","394","","","","","","","0","0","1","0.1826465361","","0.6","0.8","0.4","0.2","","","","","0.1505899732","0.1826465361","0.1844274074","0.4210396584","","","","","","","","74","J","1","","","108","main_expt"
"","bandit","188","1916329","0.0-149.0-0.0","36774644","wem/bandit_either_2","A2W8ZV9DQWVHJK","either","1","387","","","","","","","1","0","0","0.1737022726","","0.6","0.8","0.4","0.2","","","","","0.1162436109","0.1737022726","0.1702708828","0.4328015469","","","","","","","","74","J","1","","","109","main_expt"
"","bandit","189","1918192","0.0-150.0-0.0","36774644","wem/bandit_either_2","A2W8ZV9DQWVHJK","either","1","333","","","","","","","0","0","1","0.1658344406","","0.6","0.8","0.4","0.2","","","","","0.08267976014","0.1658344406","0.1964407335","0.4495585744","","","","","","","","74","J","1","","","110","main_expt"
"","bandit","190","1920156","0.0-151.0-0.0","36774644","wem/bandit_either_2","A2W8ZV9DQWVHJK","either","1","454","","","","","","","0","0","1","0.240619448","","0.6","0.8","0.4","0.2","","","","","0.09389793805","0.240619448","0.1777579569","0.4237631325","","","","","","","","74","J","1","","","111","main_expt"
"","bandit","191","1923988","0.0-152.0-0.0","36774644","wem/bandit_either_2","A2W8ZV9DQWVHJK","either","1","2321","","","","","","","0","0","1","0.1927397719","","0.6","0.8","0.4","0.2","","","","","0.07903418564","0.1927397719","0.1395994444","0.4521571561","","","","","","","","74","J","1","","","112","main_expt"
"","bandit","192","1925851","0.0-153.0-0.0","36774644","wem/bandit_either_2","A2W8ZV9DQWVHJK","either","1","353","","","","","","","0","0","1","0.234725565","","0.6","0.8","0.4","0.2","","","","","0.05501139052","0.234725565","0.1205999431","0.4350762846","","","","","","","","74","J","1","","","113","main_expt"
"","bandit","193","1927996","0.0-154.0-0.0","36774644","wem/bandit_either_2","A2W8ZV9DQWVHJK","either","1","636","","","","","","","0","1","0","","0.09123355482","0.6","0.8","0.4","0.2","0.07627702456","0.1950215869","0.09123355482","0.4315824664","","","","","","","","","","","","75","K","2","","","114","main_expt"
"","bandit","194","1974595","0.0-155.0-0.0","36774644","wem/bandit_either_2","A2W8ZV9DQWVHJK","either","1","45078","","","","","","","0","0","1","0.2575833325","","0.6","0.8","0.4","0.2","","","","","0.03985247356","0.2575833325","0.09554471192","0.4127349624","","","","","","","","74","J","1","","","115","main_expt"
"","bandit","195","1976573","0.0-156.0-0.0","36774644","wem/bandit_either_2","A2W8ZV9DQWVHJK","either","1","458","","","","","","","0","0","1","","0.0683792979","0.6","0.8","0.4","0.2","0.0683792979","0.2296468005","0.1942182492","0.4468356006","","","","","","","","","","","","72","H","0","img/none_selected.jpg","","116","main_expt"
"","bandit","196","1980776","0.0-157.0-0.0","36774644","wem/bandit_either_2","A2W8ZV9DQWVHJK","either","1","2687","","","","","","","0","0","1","","0.03956212276","0.6","0.8","0.4","0.2","0.03956212276","0.2816483341","0.2208250117","0.4458703805","","","","","","","","","","","","72","H","0","img/none_selected.jpg","","117","main_expt"
"","bandit","197","1985718","0.0-158.0-0.0","36774644","wem/bandit_either_2","A2W8ZV9DQWVHJK","either","1","3428","","","","","","","0","0","1","","0.04459229253","0.6","0.8","0.4","0.2","0.04459229253","0.2626769985","0.1687975443","0.4500370674","","","","","","","","","","","","72","H","0","img/none_selected.jpg","","118","main_expt"
"","bandit","198","1988354","0.0-159.0-0.0","36774644","wem/bandit_either_2","A2W8ZV9DQWVHJK","either","1","1127","","","","","","","0","0","1","0.03386957434","","0.6","0.8","0.4","0.2","","","","","0.03386957434","0.2418090277","0.1546105485","0.4704359259","","","","","","","","72","H","0","img/none_selected.jpg","","119","main_expt"
"","bandit","199","1990285","0.0-160.0-0.0","36774644","wem/bandit_either_2","A2W8ZV9DQWVHJK","either","1","323","","","","","","","0","0","1","0.03305427522","","0.6","0.8","0.4","0.2","","","","","0.03305427522","0.2603236095","0.143668411","0.4578798539","","","","","","","","72","H","0","img/none_selected.jpg","","120","main_expt"
"","bandit","200","1994268","0.0-161.0-0.0","36774644","wem/bandit_either_2","A2W8ZV9DQWVHJK","either","1","2470","","","","","","","0","0","1","0.03146098963","","0.6","0.8","0.4","0.2","","","","","0.03146098963","0.2381785671","0.1098317425","0.4591190262","","","","","","","","72","H","0","img/none_selected.jpg","","121","main_expt"
"","bandit","201","1996501","0.0-162.0-0.0","36774644","wem/bandit_either_2","A2W8ZV9DQWVHJK","either","1","720","","","","","","","0","0","1","","0.1097832873","0.6","0.8","0.4","0.2","0.02311797033","0.2388462554","0.1097832873","0.4643737298","","","","","","","","","","","","75","K","2","","","122","main_expt"
"","bandit","202","1998529","0.0-163.0-0.0","36774644","wem/bandit_either_2","A2W8ZV9DQWVHJK","either","1","513","","","","","","","0","1","0","","0.451586091","0.6","0.8","0.4","0.2","0.0171261738","0.2079929623","0.1145900252","0.451586091","","","","","","","","","","","","76","L","3","","","123","main_expt"
"","bandit","203","2000643","0.0-164.0-0.0","36774644","wem/bandit_either_2","A2W8ZV9DQWVHJK","either","1","604","","","","","","","0","0","1","0.2148400852","","0.6","0.8","0.4","0.2","","","","","0.03468299263","0.2148400852","0.1137783892","0.4456906556","","","","","","","","74","J","1","","","124","main_expt"
"","bandit","204","2002220","0.0-165.0-0.0","36774644","wem/bandit_either_2","A2W8ZV9DQWVHJK","either","1","65","","","","","","","0","0","1","","0.02544516396","0.6","0.8","0.4","0.2","0.02544516396","0.2185056602","0.145605256","0.4240876494","","","","","","","","","","","","72","H","0","img/none_selected.jpg","","125","main_expt"
"","bandit","205","2003933","0.0-166.0-0.0","36774644","wem/bandit_either_2","A2W8ZV9DQWVHJK","either","1","192","","","","","","","0","0","1","","0.1443839055","0.6","0.8","0.4","0.2","0.03059506073","0.2152323899","0.1443839055","0.4008501573","","","","","","","","","","","","75","K","2","","","126","main_expt"
"","bandit","206","2005932","0.0-167.0-0.0","36774644","wem/bandit_either_2","A2W8ZV9DQWVHJK","either","1","488","","","","","","","0","0","1","0.1434222382","","0.6","0.8","0.4","0.2","","","","","0.0339638967","0.1699446714","0.1434222382","0.4066073101","","","","","","","","75","K","2","","","127","main_expt"
"","bandit","207","2007741","0.0-168.0-0.0","36774644","wem/bandit_either_2","A2W8ZV9DQWVHJK","either","1","288","","","","","","","0","1","0","","0.4270302575","0.6","0.8","0.4","0.2","0.02632978063","0.1299446217","0.1412168693","0.4270302575","","","","","","","","","","","","76","L","3","","","128","main_expt"
"","bandit","208","2009334","0.0-169.0-0.0","36774644","wem/bandit_either_2","A2W8ZV9DQWVHJK","either","1","79","","","","","","","0","0","1","0.1086871361","","0.6","0.8","0.4","0.2","","","","","0.02640977482","0.1299487573","0.1086871361","0.4401824822","","","","","","","","75","K","2","","","129","main_expt"
"","bandit","209","2011259","0.0-170.0-0.0","36774644","wem/bandit_either_2","A2W8ZV9DQWVHJK","either","1","406","","","","","","","0","0","1","0.03646961518","","0.6","0.8","0.4","0.2","","","","","0.03646961518","0.1172580566","0.1672766288","0.4160959849","","","","","","","","72","H","0","img/none_selected.jpg","","130","main_expt"
"","bandit","210","2014334","0.0-171.0-0.0","36774644","wem/bandit_either_2","A2W8ZV9DQWVHJK","either","1","1560","","","","","","","0","0","1","","0.02171712127","0.6","0.8","0.4","0.2","0.02171712127","0.1289979545","0.157110596","0.4374535298","","","","","","","","","","","","72","H","0","img/none_selected.jpg","","131","main_expt"
"","bandit","211","2016899","0.0-172.0-0.0","36774644","wem/bandit_either_2","A2W8ZV9DQWVHJK","either","1","1055","","","","","","","0","0","1","","0.01004766493","0.6","0.8","0.4","0.2","0.01004766493","0.1243754988","0.1338697581","0.4382483821","","","","","","","","","","","","72","H","0","img/none_selected.jpg","","132","main_expt"
"","bandit","212","2019282","0.0-173.0-0.0","36774644","wem/bandit_either_2","A2W8ZV9DQWVHJK","either","1","618","","","","","","","0","0","1","","0.1189203389","0.6","0.8","0.4","0.2","0.005153708139","0.1189203389","0.1101669797","0.3913946914","","","","","","","","","","","","74","J","1","","","133","main_expt"
"","bandit","213","2025290","0.0-174.0-0.0","36774644","wem/bandit_either_2","A2W8ZV9DQWVHJK","either","1","4443","","","","","","","0","0","1","","0.01308543257","0.6","0.8","0.4","0.2","0.01308543257","0.07075860378","0.060775537","0.4280120537","","","","","","","","","","","","72","H","0","img/none_selected.jpg","","134","main_expt"
"","bandit","214","2030310","0.0-175.0-0.0","36774644","wem/bandit_either_2","A2W8ZV9DQWVHJK","either","1","3500","","","","","","","0","1","0","","0.4385213509","0.6","0.8","0.4","0.2","0.02634180281","0.1073185777","0.0714416082","0.4385213509","","","","","","","","","","","","76","L","3","","","135","main_expt"
"","bandit","215","2032132","0.0-176.0-0.0","36774644","wem/bandit_either_2","A2W8ZV9DQWVHJK","either","1","309","","","","","","","0","0","1","0.1115096907","","0.6","0.8","0.4","0.2","","","","","0.04122629063","0.1001442491","0.1115096907","0.4605212521","","","","","","","","75","K","2","","","136","main_expt"
"","bandit","216","2034291","0.0-177.0-0.0","36774644","wem/bandit_either_2","A2W8ZV9DQWVHJK","either","1","649","","","","","","","0","0","1","","0.05517648788","0.6","0.8","0.4","0.2","0.05517648788","0.1736681681","0.1307091067","0.4729500637","","","","","","","","","","","","72","H","0","img/none_selected.jpg","","137","main_expt"
"","bandit","217","2036349","0.0-178.0-0.0","36774644","wem/bandit_either_2","A2W8ZV9DQWVHJK","either","1","544","","","","","","","0","0","1","0.1839908368","","0.6","0.8","0.4","0.2","","","","","0.05929415862","0.1839908368","0.1289533412","0.4705425907","","","","","","","","74","J","1","","","138","main_expt"
"","bandit","218","2040069","0.0-179.0-0.0","36774644","wem/bandit_either_2","A2W8ZV9DQWVHJK","either","1","2205","","","","","","","0","0","1","0.1500833973","","0.6","0.8","0.4","0.2","","","","","0.05470710098","0.1500833973","0.1215972271","0.465423541","","","","","","","","74","J","1","","","139","main_expt"
"","bandit","219","2042101","0.0-180.0-0.0","36774644","wem/bandit_either_2","A2W8ZV9DQWVHJK","either","1","512","","","","","","","1","0","0","0.1718879457","","0.6","0.8","0.4","0.2","","","","","0.06062538604","0.1718879457","0.1158179575","0.4486857012","","","","","","","","74","J","1","","","140","main_expt"
"","bandit","220","2045343","0.0-181.0-0.0","36774644","wem/bandit_either_2","A2W8ZV9DQWVHJK","either","1","1719","","","","","","","0","0","1","","0.2025036279","0.6","0.8","0.4","0.2","0.05819772386","0.2025036279","0.08691297649","0.4053061298","","","","","","","","","","","","74","J","1","","","141","main_expt"
"","bandit","221","2047332","0.0-182.0-0.0","36774644","wem/bandit_either_2","A2W8ZV9DQWVHJK","either","1","470","","","","","","","0","0","1","","0.1872564568","0.6","0.8","0.4","0.2","0.05329701838","0.1872564568","0.1425267255","0.3989731656","","","","","","","","","","","","74","J","1","","","142","main_expt"
"","bandit","222","2049284","0.0-183.0-0.0","36774644","wem/bandit_either_2","A2W8ZV9DQWVHJK","either","1","425","","","","","","","0","0","1","","0.1676641842","0.6","0.8","0.4","0.2","0.06209903385","0.1676641842","0.1425141192","0.3783570596","","","","","","","","","","","","74","J","1","","","143","main_expt"
"","bandit","223","2051339","0.0-184.0-0.0","36774644","wem/bandit_either_2","A2W8ZV9DQWVHJK","either","1","541","","","","","","","0","0","1","","0.06954729647","0.6","0.8","0.4","0.2","0.06954729647","0.1502987652","0.1362652721","0.3485663762","","","","","","","","","","","","72","H","0","img/none_selected.jpg","","144","main_expt"
"","bandit","224","2054307","0.0-185.0-0.0","36774644","wem/bandit_either_2","A2W8ZV9DQWVHJK","either","1","1455","","","","","","","0","0","1","0.062760129","","0.6","0.8","0.4","0.2","","","","","0.062760129","0.1050568962","0.1335650053","0.3534190037","","","","","","","","72","H","0","img/none_selected.jpg","","145","main_expt"
"","bandit","225","2056247","0.0-186.0-0.0","36774644","wem/bandit_either_2","A2W8ZV9DQWVHJK","either","1","417","","","","","","","0","1","0","","0.342282706","0.6","0.8","0.4","0.2","0.05014677947","0.1266784727","0.1392461982","0.342282706","","","","","","","","","","","","76","L","3","","","146","main_expt"
"","bandit","226","2058005","0.0-187.0-0.0","36774644","wem/bandit_either_2","A2W8ZV9DQWVHJK","either","1","247","","","","","","","0","0","1","","0.1060810453","0.6","0.8","0.4","0.2","0.04801868921","0.1121887101","0.1060810453","0.3497384939","","","","","","","","","","","","75","K","2","","","147","main_expt"
"","bandit","227","2059909","0.0-188.0-0.0","36774644","wem/bandit_either_2","A2W8ZV9DQWVHJK","either","1","391","","","","","","","0","0","1","","0.05298179562","0.6","0.8","0.4","0.2","0.05298179562","0.1050077765","0.1076054289","0.3507348305","","","","","","","","","","","","72","H","0","img/none_selected.jpg","","148","main_expt"
"","bandit","228","2070284","0.0-189.0-0.0","36774644","wem/bandit_either_2","A2W8ZV9DQWVHJK","either","1","8331","","","","","","","0","0","1","","0.05271587927","0.6","0.8","0.4","0.2","0.05271587927","0.08725679698","0.09143227578","0.306786392","","","","","","","","","","","","72","H","0","img/none_selected.jpg","","149","main_expt"
"","bandit","229","2075165","0.0-190.0-0.0","36774644","wem/bandit_either_2","A2W8ZV9DQWVHJK","either","1","3353","","","","","","","0","0","1","0.06153260368","","0.6","0.8","0.4","0.2","","","","","0.06153260368","0.04813781364","0.08361181256","0.3289077467","","","","","","","","72","H","0","img/none_selected.jpg","","150","main_expt"
"","bandit","230","2078944","0.0-191.0-0.0","36774644","wem/bandit_either_2","A2W8ZV9DQWVHJK","either","1","2263","","","","","","","0","0","1","0.2844912386","","0.6","0.8","0.4","0.2","","","","","0.07716317934","0.04690393958","0.1038450747","0.2844912386","","","","","","","","76","L","3","","","151","main_expt"
"","bandit","231","2080867","0.0-192.0-0.0","36774644","wem/bandit_either_2","A2W8ZV9DQWVHJK","either","1","415","","","","","","","0","0","1","","0.3221551402","0.6","0.8","0.4","0.2","0.08370894892","0.05051779207","0.1311897928","0.3221551402","","","","","","","","","","","","76","L","3","","","152","main_expt"
"","bandit","232","2082885","0.0-193.0-0.0","36774644","wem/bandit_either_2","A2W8ZV9DQWVHJK","either","1","504","","","","","","","0","0","1","","0.06235129306","0.6","0.8","0.4","0.2","0.06235129306","0.0417019452","0.1106636196","0.288581716","","","","","","","","","","","","72","H","0","img/none_selected.jpg","","153","main_expt"
"","bandit","233","2085053","0.0-194.0-0.0","36774644","wem/bandit_either_2","A2W8ZV9DQWVHJK","either","1","654","","","","","","","0","0","1","0.08808261531","","0.6","0.8","0.4","0.2","","","","","0.08808261531","0.04565059468","0.08044616817","0.3674714493","","","","","","","","72","H","0","img/none_selected.jpg","","154","main_expt"
"","bandit","234","2086788","0.0-195.0-0.0","36774644","wem/bandit_either_2","A2W8ZV9DQWVHJK","either","1","223","","","","","","","0","0","1","0.09849608375","","0.6","0.8","0.4","0.2","","","","","0.08415746701","0.0249337719","0.09849608375","0.3836765626","","","","","","","","75","K","2","","","155","main_expt"
"","bandit","235","2088962","0.0-196.0-0.0","36774644","wem/bandit_either_2","A2W8ZV9DQWVHJK","either","1","664","","","","","","","0","0","1","0.0207568711","","0.6","0.8","0.4","0.2","","","","","0.1363215429","0.0207568711","0.0679626842","0.3499766022","","","","","","","","74","J","1","","","156","main_expt"
"","bandit","236","2090926","0.0-197.0-0.0","36774644","wem/bandit_either_2","A2W8ZV9DQWVHJK","either","1","450","","","","","","","0","0","1","0.01044871803","","0.6","0.8","0.4","0.2","","","","","0.176329139","0.01044871803","0.06316877849","0.3083455354","","","","","","","","74","J","1","","","157","main_expt"
"","bandit","237","2093357","0.0-198.0-0.0","36774644","wem/bandit_either_2","A2W8ZV9DQWVHJK","either","1","920","","","","","","","0","0","1","0.008486032171","","0.6","0.8","0.4","0.2","","","","","0.2239815039","0.008486032171","0.06381796224","0.2780985587","","","","","","","","74","J","1","","","158","main_expt"
"","bandit","238","2095316","0.0-199.0-0.0","36774644","wem/bandit_either_2","A2W8ZV9DQWVHJK","either","1","447","","","","","","","0","0","1","0.1754735631","","0.6","0.8","0.4","0.2","","","","","0.1754735631","0.006770001311","0.09986374221","0.2721424699","","","","","","","","72","H","0","img/none_selected.jpg","","159","main_expt"
"","bandit","239","2096962","0.0-200.0-0.0","36774644","wem/bandit_either_2","A2W8ZV9DQWVHJK","either","1","129","","","","","","","0","0","1","","0.3005636977","0.6","0.8","0.4","0.2","0.1820859676","0.005009972043","0.08334790929","0.3005636977","","","","","","","","","","","","76","L","3","","","160","main_expt"
"","bandit","240","2098770","0.0-201.0-0.0","36774644","wem/bandit_either_2","A2W8ZV9DQWVHJK","either","1","290","","","","","","","0","0","1","","0.003825417776","0.6","0.8","0.4","0.2","0.1771527669","0.003825417776","0.1094566723","0.2481613967","","","","","","","","","","","","74","J","1","","","161","main_expt"
"","bandit","241","2101283","0.0-202.0-0.0","36774644","wem/bandit_either_2","A2W8ZV9DQWVHJK","either","1","338","","","","","","","0","1","0","","0.1287108975","0.6","0.8","0.4","0.2","0.209245514","0.006458278423","0.1287108975","0.2040880477","","","","","","","","","","","","75","K","2","","","162","main_expt"
"","bandit","242","2103139","0.0-203.0-0.0","36774644","wem/bandit_either_2","A2W8ZV9DQWVHJK","either","1","343","","","","","","","0","0","1","0.1811808859","","0.6","0.8","0.4","0.2","","","","","0.1864252411","0.01344146107","0.1811808859","0.256608811","","","","","","","","75","K","2","","","163","main_expt"
"","bandit","243","2105348","0.0-204.0-0.0","36774644","wem/bandit_either_2","A2W8ZV9DQWVHJK","either","1","695","","","","","","","0","1","0","","0.2798468236","0.6","0.8","0.4","0.2","0.1662237337","0.004940614731","0.1374611454","0.2798468236","","","","","","","","","","","","76","L","3","","","164","main_expt"
"","bandit","244","2110883","0.0-205.0-0.0","36774644","wem/bandit_either_2","A2W8ZV9DQWVHJK","either","1","4008","","","","","","","1","0","0","0.1375661656","","0.6","0.8","0.4","0.2","","","","","0.1375661656","0.007349038951","0.1640313333","0.2689568899","","","","","","","","72","H","0","img/none_selected.jpg","","165","main_expt"
"","bandit","245","2112717","0.0-206.0-0.0","36774644","wem/bandit_either_2","A2W8ZV9DQWVHJK","either","1","323","","","","","","","0","0","1","0.1416727521","","0.6","0.8","0.4","0.2","","","","","0.1416727521","0.005679103294","0.20052236","0.2786045926","","","","","","","","72","H","0","img/none_selected.jpg","","166","main_expt"
"","bandit","246","2114487","0.0-207.0-0.0","36774644","wem/bandit_either_2","A2W8ZV9DQWVHJK","either","1","255","","","","","","","0","1","0","","0.1497541138","0.6","0.8","0.4","0.2","0.1497541138","0.004037182679","0.1945206589","0.2507583434","","","","","","","","","","","","72","H","0","img/none_selected.jpg","","167","main_expt"
"","bandit","247","2116644","0.0-208.0-0.0","36774644","wem/bandit_either_2","A2W8ZV9DQWVHJK","either","1","645","","","","","","","0","0","1","0.007111326723","","0.6","0.8","0.4","0.2","","","","","0.1761460581","0.007111326723","0.1902154162","0.1827624484","","","","","","","","74","J","1","","","168","main_expt"
"","bandit","248","2118572","0.0-209.0-0.0","36774644","wem/bandit_either_2","A2W8ZV9DQWVHJK","either","1","416","","","","","","","0","0","1","0.1931964682","","0.6","0.8","0.4","0.2","","","","","0.2248215173","0.01708305062","0.1931964682","0.1558723634","","","","","","","","75","K","2","","","169","main_expt"
"","bandit","249","2121283","0.0-210.0-0.0","36774644","wem/bandit_either_2","A2W8ZV9DQWVHJK","either","1","760","","","","","","","0","0","1","","0.1757164868","0.6","0.8","0.4","0.2","0.2503105048","0.02105388628","0.236179436","0.1757164868","","","","","","","","","","","","76","L","3","","","170","main_expt"
"","bandit","250","2125866","0.0-211.0-0.0","36774644","wem/bandit_either_2","A2W8ZV9DQWVHJK","either","1","3059","","","","","","","0","0","1","","0.1985597056","0.6","0.8","0.4","0.2","0.2515708499","0.01477187034","0.2229285478","0.1985597056","","","","","","","","","","","","76","L","3","","","171","main_expt"
"","bandit","251","2127859","0.0-212.0-0.0","36774644","wem/bandit_either_2","A2W8ZV9DQWVHJK","either","1","483","","","","","","","0","0","1","0.00639283578","","0.6","0.8","0.4","0.2","","","","","0.2601117771","0.00639283578","0.1805811295","0.1725269859","","","","","","","","74","J","1","","","172","main_expt"
"","bandit","252","2129963","0.0-213.0-0.0","36774644","wem/bandit_either_2","A2W8ZV9DQWVHJK","either","1","589","","","","","","","0","0","1","","0.2203049146","0.6","0.8","0.4","0.2","0.2277859889","0.008503536177","0.2203049146","0.1955807132","","","","","","","","","","","","75","K","2","","","173","main_expt"
"","bandit","253","2131992","0.0-214.0-0.0","36774644","wem/bandit_either_2","A2W8ZV9DQWVHJK","either","1","507","","","","","","","0","0","1","0.204090619","","0.6","0.8","0.4","0.2","","","","","0.204090619","0.01512836446","0.2079245196","0.1712969398","","","","","","","","72","H","0","img/none_selected.jpg","","174","main_expt"
"","bandit","254","2133997","0.0-215.0-0.0","36774644","wem/bandit_either_2","A2W8ZV9DQWVHJK","either","1","491","","","","","","","0","0","1","","0.2145566876","0.6","0.8","0.4","0.2","0.2264282848","0.034550241","0.1904909119","0.2145566876","","","","","","","","","","","","76","L","3","","","175","main_expt"
"","bandit","255","2136069","0.0-216.0-0.0","36774644","wem/bandit_either_2","A2W8ZV9DQWVHJK","either","1","551","","","","","","","0","0","1","0.01969997198","","0.6","0.8","0.4","0.2","","","","","0.2263436383","0.01969997198","0.1611975006","0.1987050603","","","","","","","","74","J","1","","","176","main_expt"
"","bandit","256","2138045","0.0-217.0-0.0","36774644","wem/bandit_either_2","A2W8ZV9DQWVHJK","either","1","459","","","","","","","0","0","1","0.1747210449","","0.6","0.8","0.4","0.2","","","","","0.2449632337","0.02558747067","0.1747210449","0.2161967517","","","","","","","","75","K","2","","","177","main_expt"
"","bandit","257","2139893","0.0-218.0-0.0","36774644","wem/bandit_either_2","A2W8ZV9DQWVHJK","either","1","335","","","","","","","1","0","0","0.1923885174","","0.6","0.8","0.4","0.2","","","","","0.1923885174","0.02865462312","0.1667690144","0.1790488899","","","","","","","","72","H","0","img/none_selected.jpg","","178","main_expt"
"","bandit","258","2141763","0.0-219.0-0.0","36774644","wem/bandit_either_2","A2W8ZV9DQWVHJK","either","1","358","","","","","","","0","0","1","","0.1791230597","0.6","0.8","0.4","0.2","0.1791230597","0.05873937836","0.248539666","0.1254539317","","","","","","","","","","","","72","H","0","img/none_selected.jpg","","179","main_expt"
"","bandit","259","2143745","0.0-220.0-0.0","36774644","wem/bandit_either_2","A2W8ZV9DQWVHJK","either","1","466","","","","","","","0","0","1","0.1641305094","","0.6","0.8","0.4","0.2","","","","","0.1641305094","0.04996702027","0.2393284063","0.1761702366","","","","","","","","72","H","0","img/none_selected.jpg","","180","main_expt"
"","bandit","260","2145889","0.0-221.0-0.0","36774644","wem/bandit_either_2","A2W8ZV9DQWVHJK","either","1","619","","","","","","","0","0","1","0.06192223509","","0.6","0.8","0.4","0.2","","","","","0.1567194189","0.06192223509","0.2450765022","0.2307221343","","","","","","","","74","J","1","","","181","main_expt"
"","bandit","261","2148046","0.0-222.0-0.0","36774644","wem/bandit_either_2","A2W8ZV9DQWVHJK","either","1","643","","","","","","","0","0","1","","0.1656926355","0.6","0.8","0.4","0.2","0.1805899487","0.07865608963","0.2898963007","0.1656926355","","","","","","","","","","","","76","L","3","","","182","main_expt"
"","bandit","262","2150268","0.0-223.0-0.0","36774644","wem/bandit_either_2","A2W8ZV9DQWVHJK","either","1","709","","","","","","","0","0","1","","0.337419987","0.6","0.8","0.4","0.2","0.1381226487","0.0695036973","0.337419987","0.1997223474","","","","","","","","","","","","75","K","2","","","183","main_expt"
"","bandit","263","2152237","0.0-224.0-0.0","36774644","wem/bandit_either_2","A2W8ZV9DQWVHJK","either","1","453","","","","","","","0","0","1","0.09883674892","","0.6","0.8","0.4","0.2","","","","","0.1157029232","0.09883674892","0.3334404967","0.1936006223","","","","","","","","74","J","1","","","184","main_expt"
"","bandit","264","2154535","0.0-225.0-0.0","36774644","wem/bandit_either_2","A2W8ZV9DQWVHJK","either","1","782","","","","","","","0","0","1","","0.09007466759","0.6","0.8","0.4","0.2","0.09007466759","0.1344132801","0.3049781316","0.1794548994","","","","","","","","","","","","72","H","0","img/none_selected.jpg","","185","main_expt"
"","bandit","265","2156956","0.0-226.0-0.0","36774644","wem/bandit_either_2","A2W8ZV9DQWVHJK","either","1","907","","","","","","","0","0","1","0.322039184","","0.6","0.8","0.4","0.2","","","","","0.07784091677","0.1194183803","0.322039184","0.1679588243","","","","","","","","75","K","2","","","186","main_expt"
"","bandit","266","2158861","0.0-227.0-0.0","36774644","wem/bandit_either_2","A2W8ZV9DQWVHJK","either","1","360","","","","","","","0","0","1","0.1456002269","","0.6","0.8","0.4","0.2","","","","","0.1332261693","0.1456002269","0.2898485093","0.1692259204","","","","","","","","74","J","1","","","187","main_expt"
"","bandit","267","2160717","0.0-228.0-0.0","36774644","wem/bandit_either_2","A2W8ZV9DQWVHJK","either","1","335","","","","","","","0","0","1","0.1008589119","","0.6","0.8","0.4","0.2","","","","","0.1302169342","0.1008589119","0.3046836684","0.1796926114","","","","","","","","74","J","1","","","188","main_expt"
"","bandit","268","2163379","0.0-229.0-0.0","36774644","wem/bandit_either_2","A2W8ZV9DQWVHJK","either","1","1151","","","","","","","0","0","1","0.1463090895","","0.6","0.8","0.4","0.2","","","","","0.1459867673","0.09109327247","0.3437642557","0.1463090895","","","","","","","","76","L","3","","","189","main_expt"
"","bandit","269","2165415","0.0-230.0-0.0","36774644","wem/bandit_either_2","A2W8ZV9DQWVHJK","either","1","514","","","","","","","1","0","0","0.1930387326","","0.6","0.8","0.4","0.2","","","","","0.1930387326","0.133333279","0.3685715368","0.1670442817","","","","","","","","72","H","0","img/none_selected.jpg","","190","main_expt"
"","bandit","270","2167273","0.0-231.0-0.0","36774644","wem/bandit_either_2","A2W8ZV9DQWVHJK","either","1","339","","","","","","","0","0","1","","0.1447045196","0.6","0.8","0.4","0.2","0.1447045196","0.1253338948","0.4063368095","0.2148667481","","","","","","","","","","","","72","H","0","img/none_selected.jpg","","191","main_expt"
"","bandit","271","2169177","0.0-232.0-0.0","36774644","wem/bandit_either_2","A2W8ZV9DQWVHJK","either","1","376","","","","","","","0","0","1","","0.1521301445","0.6","0.8","0.4","0.2","0.1521301445","0.1371372983","0.4194789623","0.1891029698","","","","","","","","","","","","72","H","0","img/none_selected.jpg","","192","main_expt"
"","bandit","272","2171019","0.0-233.0-0.0","36774644","wem/bandit_either_2","A2W8ZV9DQWVHJK","either","1","322","","","","","","","0","0","1","0.1216552598","","0.6","0.8","0.4","0.2","","","","","0.1216552598","0.1269519223","0.3914453041","0.1818436489","","","","","","","","72","H","0","img/none_selected.jpg","","193","main_expt"
"","bandit","273","2172827","0.0-234.0-0.0","36774644","wem/bandit_either_2","A2W8ZV9DQWVHJK","either","1","281","","","","","","","0","0","1","0.07681554104","","0.6","0.8","0.4","0.2","","","","","0.07681554104","0.1253972088","0.3988429791","0.2036833838","","","","","","","","72","H","0","img/none_selected.jpg","","194","main_expt"
"","bandit","274","2174655","0.0-235.0-0.0","36774644","wem/bandit_either_2","A2W8ZV9DQWVHJK","either","1","303","","","","","","","0","0","1","0.1231557279","","0.6","0.8","0.4","0.2","","","","","0.07468822185","0.1231557279","0.4212514022","0.2189502041","","","","","","","","74","J","1","","","195","main_expt"
"","bandit","275","2176557","0.0-236.0-0.0","36774644","wem/bandit_either_2","A2W8ZV9DQWVHJK","either","1","389","","","","","","","0","0","1","0.2011136523","","0.6","0.8","0.4","0.2","","","","","0.07634526252","0.2304226507","0.4128950903","0.2011136523","","","","","","","","76","L","3","","","196","main_expt"
"","bandit","276","2178502","0.0-237.0-0.0","36774644","wem/bandit_either_2","A2W8ZV9DQWVHJK","either","1","422","","","","","","","0","0","1","","0.3979973083","0.6","0.8","0.4","0.2","0.06680697181","0.3102822931","0.3979973083","0.2295646827","","","","","","","","","","","","75","K","2","","","197","main_expt"
"","bandit","277","2180413","0.0-238.0-0.0","36774644","wem/bandit_either_2","A2W8ZV9DQWVHJK","either","1","398","","","","","","","1","0","0","0.3222054514","","0.6","0.8","0.4","0.2","","","","","0.05107679344","0.3222054514","0.3153467244","0.2570874699","","","","","","","","74","J","1","","","198","main_expt"
"","bandit","278","2182226","0.0-239.0-0.0","36774644","wem/bandit_either_2","A2W8ZV9DQWVHJK","either","1","294","","","","","","","1","0","0","0.3416159467","","0.6","0.8","0.4","0.2","","","","","0.06140804873","0.3416159467","0.3121882746","0.2215013189","","","","","","","","74","J","1","","","199","main_expt"
"","bandit","279","2184011","0.0-240.0-0.0","36774644","wem/bandit_either_2","A2W8ZV9DQWVHJK","either","1","274","","","","","","","0","0","1","0.3826655938","","0.6","0.8","0.4","0.2","","","","","0.05697288244","0.3826655938","0.3789620948","0.1681318695","","","","","","","","74","J","1","","","200","main_expt"
"","bandit","280","2185842","0.0-241.0-0.0","36774644","wem/bandit_either_2","A2W8ZV9DQWVHJK","either","1","304","","","","","","","0","0","1","0.04802221103","","0.6","0.8","0.4","0.2","","","","","0.04802221103","0.4117435103","0.3575696279","0.1787039029","","","","","","","","72","H","0","img/none_selected.jpg","","201","main_expt"
"","bandit","281","2187744","0.0-242.0-0.0","36774644","wem/bandit_either_2","A2W8ZV9DQWVHJK","either","1","387","","","","","","","0","1","0","","0.3937046418","0.6","0.8","0.4","0.2","0.04583536071","0.4023622846","0.3937046418","0.2180442152","","","","","","","","","","","","75","K","2","","","202","main_expt"
"","bandit","282","2189690","0.0-243.0-0.0","36774644","wem/bandit_either_2","A2W8ZV9DQWVHJK","either","1","427","","","","","","","0","0","1","","0.262784421","0.6","0.8","0.4","0.2","0.03655969434","0.4225273878","0.3901943722","0.262784421","","","","","","","","","","","","76","L","3","","","203","main_expt"
"","bandit","283","2191347","0.0-244.0-0.0","36774644","wem/bandit_either_2","A2W8ZV9DQWVHJK","either","1","144","","","","","","","0","0","1","","0.2843732649","0.6","0.8","0.4","0.2","0.05773518339","0.4151046429","0.4099131859","0.2843732649","","","","","","","","","","","","76","L","3","","","204","main_expt"
"","bandit","284","2193395","0.0-245.0-0.0","36774644","wem/bandit_either_2","A2W8ZV9DQWVHJK","either","1","536","","","","","","","0","0","1","0.4288165897","","0.6","0.8","0.4","0.2","","","","","0.06616346658","0.4288165897","0.4238238901","0.2549063301","","","","","","","","74","J","1","","","205","main_expt"
"","bandit","285","2195493","0.0-246.0-0.0","36774644","wem/bandit_either_2","A2W8ZV9DQWVHJK","either","1","585","","","","","","","0","0","1","","0.09055598832","0.6","0.8","0.4","0.2","0.09055598832","0.436745712","0.4139837541","0.2982701688","","","","","","","","","","","","72","H","0","img/none_selected.jpg","","206","main_expt"
"","bandit","286","2197189","0.0-247.0-0.0","36774644","wem/bandit_either_2","A2W8ZV9DQWVHJK","either","1","174","","","","","","","0","0","1","","0.3423773839","0.6","0.8","0.4","0.2","0.07583085731","0.4484652972","0.3544894801","0.3423773839","","","","","","","","","","","","76","L","3","","","207","main_expt"
"","bandit","287","2199165","0.0-248.0-0.0","36774644","wem/bandit_either_2","A2W8ZV9DQWVHJK","either","1","463","","","","","","","0","0","1","0.4516947584","","0.6","0.8","0.4","0.2","","","","","0.09768014643","0.4516947584","0.3703609936","0.3321535101","","","","","","","","74","J","1","","","208","main_expt"
"","bandit","288","2201878","0.0-249.0-0.0","36774644","wem/bandit_either_2","A2W8ZV9DQWVHJK","either","1","1196","","","","","","","0","0","1","","0.08389795445","0.6","0.8","0.4","0.2","0.08389795445","0.4590139285","0.3590511704","0.3467721984","","","","","","","","","","","","72","H","0","img/none_selected.jpg","","209","main_expt"
"","bandit","289","2204143","0.0-250.0-0.0","36774644","wem/bandit_either_2","A2W8ZV9DQWVHJK","either","1","749","","","","","","","0","0","1","0.3781523972","","0.6","0.8","0.4","0.2","","","","","0.07846525543","0.4378910613","0.3781523972","0.3513447539","","","","","","","","75","K","2","","","210","main_expt"
"","bandit","290","2206124","0.0-251.0-0.0","36774644","wem/bandit_either_2","A2W8ZV9DQWVHJK","either","1","466","","","","","","","1","0","0","0.4139384991","","0.6","0.8","0.4","0.2","","","","","0.05906932722","0.4139384991","0.3895188655","0.4003692624","","","","","","","","74","J","1","","","211","main_expt"
"","bandit","291","2208875","0.0-252.0-0.0","36774644","wem/bandit_either_2","A2W8ZV9DQWVHJK","either","1","1215","","","","","","","0","0","1","0.3659234609","","0.6","0.8","0.4","0.2","","","","","0.04754192311","0.3659234609","0.4075098947","0.3949660502","","","","","","","","74","J","1","","","212","main_expt"
"","bandit","292","2210772","0.0-253.0-0.0","36774644","wem/bandit_either_2","A2W8ZV9DQWVHJK","either","1","385","","","","","","","0","0","1","0.4191075236","","0.6","0.8","0.4","0.2","","","","","0.05481920189","0.3180572988","0.4191075236","0.4233479157","","","","","","","","75","K","2","","","213","main_expt"
"","bandit","293","2212791","0.0-254.0-0.0","36774644","wem/bandit_either_2","A2W8ZV9DQWVHJK","either","1","494","","","","","","","0","0","1","0.3799529118","","0.6","0.8","0.4","0.2","","","","","0.07954578011","0.2611162072","0.3799529118","0.4182751871","","","","","","","","75","K","2","","","214","main_expt"
"","bandit","294","2214499","0.0-255.0-0.0","36774644","wem/bandit_either_2","A2W8ZV9DQWVHJK","either","1","194","","","","","","","0","0","1","0.2331309726","","0.6","0.8","0.4","0.2","","","","","0.1078137614","0.2331309726","0.3924699069","0.3745823719","","","","","","","","74","J","1","","","215","main_expt"
"","bandit","295","2218573","0.0-256.0-0.0","36774644","wem/bandit_either_2","A2W8ZV9DQWVHJK","either","1","2550","","","","","","","0","0","1","0.1269525553","","0.6","0.8","0.4","0.2","","","","","0.1269525553","0.2428402293","0.3556657658","0.3809837923","","","","","","","","72","H","0","img/none_selected.jpg","","216","main_expt"
"","bandit","296","2220587","0.0-257.0-0.0","36774644","wem/bandit_either_2","A2W8ZV9DQWVHJK","either","1","502","","","","","","","1","0","0","0.1849794572","","0.6","0.8","0.4","0.2","","","","","0.1849794572","0.2317762644","0.3870416945","0.4144294186","","","","","","","","72","H","0","img/none_selected.jpg","","217","main_expt"
"","bandit","297","2223270","0.0-258.0-0.0","36774644","wem/bandit_either_2","A2W8ZV9DQWVHJK","either","1","1162","","","","","","","0","0","1","0.1903787706","","0.6","0.8","0.4","0.2","","","","","0.1903787706","0.204309912","0.3944581396","0.4090742927","","","","","","","","72","H","0","img/none_selected.jpg","","218","main_expt"
"","bandit","298","2227023","0.0-259.0-0.0","36774644","wem/bandit_either_2","A2W8ZV9DQWVHJK","either","1","2228","","","","","","","0","0","1","0.1768508397","","0.6","0.8","0.4","0.2","","","","","0.1768508397","0.1685596251","0.4256173987","0.3869695378","","","","","","","","72","H","0","img/none_selected.jpg","","219","main_expt"
"","bandit","299","2228960","0.0-260.0-0.0","36774644","wem/bandit_either_2","A2W8ZV9DQWVHJK","either","1","420","","","","","","","0","0","1","0.2488487331","","0.6","0.8","0.4","0.2","","","","","0.2176561852","0.2488487331","0.4240862242","0.3814250035","","","","","","","","74","J","1","","","220","main_expt"
"","bandit","300","2231192","0.0-261.0-0.0","36774644","wem/bandit_either_2","A2W8ZV9DQWVHJK","either","1","707","","","","","","","0","0","1","0.2789816034","","0.6","0.8","0.4","0.2","","","","","0.2075488201","0.2789816034","0.4364702466","0.3560431311","","","","","","","","74","J","1","","","221","main_expt"
"","bandit","301","2233494","0.0-262.0-0.0","36774644","wem/bandit_either_2","A2W8ZV9DQWVHJK","either","1","786","","","","","","","1","0","0","0.4512924842","","0.6","0.8","0.4","0.2","","","","","0.2260831429","0.242729834","0.4512924842","0.3424215647","","","","","","","","75","K","2","","","222","main_expt"
"","bandit","302","2235605","0.0-263.0-0.0","36774644","wem/bandit_either_2","A2W8ZV9DQWVHJK","either","1","598","","","","","","","0","0","1","","0.4649948574","0.6","0.8","0.4","0.2","0.2512075751","0.196538567","0.4649948574","0.3118962833","","","","","","","","","","","","75","K","2","","","223","main_expt"
"","bandit","303","2237649","0.0-264.0-0.0","36774644","wem/bandit_either_2","A2W8ZV9DQWVHJK","either","1","526","","","","","","","0","1","0","","0.4692106987","0.6","0.8","0.4","0.2","0.3072691987","0.2189223785","0.4692106987","0.261290028","","","","","","","","","","","","75","K","2","","","224","main_expt"
"","bandit","304","2239732","0.0-265.0-0.0","36774644","wem/bandit_either_2","A2W8ZV9DQWVHJK","either","1","567","","","","","","","0","1","0","","0.2131207899","0.6","0.8","0.4","0.2","0.3358063032","0.2131207899","0.4772226815","0.2748104332","","","","","","","","","","","","74","J","1","","","225","main_expt"
"","bandit","305","2241779","0.0-266.0-0.0","36774644","wem/bandit_either_2","A2W8ZV9DQWVHJK","either","1","526","","","","","","","1","0","0","0.2994610032","","0.6","0.8","0.4","0.2","","","","","0.2994610032","0.187439681","0.4828013869","0.2112523614","","","","","","","","72","H","0","img/none_selected.jpg","","226","main_expt"
"","bandit","306","2244674","0.0-267.0-0.0","36774644","wem/bandit_either_2","A2W8ZV9DQWVHJK","either","1","1376","","","","","","","0","0","1","0.2719992041","","0.6","0.8","0.4","0.2","","","","","0.2719992041","0.1522087394","0.4805292857","0.1879164098","","","","","","","","72","H","0","img/none_selected.jpg","","227","main_expt"
"","bandit","307","2246875","0.0-268.0-0.0","36774644","wem/bandit_either_2","A2W8ZV9DQWVHJK","either","1","688","","","","","","","1","0","0","0.4770879938","","0.6","0.8","0.4","0.2","","","","","0.2601066631","0.1975586059","0.4770879938","0.1857646906","","","","","","","","75","K","2","","","228","main_expt"
"","bandit","308","2248890","0.0-269.0-0.0","36774644","wem/bandit_either_2","A2W8ZV9DQWVHJK","either","1","495","","","","","","","0","1","0","","0.4830225504","0.6","0.8","0.4","0.2","0.2333982712","0.2280604414","0.4830225504","0.1608888173","","","","","","","","","","","","75","K","2","","","229","main_expt"
"","bandit","309","2251099","0.0-270.0-0.0","36774644","wem/bandit_either_2","A2W8ZV9DQWVHJK","either","1","696","","","","","","","0","0","1","0.2120359748","","0.6","0.8","0.4","0.2","","","","","0.2179366985","0.2120359748","0.4827210916","0.1139945837","","","","","","","","74","J","1","","","230","main_expt"
"","bandit","310","2253469","0.0-271.0-0.0","36774644","wem/bandit_either_2","A2W8ZV9DQWVHJK","either","1","854","","","","","","","0","0","1","0.210335649","","0.6","0.8","0.4","0.2","","","","","0.210335649","0.2260377558","0.4764813513","0.1071229599","","","","","","","","72","H","0","img/none_selected.jpg","","231","main_expt"
"","bandit","311","2256089","0.0-272.0-0.0","36774644","wem/bandit_either_2","A2W8ZV9DQWVHJK","either","1","1093","","","","","","","1","0","0","0.2810037348","","0.6","0.8","0.4","0.2","","","","","0.2154905401","0.2810037348","0.4794978353","0.1250262501","","","","","","","","74","J","1","","","232","main_expt"
"","bandit","312","2258099","0.0-273.0-0.0","36774644","wem/bandit_either_2","A2W8ZV9DQWVHJK","either","1","497","","","","","","","0","0","1","0.3371590923","","0.6","0.8","0.4","0.2","","","","","0.2199054097","0.3371590923","0.4717583679","0.1262657767","","","","","","","","74","J","1","","","233","main_expt"
"","bandit","313","2260283","0.0-274.0-0.0","36774644","wem/bandit_either_2","A2W8ZV9DQWVHJK","either","1","598","","","","","","","0","0","1","0.2614597929","","0.6","0.8","0.4","0.2","","","","","0.2116885818","0.2614597929","0.4801470087","0.1436583916","","","","","","","","74","J","1","","","234","main_expt"
"","bandit","314","2263316","0.0-275.0-0.0","36774644","wem/bandit_either_2","A2W8ZV9DQWVHJK","either","1","1509","","","","","","","0","0","1","0.2855471023","","0.6","0.8","0.4","0.2","","","","","0.2037112673","0.2855471023","0.4698449305","0.1776605917","","","","","","","","74","J","1","","","235","main_expt"
"","bandit","315","2265324","0.0-276.0-0.0","36774644","wem/bandit_either_2","A2W8ZV9DQWVHJK","either","1","492","","","","","","","1","0","0","0.2039581082","","0.6","0.8","0.4","0.2","","","","","0.2295670059","0.2806831757","0.4750890902","0.2039581082","","","","","","","","76","L","3","","","236","main_expt"
"","bandit","316","2267206","0.0-277.0-0.0","36774644","wem/bandit_either_2","A2W8ZV9DQWVHJK","either","1","365","","","","","","","0","0","1","","0.490873849","0.6","0.8","0.4","0.2","0.2602584061","0.3314479917","0.490873849","0.1898025468","","","","","","","","","","","","75","K","2","","","237","main_expt"
"","bandit","317","2269288","0.0-278.0-0.0","36774644","wem/bandit_either_2","A2W8ZV9DQWVHJK","either","1","53","","","","","","","0","0","1","0.20274426","","0.6","0.8","0.4","0.2","","","","","0.2505035884","0.3495093658","0.4658125052","0.20274426","","","","","","","","76","L","3","","","238","main_expt"
"","bandit","318","2273658","0.0-279.0-0.0","36774644","wem/bandit_either_2","A2W8ZV9DQWVHJK","either","1","2848","","","","","","","0","0","1","","0.2051086292","0.6","0.8","0.4","0.2","0.209031891","0.3413466471","0.4717810478","0.2051086292","","","","","","","","","","","","76","L","3","","","239","main_expt"
"","bandit","319","2275716","0.0-280.0-0.0","36774644","wem/bandit_either_2","A2W8ZV9DQWVHJK","either","1","545","","","","","","","0","0","1","0.4751676635","","0.6","0.8","0.4","0.2","","","","","0.2203826704","0.3848911707","0.4751676635","0.1823871945","","","","","","","","75","K","2","","","240","main_expt"
"","bandit","320","2278456","0.0-281.0-0.0","36774644","wem/bandit_either_2","A2W8ZV9DQWVHJK","either","1","1218","","","","","","","0","0","1","0.2502218434","","0.6","0.8","0.4","0.2","","","","","0.2502218434","0.3352713547","0.4782176083","0.2206124516","","","","","","","","72","H","0","img/none_selected.jpg","","241","main_expt"
"","bandit","321","2281317","0.0-282.0-0.0","36774644","wem/bandit_either_2","A2W8ZV9DQWVHJK","either","1","1337","","","","","","","0","1","0","","0.3898112853","0.6","0.8","0.4","0.2","0.2465850657","0.3898112853","0.4842593171","0.1822231347","","","","","","","","","","","","74","J","1","","","242","main_expt"
"","bandit","322","2283610","0.0-283.0-0.0","36774644","wem/bandit_either_2","A2W8ZV9DQWVHJK","either","1","779","","","","","","","0","0","1","","0.4877308522","0.6","0.8","0.4","0.2","0.2768687636","0.3746092993","0.4877308522","0.1782216913","","","","","","","","","","","","75","K","2","","","243","main_expt"
"","bandit","323","2285227","0.0-284.0-0.0","36774644","wem/bandit_either_2","A2W8ZV9DQWVHJK","either","1","101","","","","","","","0","0","1","0.3551642001","","0.6","0.8","0.4","0.2","","","","","0.3318130554","0.3551642001","0.4867000748","0.1683297066","","","","","","","","74","J","1","","","244","main_expt"
"","bandit","324","2287531","0.0-285.0-0.0","36774644","wem/bandit_either_2","A2W8ZV9DQWVHJK","either","1","781","","","","","","","0","0","1","","0.2394915997","0.6","0.8","0.4","0.2","0.3549389872","0.3556023966","0.4779689664","0.2394915997","","","","","","","","","","","","76","L","3","","","245","main_expt"
