"consent","trial_type","trial_index","time_elapsed","internal_node_id","subjID","study","MID","cond","drift","rt","responses","key_press","expt_phase","like","value","connected","gems","bombs","no_reward","GemPrChosen","BombPrChosen","GainOverPainPr_0","GainOverPainPr_1","GainOverPainPr_2","GainOverPainPr_3","LosePr_0","LosePr_1","LosePr_2","LosePr_3","WinPr_0","WinPr_1","WinPr_2","WinPr_3","Q0","Q1","Q2","gender","age","ethnicity","target","respCharCode","respKey","respChoiceNum","respChoice","practice","trial_counter","trial_label"
"INL_behavioral_consent_30min_online.html","consent","0","15605","0.0-0.0","37137883","wem/bandit_either_2","AW0MG225VXWCN","either","8","","","","","","","","","","","","","","","","","","","","","","","","","","","","","","","","","","","","","",""
"","survey-text","1","22306","0.0-1.0","37137883","wem/bandit_either_2","AW0MG225VXWCN","either","8","5695","{""Q0"":""AW0MG225VXWCN""}","","","","","","","","","","","","","","","","","","","","","","","","","","","","","","","","","","","",""
"","text","2","28495","0.0-2.0","37137883","wem/bandit_either_2","AW0MG225VXWCN","either","8","5186","","32","","","","","","","","","","","","","","","","","","","","","","","","","","","","","","","","","","",""
"","text","3","36575","0.0-3.0","37137883","wem/bandit_either_2","AW0MG225VXWCN","either","8","8079","","32","","","","","","","","","","","","","","","","","","","","","","","","","","","","","","","","","","",""
"","text","4","50898","0.0-4.0","37137883","wem/bandit_either_2","AW0MG225VXWCN","either","8","14320","","32","","","","","","","","","","","","","","","","","","","","","","","","","","","","","","","","","","",""
"","text","5","60807","0.0-5.0","37137883","wem/bandit_either_2","AW0MG225VXWCN","either","8","9908","","32","","","","","","","","","","","","","","","","","","","","","","","","","","","","","","","","","","",""
"","text","6","77793","0.0-6.0","37137883","wem/bandit_either_2","AW0MG225VXWCN","either","8","16985","","32","","","","","","","","","","","","","","","","","","","","","","","","","","","","","","","","","","",""
"","text","7","82191","0.0-7.0","37137883","wem/bandit_either_2","AW0MG225VXWCN","either","8","4396","","32","","","","","","","","","","","","","","","","","","","","","","","","","","","","","","","","","","",""
"","text","8","84952","0.0-8.0","37137883","wem/bandit_either_2","AW0MG225VXWCN","either","8","2760","","32","","","","","","","","","","","","","","","","","","","","","","","","","","","","","","","","","","",""
"","identification","9","97319","0.0-9.0-0.0","37137883","wem/bandit_either_2","AW0MG225VXWCN","either","8","12342","","","","0","0","1","","","","","","","","","","","","","","","","","","","","","","","","the village of Zur","","","","","","",""
"","identification","10","105856","0.0-9.0-1.0","37137883","wem/bandit_either_2","AW0MG225VXWCN","either","8","7528","","","","1","0","0","","","","","","","","","","","","","","","","","","","","","","","","the village of Nyx","","","","","","",""
"","text","11","111040","0.0-10.0","37137883","wem/bandit_either_2","AW0MG225VXWCN","either","8","4181","","32","","","","","","","","","","","","","","","","","","","","","","","","","","","","","","","","","","",""
"","text","12","113482","0.0-11.0","37137883","wem/bandit_either_2","AW0MG225VXWCN","either","8","2440","","32","","","","","","","","","","","","","","","","","","","","","","","","","","","","","","","","","","",""
"","text","13","115072","0.0-12.0","37137883","wem/bandit_either_2","AW0MG225VXWCN","either","8","1588","","32","","","","","","","","","","","","","","","","","","","","","","","","","","","","","","","","","","",""
"","text","14","118928","0.0-13.0","37137883","wem/bandit_either_2","AW0MG225VXWCN","either","8","3853","","32","","","","","","","","","","","","","","","","","","","","","","","","","","","","","","","","","","",""
"","bandit","15","124337","0.0-14.0-0.0","37137883","wem/bandit_either_2","AW0MG225VXWCN","either","8","3895","","","","","","","0","0","1","0","0","","","","","0","","","","0","","","","","","","","","","","74","J","0","img/none_selected_demo.jpg","true","0",""
"","bandit","16","127050","0.0-15.0-0.0","37137883","wem/bandit_either_2","AW0MG225VXWCN","either","8","1203","","","","","","","0","0","1","0","0","","","","","0","","","","0","","","","","","","","","","","75","K","0","img/none_selected_demo.jpg","true","0",""
"","text","17","136432","0.0-16.0","37137883","wem/bandit_either_2","AW0MG225VXWCN","either","8","9380","","32","","","","","","","","","","","","","","","","","","","","","","","","","","","","","","","","","","",""
"","text","18","144136","0.0-17.0","37137883","wem/bandit_either_2","AW0MG225VXWCN","either","8","7703","","32","","","","","","","","","","","","","","","","","","","","","","","","","","","","","","","","","","",""
"","text","19","149844","0.0-18.0","37137883","wem/bandit_either_2","AW0MG225VXWCN","either","8","5706","","32","","","","","","","","","","","","","","","","","","","","","","","","","","","","","","","","","","",""
"","text","20","152280","0.0-19.0","37137883","wem/bandit_either_2","AW0MG225VXWCN","either","8","2434","","32","","","","","","","","","","","","","","","","","","","","","","","","","","","","","","","","","","",""
"","bandit","21","154775","0.0-20.0-0.0","37137883","wem/bandit_either_2","AW0MG225VXWCN","either","8","991","","","","","","","0","0","1","","0.8","0.5","0.5","","","0.8","0.2","","","","","","","","","","","","","","74","J","0","img/none_selected_demo.jpg","true","0","80_20_practice"
"","bandit","22","156865","0.0-20.0-1.0","37137883","wem/bandit_either_2","AW0MG225VXWCN","either","8","584","","","","","","","1","0","0","0.8","","0.5","0.5","","","","","","","0.8","0.2","","","","","","","","","","74","J","0","img/none_selected_demo.jpg","true","0","80_20_practice"
"","bandit","23","158871","0.0-20.0-2.0","37137883","wem/bandit_either_2","AW0MG225VXWCN","either","8","497","","","","","","","0","1","0","","0.8","0.5","0.5","","","0.8","0.2","","","","","","","","","","","","","","74","J","0","img/none_selected_demo.jpg","true","0","80_20_practice"
"","bandit","24","160816","0.0-20.0-3.0","37137883","wem/bandit_either_2","AW0MG225VXWCN","either","8","440","","","","","","","0","1","0","","0.8","0.5","0.5","","","0.8","0.2","","","","","","","","","","","","","","74","J","0","img/none_selected_demo.jpg","true","0","80_20_practice"
"","bandit","25","163008","0.0-20.0-4.0","37137883","wem/bandit_either_2","AW0MG225VXWCN","either","8","684","","","","","","","0","0","1","0.2","","0.5","0.5","","","","","","","0.8","0.2","","","","","","","","","","75","K","1","","true","0","80_20_practice"
"","bandit","26","164937","0.0-20.0-5.0","37137883","wem/bandit_either_2","AW0MG225VXWCN","either","8","423","","","","","","","0","0","1","","0.2","0.5","0.5","","","0.8","0.2","","","","","","","","","","","","","","75","K","1","","true","0","80_20_practice"
"","bandit","27","166639","0.0-20.0-6.0","37137883","wem/bandit_either_2","AW0MG225VXWCN","either","8","194","","","","","","","0","1","0","","0.8","0.5","0.5","","","0.8","0.2","","","","","","","","","","","","","","74","J","0","img/none_selected_demo.jpg","true","0","80_20_practice"
"","bandit","28","168455","0.0-20.0-7.0","37137883","wem/bandit_either_2","AW0MG225VXWCN","either","8","310","","","","","","","0","0","1","0.8","","0.5","0.5","","","","","","","0.8","0.2","","","","","","","","","","74","J","0","img/none_selected_demo.jpg","true","0","80_20_practice"
"","bandit","29","170249","0.0-20.0-8.0","37137883","wem/bandit_either_2","AW0MG225VXWCN","either","8","283","","","","","","","0","1","0","","0.8","0.5","0.5","","","0.8","0.2","","","","","","","","","","","","","","74","J","0","img/none_selected_demo.jpg","true","0","80_20_practice"
"","bandit","30","172008","0.0-20.0-9.0","37137883","wem/bandit_either_2","AW0MG225VXWCN","either","8","251","","","","","","","0","1","0","","0.8","0.5","0.5","","","0.8","0.2","","","","","","","","","","","","","","74","J","0","img/none_selected_demo.jpg","true","0","80_20_practice"
"","bandit","31","173743","0.0-20.0-10.0","37137883","wem/bandit_either_2","AW0MG225VXWCN","either","8","227","","","","","","","1","0","0","0.8","","0.5","0.5","","","","","","","0.8","0.2","","","","","","","","","","74","J","0","img/none_selected_demo.jpg","true","0","80_20_practice"
"","bandit","32","175479","0.0-20.0-11.0","37137883","wem/bandit_either_2","AW0MG225VXWCN","either","8","227","","","","","","","1","0","0","0.8","","0.5","0.5","","","","","","","0.8","0.2","","","","","","","","","","74","J","0","img/none_selected_demo.jpg","true","0","80_20_practice"
"","bandit","33","177495","0.0-20.0-12.0","37137883","wem/bandit_either_2","AW0MG225VXWCN","either","8","509","","","","","","","1","0","0","0.8","","0.5","0.5","","","","","","","0.8","0.2","","","","","","","","","","74","J","0","img/none_selected_demo.jpg","true","0","80_20_practice"
"","bandit","34","179232","0.0-20.0-13.0","37137883","wem/bandit_either_2","AW0MG225VXWCN","either","8","232","","","","","","","1","0","0","0.8","","0.5","0.5","","","","","","","0.8","0.2","","","","","","","","","","74","J","0","img/none_selected_demo.jpg","true","0","80_20_practice"
"","bandit","35","180985","0.0-20.0-14.0","37137883","wem/bandit_either_2","AW0MG225VXWCN","either","8","244","","","","","","","0","0","1","0.8","","0.5","0.5","","","","","","","0.8","0.2","","","","","","","","","","74","J","0","img/none_selected_demo.jpg","true","0","80_20_practice"
"","bandit","36","183053","0.0-20.0-15.0","37137883","wem/bandit_either_2","AW0MG225VXWCN","either","8","557","","","","","","","0","0","1","","0.8","0.5","0.5","","","0.8","0.2","","","","","","","","","","","","","","74","J","0","img/none_selected_demo.jpg","true","0","80_20_practice"
"","bandit","37","184927","0.0-20.0-16.0","37137883","wem/bandit_either_2","AW0MG225VXWCN","either","8","370","","","","","","","1","0","0","0.8","","0.5","0.5","","","","","","","0.8","0.2","","","","","","","","","","74","J","0","img/none_selected_demo.jpg","true","0","80_20_practice"
"","bandit","38","186744","0.0-20.0-17.0","37137883","wem/bandit_either_2","AW0MG225VXWCN","either","8","310","","","","","","","1","0","0","0.8","","0.5","0.5","","","","","","","0.8","0.2","","","","","","","","","","74","J","0","img/none_selected_demo.jpg","true","0","80_20_practice"
"","bandit","39","188710","0.0-20.0-18.0","37137883","wem/bandit_either_2","AW0MG225VXWCN","either","8","458","","","","","","","0","1","0","","0.8","0.5","0.5","","","0.8","0.2","","","","","","","","","","","","","","74","J","0","img/none_selected_demo.jpg","true","0","80_20_practice"
"","bandit","40","190517","0.0-20.0-19.0","37137883","wem/bandit_either_2","AW0MG225VXWCN","either","8","303","","","","","","","1","0","0","0.8","","0.5","0.5","","","","","","","0.8","0.2","","","","","","","","","","74","J","0","img/none_selected_demo.jpg","true","0","80_20_practice"
"","text","41","193591","0.0-21.0","37137883","wem/bandit_either_2","AW0MG225VXWCN","either","8","3073","","32","","","","","","","","","","","","","","","","","","","","","","","","","","","","","","","","","","",""
"","bandit","42","196681","0.0-22.0-0.0","37137883","wem/bandit_either_2","AW0MG225VXWCN","either","8","1583","","","","","","","1","0","0","1","0","","","","","0","1","","","1","0","","","","","","","","","","74","J","0","img/none_selected_demo.jpg","true","0",""
"","text","43","201832","0.0-23.0","37137883","wem/bandit_either_2","AW0MG225VXWCN","either","8","5149","","32","","","","","","","","","","","","","","","","","","","","","","","","","","","","","","","","","","",""
"","text","44","205864","0.0-24.0","37137883","wem/bandit_either_2","AW0MG225VXWCN","either","8","4028","","32","","","","","","","","","","","","","","","","","","","","","","","","","","","","","","","","","","",""
"","text","45","207656","0.0-25.0","37137883","wem/bandit_either_2","AW0MG225VXWCN","either","8","1789","","32","","","","","","","","","","","","","","","","","","","","","","","","","","","","","","","","","","",""
"","text","46","209712","0.0-26.0","37137883","wem/bandit_either_2","AW0MG225VXWCN","either","8","2052","","32","","","","","","","","","","","","","","","","","","","","","","","","","","","","","","","","","","",""
"","text","47","215720","0.0-27.0","37137883","wem/bandit_either_2","AW0MG225VXWCN","either","8","6005","","32","","","","","","","","","","","","","","","","","","","","","","","","","","","","","","","","","","",""
"","text","48","217281","0.0-28.0","37137883","wem/bandit_either_2","AW0MG225VXWCN","either","8","1558","","32","","","","","","","","","","","","","","","","","","","","","","","","","","","","","","","","","","",""
"","text","49","221752","0.0-29.0","37137883","wem/bandit_either_2","AW0MG225VXWCN","either","8","4467","","32","","","","","","","","","","","","","","","","","","","","","","","","","","","","","","","","","","",""
"","text","50","223800","0.0-30.0","37137883","wem/bandit_either_2","AW0MG225VXWCN","either","8","2044","","32","","","","","","","","","","","","","","","","","","","","","","","","","","","","","","","","","","",""
"","text","51","226423","0.0-31.0","37137883","wem/bandit_either_2","AW0MG225VXWCN","either","8","2620","","32","","","","","","","","","","","","","","","","","","","","","","","","","","","","","","","","","","",""
"","text","52","227551","0.0-32.0","37137883","wem/bandit_either_2","AW0MG225VXWCN","either","8","1127","","32","","","","","","","","","","","","","","","","","","","","","","","","","","","","","","","","","","",""
"","text","53","233752","0.0-33.0","37137883","wem/bandit_either_2","AW0MG225VXWCN","either","8","6199","","32","","","","","","","","","","","","","","","","","","","","","","","","","","","","","","","","","","",""
"","bandit","54","236413","0.0-34.0-0.0","37137883","wem/bandit_either_2","AW0MG225VXWCN","either","8","1153","","","","","","","0","0","1","0.8","","0.5","0.5","0.5","0.5","","","","","0.8","0.2","0.6","0.2","","","","","","","","72","H","0","img/none_selected.jpg","true","0","full_practice"
"","bandit","55","238623","0.0-34.0-1.0","37137883","wem/bandit_either_2","AW0MG225VXWCN","either","8","704","","","","","","","0","0","1","0.8","","0.5","0.5","0.5","0.5","","","","","0.8","0.2","0.6","0.2","","","","","","","","72","H","0","img/none_selected.jpg","true","0","full_practice"
"","bandit","56","240368","0.0-34.0-2.0","37137883","wem/bandit_either_2","AW0MG225VXWCN","either","8","240","","","","","","","0","0","1","","0.2","0.5","0.5","0.5","0.5","0.8","0.2","0.6","0.2","","","","","","","","","","","","74","J","1","","true","0","full_practice"
"","bandit","57","242190","0.0-34.0-3.0","37137883","wem/bandit_either_2","AW0MG225VXWCN","either","8","314","","","","","","","0","0","1","0.2","","0.5","0.5","0.5","0.5","","","","","0.8","0.2","0.6","0.2","","","","","","","","74","J","1","","true","0","full_practice"
"","bandit","58","243999","0.0-34.0-4.0","37137883","wem/bandit_either_2","AW0MG225VXWCN","either","8","299","","","","","","","0","0","1","","0.6","0.5","0.5","0.5","0.5","0.8","0.2","0.6","0.2","","","","","","","","","","","","75","K","2","","true","0","full_practice"
"","bandit","59","245735","0.0-34.0-5.0","37137883","wem/bandit_either_2","AW0MG225VXWCN","either","8","230","","","","","","","0","0","1","","0.6","0.5","0.5","0.5","0.5","0.8","0.2","0.6","0.2","","","","","","","","","","","","75","K","2","","true","0","full_practice"
"","bandit","60","247368","0.0-34.0-6.0","37137883","wem/bandit_either_2","AW0MG225VXWCN","either","8","123","","","","","","","0","0","1","","0.2","0.5","0.5","0.5","0.5","0.8","0.2","0.6","0.2","","","","","","","","","","","","76","L","3","","true","0","full_practice"
"","bandit","61","249127","0.0-34.0-7.0","37137883","wem/bandit_either_2","AW0MG225VXWCN","either","8","246","","","","","","","0","0","1","","0.2","0.5","0.5","0.5","0.5","0.8","0.2","0.6","0.2","","","","","","","","","","","","76","L","3","","true","0","full_practice"
"","bandit","62","250941","0.0-34.0-8.0","37137883","wem/bandit_either_2","AW0MG225VXWCN","either","8","311","","","","","","","0","0","1","0.2","","0.5","0.5","0.5","0.5","","","","","0.8","0.2","0.6","0.2","","","","","","","","76","L","3","","true","0","full_practice"
"","bandit","63","252734","0.0-34.0-9.0","37137883","wem/bandit_either_2","AW0MG225VXWCN","either","8","284","","","","","","","0","1","0","","0.6","0.5","0.5","0.5","0.5","0.8","0.2","0.6","0.2","","","","","","","","","","","","75","K","2","","true","0","full_practice"
"","bandit","64","254662","0.0-34.0-10.0","37137883","wem/bandit_either_2","AW0MG225VXWCN","either","8","423","","","","","","","0","1","0","","0.6","0.5","0.5","0.5","0.5","0.8","0.2","0.6","0.2","","","","","","","","","","","","75","K","2","","true","0","full_practice"
"","bandit","65","256296","0.0-34.0-11.0","37137883","wem/bandit_either_2","AW0MG225VXWCN","either","8","122","","","","","","","0","0","1","0.6","","0.5","0.5","0.5","0.5","","","","","0.8","0.2","0.6","0.2","","","","","","","","75","K","2","","true","0","full_practice"
"","bandit","66","258046","0.0-34.0-12.0","37137883","wem/bandit_either_2","AW0MG225VXWCN","either","8","240","","","","","","","0","1","0","","0.6","0.5","0.5","0.5","0.5","0.8","0.2","0.6","0.2","","","","","","","","","","","","75","K","2","","true","0","full_practice"
"","bandit","67","259784","0.0-34.0-13.0","37137883","wem/bandit_either_2","AW0MG225VXWCN","either","8","227","","","","","","","0","1","0","","0.6","0.5","0.5","0.5","0.5","0.8","0.2","0.6","0.2","","","","","","","","","","","","75","K","2","","true","0","full_practice"
"","bandit","68","261375","0.0-34.0-14.0","37137883","wem/bandit_either_2","AW0MG225VXWCN","either","8","86","","","","","","","1","0","0","0.6","","0.5","0.5","0.5","0.5","","","","","0.8","0.2","0.6","0.2","","","","","","","","75","K","2","","true","0","full_practice"
"","bandit","69","263182","0.0-34.0-15.0","37137883","wem/bandit_either_2","AW0MG225VXWCN","either","8","298","","","","","","","0","0","1","0.6","","0.5","0.5","0.5","0.5","","","","","0.8","0.2","0.6","0.2","","","","","","","","75","K","2","","true","0","full_practice"
"","bandit","70","265198","0.0-34.0-16.0","37137883","wem/bandit_either_2","AW0MG225VXWCN","either","8","511","","","","","","","0","0","1","0.6","","0.5","0.5","0.5","0.5","","","","","0.8","0.2","0.6","0.2","","","","","","","","75","K","2","","true","0","full_practice"
"","bandit","71","266975","0.0-34.0-17.0","37137883","wem/bandit_either_2","AW0MG225VXWCN","either","8","267","","","","","","","1","0","0","0.6","","0.5","0.5","0.5","0.5","","","","","0.8","0.2","0.6","0.2","","","","","","","","75","K","2","","true","0","full_practice"
"","bandit","72","268748","0.0-34.0-18.0","37137883","wem/bandit_either_2","AW0MG225VXWCN","either","8","264","","","","","","","0","1","0","","0.6","0.5","0.5","0.5","0.5","0.8","0.2","0.6","0.2","","","","","","","","","","","","75","K","2","","true","0","full_practice"
"","bandit","73","270349","0.0-34.0-19.0","37137883","wem/bandit_either_2","AW0MG225VXWCN","either","8","96","","","","","","","1","0","0","0.6","","0.5","0.5","0.5","0.5","","","","","0.8","0.2","0.6","0.2","","","","","","","","75","K","2","","true","0","full_practice"
"","text","74","272488","0.0-35.0","37137883","wem/bandit_either_2","AW0MG225VXWCN","either","8","2126","","32","","","","","","","","","","","","","","","","","","","","","","","","","","","","","","","","","","",""
"","text","75","281287","0.0-36.0","37137883","wem/bandit_either_2","AW0MG225VXWCN","either","8","7795","","32","","","","","","","","","","","","","","","","","","","","","","","","","","","","","","","","","","",""
"","text","76","288053","0.0-37.0","37137883","wem/bandit_either_2","AW0MG225VXWCN","either","8","6764","","32","","","","","","","","","","","","","","","","","","","","","","","","","","","","","","","","","","",""
"","text","77","291369","0.0-38.0","37137883","wem/bandit_either_2","AW0MG225VXWCN","either","8","3312","","32","","","","","","","","","","","","","","","","","","","","","","","","","","","","","","","","","","",""
"","text","78","295326","0.0-39.0","37137883","wem/bandit_either_2","AW0MG225VXWCN","either","8","3953","","32","","","","","","","","","","","","","","","","","","","","","","","","","","","","","","","","","","",""
"","text","79","298776","0.0-40.0","37137883","wem/bandit_either_2","AW0MG225VXWCN","either","8","3448","","32","","","","","","","","","","","","","","","","","","","","","","","","","","","","","","","","","","",""
"","bandit","80","302166","0.0-41.0-0.0","37137883","wem/bandit_either_2","AW0MG225VXWCN","either","8","1880","","","","","","","0","0","1","","0.2928194041","0.8","0.2","0.6","0.4","0.2928194041","0.3540548627","0.1351790469","0.2637293772","","","","","","","","","","","","72","H","0","img/none_selected.jpg","","1","main_expt"
"","bandit","81","304320","0.0-42.0-0.0","37137883","wem/bandit_either_2","AW0MG225VXWCN","either","8","643","","","","","","","0","0","1","0.3040419902","","0.8","0.2","0.6","0.4","","","","","0.3040419902","0.3812516843","0.125602744","0.2760013096","","","","","","","","72","H","0","img/none_selected.jpg","","2","main_expt"
"","bandit","82","306102","0.0-43.0-0.0","37137883","wem/bandit_either_2","AW0MG225VXWCN","either","8","278","","","","","","","0","0","1","","0.3901316494","0.8","0.2","0.6","0.4","0.2875251023","0.3901316494","0.09574082279","0.3240499928","","","","","","","","","","","","74","J","1","","","3","main_expt"
"","bandit","83","307846","0.0-44.0-0.0","37137883","wem/bandit_either_2","AW0MG225VXWCN","either","8","238","","","","","","","0","0","1","","0.3945399471","0.8","0.2","0.6","0.4","0.2965567903","0.3945399471","0.0913382225","0.3510822359","","","","","","","","","","","","74","J","1","","","4","main_expt"
"","bandit","84","309679","0.0-45.0-0.0","37137883","wem/bandit_either_2","AW0MG225VXWCN","either","8","327","","","","","","","0","1","0","","0.3997977613","0.8","0.2","0.6","0.4","0.2681113314","0.3997977613","0.106177601","0.3522827721","","","","","","","","","","","","74","J","1","","","5","main_expt"
"","bandit","85","311590","0.0-46.0-0.0","37137883","wem/bandit_either_2","AW0MG225VXWCN","either","8","400","","","","","","","0","0","1","","0.390783501","0.8","0.2","0.6","0.4","0.2330443498","0.390783501","0.08998955495","0.382674005","","","","","","","","","","","","74","J","1","","","6","main_expt"
"","bandit","86","313311","0.0-47.0-0.0","37137883","wem/bandit_either_2","AW0MG225VXWCN","either","8","215","","","","","","","0","0","1","","0.1077526668","0.8","0.2","0.6","0.4","0.1630509172","0.3305693427","0.1077526668","0.3998463606","","","","","","","","","","","","75","K","2","","","7","main_expt"
"","bandit","87","315102","0.0-48.0-0.0","37137883","wem/bandit_either_2","AW0MG225VXWCN","either","8","286","","","","","","","0","0","1","0.1243697388","","0.8","0.2","0.6","0.4","","","","","0.2002468685","0.3056545716","0.1243697388","0.3832029687","","","","","","","","75","K","2","","","8","main_expt"
"","bandit","88","316833","0.0-49.0-0.0","37137883","wem/bandit_either_2","AW0MG225VXWCN","either","8","224","","","","","","","0","0","1","","0.1698108096","0.8","0.2","0.6","0.4","0.1835034381","0.3278889804","0.1698108096","0.3796681134","","","","","","","","","","","","75","K","2","","","9","main_expt"
"","bandit","89","318496","0.0-50.0-0.0","37137883","wem/bandit_either_2","AW0MG225VXWCN","either","8","152","","","","","","","0","0","1","","0.221757114","0.8","0.2","0.6","0.4","0.1939723001","0.3137855556","0.221757114","0.3614311416","","","","","","","","","","","","75","K","2","","","10","main_expt"
"","bandit","90","320086","0.0-51.0-0.0","37137883","wem/bandit_either_2","AW0MG225VXWCN","either","8","79","","","","","","","0","0","1","","0.3938737051","0.8","0.2","0.6","0.4","0.1949806013","0.3253079181","0.1961062924","0.3938737051","","","","","","","","","","","","76","L","3","","","11","main_expt"
"","bandit","91","322096","0.0-52.0-0.0","37137883","wem/bandit_either_2","AW0MG225VXWCN","either","8","498","","","","","","","0","0","1","","0.3810544723","0.8","0.2","0.6","0.4","0.2587943474","0.3298150516","0.1907056259","0.3810544723","","","","","","","","","","","","76","L","3","","","12","main_expt"
"","bandit","92","323846","0.0-53.0-0.0","37137883","wem/bandit_either_2","AW0MG225VXWCN","either","8","238","","","","","","","0","0","1","0.3707046684","","0.8","0.2","0.6","0.4","","","","","0.3085985727","0.3673307406","0.2162865666","0.3707046684","","","","","","","","76","L","3","","","13","main_expt"
"","bandit","93","325935","0.0-54.0-0.0","37137883","wem/bandit_either_2","AW0MG225VXWCN","either","8","585","","","","","","","0","0","1","0.3679224674","","0.8","0.2","0.6","0.4","","","","","0.2464992766","0.3679224674","0.2399362825","0.3486531997","","","","","","","","74","J","1","","","14","main_expt"
"","bandit","94","327702","0.0-55.0-0.0","37137883","wem/bandit_either_2","AW0MG225VXWCN","either","8","259","","","","","","","0","0","1","","0.3062507314","0.8","0.2","0.6","0.4","0.2474611475","0.3062507314","0.1986859052","0.3263578384","","","","","","","","","","","","74","J","1","","","15","main_expt"
"","bandit","95","329456","0.0-56.0-0.0","37137883","wem/bandit_either_2","AW0MG225VXWCN","either","8","243","","","","","","","0","0","1","","0.2892976033","0.8","0.2","0.6","0.4","0.2835538477","0.2892976033","0.1865641621","0.3514189979","","","","","","","","","","","","74","J","1","","","16","main_expt"
"","bandit","96","331230","0.0-57.0-0.0","37137883","wem/bandit_either_2","AW0MG225VXWCN","either","8","270","","","","","","","0","0","1","","0.2861796528","0.8","0.2","0.6","0.4","0.3256112075","0.2861796528","0.2035525071","0.3532592314","","","","","","","","","","","","74","J","1","","","17","main_expt"
"","bandit","97","332895","0.0-58.0-0.0","37137883","wem/bandit_either_2","AW0MG225VXWCN","either","8","159","","","","","","","0","0","1","0.2039336531","","0.8","0.2","0.6","0.4","","","","","0.3802227677","0.2958570682","0.2039336531","0.3858608091","","","","","","","","75","K","2","","","18","main_expt"
"","bandit","98","334623","0.0-59.0-0.0","37137883","wem/bandit_either_2","AW0MG225VXWCN","either","8","218","","","","","","","0","0","1","","0.1598579642","0.8","0.2","0.6","0.4","0.360566968","0.3353028819","0.1598579642","0.3837638756","","","","","","","","","","","","75","K","2","","","19","main_expt"
"","bandit","99","336382","0.0-60.0-0.0","37137883","wem/bandit_either_2","AW0MG225VXWCN","either","8","252","","","","","","","0","0","1","","0.1437622327","0.8","0.2","0.6","0.4","0.3696799013","0.3139704528","0.1437622327","0.2872100501","","","","","","","","","","","","75","K","2","","","20","main_expt"
"","bandit","100","338164","0.0-61.0-0.0","37137883","wem/bandit_either_2","AW0MG225VXWCN","either","8","271","","","","","","","1","0","0","0.07974703335","","0.8","0.2","0.6","0.4","","","","","0.4006907501","0.2524707143","0.07974703335","0.2975414498","","","","","","","","75","K","2","","","21","main_expt"
"","bandit","101","340101","0.0-62.0-0.0","37137883","wem/bandit_either_2","AW0MG225VXWCN","either","8","432","","","","","","","0","0","1","","0.1361132429","0.8","0.2","0.6","0.4","0.4081217326","0.248326021","0.1361132429","0.2741965999","","","","","","","","","","","","75","K","2","","","22","main_expt"
"","bandit","102","341879","0.0-63.0-0.0","37137883","wem/bandit_either_2","AW0MG225VXWCN","either","8","272","","","","","","","0","0","1","0.1705973249","","0.8","0.2","0.6","0.4","","","","","0.3740207531","0.2937153481","0.1705973249","0.2379064449","","","","","","","","75","K","2","","","23","main_expt"
"","bandit","103","343526","0.0-64.0-0.0","37137883","wem/bandit_either_2","AW0MG225VXWCN","either","8","142","","","","","","","0","0","1","0.1392759225","","0.8","0.2","0.6","0.4","","","","","0.3913756451","0.2625315469","0.1392759225","0.2078598572","","","","","","","","75","K","2","","","24","main_expt"
"","bandit","104","345247","0.0-65.0-0.0","37137883","wem/bandit_either_2","AW0MG225VXWCN","either","8","209","","","","","","","0","1","0","","0.4100905738","0.8","0.2","0.6","0.4","0.4100905738","0.2405651368","0.1800538527","0.2764850733","","","","","","","","","","","","72","H","0","img/none_selected.jpg","","25","main_expt"
"","bandit","105","347038","0.0-66.0-0.0","37137883","wem/bandit_either_2","AW0MG225VXWCN","either","8","281","","","","","","","0","0","1","0.3600668969","","0.8","0.2","0.6","0.4","","","","","0.3600668969","0.2503350336","0.2146400533","0.3080191348","","","","","","","","72","H","0","img/none_selected.jpg","","26","main_expt"
"","bandit","106","348935","0.0-67.0-0.0","37137883","wem/bandit_either_2","AW0MG225VXWCN","either","8","385","","","","","","","0","0","1","0.3703096079","","0.8","0.2","0.6","0.4","","","","","0.3703096079","0.354091838","0.1948367851","0.3606197488","","","","","","","","72","H","0","img/none_selected.jpg","","27","main_expt"
"","bandit","107","351062","0.0-68.0-0.0","37137883","wem/bandit_either_2","AW0MG225VXWCN","either","8","617","","","","","","","0","0","1","0.3527269899","","0.8","0.2","0.6","0.4","","","","","0.3527269899","0.3419366675","0.2282666016","0.3696097963","","","","","","","","72","H","0","img/none_selected.jpg","","28","main_expt"
"","bandit","108","352804","0.0-69.0-0.0","37137883","wem/bandit_either_2","AW0MG225VXWCN","either","8","234","","","","","","","0","0","1","0.2854860911","","0.8","0.2","0.6","0.4","","","","","0.2854860911","0.361896517","0.1842618798","0.3434444954","","","","","","","","72","H","0","img/none_selected.jpg","","29","main_expt"
"","bandit","109","354591","0.0-70.0-0.0","37137883","wem/bandit_either_2","AW0MG225VXWCN","either","8","278","","","","","","","0","0","1","","0.3528183973","0.8","0.2","0.6","0.4","0.2971434158","0.3701160785","0.1930267653","0.3528183973","","","","","","","","","","","","76","L","3","","","30","main_expt"
"","bandit","110","356582","0.0-71.0-0.0","37137883","wem/bandit_either_2","AW0MG225VXWCN","either","8","482","","","","","","","0","0","1","0.3436926249","","0.8","0.2","0.6","0.4","","","","","0.3192935598","0.3602312343","0.2279264959","0.3436926249","","","","","","","","76","L","3","","","31","main_expt"
"","bandit","111","358631","0.0-72.0-0.0","37137883","wem/bandit_either_2","AW0MG225VXWCN","either","8","542","","","","","","","0","0","1","","0.3392376576","0.8","0.2","0.6","0.4","0.2910845839","0.3550043818","0.1922668126","0.3392376576","","","","","","","","","","","","76","L","3","","","32","main_expt"
"","bandit","112","360461","0.0-73.0-0.0","37137883","wem/bandit_either_2","AW0MG225VXWCN","either","8","325","","","","","","","0","0","1","0.2524106513","","0.8","0.2","0.6","0.4","","","","","0.2956883229","0.3927862597","0.1503247695","0.2524106513","","","","","","","","76","L","3","","","33","main_expt"
"","bandit","113","362191","0.0-74.0-0.0","37137883","wem/bandit_either_2","AW0MG225VXWCN","either","8","223","","","","","","","0","0","1","0.2378308988","","0.8","0.2","0.6","0.4","","","","","0.2918182698","0.4185963197","0.1875072744","0.2378308988","","","","","","","","76","L","3","","","34","main_expt"
"","bandit","114","364223","0.0-75.0-0.0","37137883","wem/bandit_either_2","AW0MG225VXWCN","either","8","519","","","","","","","0","0","1","","0.2135507624","0.8","0.2","0.6","0.4","0.3063909307","0.441983755","0.2135507624","0.2683654211","","","","","","","","","","","","75","K","2","","","35","main_expt"
"","bandit","115","366118","0.0-76.0-0.0","37137883","wem/bandit_either_2","AW0MG225VXWCN","either","8","385","","","","","","","0","0","1","0.2042402853","","0.8","0.2","0.6","0.4","","","","","0.2820805085","0.4352827683","0.2042402853","0.2645223933","","","","","","","","75","K","2","","","36","main_expt"
"","bandit","116","368200","0.0-77.0-0.0","37137883","wem/bandit_either_2","AW0MG225VXWCN","either","8","575","","","","","","","0","0","1","0.2024605481","","0.8","0.2","0.6","0.4","","","","","0.2610370824","0.450520142","0.2024605481","0.2360561858","","","","","","","","75","K","2","","","37","main_expt"
"","bandit","117","369989","0.0-78.0-0.0","37137883","wem/bandit_either_2","AW0MG225VXWCN","either","8","277","","","","","","","0","0","1","0.1677713785","","0.8","0.2","0.6","0.4","","","","","0.1896233007","0.4681224698","0.1677713785","0.2001865083","","","","","","","","75","K","2","","","38","main_expt"
"","bandit","118","371744","0.0-79.0-0.0","37137883","wem/bandit_either_2","AW0MG225VXWCN","either","8","249","","","","","","","0","0","1","0.221779122","","0.8","0.2","0.6","0.4","","","","","0.168851025","0.4711022053","0.221779122","0.1687915361","","","","","","","","75","K","2","","","39","main_expt"
"","bandit","119","373504","0.0-80.0-0.0","37137883","wem/bandit_either_2","AW0MG225VXWCN","either","8","254","","","","","","","0","0","1","0.2722397218","","0.8","0.2","0.6","0.4","","","","","0.1615787635","0.4559447699","0.2722397218","0.1503151413","","","","","","","","75","K","2","","","40","main_expt"
"","bandit","120","375377","0.0-81.0-0.0","37137883","wem/bandit_either_2","AW0MG225VXWCN","either","8","360","","","","","","","0","0","1","0.4412687596","","0.8","0.2","0.6","0.4","","","","","0.1472326003","0.4412687596","0.3298230943","0.08168262283","","","","","","","","74","J","1","","","41","main_expt"
"","bandit","121","377361","0.0-82.0-0.0","37137883","wem/bandit_either_2","AW0MG225VXWCN","either","8","471","","","","","","","0","0","1","","0.4457751761","0.8","0.2","0.6","0.4","0.1533480506","0.4457751761","0.3104885444","0.07668629145","","","","","","","","","","","","74","J","1","","","42","main_expt"
"","bandit","122","379641","0.0-83.0-0.0","37137883","wem/bandit_either_2","AW0MG225VXWCN","either","8","773","","","","","","","0","0","1","","0.4298378352","0.8","0.2","0.6","0.4","0.1414351437","0.4298378352","0.3005355489","0.07394587158","","","","","","","","","","","","74","J","1","","","43","main_expt"
"","bandit","123","381775","0.0-84.0-0.0","37137883","wem/bandit_either_2","AW0MG225VXWCN","either","8","621","","","","","","","0","1","0","","0.4416915379","0.8","0.2","0.6","0.4","0.1067646429","0.4416915379","0.2456242138","0.1192337685","","","","","","","","","","","","74","J","1","","","44","main_expt"
"","bandit","124","383833","0.0-85.0-0.0","37137883","wem/bandit_either_2","AW0MG225VXWCN","either","8","543","","","","","","","0","0","1","","0.3915522423","0.8","0.2","0.6","0.4","0.1250796286","0.3915522423","0.2839901561","0.1285724119","","","","","","","","","","","","74","J","1","","","45","main_expt"
"","bandit","125","385839","0.0-86.0-0.0","37137883","wem/bandit_either_2","AW0MG225VXWCN","either","8","494","","","","","","","0","0","1","","0.4318427431","0.8","0.2","0.6","0.4","0.1927264636","0.4318427431","0.2353621531","0.1112684106","","","","","","","","","","","","74","J","1","","","46","main_expt"
"","bandit","126","387742","0.0-87.0-0.0","37137883","wem/bandit_either_2","AW0MG225VXWCN","either","8","398","","","","","","","0","0","1","","0.4395998441","0.8","0.2","0.6","0.4","0.1804488412","0.4395998441","0.2405257196","0.1207340475","","","","","","","","","","","","74","J","1","","","47","main_expt"
"","bandit","127","389592","0.0-88.0-0.0","37137883","wem/bandit_either_2","AW0MG225VXWCN","either","8","344","","","","","","","0","1","0","","0.4630443269","0.8","0.2","0.6","0.4","0.168268176","0.4630443269","0.2629408555","0.1182533935","","","","","","","","","","","","74","J","1","","","48","main_expt"
"","bandit","128","391457","0.0-89.0-0.0","37137883","wem/bandit_either_2","AW0MG225VXWCN","either","8","357","","","","","","","0","1","0","","0.4794982466","0.8","0.2","0.6","0.4","0.1466838001","0.4794982466","0.2902453213","0.1460801474","","","","","","","","","","","","74","J","1","","","49","main_expt"
"","bandit","129","393202","0.0-90.0-0.0","37137883","wem/bandit_either_2","AW0MG225VXWCN","either","8","232","","","","","","","0","1","0","","0.4562783041","0.8","0.2","0.6","0.4","0.1336340117","0.4562783041","0.3033715012","0.1765155983","","","","","","","","","","","","74","J","1","","","50","main_expt"
"","bandit","130","394967","0.0-91.0-0.0","37137883","wem/bandit_either_2","AW0MG225VXWCN","either","8","259","","","","","","","0","1","0","","0.4515646323","0.8","0.2","0.6","0.4","0.1067821754","0.4515646323","0.3536831403","0.1614266163","","","","","","","","","","","","74","J","1","","","51","main_expt"
"","bandit","131","396729","0.0-92.0-0.0","37137883","wem/bandit_either_2","AW0MG225VXWCN","either","8","249","","","","","","","0","1","0","","0.4344137529","0.8","0.2","0.6","0.4","0.07294577227","0.4344137529","0.3058792917","0.1938643747","","","","","","","","","","","","74","J","1","","","52","main_expt"
"","bandit","132","398504","0.0-93.0-0.0","37137883","wem/bandit_either_2","AW0MG225VXWCN","either","8","266","","","","","","","0","1","0","","0.4421766306","0.8","0.2","0.6","0.4","0.07676454597","0.4421766306","0.3466820038","0.1721886996","","","","","","","","","","","","74","J","1","","","53","main_expt"
"","bandit","133","400236","0.0-94.0-0.0","37137883","wem/bandit_either_2","AW0MG225VXWCN","either","8","229","","","","","","","1","0","0","0.4591875032","","0.8","0.2","0.6","0.4","","","","","0.07707135067","0.4591875032","0.3159173384","0.1542880765","","","","","","","","74","J","1","","","54","main_expt"
"","bandit","134","402152","0.0-95.0-0.0","37137883","wem/bandit_either_2","AW0MG225VXWCN","either","8","409","","","","","","","0","0","1","","0.4455250987","0.8","0.2","0.6","0.4","0.08227932488","0.4455250987","0.3205246683","0.2155598061","","","","","","","","","","","","74","J","1","","","55","main_expt"
"","bandit","135","404080","0.0-96.0-0.0","37137883","wem/bandit_either_2","AW0MG225VXWCN","either","8","416","","","","","","","0","0","1","","0.4200701886","0.8","0.2","0.6","0.4","0.09013031375","0.4200701886","0.3067659888","0.199350645","","","","","","","","","","","","74","J","1","","","56","main_expt"
"","bandit","136","405846","0.0-97.0-0.0","37137883","wem/bandit_either_2","AW0MG225VXWCN","either","8","262","","","","","","","0","0","1","","0.3635567377","0.8","0.2","0.6","0.4","0.106866739","0.3635567377","0.3786279545","0.1991981904","","","","","","","","","","","","74","J","1","","","57","main_expt"
"","bandit","137","407674","0.0-98.0-0.0","37137883","wem/bandit_either_2","AW0MG225VXWCN","either","8","318","","","","","","","0","0","1","0.3647217687","","0.8","0.2","0.6","0.4","","","","","0.0915584437","0.3647217687","0.3796022377","0.1307276253","","","","","","","","74","J","1","","","58","main_expt"
"","bandit","138","409408","0.0-99.0-0.0","37137883","wem/bandit_either_2","AW0MG225VXWCN","either","8","218","","","","","","","0","0","1","0.3975499765","","0.8","0.2","0.6","0.4","","","","","0.1036540812","0.3975499765","0.3570845549","0.1540949786","","","","","","","","74","J","1","","","59","main_expt"
"","bandit","139","411184","0.0-100.0-0.0","37137883","wem/bandit_either_2","AW0MG225VXWCN","either","8","263","","","","","","","0","0","1","","0.07948280662","0.8","0.2","0.6","0.4","0.07948280662","0.376383165","0.398525789","0.1187181044","","","","","","","","","","","","72","H","0","img/none_selected.jpg","","60","main_expt"
"","bandit","140","412975","0.0-101.0-0.0","37137883","wem/bandit_either_2","AW0MG225VXWCN","either","8","277","","","","","","","0","0","1","0.0685056185","","0.8","0.2","0.6","0.4","","","","","0.0685056185","0.3384437455","0.380986593","0.1734870435","","","","","","","","72","H","0","img/none_selected.jpg","","61","main_expt"
"","bandit","141","414750","0.0-102.0-0.0","37137883","wem/bandit_either_2","AW0MG225VXWCN","either","8","270","","","","","","","0","0","1","0.04196312691","","0.8","0.2","0.6","0.4","","","","","0.04196312691","0.3086389155","0.3928002855","0.2056999461","","","","","","","","72","H","0","img/none_selected.jpg","","62","main_expt"
"","bandit","142","416600","0.0-103.0-0.0","37137883","wem/bandit_either_2","AW0MG225VXWCN","either","8","339","","","","","","","0","0","1","","0.4097838671","0.8","0.2","0.6","0.4","0.06524357318","0.3098998428","0.4097838671","0.2421495796","","","","","","","","","","","","75","K","2","","","63","main_expt"
"","bandit","143","418536","0.0-104.0-0.0","37137883","wem/bandit_either_2","AW0MG225VXWCN","either","8","423","","","","","","","0","0","1","","0.3942475769","0.8","0.2","0.6","0.4","0.04599317762","0.2859800092","0.3942475769","0.2678986655","","","","","","","","","","","","75","K","2","","","64","main_expt"
"","bandit","144","420488","0.0-105.0-0.0","37137883","wem/bandit_either_2","AW0MG225VXWCN","either","8","439","","","","","","","0","1","0","","0.3756823908","0.8","0.2","0.6","0.4","0.04738713632","0.2780623804","0.3756823908","0.2780805564","","","","","","","","","","","","75","K","2","","","65","main_expt"
"","bandit","145","422271","0.0-106.0-0.0","37137883","wem/bandit_either_2","AW0MG225VXWCN","either","8","270","","","","","","","0","0","1","0.3780323226","","0.8","0.2","0.6","0.4","","","","","0.02873144913","0.2740889186","0.3780323226","0.2923516192","","","","","","","","75","K","2","","","66","main_expt"
"","bandit","146","424111","0.0-107.0-0.0","37137883","wem/bandit_either_2","AW0MG225VXWCN","either","8","325","","","","","","","0","0","1","","0.382091886","0.8","0.2","0.6","0.4","0.0355516853","0.3122756929","0.382091886","0.3481747094","","","","","","","","","","","","75","K","2","","","67","main_expt"
"","bandit","147","425901","0.0-108.0-0.0","37137883","wem/bandit_either_2","AW0MG225VXWCN","either","8","279","","","","","","","0","0","1","","0.4080562953","0.8","0.2","0.6","0.4","0.04483006882","0.3004294993","0.4080562953","0.3540590834","","","","","","","","","","","","75","K","2","","","68","main_expt"
"","bandit","148","427829","0.0-109.0-0.0","37137883","wem/bandit_either_2","AW0MG225VXWCN","either","8","421","","","","","","","0","0","1","0.419826639","","0.8","0.2","0.6","0.4","","","","","0.04300650393","0.3312842332","0.419826639","0.3348318208","","","","","","","","75","K","2","","","69","main_expt"
"","bandit","149","429580","0.0-110.0-0.0","37137883","wem/bandit_either_2","AW0MG225VXWCN","either","8","240","","","","","","","0","0","1","0.3889643965","","0.8","0.2","0.6","0.4","","","","","0.03960880855","0.2362018798","0.3889643965","0.3844983113","","","","","","","","75","K","2","","","70","main_expt"
"","bandit","150","431397","0.0-111.0-0.0","37137883","wem/bandit_either_2","AW0MG225VXWCN","either","8","311","","","","","","","0","1","0","","0.3492343966","0.8","0.2","0.6","0.4","0.02401392238","0.1838323472","0.3492343966","0.3753843975","","","","","","","","","","","","75","K","2","","","71","main_expt"
"","bandit","151","433182","0.0-112.0-0.0","37137883","wem/bandit_either_2","AW0MG225VXWCN","either","8","273","","","","","","","0","0","1","0.3502155883","","0.8","0.2","0.6","0.4","","","","","0.008756159955","0.1749810972","0.3502155883","0.3861429343","","","","","","","","75","K","2","","","72","main_expt"
"","bandit","152","434918","0.0-113.0-0.0","37137883","wem/bandit_either_2","AW0MG225VXWCN","either","8","229","","","","","","","0","0","1","","0.1664097112","0.8","0.2","0.6","0.4","0.006257651783","0.1664097112","0.3568691787","0.3978436086","","","","","","","","","","","","74","J","1","","","73","main_expt"
"","bandit","153","436855","0.0-114.0-0.0","37137883","wem/bandit_either_2","AW0MG225VXWCN","either","8","432","","","","","","","0","0","1","","0.2001176207","0.8","0.2","0.6","0.4","0.004732084297","0.2001176207","0.3303653739","0.3847979518","","","","","","","","","","","","74","J","1","","","74","main_expt"
"","bandit","154","438631","0.0-115.0-0.0","37137883","wem/bandit_either_2","AW0MG225VXWCN","either","8","262","","","","","","","0","0","1","0.1848717924","","0.8","0.2","0.6","0.4","","","","","0.006967558871","0.1848717924","0.3353283381","0.3974319157","","","","","","","","74","J","1","","","75","main_expt"
"","bandit","155","440383","0.0-116.0-0.0","37137883","wem/bandit_either_2","AW0MG225VXWCN","either","8","238","","","","","","","0","0","1","","0.1510178238","0.8","0.2","0.6","0.4","0.004525860487","0.1510178238","0.3009524994","0.3987985884","","","","","","","","","","","","74","J","1","","","76","main_expt"
"","bandit","156","442206","0.0-117.0-0.0","37137883","wem/bandit_either_2","AW0MG225VXWCN","either","8","310","","","","","","","0","0","1","","0.2089633591","0.8","0.2","0.6","0.4","0.007245535115","0.2089633591","0.3316028908","0.4127312768","","","","","","","","","","","","74","J","1","","","77","main_expt"
"","bandit","157","443935","0.0-118.0-0.0","37137883","wem/bandit_either_2","AW0MG225VXWCN","either","8","223","","","","","","","1","0","0","0.3571024926","","0.8","0.2","0.6","0.4","","","","","0.00483057751","0.2285147345","0.3571024926","0.4257675477","","","","","","","","75","K","2","","","78","main_expt"
"","bandit","158","445743","0.0-119.0-0.0","37137883","wem/bandit_either_2","AW0MG225VXWCN","either","8","301","","","","","","","0","0","1","0.3542776451","","0.8","0.2","0.6","0.4","","","","","0.005956317848","0.2246975601","0.3542776451","0.4331167668","","","","","","","","75","K","2","","","79","main_expt"
"","bandit","159","447566","0.0-120.0-0.0","37137883","wem/bandit_either_2","AW0MG225VXWCN","either","8","311","","","","","","","0","0","1","","0.3201174307","0.8","0.2","0.6","0.4","0.0076590047","0.1878766281","0.3201174307","0.4294395537","","","","","","","","","","","","75","K","2","","","80","main_expt"
"","bandit","160","449295","0.0-121.0-0.0","37137883","wem/bandit_either_2","AW0MG225VXWCN","either","8","220","","","","","","","0","1","0","","0.3503003334","0.8","0.2","0.6","0.4","0.009115568074","0.2436254364","0.3503003334","0.4234249918","","","","","","","","","","","","75","K","2","","","81","main_expt"
"","bandit","161","451063","0.0-122.0-0.0","37137883","wem/bandit_either_2","AW0MG225VXWCN","either","8","254","","","","","","","0","0","1","0.3509066846","","0.8","0.2","0.6","0.4","","","","","0.01382977225","0.2627531714","0.3509066846","0.3956977209","","","","","","","","75","K","2","","","82","main_expt"
"","bandit","162","452804","0.0-123.0-0.0","37137883","wem/bandit_either_2","AW0MG225VXWCN","either","8","230","","","","","","","1","0","0","0.3951868033","","0.8","0.2","0.6","0.4","","","","","0.01500629599","0.2672212524","0.3951868033","0.4248650233","","","","","","","","75","K","2","","","83","main_expt"
"","bandit","163","454555","0.0-124.0-0.0","37137883","wem/bandit_either_2","AW0MG225VXWCN","either","8","239","","","","","","","0","1","0","","0.4131477378","0.8","0.2","0.6","0.4","0.02310127573","0.2817484998","0.4131477378","0.4196907627","","","","","","","","","","","","75","K","2","","","84","main_expt"
"","bandit","164","456245","0.0-125.0-0.0","37137883","wem/bandit_either_2","AW0MG225VXWCN","either","8","183","","","","","","","0","0","1","0.3889697292","","0.8","0.2","0.6","0.4","","","","","0.02639065846","0.3074775227","0.3889697292","0.435633498","","","","","","","","75","K","2","","","85","main_expt"
"","bandit","165","457958","0.0-126.0-0.0","37137883","wem/bandit_either_2","AW0MG225VXWCN","either","8","207","","","","","","","0","0","1","","0.3885636443","0.8","0.2","0.6","0.4","0.01746441632","0.2717847629","0.3885636443","0.4322222521","","","","","","","","","","","","75","K","2","","","86","main_expt"
"","bandit","166","459687","0.0-127.0-0.0","37137883","wem/bandit_either_2","AW0MG225VXWCN","either","8","213","","","","","","","0","0","1","0.4028282504","","0.8","0.2","0.6","0.4","","","","","0.01256144444","0.2183858348","0.4028282504","0.4476119451","","","","","","","","75","K","2","","","87","main_expt"
"","bandit","167","461441","0.0-128.0-0.0","37137883","wem/bandit_either_2","AW0MG225VXWCN","either","8","238","","","","","","","1","0","0","0.4306890759","","0.8","0.2","0.6","0.4","","","","","0.01178158386","0.2054961256","0.4306890759","0.4073123198","","","","","","","","75","K","2","","","88","main_expt"
"","bandit","168","463133","0.0-129.0-0.0","37137883","wem/bandit_either_2","AW0MG225VXWCN","either","8","180","","","","","","","0","0","1","","0.4103738654","0.8","0.2","0.6","0.4","0.008722555822","0.1452714398","0.4103738654","0.3862301724","","","","","","","","","","","","75","K","2","","","89","main_expt"
"","bandit","169","464862","0.0-130.0-0.0","37137883","wem/bandit_either_2","AW0MG225VXWCN","either","8","214","","","","","","","0","0","1","","0.3980827974","0.8","0.2","0.6","0.4","0.008232471735","0.1077779513","0.3980827974","0.3596745144","","","","","","","","","","","","75","K","2","","","90","main_expt"
"","bandit","170","466614","0.0-131.0-0.0","37137883","wem/bandit_either_2","AW0MG225VXWCN","either","8","246","","","","","","","0","1","0","","0.4040531024","0.8","0.2","0.6","0.4","0.01249180717","0.1308407065","0.4040531024","0.3082854458","","","","","","","","","","","","75","K","2","","","91","main_expt"
"","bandit","171","468352","0.0-132.0-0.0","37137883","wem/bandit_either_2","AW0MG225VXWCN","either","8","222","","","","","","","0","0","1","","0.3462944796","0.8","0.2","0.6","0.4","0.01470986316","0.1652322036","0.3462944796","0.312225492","","","","","","","","","","","","75","K","2","","","92","main_expt"
"","bandit","172","469966","0.0-133.0-0.0","37137883","wem/bandit_either_2","AW0MG225VXWCN","either","8","98","","","","","","","0","0","1","0.3411451966","","0.8","0.2","0.6","0.4","","","","","0.02655281846","0.1344678182","0.3411451966","0.3671658277","","","","","","","","75","K","2","","","93","main_expt"
"","bandit","173","471670","0.0-134.0-0.0","37137883","wem/bandit_either_2","AW0MG225VXWCN","either","8","189","","","","","","","0","0","1","","0.3384154489","0.8","0.2","0.6","0.4","0.02575246025","0.1301314301","0.3384154489","0.3401731108","","","","","","","","","","","","75","K","2","","","94","main_expt"
"","bandit","174","473413","0.0-135.0-0.0","37137883","wem/bandit_either_2","AW0MG225VXWCN","either","8","232","","","","","","","0","0","1","0.3126988266","","0.8","0.2","0.6","0.4","","","","","0.02262355665","0.1746055711","0.3126988266","0.3413923724","","","","","","","","75","K","2","","","95","main_expt"
"","bandit","175","475128","0.0-136.0-0.0","37137883","wem/bandit_either_2","AW0MG225VXWCN","either","8","199","","","","","","","1","0","0","0.3800019137","","0.8","0.2","0.6","0.4","","","","","0.02047181149","0.1994244555","0.3800019137","0.3570420485","","","","","","","","75","K","2","","","96","main_expt"
"","bandit","176","476847","0.0-137.0-0.0","37137883","wem/bandit_either_2","AW0MG225VXWCN","either","8","204","","","","","","","0","0","1","","0.3328121005","0.8","0.2","0.6","0.4","0.0207754381","0.1834602947","0.3328121005","0.3435474977","","","","","","","","","","","","75","K","2","","","97","main_expt"
"","bandit","177","478510","0.0-138.0-0.0","37137883","wem/bandit_either_2","AW0MG225VXWCN","either","8","157","","","","","","","0","0","1","0.332228596","","0.8","0.2","0.6","0.4","","","","","0.02955834597","0.1719221531","0.332228596","0.3614714926","","","","","","","","75","K","2","","","98","main_expt"
"","bandit","178","481782","0.0-139.0-0.0","37137883","wem/bandit_either_2","AW0MG225VXWCN","either","8","1755","","","","","","","0","0","1","","0.2843854285","0.8","0.2","0.6","0.4","0.0383131093","0.1183399241","0.2843854285","0.3176405447","","","","","","","","","","","","75","K","2","","","99","main_expt"
"","bandit","179","483573","0.0-140.0-0.0","37137883","wem/bandit_either_2","AW0MG225VXWCN","either","8","278","","","","","","","0","1","0","","0.309751149","0.8","0.2","0.6","0.4","0.03580757471","0.1558635017","0.309751149","0.3586553183","","","","","","","","","","","","75","K","2","","","100","main_expt"
"","bandit","180","485335","0.0-141.0-0.0","37137883","wem/bandit_either_2","AW0MG225VXWCN","either","8","253","","","","","","","1","0","0","0.2993195944","","0.8","0.2","0.6","0.4","","","","","0.04899620691","0.1389665978","0.2993195944","0.2951503345","","","","","","","","75","K","2","","","101","main_expt"
"","bandit","181","487150","0.0-142.0-0.0","37137883","wem/bandit_either_2","AW0MG225VXWCN","either","8","300","","","","","","","0","0","1","0.3551890872","","0.8","0.2","0.6","0.4","","","","","0.08055650644","0.1377203561","0.3551890872","0.2998391809","","","","","","","","75","K","2","","","102","main_expt"
"","bandit","182","488903","0.0-143.0-0.0","37137883","wem/bandit_either_2","AW0MG225VXWCN","either","8","238","","","","","","","0","1","0","","0.3148404956","0.8","0.2","0.6","0.4","0.1040447627","0.1285548106","0.3148404956","0.2791823827","","","","","","","","","","","","75","K","2","","","103","main_expt"
"","bandit","183","490710","0.0-144.0-0.0","37137883","wem/bandit_either_2","AW0MG225VXWCN","either","8","301","","","","","","","1","0","0","0.3286912191","","0.8","0.2","0.6","0.4","","","","","0.1143547335","0.1555523735","0.3286912191","0.3382769334","","","","","","","","75","K","2","","","104","main_expt"
"","bandit","184","492456","0.0-145.0-0.0","37137883","wem/bandit_either_2","AW0MG225VXWCN","either","8","229","","","","","","","0","0","1","","0.298340497","0.8","0.2","0.6","0.4","0.1487676438","0.1775592141","0.298340497","0.3339697125","","","","","","","","","","","","75","K","2","","","105","main_expt"
"","bandit","185","494223","0.0-146.0-0.0","37137883","wem/bandit_either_2","AW0MG225VXWCN","either","8","252","","","","","","","0","0","1","0.3504464386","","0.8","0.2","0.6","0.4","","","","","0.152088545","0.2263451353","0.3504464386","0.3124129253","","","","","","","","75","K","2","","","106","main_expt"
"","bandit","186","495997","0.0-147.0-0.0","37137883","wem/bandit_either_2","AW0MG225VXWCN","either","8","258","","","","","","","1","0","0","0.3510410077","","0.8","0.2","0.6","0.4","","","","","0.2406734145","0.1679769802","0.3510410077","0.3400683723","","","","","","","","75","K","2","","","107","main_expt"
"","bandit","187","497757","0.0-148.0-0.0","37137883","wem/bandit_either_2","AW0MG225VXWCN","either","8","254","","","","","","","1","0","0","0.3282766846","","0.8","0.2","0.6","0.4","","","","","0.3048040024","0.1999870147","0.3282766846","0.3557340834","","","","","","","","75","K","2","","","108","main_expt"
"","bandit","188","499462","0.0-149.0-0.0","37137883","wem/bandit_either_2","AW0MG225VXWCN","either","8","193","","","","","","","0","0","1","0.3561186451","","0.8","0.2","0.6","0.4","","","","","0.3418503096","0.208992856","0.3561186451","0.3846418901","","","","","","","","75","K","2","","","109","main_expt"
"","bandit","189","501312","0.0-150.0-0.0","37137883","wem/bandit_either_2","AW0MG225VXWCN","either","8","338","","","","","","","1","0","0","0.3576445865","","0.8","0.2","0.6","0.4","","","","","0.3198501315","0.1716040471","0.3576445865","0.4057962062","","","","","","","","75","K","2","","","110","main_expt"
"","bandit","190","503078","0.0-151.0-0.0","37137883","wem/bandit_either_2","AW0MG225VXWCN","either","8","250","","","","","","","1","0","0","0.3377543854","","0.8","0.2","0.6","0.4","","","","","0.3681534847","0.08984071331","0.3377543854","0.3692451483","","","","","","","","75","K","2","","","111","main_expt"
"","bandit","191","504790","0.0-152.0-0.0","37137883","wem/bandit_either_2","AW0MG225VXWCN","either","8","198","","","","","","","1","0","0","0.286234052","","0.8","0.2","0.6","0.4","","","","","0.3757830796","0.1243463141","0.286234052","0.3577317973","","","","","","","","75","K","2","","","112","main_expt"
"","bandit","192","506559","0.0-153.0-0.0","37137883","wem/bandit_either_2","AW0MG225VXWCN","either","8","262","","","","","","","0","0","1","0.1932674395","","0.8","0.2","0.6","0.4","","","","","0.3838999828","0.1433440675","0.1932674395","0.3328808086","","","","","","","","75","K","2","","","113","main_expt"
"","bandit","193","508446","0.0-154.0-0.0","37137883","wem/bandit_either_2","AW0MG225VXWCN","either","8","379","","","","","","","0","0","1","","0.2403040534","0.8","0.2","0.6","0.4","0.4157938717","0.1510662198","0.2403040534","0.3416979579","","","","","","","","","","","","75","K","2","","","114","main_expt"
"","bandit","194","510241","0.0-155.0-0.0","37137883","wem/bandit_either_2","AW0MG225VXWCN","either","8","278","","","","","","","0","0","1","0.254937398","","0.8","0.2","0.6","0.4","","","","","0.4055870595","0.09845245139","0.254937398","0.3377137281","","","","","","","","75","K","2","","","115","main_expt"
"","bandit","195","512070","0.0-156.0-0.0","37137883","wem/bandit_either_2","AW0MG225VXWCN","either","8","314","","","","","","","0","0","1","0.2605063941","","0.8","0.2","0.6","0.4","","","","","0.4161015278","0.107393795","0.2605063941","0.3039448029","","","","","","","","75","K","2","","","116","main_expt"
"","bandit","196","513870","0.0-157.0-0.0","37137883","wem/bandit_either_2","AW0MG225VXWCN","either","8","284","","","","","","","0","0","1","0.2161328783","","0.8","0.2","0.6","0.4","","","","","0.414877819","0.07879800556","0.2161328783","0.2974336912","","","","","","","","75","K","2","","","117","main_expt"
"","bandit","197","515710","0.0-158.0-0.0","37137883","wem/bandit_either_2","AW0MG225VXWCN","either","8","323","","","","","","","0","0","1","0.1931197841","","0.8","0.2","0.6","0.4","","","","","0.3968259953","0.08383735875","0.1931197841","0.2651867246","","","","","","","","75","K","2","","","118","main_expt"
"","bandit","198","517400","0.0-159.0-0.0","37137883","wem/bandit_either_2","AW0MG225VXWCN","either","8","172","","","","","","","0","0","1","0.1638183597","","0.8","0.2","0.6","0.4","","","","","0.4198241006","0.1392474383","0.1638183597","0.3131666206","","","","","","","","75","K","2","","","119","main_expt"
"","bandit","199","519700","0.0-160.0-0.0","37137883","wem/bandit_either_2","AW0MG225VXWCN","either","8","787","","","","","","","1","0","0","0.358829095","","0.8","0.2","0.6","0.4","","","","","0.4286088018","0.1649404926","0.1893282748","0.358829095","","","","","","","","76","L","3","","","120","main_expt"
"","bandit","200","521512","0.0-161.0-0.0","37137883","wem/bandit_either_2","AW0MG225VXWCN","either","8","305","","","","","","","0","0","1","","0.3189860171","0.8","0.2","0.6","0.4","0.4253829576","0.1764152442","0.2290368179","0.3189860171","","","","","","","","","","","","76","L","3","","","121","main_expt"
"","bandit","201","523278","0.0-162.0-0.0","37137883","wem/bandit_either_2","AW0MG225VXWCN","either","8","248","","","","","","","1","0","0","0.3011672979","","0.8","0.2","0.6","0.4","","","","","0.4235175979","0.2092397698","0.2445441383","0.3011672979","","","","","","","","76","L","3","","","122","main_expt"
"","bandit","202","525086","0.0-163.0-0.0","37137883","wem/bandit_either_2","AW0MG225VXWCN","either","8","302","","","","","","","0","0","1","","0.3037948063","0.8","0.2","0.6","0.4","0.4182090072","0.1884058447","0.2091075756","0.3037948063","","","","","","","","","","","","76","L","3","","","123","main_expt"
"","bandit","203","526855","0.0-164.0-0.0","37137883","wem/bandit_either_2","AW0MG225VXWCN","either","8","258","","","","","","","0","0","1","","0.2446200253","0.8","0.2","0.6","0.4","0.4356016004","0.1876417206","0.2216111921","0.2446200253","","","","","","","","","","","","76","L","3","","","124","main_expt"
"","bandit","204","528631","0.0-165.0-0.0","37137883","wem/bandit_either_2","AW0MG225VXWCN","either","8","260","","","","","","","0","0","1","0.2464628806","","0.8","0.2","0.6","0.4","","","","","0.403953628","0.1890564589","0.1622020501","0.2464628806","","","","","","","","76","L","3","","","125","main_expt"
"","bandit","205","530397","0.0-166.0-0.0","37137883","wem/bandit_either_2","AW0MG225VXWCN","either","8","251","","","","","","","0","0","1","","0.281169445","0.8","0.2","0.6","0.4","0.4020675328","0.1659850756","0.173533554","0.281169445","","","","","","","","","","","","76","L","3","","","126","main_expt"
"","bandit","206","532080","0.0-167.0-0.0","37137883","wem/bandit_either_2","AW0MG225VXWCN","either","8","166","","","","","","","0","0","1","","0.290080064","0.8","0.2","0.6","0.4","0.338443572","0.2006343121","0.189829559","0.290080064","","","","","","","","","","","","76","L","3","","","127","main_expt"
"","bandit","207","533830","0.0-168.0-0.0","37137883","wem/bandit_either_2","AW0MG225VXWCN","either","8","235","","","","","","","0","0","1","","0.3280989756","0.8","0.2","0.6","0.4","0.323123489","0.2637444583","0.1764696366","0.3280989756","","","","","","","","","","","","76","L","3","","","128","main_expt"
"","bandit","208","535604","0.0-169.0-0.0","37137883","wem/bandit_either_2","AW0MG225VXWCN","either","8","259","","","","","","","0","1","0","","0.3052704822","0.8","0.2","0.6","0.4","0.3615310162","0.2783394686","0.172709194","0.3052704822","","","","","","","","","","","","76","L","3","","","129","main_expt"
"","bandit","209","537480","0.0-170.0-0.0","37137883","wem/bandit_either_2","AW0MG225VXWCN","either","8","367","","","","","","","1","0","0","0.314718742","","0.8","0.2","0.6","0.4","","","","","0.3667448715","0.2674474002","0.1407460215","0.314718742","","","","","","","","76","L","3","","","130","main_expt"
"","bandit","210","539295","0.0-171.0-0.0","37137883","wem/bandit_either_2","AW0MG225VXWCN","either","8","307","","","","","","","0","0","1","","0.2492347367","0.8","0.2","0.6","0.4","0.341745941","0.2122920843","0.143826562","0.2492347367","","","","","","","","","","","","76","L","3","","","131","main_expt"
"","bandit","211","541175","0.0-172.0-0.0","37137883","wem/bandit_either_2","AW0MG225VXWCN","either","8","363","","","","","","","0","0","1","","0.2495736985","0.8","0.2","0.6","0.4","0.2615325727","0.1969346152","0.1862992663","0.2495736985","","","","","","","","","","","","76","L","3","","","132","main_expt"
"","bandit","212","543078","0.0-173.0-0.0","37137883","wem/bandit_either_2","AW0MG225VXWCN","either","8","386","","","","","","","0","0","1","","0.2487120015","0.8","0.2","0.6","0.4","0.27905624","0.1390835973","0.185648564","0.2487120015","","","","","","","","","","","","76","L","3","","","133","main_expt"
"","bandit","213","545278","0.0-174.0-0.0","37137883","wem/bandit_either_2","AW0MG225VXWCN","either","8","683","","","","","","","0","0","1","","0.3239420422","0.8","0.2","0.6","0.4","0.2751163123","0.1437640715","0.2002276213","0.3239420422","","","","","","","","","","","","76","L","3","","","134","main_expt"
"","bandit","214","548006","0.0-175.0-0.0","37137883","wem/bandit_either_2","AW0MG225VXWCN","either","8","1211","","","","","","","0","0","1","","0.3903525049","0.8","0.2","0.6","0.4","0.2586507773","0.1175999949","0.2474552851","0.3903525049","","","","","","","","","","","","76","L","3","","","135","main_expt"
"","bandit","215","549862","0.0-176.0-0.0","37137883","wem/bandit_either_2","AW0MG225VXWCN","either","8","340","","","","","","","0","0","1","","0.3703049055","0.8","0.2","0.6","0.4","0.2385277364","0.1108499649","0.2454982057","0.3703049055","","","","","","","","","","","","76","L","3","","","136","main_expt"
"","bandit","216","551904","0.0-177.0-0.0","37137883","wem/bandit_either_2","AW0MG225VXWCN","either","8","535","","","","","","","0","0","1","","0.3657944308","0.8","0.2","0.6","0.4","0.1935782534","0.1208727618","0.2708690816","0.3657944308","","","","","","","","","","","","76","L","3","","","137","main_expt"
"","bandit","217","553631","0.0-178.0-0.0","37137883","wem/bandit_either_2","AW0MG225VXWCN","either","8","218","","","","","","","0","0","1","","0.3452946514","0.8","0.2","0.6","0.4","0.14087624","0.1098805161","0.2219039101","0.3452946514","","","","","","","","","","","","76","L","3","","","138","main_expt"
"","bandit","218","555424","0.0-179.0-0.0","37137883","wem/bandit_either_2","AW0MG225VXWCN","either","8","274","","","","","","","0","0","1","","0.1340930794","0.8","0.2","0.6","0.4","0.1340930794","0.1359731218","0.2485571535","0.3225052804","","","","","","","","","","","","72","H","0","img/none_selected.jpg","","139","main_expt"
"","bandit","219","557272","0.0-180.0-0.0","37137883","wem/bandit_either_2","AW0MG225VXWCN","either","8","329","","","","","","","0","0","1","0.1170750994","","0.8","0.2","0.6","0.4","","","","","0.1170750994","0.1419248406","0.2605640439","0.2997250911","","","","","","","","72","H","0","img/none_selected.jpg","","140","main_expt"
"","bandit","220","559007","0.0-181.0-0.0","37137883","wem/bandit_either_2","AW0MG225VXWCN","either","8","217","","","","","","","0","0","1","0.1316830279","","0.8","0.2","0.6","0.4","","","","","0.1316830279","0.1269577117","0.2260680923","0.311933389","","","","","","","","72","H","0","img/none_selected.jpg","","141","main_expt"
"","bandit","221","560817","0.0-182.0-0.0","37137883","wem/bandit_either_2","AW0MG225VXWCN","either","8","292","","","","","","","0","0","1","","0.1073819056","0.8","0.2","0.6","0.4","0.09490366034","0.1073819056","0.2354846983","0.3442568425","","","","","","","","","","","","74","J","1","","","142","main_expt"
"","bandit","222","562615","0.0-183.0-0.0","37137883","wem/bandit_either_2","AW0MG225VXWCN","either","8","282","","","","","","","0","0","1","","0.1152767294","0.8","0.2","0.6","0.4","0.1246024154","0.1152767294","0.2089358464","0.3117203045","","","","","","","","","","","","74","J","1","","","143","main_expt"
"","bandit","223","564416","0.0-184.0-0.0","37137883","wem/bandit_either_2","AW0MG225VXWCN","either","8","291","","","","","","","0","1","0","","0.1317444946","0.8","0.2","0.6","0.4","0.1179874238","0.1317444946","0.1844607625","0.3080771123","","","","","","","","","","","","74","J","1","","","144","main_expt"
"","bandit","224","566253","0.0-185.0-0.0","37137883","wem/bandit_either_2","AW0MG225VXWCN","either","8","332","","","","","","","0","0","1","","0.1058600218","0.8","0.2","0.6","0.4","0.1211842963","0.1058600218","0.1940384654","0.3146876691","","","","","","","","","","","","74","J","1","","","145","main_expt"
"","bandit","225","568118","0.0-186.0-0.0","37137883","wem/bandit_either_2","AW0MG225VXWCN","either","8","347","","","","","","","0","0","1","","0.1862633901","0.8","0.2","0.6","0.4","0.06212451067","0.1862633901","0.2532022814","0.3526806189","","","","","","","","","","","","74","J","1","","","146","main_expt"
"","bandit","226","569888","0.0-187.0-0.0","37137883","wem/bandit_either_2","AW0MG225VXWCN","either","8","262","","","","","","","0","0","1","","0.1944793183","0.8","0.2","0.6","0.4","0.05826033827","0.1944793183","0.272856749","0.3859334927","","","","","","","","","","","","74","J","1","","","147","main_expt"
"","bandit","227","571760","0.0-188.0-0.0","37137883","wem/bandit_either_2","AW0MG225VXWCN","either","8","353","","","","","","","0","0","1","","0.1572605535","0.8","0.2","0.6","0.4","0.04847575149","0.1572605535","0.2441255329","0.4089873985","","","","","","","","","","","","74","J","1","","","148","main_expt"
"","bandit","228","573878","0.0-189.0-0.0","37137883","wem/bandit_either_2","AW0MG225VXWCN","either","8","601","","","","","","","0","0","1","0.1632070519","","0.8","0.2","0.6","0.4","","","","","0.07397138717","0.1632070519","0.2304797635","0.3317076441","","","","","","","","74","J","1","","","149","main_expt"
"","bandit","229","575663","0.0-190.0-0.0","37137883","wem/bandit_either_2","AW0MG225VXWCN","either","8","274","","","","","","","0","0","1","0.2645424191","","0.8","0.2","0.6","0.4","","","","","0.1178437277","0.2162169298","0.2645424191","0.2514439341","","","","","","","","75","K","2","","","150","main_expt"
"","bandit","230","577407","0.0-191.0-0.0","37137883","wem/bandit_either_2","AW0MG225VXWCN","either","8","232","","","","","","","0","0","1","","0.2919476008","0.8","0.2","0.6","0.4","0.1116740648","0.2806681102","0.2919476008","0.2209696772","","","","","","","","","","","","75","K","2","","","151","main_expt"
"","bandit","231","579503","0.0-192.0-0.0","37137883","wem/bandit_either_2","AW0MG225VXWCN","either","8","579","","","","","","","0","0","1","0.3004198658","","0.8","0.2","0.6","0.4","","","","","0.09681320826","0.25223767","0.3004198658","0.2004300668","","","","","","","","75","K","2","","","152","main_expt"
"","bandit","232","581280","0.0-193.0-0.0","37137883","wem/bandit_either_2","AW0MG225VXWCN","either","8","260","","","","","","","1","0","0","0.2910243242","","0.8","0.2","0.6","0.4","","","","","0.1162344283","0.2259503681","0.2910243242","0.1803159607","","","","","","","","75","K","2","","","153","main_expt"
"","bandit","233","583160","0.0-194.0-0.0","37137883","wem/bandit_either_2","AW0MG225VXWCN","either","8","361","","","","","","","0","0","1","0.2858680692","","0.8","0.2","0.6","0.4","","","","","0.1441765144","0.2520515582","0.2858680692","0.1793353988","","","","","","","","75","K","2","","","154","main_expt"
"","bandit","234","584960","0.0-195.0-0.0","37137883","wem/bandit_either_2","AW0MG225VXWCN","either","8","281","","","","","","","0","0","1","0.276906037","","0.8","0.2","0.6","0.4","","","","","0.1506434262","0.246895917","0.276906037","0.175125938","","","","","","","","75","K","2","","","155","main_expt"
"","bandit","235","586720","0.0-196.0-0.0","37137883","wem/bandit_either_2","AW0MG225VXWCN","either","8","242","","","","","","","0","0","1","","0.3087514371","0.8","0.2","0.6","0.4","0.1691825384","0.2067462234","0.3087514371","0.19004546","","","","","","","","","","","","75","K","2","","","156","main_expt"
"","bandit","236","588478","0.0-197.0-0.0","37137883","wem/bandit_either_2","AW0MG225VXWCN","either","8","252","","","","","","","0","0","1","","0.3400763937","0.8","0.2","0.6","0.4","0.1465267651","0.1736677602","0.3400763937","0.1538528063","","","","","","","","","","","","75","K","2","","","157","main_expt"
"","bandit","237","590184","0.0-198.0-0.0","37137883","wem/bandit_either_2","AW0MG225VXWCN","either","8","191","","","","","","","0","0","1","0.3388441277","","0.8","0.2","0.6","0.4","","","","","0.1517260174","0.2437422656","0.3388441277","0.1624419901","","","","","","","","75","K","2","","","158","main_expt"
"","bandit","238","591968","0.0-199.0-0.0","37137883","wem/bandit_either_2","AW0MG225VXWCN","either","8","267","","","","","","","0","0","1","0.1749682205","","0.8","0.2","0.6","0.4","","","","","0.143579764","0.2627628197","0.3496437485","0.1749682205","","","","","","","","76","L","3","","","159","main_expt"
"","bandit","239","593783","0.0-200.0-0.0","37137883","wem/bandit_either_2","AW0MG225VXWCN","either","8","295","","","","","","","0","0","1","","0.2227833177","0.8","0.2","0.6","0.4","0.1701049762","0.2532756584","0.3347491532","0.2227833177","","","","","","","","","","","","76","L","3","","","160","main_expt"
"","bandit","240","595639","0.0-201.0-0.0","37137883","wem/bandit_either_2","AW0MG225VXWCN","either","8","339","","","","","","","0","0","1","","0.1616195486","0.8","0.2","0.6","0.4","0.1596038406","0.2846030245","0.3036625801","0.1616195486","","","","","","","","","","","","76","L","3","","","161","main_expt"
"","bandit","241","597442","0.0-202.0-0.0","37137883","wem/bandit_either_2","AW0MG225VXWCN","either","8","283","","","","","","","0","0","1","","0.1440802068","0.8","0.2","0.6","0.4","0.1186271452","0.2480450928","0.2735804545","0.1440802068","","","","","","","","","","","","76","L","3","","","162","main_expt"
"","bandit","242","599240","0.0-203.0-0.0","37137883","wem/bandit_either_2","AW0MG225VXWCN","either","8","280","","","","","","","0","1","0","","0.1349250059","0.8","0.2","0.6","0.4","0.1460830151","0.3217860246","0.2219233964","0.1349250059","","","","","","","","","","","","76","L","3","","","163","main_expt"
"","bandit","243","601216","0.0-204.0-0.0","37137883","wem/bandit_either_2","AW0MG225VXWCN","either","8","457","","","","","","","0","0","1","","0.1482528248","0.8","0.2","0.6","0.4","0.1924179555","0.3528623486","0.2489701673","0.1482528248","","","","","","","","","","","","76","L","3","","","164","main_expt"
"","bandit","244","603015","0.0-205.0-0.0","37137883","wem/bandit_either_2","AW0MG225VXWCN","either","8","282","","","","","","","0","0","1","","0.1444116863","0.8","0.2","0.6","0.4","0.1909643941","0.3113737792","0.2424219606","0.1444116863","","","","","","","","","","","","76","L","3","","","165","main_expt"
"","bandit","245","604760","0.0-206.0-0.0","37137883","wem/bandit_either_2","AW0MG225VXWCN","either","8","232","","","","","","","0","0","1","0.1621449425","","0.8","0.2","0.6","0.4","","","","","0.1917506842","0.2820045276","0.1899742571","0.1621449425","","","","","","","","76","L","3","","","166","main_expt"
"","bandit","246","606486","0.0-207.0-0.0","37137883","wem/bandit_either_2","AW0MG225VXWCN","either","8","209","","","","","","","0","1","0","","0.1695256229","0.8","0.2","0.6","0.4","0.2238056512","0.2539690707","0.2298880826","0.1695256229","","","","","","","","","","","","76","L","3","","","167","main_expt"
"","bandit","247","608215","0.0-208.0-0.0","37137883","wem/bandit_either_2","AW0MG225VXWCN","either","8","222","","","","","","","0","1","0","","0.1712445676","0.8","0.2","0.6","0.4","0.2132240521","0.2177565821","0.241220494","0.1712445676","","","","","","","","","","","","76","L","3","","","168","main_expt"
"","bandit","248","609933","0.0-209.0-0.0","37137883","wem/bandit_either_2","AW0MG225VXWCN","either","8","204","","","","","","","0","0","1","","0.191079104","0.8","0.2","0.6","0.4","0.1363713625","0.183214586","0.2113351254","0.191079104","","","","","","","","","","","","76","L","3","","","169","main_expt"
"","bandit","249","611704","0.0-210.0-0.0","37137883","wem/bandit_either_2","AW0MG225VXWCN","either","8","261","","","","","","","0","0","1","","0.2227666825","0.8","0.2","0.6","0.4","0.2007690262","0.1757282231","0.2224744884","0.2227666825","","","","","","","","","","","","76","L","3","","","170","main_expt"
"","bandit","250","613440","0.0-211.0-0.0","37137883","wem/bandit_either_2","AW0MG225VXWCN","either","8","218","","","","","","","0","1","0","","0.2719914804","0.8","0.2","0.6","0.4","0.1238998316","0.1679331046","0.262177911","0.2719914804","","","","","","","","","","","","76","L","3","","","171","main_expt"
"","bandit","251","615184","0.0-212.0-0.0","37137883","wem/bandit_either_2","AW0MG225VXWCN","either","8","226","","","","","","","0","0","1","0.2330128459","","0.8","0.2","0.6","0.4","","","","","0.09746419185","0.14560319","0.2822992514","0.2330128459","","","","","","","","76","L","3","","","172","main_expt"
"","bandit","252","616902","0.0-213.0-0.0","37137883","wem/bandit_either_2","AW0MG225VXWCN","either","8","202","","","","","","","0","0","1","0.2840251313","","0.8","0.2","0.6","0.4","","","","","0.1018164217","0.1341549344","0.2545762091","0.2840251313","","","","","","","","76","L","3","","","173","main_expt"
"","bandit","253","618600","0.0-214.0-0.0","37137883","wem/bandit_either_2","AW0MG225VXWCN","either","8","191","","","","","","","0","0","1","","0.2739042306","0.8","0.2","0.6","0.4","0.1401689619","0.1471305278","0.2838184637","0.2739042306","","","","","","","","","","","","76","L","3","","","174","main_expt"
"","bandit","254","620344","0.0-215.0-0.0","37137883","wem/bandit_either_2","AW0MG225VXWCN","either","8","231","","","","","","","0","0","1","","0.3444735506","0.8","0.2","0.6","0.4","0.1697524679","0.173963405","0.3002790513","0.3444735506","","","","","","","","","","","","76","L","3","","","175","main_expt"
"","bandit","255","622137","0.0-216.0-0.0","37137883","wem/bandit_either_2","AW0MG225VXWCN","either","8","273","","","","","","","0","0","1","0.3223017316","","0.8","0.2","0.6","0.4","","","","","0.1896898672","0.1821857965","0.3771690292","0.3223017316","","","","","","","","76","L","3","","","176","main_expt"
"","bandit","256","623863","0.0-217.0-0.0","37137883","wem/bandit_either_2","AW0MG225VXWCN","either","8","209","","","","","","","0","1","0","","0.2964924158","0.8","0.2","0.6","0.4","0.2441254625","0.1444884472","0.4047809956","0.2964924158","","","","","","","","","","","","76","L","3","","","177","main_expt"
"","bandit","257","625646","0.0-218.0-0.0","37137883","wem/bandit_either_2","AW0MG225VXWCN","either","8","265","","","","","","","0","1","0","","0.2780576925","0.8","0.2","0.6","0.4","0.2427722412","0.1207783293","0.4344960837","0.2780576925","","","","","","","","","","","","76","L","3","","","178","main_expt"
"","bandit","258","627423","0.0-219.0-0.0","37137883","wem/bandit_either_2","AW0MG225VXWCN","either","8","269","","","","","","","0","0","1","","0.2859751729","0.8","0.2","0.6","0.4","0.2284650367","0.111585665","0.4287912686","0.2859751729","","","","","","","","","","","","76","L","3","","","179","main_expt"
"","bandit","259","629409","0.0-220.0-0.0","37137883","wem/bandit_either_2","AW0MG225VXWCN","either","8","468","","","","","","","0","0","1","","0.283533164","0.8","0.2","0.6","0.4","0.2694081366","0.06891525065","0.4294180747","0.283533164","","","","","","","","","","","","76","L","3","","","180","main_expt"
"","bandit","260","631192","0.0-221.0-0.0","37137883","wem/bandit_either_2","AW0MG225VXWCN","either","8","264","","","","","","","0","0","1","","0.2430023428","0.8","0.2","0.6","0.4","0.2471628034","0.07407739619","0.3887332701","0.2430023428","","","","","","","","","","","","76","L","3","","","181","main_expt"
"","bandit","261","633062","0.0-222.0-0.0","37137883","wem/bandit_either_2","AW0MG225VXWCN","either","8","355","","","","","","","0","0","1","","0.223254837","0.8","0.2","0.6","0.4","0.275372354","0.07501704201","0.3910635387","0.223254837","","","","","","","","","","","","76","L","3","","","182","main_expt"
"","bandit","262","634832","0.0-223.0-0.0","37137883","wem/bandit_either_2","AW0MG225VXWCN","either","8","255","","","","","","","0","0","1","","0.2274286797","0.8","0.2","0.6","0.4","0.2378950907","0.09354103142","0.3957792538","0.2274286797","","","","","","","","","","","","76","L","3","","","183","main_expt"
"","bandit","263","636545","0.0-224.0-0.0","37137883","wem/bandit_either_2","AW0MG225VXWCN","either","8","205","","","","","","","0","0","1","","0.2485964068","0.8","0.2","0.6","0.4","0.2611999536","0.06673830493","0.3777829694","0.2485964068","","","","","","","","","","","","76","L","3","","","184","main_expt"
"","bandit","264","638334","0.0-225.0-0.0","37137883","wem/bandit_either_2","AW0MG225VXWCN","either","8","271","","","","","","","1","0","0","0.2799245071","","0.8","0.2","0.6","0.4","","","","","0.2799245071","0.08617836821","0.4130939835","0.2080173303","","","","","","","","72","H","0","img/none_selected.jpg","","185","main_expt"
"","bandit","265","640375","0.0-226.0-0.0","37137883","wem/bandit_either_2","AW0MG225VXWCN","either","8","532","","","","","","","1","0","0","0.2275386122","","0.8","0.2","0.6","0.4","","","","","0.2275386122","0.05054014018","0.376930599","0.2538883687","","","","","","","","72","H","0","img/none_selected.jpg","","186","main_expt"
"","bandit","266","642272","0.0-227.0-0.0","37137883","wem/bandit_either_2","AW0MG225VXWCN","either","8","379","","","","","","","1","0","0","0.2558518805","","0.8","0.2","0.6","0.4","","","","","0.2558518805","0.1101456656","0.3934592684","0.2267652077","","","","","","","","72","H","0","img/none_selected.jpg","","187","main_expt"
"","bandit","267","644117","0.0-228.0-0.0","37137883","wem/bandit_either_2","AW0MG225VXWCN","either","8","329","","","","","","","0","0","1","0.2757393749","","0.8","0.2","0.6","0.4","","","","","0.2757393749","0.1076418148","0.4086060551","0.2583789709","","","","","","","","72","H","0","img/none_selected.jpg","","188","main_expt"
"","bandit","268","646047","0.0-229.0-0.0","37137883","wem/bandit_either_2","AW0MG225VXWCN","either","8","423","","","","","","","0","0","1","0.3326758055","","0.8","0.2","0.6","0.4","","","","","0.3326758055","0.1230456027","0.447145564","0.2329768584","","","","","","","","72","H","0","img/none_selected.jpg","","189","main_expt"
"","bandit","269","647856","0.0-230.0-0.0","37137883","wem/bandit_either_2","AW0MG225VXWCN","either","8","298","","","","","","","0","0","1","0.332927569","","0.8","0.2","0.6","0.4","","","","","0.332927569","0.1872873117","0.386091063","0.2002510669","","","","","","","","72","H","0","img/none_selected.jpg","","190","main_expt"
"","bandit","270","649644","0.0-231.0-0.0","37137883","wem/bandit_either_2","AW0MG225VXWCN","either","8","271","","","","","","","0","0","1","0.3859199101","","0.8","0.2","0.6","0.4","","","","","0.3859199101","0.1413073252","0.4221145333","0.2182600554","","","","","","","","72","H","0","img/none_selected.jpg","","191","main_expt"
"","bandit","271","651376","0.0-232.0-0.0","37137883","wem/bandit_either_2","AW0MG225VXWCN","either","8","220","","","","","","","0","0","1","","0.392668484","0.8","0.2","0.6","0.4","0.392668484","0.1868627967","0.3913199708","0.2681613901","","","","","","","","","","","","72","H","0","img/none_selected.jpg","","192","main_expt"
"","bandit","272","653126","0.0-233.0-0.0","37137883","wem/bandit_either_2","AW0MG225VXWCN","either","8","244","","","","","","","0","1","0","","0.3789843676","0.8","0.2","0.6","0.4","0.3789843676","0.2312719224","0.4013624592","0.3035027483","","","","","","","","","","","","72","H","0","img/none_selected.jpg","","193","main_expt"
"","bandit","273","654872","0.0-234.0-0.0","37137883","wem/bandit_either_2","AW0MG225VXWCN","either","8","228","","","","","","","1","0","0","0.3689216281","","0.8","0.2","0.6","0.4","","","","","0.3689216281","0.2585201677","0.3668237699","0.275531754","","","","","","","","72","H","0","img/none_selected.jpg","","194","main_expt"
"","bandit","274","656688","0.0-235.0-0.0","37137883","wem/bandit_either_2","AW0MG225VXWCN","either","8","296","","","","","","","0","0","1","0.4136905162","","0.8","0.2","0.6","0.4","","","","","0.4136905162","0.2786104129","0.3856266791","0.2716401532","","","","","","","","72","H","0","img/none_selected.jpg","","195","main_expt"
"","bandit","275","658438","0.0-236.0-0.0","37137883","wem/bandit_either_2","AW0MG225VXWCN","either","8","233","","","","","","","0","0","1","0.4258575101","","0.8","0.2","0.6","0.4","","","","","0.4258575101","0.2407834285","0.3702439493","0.2814611543","","","","","","","","72","H","0","img/none_selected.jpg","","196","main_expt"
"","bandit","276","660189","0.0-237.0-0.0","37137883","wem/bandit_either_2","AW0MG225VXWCN","either","8","245","","","","","","","1","0","0","0.3976178043","","0.8","0.2","0.6","0.4","","","","","0.3976178043","0.2550568011","0.3665926528","0.2588010394","","","","","","","","72","H","0","img/none_selected.jpg","","197","main_expt"
"","bandit","277","661937","0.0-238.0-0.0","37137883","wem/bandit_either_2","AW0MG225VXWCN","either","8","236","","","","","","","0","0","1","0.3802378075","","0.8","0.2","0.6","0.4","","","","","0.3802378075","0.3094863904","0.3432124584","0.3094610495","","","","","","","","72","H","0","img/none_selected.jpg","","198","main_expt"
"","bandit","278","663710","0.0-239.0-0.0","37137883","wem/bandit_either_2","AW0MG225VXWCN","either","8","254","","","","","","","0","0","1","0.3926800246","","0.8","0.2","0.6","0.4","","","","","0.3926800246","0.3012985694","0.4096574544","0.3139278769","","","","","","","","72","H","0","img/none_selected.jpg","","199","main_expt"
"","bandit","279","665493","0.0-240.0-0.0","37137883","wem/bandit_either_2","AW0MG225VXWCN","either","8","267","","","","","","","0","0","1","0.3814844917","","0.8","0.2","0.6","0.4","","","","","0.3814844917","0.3149132519","0.3799023259","0.3459706187","","","","","","","","72","H","0","img/none_selected.jpg","","200","main_expt"
"","bandit","280","667255","0.0-241.0-0.0","37137883","wem/bandit_either_2","AW0MG225VXWCN","either","8","255","","","","","","","0","0","1","","0.3831630738","0.8","0.2","0.6","0.4","0.3831630738","0.3236307962","0.3513783521","0.3038365479","","","","","","","","","","","","72","H","0","img/none_selected.jpg","","201","main_expt"
"","bandit","281","669007","0.0-242.0-0.0","37137883","wem/bandit_either_2","AW0MG225VXWCN","either","8","234","","","","","","","0","0","1","","0.3957430938","0.8","0.2","0.6","0.4","0.3957430938","0.3163717903","0.3439351057","0.2964599608","","","","","","","","","","","","72","H","0","img/none_selected.jpg","","202","main_expt"
"","bandit","282","670775","0.0-243.0-0.0","37137883","wem/bandit_either_2","AW0MG225VXWCN","either","8","250","","","","","","","0","0","1","","0.4175506619","0.8","0.2","0.6","0.4","0.4175506619","0.3165936227","0.2615327891","0.280336616","","","","","","","","","","","","72","H","0","img/none_selected.jpg","","203","main_expt"
"","bandit","283","672533","0.0-244.0-0.0","37137883","wem/bandit_either_2","AW0MG225VXWCN","either","8","240","","","","","","","1","0","0","0.4356800279","","0.8","0.2","0.6","0.4","","","","","0.4356800279","0.3166231072","0.2211517471","0.262900641","","","","","","","","72","H","0","img/none_selected.jpg","","204","main_expt"
"","bandit","284","674133","0.0-245.0-0.0","37137883","wem/bandit_either_2","AW0MG225VXWCN","either","8","94","","","","","","","1","0","0","0.4342993254","","0.8","0.2","0.6","0.4","","","","","0.4342993254","0.2983153058","0.1955747294","0.3403150927","","","","","","","","72","H","0","img/none_selected.jpg","","205","main_expt"
"","bandit","285","675702","0.0-246.0-0.0","37137883","wem/bandit_either_2","AW0MG225VXWCN","either","8","61","","","","","","","0","0","1","0.4515967499","","0.8","0.2","0.6","0.4","","","","","0.4515967499","0.255573156","0.3137251184","0.3407188883","","","","","","","","72","H","0","img/none_selected.jpg","","206","main_expt"
"","bandit","286","677430","0.0-247.0-0.0","37137883","wem/bandit_either_2","AW0MG225VXWCN","either","8","208","","","","","","","0","0","1","0.4559700358","","0.8","0.2","0.6","0.4","","","","","0.4559700358","0.2816724171","0.2982459604","0.2955601217","","","","","","","","72","H","0","img/none_selected.jpg","","207","main_expt"
"","bandit","287","679295","0.0-248.0-0.0","37137883","wem/bandit_either_2","AW0MG225VXWCN","either","8","345","","","","","","","1","0","0","0.4711787588","","0.8","0.2","0.6","0.4","","","","","0.4711787588","0.2462622089","0.2359404152","0.2832193826","","","","","","","","72","H","0","img/none_selected.jpg","","208","main_expt"
"","bandit","288","681062","0.0-249.0-0.0","37137883","wem/bandit_either_2","AW0MG225VXWCN","either","8","247","","","","","","","0","0","1","0.4859779177","","0.8","0.2","0.6","0.4","","","","","0.4859779177","0.2608633631","0.2396635106","0.25637755","","","","","","","","72","H","0","img/none_selected.jpg","","209","main_expt"
"","bandit","289","682819","0.0-250.0-0.0","37137883","wem/bandit_either_2","AW0MG225VXWCN","either","8","239","","","","","","","0","0","1","","0.4798195452","0.8","0.2","0.6","0.4","0.4798195452","0.2649708152","0.2320506775","0.2500912527","","","","","","","","","","","","72","H","0","img/none_selected.jpg","","210","main_expt"
"","bandit","290","684574","0.0-251.0-0.0","37137883","wem/bandit_either_2","AW0MG225VXWCN","either","8","245","","","","","","","1","0","0","0.4754072522","","0.8","0.2","0.6","0.4","","","","","0.4754072522","0.2658594566","0.1894847828","0.2481129288","","","","","","","","72","H","0","img/none_selected.jpg","","211","main_expt"
"","bandit","291","686349","0.0-252.0-0.0","37137883","wem/bandit_either_2","AW0MG225VXWCN","either","8","266","","","","","","","1","0","0","0.4780703898","","0.8","0.2","0.6","0.4","","","","","0.4780703898","0.2648449814","0.2330804604","0.3192168596","","","","","","","","72","H","0","img/none_selected.jpg","","212","main_expt"
"","bandit","292","688100","0.0-253.0-0.0","37137883","wem/bandit_either_2","AW0MG225VXWCN","either","8","246","","","","","","","0","0","1","0.4883488692","","0.8","0.2","0.6","0.4","","","","","0.4883488692","0.286492297","0.2484053244","0.2361953268","","","","","","","","72","H","0","img/none_selected.jpg","","213","main_expt"
"","bandit","293","689830","0.0-254.0-0.0","37137883","wem/bandit_either_2","AW0MG225VXWCN","either","8","223","","","","","","","1","0","0","0.4872562331","","0.8","0.2","0.6","0.4","","","","","0.4872562331","0.2540339129","0.2182548364","0.2308921763","","","","","","","","72","H","0","img/none_selected.jpg","","214","main_expt"
"","bandit","294","691564","0.0-255.0-0.0","37137883","wem/bandit_either_2","AW0MG225VXWCN","either","8","217","","","","","","","0","0","1","0.4749609167","","0.8","0.2","0.6","0.4","","","","","0.4749609167","0.254651127","0.1824073789","0.2161033537","","","","","","","","72","H","0","img/none_selected.jpg","","215","main_expt"
"","bandit","295","693336","0.0-256.0-0.0","37137883","wem/bandit_either_2","AW0MG225VXWCN","either","8","265","","","","","","","0","0","1","","0.4798413464","0.8","0.2","0.6","0.4","0.4798413464","0.3140517816","0.1923730387","0.1896756427","","","","","","","","","","","","72","H","0","img/none_selected.jpg","","216","main_expt"
"","bandit","296","695078","0.0-257.0-0.0","37137883","wem/bandit_either_2","AW0MG225VXWCN","either","8","228","","","","","","","0","1","0","","0.4865144435","0.8","0.2","0.6","0.4","0.4865144435","0.3338676317","0.2266612446","0.1724286307","","","","","","","","","","","","72","H","0","img/none_selected.jpg","","217","main_expt"
"","bandit","297","696789","0.0-258.0-0.0","37137883","wem/bandit_either_2","AW0MG225VXWCN","either","8","205","","","","","","","0","0","1","0.4789145001","","0.8","0.2","0.6","0.4","","","","","0.4789145001","0.3397001125","0.1702705737","0.161168334","","","","","","","","72","H","0","img/none_selected.jpg","","218","main_expt"
"","bandit","298","698549","0.0-259.0-0.0","37137883","wem/bandit_either_2","AW0MG225VXWCN","either","8","254","","","","","","","1","0","0","0.4834748692","","0.8","0.2","0.6","0.4","","","","","0.4834748692","0.2982528089","0.1159766116","0.2021763003","","","","","","","","72","H","0","img/none_selected.jpg","","219","main_expt"
"","bandit","299","700318","0.0-260.0-0.0","37137883","wem/bandit_either_2","AW0MG225VXWCN","either","8","263","","","","","","","0","0","1","0.4722371777","","0.8","0.2","0.6","0.4","","","","","0.4722371777","0.2770934022","0.09529473055","0.2142164272","","","","","","","","72","H","0","img/none_selected.jpg","","220","main_expt"
"","bandit","300","702000","0.0-261.0-0.0","37137883","wem/bandit_either_2","AW0MG225VXWCN","either","8","161","","","","","","","1","0","0","0.4654689219","","0.8","0.2","0.6","0.4","","","","","0.4654689219","0.2696770889","0.09060922323","0.189068297","","","","","","","","72","H","0","img/none_selected.jpg","","221","main_expt"
"","bandit","301","703773","0.0-262.0-0.0","37137883","wem/bandit_either_2","AW0MG225VXWCN","either","8","266","","","","","","","1","0","0","0.4533789701","","0.8","0.2","0.6","0.4","","","","","0.4533789701","0.3103502417","0.1250772464","0.2120997892","","","","","","","","72","H","0","img/none_selected.jpg","","222","main_expt"
"","bandit","302","705510","0.0-263.0-0.0","37137883","wem/bandit_either_2","AW0MG225VXWCN","either","8","230","","","","","","","1","0","0","0.4473019993","","0.8","0.2","0.6","0.4","","","","","0.4473019993","0.3477728299","0.1177235221","0.1937664477","","","","","","","","72","H","0","img/none_selected.jpg","","223","main_expt"
"","bandit","303","707280","0.0-264.0-0.0","37137883","wem/bandit_either_2","AW0MG225VXWCN","either","8","248","","","","","","","0","0","1","0.4651086175","","0.8","0.2","0.6","0.4","","","","","0.4651086175","0.3230244909","0.1589673504","0.2195846313","","","","","","","","72","H","0","img/none_selected.jpg","","224","main_expt"
"","bandit","304","709104","0.0-265.0-0.0","37137883","wem/bandit_either_2","AW0MG225VXWCN","either","8","304","","","","","","","1","0","0","0.4704934375","","0.8","0.2","0.6","0.4","","","","","0.4704934375","0.3641913847","0.1582937281","0.1973587738","","","","","","","","72","H","0","img/none_selected.jpg","","225","main_expt"
"","bandit","305","711621","0.0-266.0-0.0","37137883","wem/bandit_either_2","AW0MG225VXWCN","either","8","997","","","","","","","0","0","1","","0.4545632724","0.8","0.2","0.6","0.4","0.4545632724","0.3211822138","0.1585786296","0.2029059012","","","","","","","","","","","","72","H","0","img/none_selected.jpg","","226","main_expt"
"","bandit","306","713669","0.0-267.0-0.0","37137883","wem/bandit_either_2","AW0MG225VXWCN","either","8","541","","","","","","","1","0","0","0.4313330006","","0.8","0.2","0.6","0.4","","","","","0.4313330006","0.3318596792","0.1614007709","0.1677618241","","","","","","","","72","H","0","img/none_selected.jpg","","227","main_expt"
"","bandit","307","715509","0.0-268.0-0.0","37137883","wem/bandit_either_2","AW0MG225VXWCN","either","8","334","","","","","","","0","0","1","0.4253897179","","0.8","0.2","0.6","0.4","","","","","0.4253897179","0.3715738924","0.1160982884","0.2079318551","","","","","","","","72","H","0","img/none_selected.jpg","","228","main_expt"
"","bandit","308","717327","0.0-269.0-0.0","37137883","wem/bandit_either_2","AW0MG225VXWCN","either","8","299","","","","","","","1","0","0","0.4416009531","","0.8","0.2","0.6","0.4","","","","","0.4416009531","0.3571583743","0.1327168588","0.1860779256","","","","","","","","72","H","0","img/none_selected.jpg","","229","main_expt"
"","bandit","309","719239","0.0-270.0-0.0","37137883","wem/bandit_either_2","AW0MG225VXWCN","either","8","390","","","","","","","1","0","0","0.4612445757","","0.8","0.2","0.6","0.4","","","","","0.4612445757","0.3455313741","0.1751239199","0.1294985144","","","","","","","","72","H","0","img/none_selected.jpg","","230","main_expt"
"","bandit","310","721016","0.0-271.0-0.0","37137883","wem/bandit_either_2","AW0MG225VXWCN","either","8","256","","","","","","","0","0","1","0.4455927364","","0.8","0.2","0.6","0.4","","","","","0.4455927364","0.3114256563","0.2080149414","0.1424139305","","","","","","","","72","H","0","img/none_selected.jpg","","231","main_expt"
"","bandit","311","723102","0.0-272.0-0.0","37137883","wem/bandit_either_2","AW0MG225VXWCN","either","8","567","","","","","","","0","0","1","0.4449483857","","0.8","0.2","0.6","0.4","","","","","0.4449483857","0.3127001645","0.2305008548","0.1777617008","","","","","","","","72","H","0","img/none_selected.jpg","","232","main_expt"
"","bandit","312","724948","0.0-273.0-0.0","37137883","wem/bandit_either_2","AW0MG225VXWCN","either","8","329","","","","","","","0","0","1","0.4570404202","","0.8","0.2","0.6","0.4","","","","","0.4570404202","0.2953609795","0.2331895239","0.1408291819","","","","","","","","72","H","0","img/none_selected.jpg","","233","main_expt"
"","bandit","313","726726","0.0-274.0-0.0","37137883","wem/bandit_either_2","AW0MG225VXWCN","either","8","269","","","","","","","1","0","0","0.4785018613","","0.8","0.2","0.6","0.4","","","","","0.4785018613","0.2743769666","0.2007149185","0.09563300426","","","","","","","","72","H","0","img/none_selected.jpg","","234","main_expt"
"","bandit","314","728503","0.0-275.0-0.0","37137883","wem/bandit_either_2","AW0MG225VXWCN","either","8","267","","","","","","","1","0","0","0.4708517218","","0.8","0.2","0.6","0.4","","","","","0.4708517218","0.2842570603","0.1428876463","0.06508254785","","","","","","","","72","H","0","img/none_selected.jpg","","235","main_expt"
"","bandit","315","730268","0.0-276.0-0.0","37137883","wem/bandit_either_2","AW0MG225VXWCN","either","8","244","","","","","","","0","0","1","0.4721911582","","0.8","0.2","0.6","0.4","","","","","0.4721911582","0.3536106974","0.1327756685","0.05272484418","","","","","","","","72","H","0","img/none_selected.jpg","","236","main_expt"
"","bandit","316","731998","0.0-277.0-0.0","37137883","wem/bandit_either_2","AW0MG225VXWCN","either","8","217","","","","","","","0","0","1","0.4567984566","","0.8","0.2","0.6","0.4","","","","","0.4567984566","0.3777879982","0.1969646424","0.05000735717","","","","","","","","72","H","0","img/none_selected.jpg","","237","main_expt"
"","bandit","317","733760","0.0-278.0-0.0","37137883","wem/bandit_either_2","AW0MG225VXWCN","either","8","253","","","","","","","0","0","1","0.4601910044","","0.8","0.2","0.6","0.4","","","","","0.4601910044","0.3819628943","0.2040955009","0.03409798278","","","","","","","","72","H","0","img/none_selected.jpg","","238","main_expt"
"","bandit","318","735597","0.0-279.0-0.0","37137883","wem/bandit_either_2","AW0MG225VXWCN","either","8","314","","","","","","","0","0","1","0.4663275819","","0.8","0.2","0.6","0.4","","","","","0.4663275819","0.3590612953","0.1885012088","0.03555143528","","","","","","","","72","H","0","img/none_selected.jpg","","239","main_expt"
"","bandit","319","737343","0.0-280.0-0.0","37137883","wem/bandit_either_2","AW0MG225VXWCN","either","8","237","","","","","","","1","0","0","0.4781926851","","0.8","0.2","0.6","0.4","","","","","0.4781926851","0.3943681209","0.1779850251","0.06633834621","","","","","","","","72","H","0","img/none_selected.jpg","","240","main_expt"
"","bandit","320","739069","0.0-281.0-0.0","37137883","wem/bandit_either_2","AW0MG225VXWCN","either","8","205","","","","","","","0","1","0","","0.4813407325","0.8","0.2","0.6","0.4","0.4813407325","0.4178476804","0.2132761508","0.0332650027","","","","","","","","","","","","72","H","0","img/none_selected.jpg","","241","main_expt"
"","bandit","321","740790","0.0-282.0-0.0","37137883","wem/bandit_either_2","AW0MG225VXWCN","either","8","213","","","","","","","1","0","0","0.4758201438","","0.8","0.2","0.6","0.4","","","","","0.4758201438","0.4083523659","0.2181708985","0.03674005559","","","","","","","","72","H","0","img/none_selected.jpg","","242","main_expt"
"","bandit","322","742517","0.0-283.0-0.0","37137883","wem/bandit_either_2","AW0MG225VXWCN","either","8","206","","","","","","","0","0","1","","0.4739127226","0.8","0.2","0.6","0.4","0.4739127226","0.4107673147","0.1880751836","0.02732183546","","","","","","","","","","","","72","H","0","img/none_selected.jpg","","243","main_expt"
"","bandit","323","744383","0.0-284.0-0.0","37137883","wem/bandit_either_2","AW0MG225VXWCN","either","8","358","","","","","","","0","0","1","0.4467527753","","0.8","0.2","0.6","0.4","","","","","0.4467527753","0.3914084711","0.2693527465","0.02742276317","","","","","","","","72","H","0","img/none_selected.jpg","","244","main_expt"
"","bandit","324","746149","0.0-285.0-0.0","37137883","wem/bandit_either_2","AW0MG225VXWCN","either","8","244","","","","","","","0","0","1","0.4492118003","","0.8","0.2","0.6","0.4","","","","","0.4492118003","0.4117032301","0.2474629182","0.03322496416","","","","","","","","72","H","0","img/none_selected.jpg","","245","main_expt"
"","bandit","325","747903","0.0-286.0-0.0","37137883","wem/bandit_either_2","AW0MG225VXWCN","either","8","232","","","","","","","0","1","0","","0.4702058379","0.8","0.2","0.6","0.4","0.4702058379","0.4225436654","0.3019125269","0.0538648904","","","","","","","","","","","","72","H","0","img/none_selected.jpg","","246","main_expt"
"","bandit","326","749654","0.0-287.0-0.0","37137883","wem/bandit_either_2","AW0MG225VXWCN","either","8","228","","","","","","","0","0","1","0.4717010128","","0.8","0.2","0.6","0.4","","","","","0.4717010128","0.4327875568","0.3013832462","0.05538537946","","","","","","","","72","H","0","img/none_selected.jpg","","247","main_expt"
