"consent","trial_type","trial_index","time_elapsed","internal_node_id","subjID","study","MID","cond","drift","rt","responses","key_press","expt_phase","like","value","connected","gems","bombs","no_reward","GemPrChosen","BombPrChosen","GainOverPainPr_0","GainOverPainPr_1","GainOverPainPr_2","GainOverPainPr_3","LosePr_0","LosePr_1","LosePr_2","LosePr_3","WinPr_0","WinPr_1","WinPr_2","WinPr_3","Q0","Q1","Q2","gender","age","ethnicity","target","respCharCode","respKey","respChoiceNum","respChoice","practice","trial_counter","trial_label"
"INL_behavioral_consent_30min_online.html","consent","0","21085","0.0-0.0","37153696","wem/bandit_either_2","A2ZR3PL5I0KPQ6","either","2","","","","","","","","","","","","","","","","","","","","","","","","","","","","","","","","","","","","","",""
"","survey-text","1","29860","0.0-1.0","37153696","wem/bandit_either_2","A2ZR3PL5I0KPQ6","either","2","7759","{""Q0"":""A2ZR3PL5I0KPQ6""}","","","","","","","","","","","","","","","","","","","","","","","","","","","","","","","","","","","",""
"","text","2","76394","0.0-2.0","37153696","wem/bandit_either_2","A2ZR3PL5I0KPQ6","either","2","45527","","32","","","","","","","","","","","","","","","","","","","","","","","","","","","","","","","","","","",""
"","text","3","110915","0.0-3.0","37153696","wem/bandit_either_2","A2ZR3PL5I0KPQ6","either","2","34514","","32","","","","","","","","","","","","","","","","","","","","","","","","","","","","","","","","","","",""
"","text","4","220516","0.0-4.0","37153696","wem/bandit_either_2","A2ZR3PL5I0KPQ6","either","2","109596","","32","","","","","","","","","","","","","","","","","","","","","","","","","","","","","","","","","","",""
"","text","5","237516","0.0-5.0","37153696","wem/bandit_either_2","A2ZR3PL5I0KPQ6","either","2","16993","","32","","","","","","","","","","","","","","","","","","","","","","","","","","","","","","","","","","",""
"","text","6","268721","0.0-6.0","37153696","wem/bandit_either_2","A2ZR3PL5I0KPQ6","either","2","31200","","32","","","","","","","","","","","","","","","","","","","","","","","","","","","","","","","","","","",""
"","text","7","281392","0.0-7.0","37153696","wem/bandit_either_2","A2ZR3PL5I0KPQ6","either","2","12664","","32","","","","","","","","","","","","","","","","","","","","","","","","","","","","","","","","","","",""
"","text","8","336300","0.0-8.0","37153696","wem/bandit_either_2","A2ZR3PL5I0KPQ6","either","2","54903","","32","","","","","","","","","","","","","","","","","","","","","","","","","","","","","","","","","","",""
"","identification","9","347603","0.0-9.0-0.0","37153696","wem/bandit_either_2","A2ZR3PL5I0KPQ6","either","2","11264","","","","6","6","6","","","","","","","","","","","","","","","","","","","","","","","","the village of Zur","","","","","","",""
"","identification","10","359402","0.0-9.0-1.0","37153696","wem/bandit_either_2","A2ZR3PL5I0KPQ6","either","2","10760","","","","0","0","0","","","","","","","","","","","","","","","","","","","","","","","","the village of Nyx","","","","","","",""
"","text","11","369109","0.0-10.0","37153696","wem/bandit_either_2","A2ZR3PL5I0KPQ6","either","2","8685","","32","","","","","","","","","","","","","","","","","","","","","","","","","","","","","","","","","","",""
"","text","12","374030","0.0-11.0","37153696","wem/bandit_either_2","A2ZR3PL5I0KPQ6","either","2","4918","","32","","","","","","","","","","","","","","","","","","","","","","","","","","","","","","","","","","",""
"","text","13","377221","0.0-12.0","37153696","wem/bandit_either_2","A2ZR3PL5I0KPQ6","either","2","3187","","32","","","","","","","","","","","","","","","","","","","","","","","","","","","","","","","","","","",""
"","text","14","383986","0.0-13.0","37153696","wem/bandit_either_2","A2ZR3PL5I0KPQ6","either","2","6760","","32","","","","","","","","","","","","","","","","","","","","","","","","","","","","","","","","","","",""
"","bandit","15","387910","0.0-14.0-0.0","37153696","wem/bandit_either_2","A2ZR3PL5I0KPQ6","either","2","2404","","","","","","","0","0","1","0","0","","","","","0","","","","0","","","","","","","","","","","74","J","0","img/none_selected_demo.jpg","true","0",""
"","bandit","16","391504","0.0-15.0-0.0","37153696","wem/bandit_either_2","A2ZR3PL5I0KPQ6","either","2","2013","","","","","","","0","0","1","0","0","","","","","0","","","","0","","","","","","","","","","","75","K","0","img/none_selected_demo.jpg","true","0",""
"","text","17","403513","0.0-16.0","37153696","wem/bandit_either_2","A2ZR3PL5I0KPQ6","either","2","12001","","32","","","","","","","","","","","","","","","","","","","","","","","","","","","","","","","","","","",""
"","text","18","415328","0.0-17.0","37153696","wem/bandit_either_2","A2ZR3PL5I0KPQ6","either","2","11808","","32","","","","","","","","","","","","","","","","","","","","","","","","","","","","","","","","","","",""
"","text","19","423176","0.0-18.0","37153696","wem/bandit_either_2","A2ZR3PL5I0KPQ6","either","2","7843","","32","","","","","","","","","","","","","","","","","","","","","","","","","","","","","","","","","","",""
"","text","20","428343","0.0-19.0","37153696","wem/bandit_either_2","A2ZR3PL5I0KPQ6","either","2","5162","","32","","","","","","","","","","","","","","","","","","","","","","","","","","","","","","","","","","",""
"","bandit","21","431566","0.0-20.0-0.0","37153696","wem/bandit_either_2","A2ZR3PL5I0KPQ6","either","2","1697","","","","","","","1","0","0","0.8","","0.5","0.5","","","","","","","0.8","0.2","","","","","","","","","","74","J","0","img/none_selected_demo.jpg","true","0","80_20_practice"
"","bandit","22","433966","0.0-20.0-1.0","37153696","wem/bandit_either_2","A2ZR3PL5I0KPQ6","either","2","877","","","","","","","0","1","0","","0.2","0.5","0.5","","","0.8","0.2","","","","","","","","","","","","","","75","K","1","","true","0","80_20_practice"
"","bandit","23","436673","0.0-20.0-2.0","37153696","wem/bandit_either_2","A2ZR3PL5I0KPQ6","either","2","1182","","","","","","","0","0","1","","0.8","0.5","0.5","","","0.8","0.2","","","","","","","","","","","","","","74","J","0","img/none_selected_demo.jpg","true","0","80_20_practice"
"","bandit","24","439282","0.0-20.0-3.0","37153696","wem/bandit_either_2","A2ZR3PL5I0KPQ6","either","2","1092","","","","","","","0","1","0","","0.8","0.5","0.5","","","0.8","0.2","","","","","","","","","","","","","","74","J","0","img/none_selected_demo.jpg","true","0","80_20_practice"
"","bandit","25","441743","0.0-20.0-4.0","37153696","wem/bandit_either_2","A2ZR3PL5I0KPQ6","either","2","939","","","","","","","0","0","1","0.2","","0.5","0.5","","","","","","","0.8","0.2","","","","","","","","","","75","K","1","","true","0","80_20_practice"
"","bandit","26","443870","0.0-20.0-5.0","37153696","wem/bandit_either_2","A2ZR3PL5I0KPQ6","either","2","600","","","","","","","0","0","1","0.2","","0.5","0.5","","","","","","","0.8","0.2","","","","","","","","","","75","K","1","","true","0","80_20_practice"
"","bandit","27","445949","0.0-20.0-6.0","37153696","wem/bandit_either_2","A2ZR3PL5I0KPQ6","either","2","552","","","","","","","1","0","0","0.8","","0.5","0.5","","","","","","","0.8","0.2","","","","","","","","","","74","J","0","img/none_selected_demo.jpg","true","0","80_20_practice"
"","bandit","28","448213","0.0-20.0-7.0","37153696","wem/bandit_either_2","A2ZR3PL5I0KPQ6","either","2","743","","","","","","","0","1","0","","0.8","0.5","0.5","","","0.8","0.2","","","","","","","","","","","","","","74","J","0","img/none_selected_demo.jpg","true","0","80_20_practice"
"","bandit","29","450561","0.0-20.0-8.0","37153696","wem/bandit_either_2","A2ZR3PL5I0KPQ6","either","2","826","","","","","","","1","0","0","0.8","","0.5","0.5","","","","","","","0.8","0.2","","","","","","","","","","74","J","0","img/none_selected_demo.jpg","true","0","80_20_practice"
"","bandit","30","452645","0.0-20.0-9.0","37153696","wem/bandit_either_2","A2ZR3PL5I0KPQ6","either","2","561","","","","","","","0","1","0","","0.8","0.5","0.5","","","0.8","0.2","","","","","","","","","","","","","","74","J","0","img/none_selected_demo.jpg","true","0","80_20_practice"
"","bandit","31","454656","0.0-20.0-10.0","37153696","wem/bandit_either_2","A2ZR3PL5I0KPQ6","either","2","487","","","","","","","0","1","0","","0.8","0.5","0.5","","","0.8","0.2","","","","","","","","","","","","","","74","J","0","img/none_selected_demo.jpg","true","0","80_20_practice"
"","bandit","32","456748","0.0-20.0-11.0","37153696","wem/bandit_either_2","A2ZR3PL5I0KPQ6","either","2","561","","","","","","","0","1","0","","0.8","0.5","0.5","","","0.8","0.2","","","","","","","","","","","","","","74","J","0","img/none_selected_demo.jpg","true","0","80_20_practice"
"","bandit","33","458804","0.0-20.0-12.0","37153696","wem/bandit_either_2","A2ZR3PL5I0KPQ6","either","2","527","","","","","","","0","1","0","","0.8","0.5","0.5","","","0.8","0.2","","","","","","","","","","","","","","74","J","0","img/none_selected_demo.jpg","true","0","80_20_practice"
"","bandit","34","460984","0.0-20.0-13.0","37153696","wem/bandit_either_2","A2ZR3PL5I0KPQ6","either","2","433","","","","","","","0","0","1","","0.8","0.5","0.5","","","0.8","0.2","","","","","","","","","","","","","","74","J","0","img/none_selected_demo.jpg","true","0","80_20_practice"
"","bandit","35","463150","0.0-20.0-14.0","37153696","wem/bandit_either_2","A2ZR3PL5I0KPQ6","either","2","638","","","","","","","0","1","0","","0.8","0.5","0.5","","","0.8","0.2","","","","","","","","","","","","","","74","J","0","img/none_selected_demo.jpg","true","0","80_20_practice"
"","bandit","36","465344","0.0-20.0-15.0","37153696","wem/bandit_either_2","A2ZR3PL5I0KPQ6","either","2","661","","","","","","","0","0","1","0.8","","0.5","0.5","","","","","","","0.8","0.2","","","","","","","","","","74","J","0","img/none_selected_demo.jpg","true","0","80_20_practice"
"","bandit","37","467304","0.0-20.0-16.0","37153696","wem/bandit_either_2","A2ZR3PL5I0KPQ6","either","2","434","","","","","","","0","0","1","","0.2","0.5","0.5","","","0.8","0.2","","","","","","","","","","","","","","75","K","1","","true","0","80_20_practice"
"","bandit","38","469181","0.0-20.0-17.0","37153696","wem/bandit_either_2","A2ZR3PL5I0KPQ6","either","2","352","","","","","","","0","1","0","","0.8","0.5","0.5","","","0.8","0.2","","","","","","","","","","","","","","74","J","0","img/none_selected_demo.jpg","true","0","80_20_practice"
"","bandit","39","471245","0.0-20.0-18.0","37153696","wem/bandit_either_2","A2ZR3PL5I0KPQ6","either","2","541","","","","","","","0","1","0","","0.8","0.5","0.5","","","0.8","0.2","","","","","","","","","","","","","","74","J","0","img/none_selected_demo.jpg","true","0","80_20_practice"
"","bandit","40","473280","0.0-20.0-19.0","37153696","wem/bandit_either_2","A2ZR3PL5I0KPQ6","either","2","515","","","","","","","0","1","0","","0.8","0.5","0.5","","","0.8","0.2","","","","","","","","","","","","","","74","J","0","img/none_selected_demo.jpg","true","0","80_20_practice"
"","text","41","480749","0.0-21.0","37153696","wem/bandit_either_2","A2ZR3PL5I0KPQ6","either","2","7464","","32","","","","","","","","","","","","","","","","","","","","","","","","","","","","","","","","","","",""
"","bandit","42","483204","0.0-22.0-0.0","37153696","wem/bandit_either_2","A2ZR3PL5I0KPQ6","either","2","929","","","","","","","1","0","0","1","0","","","","","0","1","","","1","0","","","","","","","","","","74","J","0","img/none_selected_demo.jpg","true","0",""
"","text","43","490465","0.0-23.0","37153696","wem/bandit_either_2","A2ZR3PL5I0KPQ6","either","2","7253","","32","","","","","","","","","","","","","","","","","","","","","","","","","","","","","","","","","","",""
"","text","44","493513","0.0-24.0","37153696","wem/bandit_either_2","A2ZR3PL5I0KPQ6","either","2","3045","","32","","","","","","","","","","","","","","","","","","","","","","","","","","","","","","","","","","",""
"","text","45","496940","0.0-25.0","37153696","wem/bandit_either_2","A2ZR3PL5I0KPQ6","either","2","3423","","32","","","","","","","","","","","","","","","","","","","","","","","","","","","","","","","","","","",""
"","text","46","502108","0.0-26.0","37153696","wem/bandit_either_2","A2ZR3PL5I0KPQ6","either","2","5164","","32","","","","","","","","","","","","","","","","","","","","","","","","","","","","","","","","","","",""
"","text","47","512946","0.0-27.0","37153696","wem/bandit_either_2","A2ZR3PL5I0KPQ6","either","2","10832","","32","","","","","","","","","","","","","","","","","","","","","","","","","","","","","","","","","","",""
"","text","48","517107","0.0-28.0","37153696","wem/bandit_either_2","A2ZR3PL5I0KPQ6","either","2","4157","","32","","","","","","","","","","","","","","","","","","","","","","","","","","","","","","","","","","",""
"","text","49","522402","0.0-29.0","37153696","wem/bandit_either_2","A2ZR3PL5I0KPQ6","either","2","5287","","32","","","","","","","","","","","","","","","","","","","","","","","","","","","","","","","","","","",""
"","text","50","526655","0.0-30.0","37153696","wem/bandit_either_2","A2ZR3PL5I0KPQ6","either","2","4246","","32","","","","","","","","","","","","","","","","","","","","","","","","","","","","","","","","","","",""
"","text","51","533733","0.0-31.0","37153696","wem/bandit_either_2","A2ZR3PL5I0KPQ6","either","2","7070","","32","","","","","","","","","","","","","","","","","","","","","","","","","","","","","","","","","","",""
"","text","52","536549","0.0-32.0","37153696","wem/bandit_either_2","A2ZR3PL5I0KPQ6","either","2","2810","","32","","","","","","","","","","","","","","","","","","","","","","","","","","","","","","","","","","",""
"","text","53","550427","0.0-33.0","37153696","wem/bandit_either_2","A2ZR3PL5I0KPQ6","either","2","13873","","32","","","","","","","","","","","","","","","","","","","","","","","","","","","","","","","","","","",""
"","bandit","54","552937","0.0-34.0-0.0","37153696","wem/bandit_either_2","A2ZR3PL5I0KPQ6","either","2","980","","","","","","","0","1","0","","0.8","0.5","0.5","0.5","0.5","0.8","0.2","0.6","0.2","","","","","","","","","","","","72","H","0","img/none_selected.jpg","true","0","full_practice"
"","bandit","55","555298","0.0-34.0-1.0","37153696","wem/bandit_either_2","A2ZR3PL5I0KPQ6","either","2","827","","","","","","","0","0","1","0.2","","0.5","0.5","0.5","0.5","","","","","0.8","0.2","0.6","0.2","","","","","","","","74","J","1","","true","0","full_practice"
"","bandit","56","557430","0.0-34.0-2.0","37153696","wem/bandit_either_2","A2ZR3PL5I0KPQ6","either","2","600","","","","","","","0","1","0","","0.8","0.5","0.5","0.5","0.5","0.8","0.2","0.6","0.2","","","","","","","","","","","","72","H","0","img/none_selected.jpg","true","0","full_practice"
"","bandit","57","559733","0.0-34.0-3.0","37153696","wem/bandit_either_2","A2ZR3PL5I0KPQ6","either","2","782","","","","","","","0","0","1","0.8","","0.5","0.5","0.5","0.5","","","","","0.8","0.2","0.6","0.2","","","","","","","","72","H","0","img/none_selected.jpg","true","0","full_practice"
"","bandit","58","561830","0.0-34.0-4.0","37153696","wem/bandit_either_2","A2ZR3PL5I0KPQ6","either","2","571","","","","","","","0","0","1","","0.6","0.5","0.5","0.5","0.5","0.8","0.2","0.6","0.2","","","","","","","","","","","","75","K","2","","true","0","full_practice"
"","bandit","59","563786","0.0-34.0-5.0","37153696","wem/bandit_either_2","A2ZR3PL5I0KPQ6","either","2","431","","","","","","","0","0","1","","0.2","0.5","0.5","0.5","0.5","0.8","0.2","0.6","0.2","","","","","","","","","","","","76","L","3","","true","0","full_practice"
"","bandit","60","565750","0.0-34.0-6.0","37153696","wem/bandit_either_2","A2ZR3PL5I0KPQ6","either","2","431","","","","","","","0","1","0","","0.8","0.5","0.5","0.5","0.5","0.8","0.2","0.6","0.2","","","","","","","","","","","","72","H","0","img/none_selected.jpg","true","0","full_practice"
"","bandit","61","567879","0.0-34.0-7.0","37153696","wem/bandit_either_2","A2ZR3PL5I0KPQ6","either","2","605","","","","","","","0","1","0","","0.8","0.5","0.5","0.5","0.5","0.8","0.2","0.6","0.2","","","","","","","","","","","","72","H","0","img/none_selected.jpg","true","0","full_practice"
"","bandit","62","570085","0.0-34.0-8.0","37153696","wem/bandit_either_2","A2ZR3PL5I0KPQ6","either","2","688","","","","","","","0","0","1","0.8","","0.5","0.5","0.5","0.5","","","","","0.8","0.2","0.6","0.2","","","","","","","","72","H","0","img/none_selected.jpg","true","0","full_practice"
"","bandit","63","572215","0.0-34.0-9.0","37153696","wem/bandit_either_2","A2ZR3PL5I0KPQ6","either","2","601","","","","","","","1","0","0","0.8","","0.5","0.5","0.5","0.5","","","","","0.8","0.2","0.6","0.2","","","","","","","","72","H","0","img/none_selected.jpg","true","0","full_practice"
"","bandit","64","574505","0.0-34.0-10.0","37153696","wem/bandit_either_2","A2ZR3PL5I0KPQ6","either","2","754","","","","","","","1","0","0","0.8","","0.5","0.5","0.5","0.5","","","","","0.8","0.2","0.6","0.2","","","","","","","","72","H","0","img/none_selected.jpg","true","0","full_practice"
"","bandit","65","576764","0.0-34.0-11.0","37153696","wem/bandit_either_2","A2ZR3PL5I0KPQ6","either","2","729","","","","","","","0","1","0","","0.8","0.5","0.5","0.5","0.5","0.8","0.2","0.6","0.2","","","","","","","","","","","","72","H","0","img/none_selected.jpg","true","0","full_practice"
"","bandit","66","579132","0.0-34.0-12.0","37153696","wem/bandit_either_2","A2ZR3PL5I0KPQ6","either","2","841","","","","","","","0","1","0","","0.8","0.5","0.5","0.5","0.5","0.8","0.2","0.6","0.2","","","","","","","","","","","","72","H","0","img/none_selected.jpg","true","0","full_practice"
"","bandit","67","581518","0.0-34.0-13.0","37153696","wem/bandit_either_2","A2ZR3PL5I0KPQ6","either","2","864","","","","","","","0","1","0","","0.8","0.5","0.5","0.5","0.5","0.8","0.2","0.6","0.2","","","","","","","","","","","","72","H","0","img/none_selected.jpg","true","0","full_practice"
"","bandit","68","583989","0.0-34.0-14.0","37153696","wem/bandit_either_2","A2ZR3PL5I0KPQ6","either","2","941","","","","","","","0","1","0","","0.8","0.5","0.5","0.5","0.5","0.8","0.2","0.6","0.2","","","","","","","","","","","","72","H","0","img/none_selected.jpg","true","0","full_practice"
"","bandit","69","586335","0.0-34.0-15.0","37153696","wem/bandit_either_2","A2ZR3PL5I0KPQ6","either","2","818","","","","","","","1","0","0","0.8","","0.5","0.5","0.5","0.5","","","","","0.8","0.2","0.6","0.2","","","","","","","","72","H","0","img/none_selected.jpg","true","0","full_practice"
"","bandit","70","588610","0.0-34.0-16.0","37153696","wem/bandit_either_2","A2ZR3PL5I0KPQ6","either","2","738","","","","","","","1","0","0","0.8","","0.5","0.5","0.5","0.5","","","","","0.8","0.2","0.6","0.2","","","","","","","","72","H","0","img/none_selected.jpg","true","0","full_practice"
"","bandit","71","591470","0.0-34.0-17.0","37153696","wem/bandit_either_2","A2ZR3PL5I0KPQ6","either","2","1324","","","","","","","0","1","0","","0.8","0.5","0.5","0.5","0.5","0.8","0.2","0.6","0.2","","","","","","","","","","","","72","H","0","img/none_selected.jpg","true","0","full_practice"
"","bandit","72","593529","0.0-34.0-18.0","37153696","wem/bandit_either_2","A2ZR3PL5I0KPQ6","either","2","522","","","","","","","0","1","0","","0.8","0.5","0.5","0.5","0.5","0.8","0.2","0.6","0.2","","","","","","","","","","","","72","H","0","img/none_selected.jpg","true","0","full_practice"
"","bandit","73","595663","0.0-34.0-19.0","37153696","wem/bandit_either_2","A2ZR3PL5I0KPQ6","either","2","600","","","","","","","0","1","0","","0.8","0.5","0.5","0.5","0.5","0.8","0.2","0.6","0.2","","","","","","","","","","","","72","H","0","img/none_selected.jpg","true","0","full_practice"
"","text","74","599502","0.0-35.0","37153696","wem/bandit_either_2","A2ZR3PL5I0KPQ6","either","2","3825","","32","","","","","","","","","","","","","","","","","","","","","","","","","","","","","","","","","","",""
"","text","75","616257","0.0-36.0","37153696","wem/bandit_either_2","A2ZR3PL5I0KPQ6","either","2","15747","","32","","","","","","","","","","","","","","","","","","","","","","","","","","","","","","","","","","",""
"","text","76","630379","0.0-37.0","37153696","wem/bandit_either_2","A2ZR3PL5I0KPQ6","either","2","14115","","32","","","","","","","","","","","","","","","","","","","","","","","","","","","","","","","","","","",""
"","text","77","637488","0.0-38.0","37153696","wem/bandit_either_2","A2ZR3PL5I0KPQ6","either","2","7103","","32","","","","","","","","","","","","","","","","","","","","","","","","","","","","","","","","","","",""
"","text","78","647083","0.0-39.0","37153696","wem/bandit_either_2","A2ZR3PL5I0KPQ6","either","2","9584","","32","","","","","","","","","","","","","","","","","","","","","","","","","","","","","","","","","","",""
"","text","79","654222","0.0-40.0","37153696","wem/bandit_either_2","A2ZR3PL5I0KPQ6","either","2","7133","","32","","","","","","","","","","","","","","","","","","","","","","","","","","","","","","","","","","",""
"","bandit","80","658763","0.0-41.0-0.0","37153696","wem/bandit_either_2","A2ZR3PL5I0KPQ6","either","2","2888","","","","","","","0","1","0","","0.362799796","0.2","0.6","0.8","0.4","0.362799796","0.326135308","0.3653736811","0.4781977867","","","","","","","","","","","","72","H","0","img/none_selected.jpg","","1","main_expt"
"","bandit","81","660755","0.0-42.0-0.0","37153696","wem/bandit_either_2","A2ZR3PL5I0KPQ6","either","2","459","","","","","","","0","1","0","","0.3891507205","0.2","0.6","0.8","0.4","0.3891507205","0.3564958201","0.3999069229","0.4765481994","","","","","","","","","","","","72","H","0","img/none_selected.jpg","","2","main_expt"
"","bandit","82","662770","0.0-43.0-0.0","37153696","wem/bandit_either_2","A2ZR3PL5I0KPQ6","either","2","480","","","","","","","0","1","0","","0.3151339382","0.2","0.6","0.8","0.4","0.3151339382","0.3309056029","0.4363582421","0.4722158263","","","","","","","","","","","","72","H","0","img/none_selected.jpg","","3","main_expt"
"","bandit","83","664743","0.0-44.0-0.0","37153696","wem/bandit_either_2","A2ZR3PL5I0KPQ6","either","2","445","","","","","","","0","0","1","","0.250648122","0.2","0.6","0.8","0.4","0.250648122","0.308467875","0.4300921111","0.4609570051","","","","","","","","","","","","72","H","0","img/none_selected.jpg","","4","main_expt"
"","bandit","84","666697","0.0-45.0-0.0","37153696","wem/bandit_either_2","A2ZR3PL5I0KPQ6","either","2","430","","","","","","","0","1","0","","0.2382585344","0.2","0.6","0.8","0.4","0.2382585344","0.3349995635","0.3863220662","0.4707799186","","","","","","","","","","","","72","H","0","img/none_selected.jpg","","5","main_expt"
"","bandit","85","668636","0.0-46.0-0.0","37153696","wem/bandit_either_2","A2ZR3PL5I0KPQ6","either","2","415","","","","","","","0","0","1","","0.2088101903","0.2","0.6","0.8","0.4","0.2088101903","0.3743101545","0.4192648028","0.4676743975","","","","","","","","","","","","72","H","0","img/none_selected.jpg","","6","main_expt"
"","bandit","86","670843","0.0-47.0-0.0","37153696","wem/bandit_either_2","A2ZR3PL5I0KPQ6","either","2","678","","","","","","","0","1","0","","0.377506125","0.2","0.6","0.8","0.4","0.1884279889","0.377506125","0.4218548145","0.4767364015","","","","","","","","","","","","74","J","1","","","7","main_expt"
"","bandit","87","672876","0.0-48.0-0.0","37153696","wem/bandit_either_2","A2ZR3PL5I0KPQ6","either","2","510","","","","","","","1","0","0","0.4298914749","","0.2","0.6","0.8","0.4","","","","","0.2297930851","0.3452849142","0.4298914749","0.4837409877","","","","","","","","75","K","2","","","8","main_expt"
"","bandit","88","674950","0.0-49.0-0.0","37153696","wem/bandit_either_2","A2ZR3PL5I0KPQ6","either","2","547","","","","","","","1","0","0","0.4825212187","","0.2","0.6","0.8","0.4","","","","","0.2219539873","0.2713567333","0.4215440671","0.4825212187","","","","","","","","76","L","3","","","9","main_expt"
"","bandit","89","679503","0.0-50.0-0.0","37153696","wem/bandit_either_2","A2ZR3PL5I0KPQ6","either","2","3026","","","","","","","0","0","1","0.2398128751","","0.2","0.6","0.8","0.4","","","","","0.2398128751","0.2712708503","0.3991616263","0.4791264729","","","","","","","","72","H","0","img/none_selected.jpg","","10","main_expt"
"","bandit","90","681484","0.0-51.0-0.0","37153696","wem/bandit_either_2","A2ZR3PL5I0KPQ6","either","2","457","","","","","","","0","1","0","","0.2635531688","0.2","0.6","0.8","0.4","0.2551733424","0.2635531688","0.4002673883","0.4762013833","","","","","","","","","","","","74","J","1","","","11","main_expt"
"","bandit","91","683978","0.0-52.0-0.0","37153696","wem/bandit_either_2","A2ZR3PL5I0KPQ6","either","2","975","","","","","","","0","0","1","0.2669056975","","0.2","0.6","0.8","0.4","","","","","0.2593424883","0.2669056975","0.368629831","0.4729837645","","","","","","","","74","J","1","","","12","main_expt"
"","bandit","92","685932","0.0-53.0-0.0","37153696","wem/bandit_either_2","A2ZR3PL5I0KPQ6","either","2","421","","","","","","","0","0","1","0.4189726289","","0.2","0.6","0.8","0.4","","","","","0.2493591627","0.3204456557","0.4189726289","0.4749786695","","","","","","","","75","K","2","","","13","main_expt"
"","bandit","93","687940","0.0-54.0-0.0","37153696","wem/bandit_either_2","A2ZR3PL5I0KPQ6","either","2","480","","","","","","","0","0","1","0.4810115094","","0.2","0.6","0.8","0.4","","","","","0.2686446846","0.3466526728","0.4352425359","0.4810115094","","","","","","","","76","L","3","","","14","main_expt"
"","bandit","94","689900","0.0-55.0-0.0","37153696","wem/bandit_either_2","A2ZR3PL5I0KPQ6","either","2","441","","","","","","","0","1","0","","0.2690169042","0.2","0.6","0.8","0.4","0.2690169042","0.3736671224","0.3819090161","0.4705329286","","","","","","","","","","","","72","H","0","img/none_selected.jpg","","15","main_expt"
"","bandit","95","692433","0.0-56.0-0.0","37153696","wem/bandit_either_2","A2ZR3PL5I0KPQ6","either","2","1013","","","","","","","0","0","1","0.2518303543","","0.2","0.6","0.8","0.4","","","","","0.2518303543","0.3778143907","0.3737760256","0.4687419894","","","","","","","","72","H","0","img/none_selected.jpg","","16","main_expt"
"","bandit","96","694483","0.0-57.0-0.0","37153696","wem/bandit_either_2","A2ZR3PL5I0KPQ6","either","2","531","","","","","","","0","0","1","","0.2406549936","0.2","0.6","0.8","0.4","0.2406549936","0.3845750066","0.4151791473","0.4594180265","","","","","","","","","","","","72","H","0","img/none_selected.jpg","","17","main_expt"
"","bandit","97","696347","0.0-58.0-0.0","37153696","wem/bandit_either_2","A2ZR3PL5I0KPQ6","either","2","337","","","","","","","0","1","0","","0.4041286345","0.2","0.6","0.8","0.4","0.2670149403","0.4041286345","0.4137363134","0.425397146","","","","","","","","","","","","74","J","1","","","18","main_expt"
"","bandit","98","698347","0.0-59.0-0.0","37153696","wem/bandit_either_2","A2ZR3PL5I0KPQ6","either","2","469","","","","","","","0","0","1","0.4127350431","","0.2","0.6","0.8","0.4","","","","","0.2658482338","0.4127350431","0.4084056464","0.4201246927","","","","","","","","74","J","1","","","19","main_expt"
"","bandit","99","700237","0.0-60.0-0.0","37153696","wem/bandit_either_2","A2ZR3PL5I0KPQ6","either","2","367","","","","","","","0","1","0","","0.4107359536","0.2","0.6","0.8","0.4","0.2452433766","0.4107359536","0.4129175496","0.3954271328","","","","","","","","","","","","74","J","1","","","20","main_expt"
"","bandit","100","702381","0.0-61.0-0.0","37153696","wem/bandit_either_2","A2ZR3PL5I0KPQ6","either","2","622","","","","","","","0","0","1","0.3954861765","","0.2","0.6","0.8","0.4","","","","","0.2298761452","0.3954861765","0.3888488162","0.4196431029","","","","","","","","74","J","1","","","21","main_expt"
"","bandit","101","704335","0.0-62.0-0.0","37153696","wem/bandit_either_2","A2ZR3PL5I0KPQ6","either","2","435","","","","","","","1","0","0","0.3873149631","","0.2","0.6","0.8","0.4","","","","","0.266827693","0.3805979297","0.3873149631","0.3843335182","","","","","","","","75","K","2","","","22","main_expt"
"","bandit","102","706587","0.0-63.0-0.0","37153696","wem/bandit_either_2","A2ZR3PL5I0KPQ6","either","2","721","","","","","","","1","0","0","0.3659772031","","0.2","0.6","0.8","0.4","","","","","0.2519769849","0.425451992","0.3659772031","0.3839977458","","","","","","","","75","K","2","","","23","main_expt"
"","bandit","103","708708","0.0-64.0-0.0","37153696","wem/bandit_either_2","A2ZR3PL5I0KPQ6","either","2","598","","","","","","","0","0","1","0.3594327093","","0.2","0.6","0.8","0.4","","","","","0.2447613107","0.4699447661","0.3594327093","0.3338939571","","","","","","","","75","K","2","","","24","main_expt"
"","bandit","104","710723","0.0-65.0-0.0","37153696","wem/bandit_either_2","A2ZR3PL5I0KPQ6","either","2","492","","","","","","","0","0","1","0.4484050393","","0.2","0.6","0.8","0.4","","","","","0.2350413847","0.4484050393","0.3719143394","0.324486952","","","","","","","","74","J","1","","","25","main_expt"
"","bandit","105","712691","0.0-66.0-0.0","37153696","wem/bandit_either_2","A2ZR3PL5I0KPQ6","either","2","443","","","","","","","1","0","0","0.3690014044","","0.2","0.6","0.8","0.4","","","","","0.207774486","0.4190234423","0.3690014044","0.3095710384","","","","","","","","75","K","2","","","26","main_expt"
"","bandit","106","714751","0.0-67.0-0.0","37153696","wem/bandit_either_2","A2ZR3PL5I0KPQ6","either","2","530","","","","","","","1","0","0","0.3940030818","","0.2","0.6","0.8","0.4","","","","","0.2164182795","0.4251478254","0.3940030818","0.3355629191","","","","","","","","75","K","2","","","27","main_expt"
"","bandit","107","716785","0.0-68.0-0.0","37153696","wem/bandit_either_2","A2ZR3PL5I0KPQ6","either","2","511","","","","","","","0","0","1","0.4111080327","","0.2","0.6","0.8","0.4","","","","","0.2164031865","0.4287328697","0.4111080327","0.3668681485","","","","","","","","75","K","2","","","28","main_expt"
"","bandit","108","718920","0.0-69.0-0.0","37153696","wem/bandit_either_2","A2ZR3PL5I0KPQ6","either","2","606","","","","","","","0","1","0","","0.4106025245","0.2","0.6","0.8","0.4","0.2770000278","0.4106025245","0.41290056","0.343198694","","","","","","","","","","","","74","J","1","","","29","main_expt"
"","bandit","109","721135","0.0-70.0-0.0","37153696","wem/bandit_either_2","A2ZR3PL5I0KPQ6","either","2","690","","","","","","","1","0","0","0.3942494676","","0.2","0.6","0.8","0.4","","","","","0.2354797847","0.3942494676","0.3937480262","0.326069126","","","","","","","","74","J","1","","","30","main_expt"
"","bandit","110","723381","0.0-71.0-0.0","37153696","wem/bandit_either_2","A2ZR3PL5I0KPQ6","either","2","707","","","","","","","0","0","1","0.4285056211","","0.2","0.6","0.8","0.4","","","","","0.2692030882","0.4285056211","0.3997016236","0.3390127419","","","","","","","","74","J","1","","","31","main_expt"
"","bandit","111","725273","0.0-72.0-0.0","37153696","wem/bandit_either_2","A2ZR3PL5I0KPQ6","either","2","344","","","","","","","0","0","1","0.3574295763","","0.2","0.6","0.8","0.4","","","","","0.2471118655","0.4249454459","0.3574295763","0.3360649894","","","","","","","","75","K","2","","","32","main_expt"
"","bandit","112","727300","0.0-73.0-0.0","37153696","wem/bandit_either_2","A2ZR3PL5I0KPQ6","either","2","496","","","","","","","1","0","0","0.3877818659","","0.2","0.6","0.8","0.4","","","","","0.2879199001","0.416417765","0.3877818659","0.3052602024","","","","","","","","75","K","2","","","33","main_expt"
"","bandit","113","729675","0.0-74.0-0.0","37153696","wem/bandit_either_2","A2ZR3PL5I0KPQ6","either","2","845","","","","","","","1","0","0","0.3799496232","","0.2","0.6","0.8","0.4","","","","","0.3180115212","0.4623714429","0.3799496232","0.3594788954","","","","","","","","75","K","2","","","34","main_expt"
"","bandit","114","731656","0.0-75.0-0.0","37153696","wem/bandit_either_2","A2ZR3PL5I0KPQ6","either","2","442","","","","","","","1","0","0","0.3577573403","","0.2","0.6","0.8","0.4","","","","","0.2524306687","0.4591977302","0.3577573403","0.380235832","","","","","","","","75","K","2","","","35","main_expt"
"","bandit","115","733652","0.0-76.0-0.0","37153696","wem/bandit_either_2","A2ZR3PL5I0KPQ6","either","2","470","","","","","","","0","0","1","0.3895375856","","0.2","0.6","0.8","0.4","","","","","0.2351869563","0.4686235256","0.3895375856","0.3459989602","","","","","","","","75","K","2","","","36","main_expt"
"","bandit","116","736360","0.0-77.0-0.0","37153696","wem/bandit_either_2","A2ZR3PL5I0KPQ6","either","2","1179","","","","","","","0","0","1","","0.3320905149","0.2","0.6","0.8","0.4","0.2629170466","0.4571547709","0.3783527007","0.3320905149","","","","","","","","","","","","76","L","3","","","37","main_expt"
"","bandit","117","738260","0.0-78.0-0.0","37153696","wem/bandit_either_2","A2ZR3PL5I0KPQ6","either","2","375","","","","","","","0","0","1","0.284076782","","0.2","0.6","0.8","0.4","","","","","0.3090194305","0.4688430709","0.284076782","0.3471020919","","","","","","","","75","K","2","","","38","main_expt"
"","bandit","118","740189","0.0-79.0-0.0","37153696","wem/bandit_either_2","A2ZR3PL5I0KPQ6","either","2","399","","","","","","","0","1","0","","0.4612923778","0.2","0.6","0.8","0.4","0.2845371228","0.4612923778","0.3388972186","0.3401763967","","","","","","","","","","","","74","J","1","","","39","main_expt"
"","bandit","119","742240","0.0-80.0-0.0","37153696","wem/bandit_either_2","A2ZR3PL5I0KPQ6","either","2","531","","","","","","","1","0","0","0.4576194683","","0.2","0.6","0.8","0.4","","","","","0.3076259244","0.4576194683","0.2663655232","0.3260487483","","","","","","","","74","J","1","","","40","main_expt"
"","bandit","120","744458","0.0-81.0-0.0","37153696","wem/bandit_either_2","A2ZR3PL5I0KPQ6","either","2","698","","","","","","","0","1","0","","0.4473921051","0.2","0.6","0.8","0.4","0.2888769276","0.4473921051","0.2608266697","0.3390218734","","","","","","","","","","","","74","J","1","","","41","main_expt"
"","bandit","121","746484","0.0-82.0-0.0","37153696","wem/bandit_either_2","A2ZR3PL5I0KPQ6","either","2","500","","","","","","","0","0","1","0.425470286","","0.2","0.6","0.8","0.4","","","","","0.2639198141","0.425470286","0.2287676803","0.2889680017","","","","","","","","74","J","1","","","42","main_expt"
"","bandit","122","748412","0.0-83.0-0.0","37153696","wem/bandit_either_2","A2ZR3PL5I0KPQ6","either","2","406","","","","","","","0","0","1","","0.2043112358","0.2","0.6","0.8","0.4","0.2255441472","0.4030522017","0.2043112358","0.2784828801","","","","","","","","","","","","75","K","2","","","43","main_expt"
"","bandit","123","750420","0.0-84.0-0.0","37153696","wem/bandit_either_2","A2ZR3PL5I0KPQ6","either","2","475","","","","","","","0","1","0","","0.2805729819","0.2","0.6","0.8","0.4","0.2050272072","0.4106315797","0.1957049551","0.2805729819","","","","","","","","","","","","76","L","3","","","44","main_expt"
"","bandit","124","752371","0.0-85.0-0.0","37153696","wem/bandit_either_2","A2ZR3PL5I0KPQ6","either","2","418","","","","","","","0","0","1","","0.2195119073","0.2","0.6","0.8","0.4","0.239455925","0.4258527362","0.2207366272","0.2195119073","","","","","","","","","","","","76","L","3","","","45","main_expt"
"","bandit","125","754570","0.0-86.0-0.0","37153696","wem/bandit_either_2","A2ZR3PL5I0KPQ6","either","2","669","","","","","","","0","0","1","","0.2414778298","0.2","0.6","0.8","0.4","0.2414778298","0.4425966235","0.1727988076","0.2657932304","","","","","","","","","","","","72","H","0","img/none_selected.jpg","","46","main_expt"
"","bandit","126","756480","0.0-87.0-0.0","37153696","wem/bandit_either_2","A2ZR3PL5I0KPQ6","either","2","378","","","","","","","0","0","1","0.4428977597","","0.2","0.6","0.8","0.4","","","","","0.1884211613","0.4428977597","0.1446735631","0.2678398397","","","","","","","","74","J","1","","","47","main_expt"
"","bandit","127","758455","0.0-88.0-0.0","37153696","wem/bandit_either_2","A2ZR3PL5I0KPQ6","either","2","444","","","","","","","0","1","0","","0.4479964269","0.2","0.6","0.8","0.4","0.1755274282","0.4479964269","0.1681765936","0.2866904938","","","","","","","","","","","","74","J","1","","","48","main_expt"
"","bandit","128","760616","0.0-89.0-0.0","37153696","wem/bandit_either_2","A2ZR3PL5I0KPQ6","either","2","636","","","","","","","0","0","1","","0.4660387519","0.2","0.6","0.8","0.4","0.1646396384","0.4660387519","0.1473883531","0.2803848884","","","","","","","","","","","","74","J","1","","","49","main_expt"
"","bandit","129","762575","0.0-90.0-0.0","37153696","wem/bandit_either_2","A2ZR3PL5I0KPQ6","either","2","430","","","","","","","0","0","1","0.1378170987","","0.2","0.6","0.8","0.4","","","","","0.2024226619","0.4345757832","0.1378170987","0.2587411269","","","","","","","","75","K","2","","","50","main_expt"
"","bandit","130","765140","0.0-91.0-0.0","37153696","wem/bandit_either_2","A2ZR3PL5I0KPQ6","either","2","1029","","","","","","","0","0","1","","0.1430360168","0.2","0.6","0.8","0.4","0.1976760068","0.4450950844","0.1430360168","0.2212901065","","","","","","","","","","","","75","K","2","","","51","main_expt"
"","bandit","131","767031","0.0-92.0-0.0","37153696","wem/bandit_either_2","A2ZR3PL5I0KPQ6","either","2","369","","","","","","","0","1","0","","0.1796352224","0.2","0.6","0.8","0.4","0.1796352224","0.4475354499","0.1731798725","0.236006857","","","","","","","","","","","","72","H","0","img/none_selected.jpg","","52","main_expt"
"","bandit","132","769105","0.0-93.0-0.0","37153696","wem/bandit_either_2","A2ZR3PL5I0KPQ6","either","2","543","","","","","","","0","0","1","","0.2451732725","0.2","0.6","0.8","0.4","0.2451732725","0.4627294295","0.1312409056","0.2660825342","","","","","","","","","","","","72","H","0","img/none_selected.jpg","","53","main_expt"
"","bandit","133","771015","0.0-94.0-0.0","37153696","wem/bandit_either_2","A2ZR3PL5I0KPQ6","either","2","376","","","","","","","0","0","1","0.2621482643","","0.2","0.6","0.8","0.4","","","","","0.2621482643","0.44829207","0.1862053218","0.2458345041","","","","","","","","72","H","0","img/none_selected.jpg","","54","main_expt"
"","bandit","134","772893","0.0-95.0-0.0","37153696","wem/bandit_either_2","A2ZR3PL5I0KPQ6","either","2","353","","","","","","","0","0","1","","0.2265690781","0.2","0.6","0.8","0.4","0.2441780383","0.4505537928","0.1733563037","0.2265690781","","","","","","","","","","","","76","L","3","","","55","main_expt"
"","bandit","135","775066","0.0-96.0-0.0","37153696","wem/bandit_either_2","A2ZR3PL5I0KPQ6","either","2","646","","","","","","","0","0","1","0.2741820357","","0.2","0.6","0.8","0.4","","","","","0.199729785","0.4686400132","0.1728369204","0.2741820357","","","","","","","","76","L","3","","","56","main_expt"
"","bandit","136","776926","0.0-97.0-0.0","37153696","wem/bandit_either_2","A2ZR3PL5I0KPQ6","either","2","333","","","","","","","0","0","1","0.09176359954","","0.2","0.6","0.8","0.4","","","","","0.1945085845","0.4572679106","0.09176359954","0.2937641054","","","","","","","","75","K","2","","","57","main_expt"
"","bandit","137","778911","0.0-98.0-0.0","37153696","wem/bandit_either_2","A2ZR3PL5I0KPQ6","either","2","457","","","","","","","0","1","0","","0.4300169527","0.2","0.6","0.8","0.4","0.2614759052","0.4300169527","0.04991422033","0.2949827607","","","","","","","","","","","","74","J","1","","","58","main_expt"
"","bandit","138","781002","0.0-99.0-0.0","37153696","wem/bandit_either_2","A2ZR3PL5I0KPQ6","either","2","562","","","","","","","0","0","1","0.4050829606","","0.2","0.6","0.8","0.4","","","","","0.2426118991","0.4050829606","0.053239915","0.2710075273","","","","","","","","74","J","1","","","59","main_expt"
"","bandit","139","782973","0.0-100.0-0.0","37153696","wem/bandit_either_2","A2ZR3PL5I0KPQ6","either","2","435","","","","","","","0","0","1","","0.4070720156","0.2","0.6","0.8","0.4","0.2623750897","0.4070720156","0.06994226662","0.2766623035","","","","","","","","","","","","74","J","1","","","60","main_expt"
"","bandit","140","785065","0.0-101.0-0.0","37153696","wem/bandit_either_2","A2ZR3PL5I0KPQ6","either","2","563","","","","","","","1","0","0","0.3895400789","","0.2","0.6","0.8","0.4","","","","","0.2139103784","0.3895400789","0.07064832373","0.2574592035","","","","","","","","74","J","1","","","61","main_expt"
"","bandit","141","787126","0.0-102.0-0.0","37153696","wem/bandit_either_2","A2ZR3PL5I0KPQ6","either","2","534","","","","","","","0","1","0","","0.4050708951","0.2","0.6","0.8","0.4","0.2566580444","0.4050708951","0.08925217872","0.2425209234","","","","","","","","","","","","74","J","1","","","62","main_expt"
"","bandit","142","789147","0.0-103.0-0.0","37153696","wem/bandit_either_2","A2ZR3PL5I0KPQ6","either","2","450","","","","","","","0","0","1","","0.3765761212","0.2","0.6","0.8","0.4","0.2393402704","0.3765761212","0.08505035955","0.2294211584","","","","","","","","","","","","74","J","1","","","63","main_expt"
"","bandit","143","791024","0.0-104.0-0.0","37153696","wem/bandit_either_2","A2ZR3PL5I0KPQ6","either","2","336","","","","","","","0","0","1","0.09892528285","","0.2","0.6","0.8","0.4","","","","","0.300105392","0.3859881554","0.09892528285","0.2350173232","","","","","","","","75","K","2","","","64","main_expt"
"","bandit","144","792913","0.0-105.0-0.0","37153696","wem/bandit_either_2","A2ZR3PL5I0KPQ6","either","2","360","","","","","","","1","0","0","0.3817039273","","0.2","0.6","0.8","0.4","","","","","0.2584268813","0.3817039273","0.1428545766","0.2775473173","","","","","","","","74","J","1","","","65","main_expt"
"","bandit","145","795075","0.0-106.0-0.0","37153696","wem/bandit_either_2","A2ZR3PL5I0KPQ6","either","2","630","","","","","","","0","0","1","0.3622232449","","0.2","0.6","0.8","0.4","","","","","0.2536378703","0.3622232449","0.120440259","0.298861572","","","","","","","","74","J","1","","","66","main_expt"
"","bandit","146","797615","0.0-107.0-0.0","37153696","wem/bandit_either_2","A2ZR3PL5I0KPQ6","either","2","1007","","","","","","","1","0","0","0.3768721334","","0.2","0.6","0.8","0.4","","","","","0.2548884231","0.3768721334","0.2019700983","0.3043747659","","","","","","","","74","J","1","","","67","main_expt"
"","bandit","147","800014","0.0-108.0-0.0","37153696","wem/bandit_either_2","A2ZR3PL5I0KPQ6","either","2","870","","","","","","","1","0","0","0.3826604183","","0.2","0.6","0.8","0.4","","","","","0.2105458193","0.3826604183","0.1467862533","0.2533072519","","","","","","","","74","J","1","","","68","main_expt"
"","bandit","148","802305","0.0-109.0-0.0","37153696","wem/bandit_either_2","A2ZR3PL5I0KPQ6","either","2","762","","","","","","","0","0","1","0.3981811202","","0.2","0.6","0.8","0.4","","","","","0.2901666962","0.3981811202","0.09022805221","0.2451677402","","","","","","","","74","J","1","","","69","main_expt"
"","bandit","149","804463","0.0-110.0-0.0","37153696","wem/bandit_either_2","A2ZR3PL5I0KPQ6","either","2","629","","","","","","","0","0","1","0.3936557204","","0.2","0.6","0.8","0.4","","","","","0.2973761433","0.3936557204","0.1128827508","0.2403061491","","","","","","","","74","J","1","","","70","main_expt"
"","bandit","150","806473","0.0-111.0-0.0","37153696","wem/bandit_either_2","A2ZR3PL5I0KPQ6","either","2","479","","","","","","","0","0","1","","0.3949471057","0.2","0.6","0.8","0.4","0.2737706179","0.3949471057","0.1184182172","0.1917576795","","","","","","","","","","","","74","J","1","","","71","main_expt"
"","bandit","151","808552","0.0-112.0-0.0","37153696","wem/bandit_either_2","A2ZR3PL5I0KPQ6","either","2","551","","","","","","","0","0","1","0.1038133506","","0.2","0.6","0.8","0.4","","","","","0.3005227265","0.3888869603","0.1038133506","0.1894079546","","","","","","","","75","K","2","","","72","main_expt"
"","bandit","152","810625","0.0-113.0-0.0","37153696","wem/bandit_either_2","A2ZR3PL5I0KPQ6","either","2","550","","","","","","","0","0","1","","0.3205676235","0.2","0.6","0.8","0.4","0.3205676235","0.4015056825","0.07830871569","0.235909594","","","","","","","","","","","","72","H","0","img/none_selected.jpg","","73","main_expt"
"","bandit","153","812594","0.0-114.0-0.0","37153696","wem/bandit_either_2","A2ZR3PL5I0KPQ6","either","2","445","","","","","","","1","0","0","0.2772030277","","0.2","0.6","0.8","0.4","","","","","0.3040473008","0.4200542591","0.09226686474","0.2772030277","","","","","","","","76","L","3","","","74","main_expt"
"","bandit","154","815089","0.0-115.0-0.0","37153696","wem/bandit_either_2","A2ZR3PL5I0KPQ6","either","2","963","","","","","","","0","0","1","0.07948082514","","0.2","0.6","0.8","0.4","","","","","0.2686744794","0.4353174817","0.07948082514","0.2237268092","","","","","","","","75","K","2","","","75","main_expt"
"","bandit","155","817002","0.0-116.0-0.0","37153696","wem/bandit_either_2","A2ZR3PL5I0KPQ6","either","2","383","","","","","","","0","0","1","0.1739375455","","0.2","0.6","0.8","0.4","","","","","0.258707356","0.4196821318","0.1279570505","0.1739375455","","","","","","","","76","L","3","","","76","main_expt"
"","bandit","156","819223","0.0-117.0-0.0","37153696","wem/bandit_either_2","A2ZR3PL5I0KPQ6","either","2","692","","","","","","","0","0","1","0.1202820049","","0.2","0.6","0.8","0.4","","","","","0.3010070056","0.3787369199","0.1202820049","0.1648796623","","","","","","","","75","K","2","","","77","main_expt"
"","bandit","157","821067","0.0-118.0-0.0","37153696","wem/bandit_either_2","A2ZR3PL5I0KPQ6","either","2","310","","","","","","","0","0","1","","0.4314930014","0.2","0.6","0.8","0.4","0.2648586626","0.4314930014","0.1054071572","0.1637798684","","","","","","","","","","","","74","J","1","","","78","main_expt"
"","bandit","158","822944","0.0-119.0-0.0","37153696","wem/bandit_either_2","A2ZR3PL5I0KPQ6","either","2","346","","","","","","","0","0","1","","0.1984114041","0.2","0.6","0.8","0.4","0.1984114041","0.4155078174","0.1403095361","0.1490076182","","","","","","","","","","","","72","H","0","img/none_selected.jpg","","79","main_expt"
"","bandit","159","826548","0.0-120.0-0.0","37153696","wem/bandit_either_2","A2ZR3PL5I0KPQ6","either","2","2074","","","","","","","0","0","1","","0.1093198388","0.2","0.6","0.8","0.4","0.180325551","0.4226243671","0.1891235553","0.1093198388","","","","","","","","","","","","76","L","3","","","80","main_expt"
"","bandit","160","828662","0.0-121.0-0.0","37153696","wem/bandit_either_2","A2ZR3PL5I0KPQ6","either","2","584","","","","","","","0","0","1","","0.1858030354","0.2","0.6","0.8","0.4","0.224531153","0.4474166549","0.1858030354","0.08868186825","","","","","","","","","","","","75","K","2","","","81","main_expt"
"","bandit","161","830636","0.0-122.0-0.0","37153696","wem/bandit_either_2","A2ZR3PL5I0KPQ6","either","2","440","","","","","","","0","0","1","","0.1073880826","0.2","0.6","0.8","0.4","0.221125015","0.4636297045","0.2476542501","0.1073880826","","","","","","","","","","","","76","L","3","","","82","main_expt"
"","bandit","162","832596","0.0-123.0-0.0","37153696","wem/bandit_either_2","A2ZR3PL5I0KPQ6","either","2","430","","","","","","","1","0","0","0.467509749","","0.2","0.6","0.8","0.4","","","","","0.2143237207","0.467509749","0.2188241074","0.1022587498","","","","","","","","74","J","1","","","83","main_expt"
"","bandit","163","834851","0.0-124.0-0.0","37153696","wem/bandit_either_2","A2ZR3PL5I0KPQ6","either","2","725","","","","","","","0","1","0","","0.4551111531","0.2","0.6","0.8","0.4","0.2097367537","0.4551111531","0.2754771977","0.1085807699","","","","","","","","","","","","74","J","1","","","84","main_expt"
"","bandit","164","836985","0.0-125.0-0.0","37153696","wem/bandit_either_2","A2ZR3PL5I0KPQ6","either","2","603","","","","","","","0","1","0","","0.4621419017","0.2","0.6","0.8","0.4","0.1661536269","0.4621419017","0.2965575968","0.1263918358","","","","","","","","","","","","74","J","1","","","85","main_expt"
"","bandit","165","839030","0.0-126.0-0.0","37153696","wem/bandit_either_2","A2ZR3PL5I0KPQ6","either","2","522","","","","","","","1","0","0","0.4612050897","","0.2","0.6","0.8","0.4","","","","","0.1364458955","0.4612050897","0.257129161","0.1481941301","","","","","","","","74","J","1","","","86","main_expt"
"","bandit","166","840978","0.0-127.0-0.0","37153696","wem/bandit_either_2","A2ZR3PL5I0KPQ6","either","2","423","","","","","","","1","0","0","0.4334675206","","0.2","0.6","0.8","0.4","","","","","0.08235553135","0.4334675206","0.2338967043","0.1447872846","","","","","","","","74","J","1","","","87","main_expt"
"","bandit","167","842965","0.0-128.0-0.0","37153696","wem/bandit_either_2","A2ZR3PL5I0KPQ6","either","2","457","","","","","","","0","0","1","","0.4397617206","0.2","0.6","0.8","0.4","0.0754832669","0.4397617206","0.2161535794","0.1391637727","","","","","","","","","","","","74","J","1","","","88","main_expt"
"","bandit","168","844982","0.0-129.0-0.0","37153696","wem/bandit_either_2","A2ZR3PL5I0KPQ6","either","2","486","","","","","","","1","0","0","0.4635478967","","0.2","0.6","0.8","0.4","","","","","0.109361408","0.4635478967","0.2043146745","0.1476089376","","","","","","","","74","J","1","","","89","main_expt"
"","bandit","169","846960","0.0-130.0-0.0","37153696","wem/bandit_either_2","A2ZR3PL5I0KPQ6","either","2","449","","","","","","","0","0","1","0.4234969579","","0.2","0.6","0.8","0.4","","","","","0.07391079866","0.4234969579","0.2346009907","0.2081489191","","","","","","","","74","J","1","","","90","main_expt"
"","bandit","170","848880","0.0-131.0-0.0","37153696","wem/bandit_either_2","A2ZR3PL5I0KPQ6","either","2","399","","","","","","","1","0","0","0.4267507071","","0.2","0.6","0.8","0.4","","","","","0.1164594673","0.4267507071","0.2333967219","0.1834039029","","","","","","","","74","J","1","","","91","main_expt"
"","bandit","171","850985","0.0-132.0-0.0","37153696","wem/bandit_either_2","A2ZR3PL5I0KPQ6","either","2","579","","","","","","","1","0","0","0.4089505196","","0.2","0.6","0.8","0.4","","","","","0.113043345","0.4089505196","0.2150480475","0.2027314649","","","","","","","","74","J","1","","","92","main_expt"
"","bandit","172","853000","0.0-133.0-0.0","37153696","wem/bandit_either_2","A2ZR3PL5I0KPQ6","either","2","484","","","","","","","0","0","1","","0.4112501448","0.2","0.6","0.8","0.4","0.1714352716","0.4112501448","0.2588080464","0.1738894496","","","","","","","","","","","","74","J","1","","","93","main_expt"
"","bandit","173","854948","0.0-134.0-0.0","37153696","wem/bandit_either_2","A2ZR3PL5I0KPQ6","either","2","424","","","","","","","1","0","0","0.452415855","","0.2","0.6","0.8","0.4","","","","","0.1253024032","0.452415855","0.2748849181","0.2484708832","","","","","","","","74","J","1","","","94","main_expt"
"","bandit","174","857098","0.0-135.0-0.0","37153696","wem/bandit_either_2","A2ZR3PL5I0KPQ6","either","2","618","","","","","","","0","0","1","","0.4589197587","0.2","0.6","0.8","0.4","0.1401284447","0.4589197587","0.2791739054","0.2914685715","","","","","","","","","","","","74","J","1","","","95","main_expt"
"","bandit","175","859172","0.0-136.0-0.0","37153696","wem/bandit_either_2","A2ZR3PL5I0KPQ6","either","2","529","","","","","","","1","0","0","0.4481870348","","0.2","0.6","0.8","0.4","","","","","0.1320491369","0.4481870348","0.3149564315","0.2417524935","","","","","","","","74","J","1","","","96","main_expt"
"","bandit","176","861279","0.0-137.0-0.0","37153696","wem/bandit_either_2","A2ZR3PL5I0KPQ6","either","2","572","","","","","","","0","0","1","0.4597072186","","0.2","0.6","0.8","0.4","","","","","0.1518453759","0.4597072186","0.372564007","0.2492821404","","","","","","","","74","J","1","","","97","main_expt"
"","bandit","177","863179","0.0-138.0-0.0","37153696","wem/bandit_either_2","A2ZR3PL5I0KPQ6","either","2","369","","","","","","","1","0","0","0.4705619112","","0.2","0.6","0.8","0.4","","","","","0.2173959583","0.4705619112","0.393328365","0.3002958449","","","","","","","","74","J","1","","","98","main_expt"
"","bandit","178","865236","0.0-139.0-0.0","37153696","wem/bandit_either_2","A2ZR3PL5I0KPQ6","either","2","518","","","","","","","0","1","0","","0.4800968761","0.2","0.6","0.8","0.4","0.2618725657","0.4800968761","0.421239771","0.3544832656","","","","","","","","","","","","74","J","1","","","99","main_expt"
"","bandit","179","867244","0.0-140.0-0.0","37153696","wem/bandit_either_2","A2ZR3PL5I0KPQ6","either","2","481","","","","","","","0","0","1","0.4780143146","","0.2","0.6","0.8","0.4","","","","","0.2487788848","0.4780143146","0.4130759476","0.3810954338","","","","","","","","74","J","1","","","100","main_expt"
"","bandit","180","869181","0.0-141.0-0.0","37153696","wem/bandit_either_2","A2ZR3PL5I0KPQ6","either","2","411","","","","","","","0","0","1","","0.4849002763","0.2","0.6","0.8","0.4","0.2890792313","0.4849002763","0.4089462913","0.4042362267","","","","","","","","","","","","74","J","1","","","101","main_expt"
"","bandit","181","871119","0.0-142.0-0.0","37153696","wem/bandit_either_2","A2ZR3PL5I0KPQ6","either","2","406","","","","","","","1","0","0","0.4886078379","","0.2","0.6","0.8","0.4","","","","","0.3136369757","0.4886078379","0.370330464","0.4594696392","","","","","","","","74","J","1","","","102","main_expt"
"","bandit","182","873324","0.0-143.0-0.0","37153696","wem/bandit_either_2","A2ZR3PL5I0KPQ6","either","2","672","","","","","","","0","1","0","","0.47121906","0.2","0.6","0.8","0.4","0.2364671533","0.47121906","0.3306315663","0.4588766667","","","","","","","","","","","","74","J","1","","","103","main_expt"
"","bandit","183","875572","0.0-144.0-0.0","37153696","wem/bandit_either_2","A2ZR3PL5I0KPQ6","either","2","715","","","","","","","0","0","1","0.4760763377","","0.2","0.6","0.8","0.4","","","","","0.2202486688","0.4760763377","0.354634178","0.4372785745","","","","","","","","74","J","1","","","104","main_expt"
"","bandit","184","877728","0.0-145.0-0.0","37153696","wem/bandit_either_2","A2ZR3PL5I0KPQ6","either","2","637","","","","","","","0","0","1","0.4701389446","","0.2","0.6","0.8","0.4","","","","","0.1854418088","0.4701389446","0.3896605338","0.4063887309","","","","","","","","74","J","1","","","105","main_expt"
"","bandit","185","879813","0.0-146.0-0.0","37153696","wem/bandit_either_2","A2ZR3PL5I0KPQ6","either","2","556","","","","","","","0","0","1","","0.471324938","0.2","0.6","0.8","0.4","0.1596754559","0.471324938","0.414339711","0.3778019321","","","","","","","","","","","","74","J","1","","","106","main_expt"
"","bandit","186","881701","0.0-147.0-0.0","37153696","wem/bandit_either_2","A2ZR3PL5I0KPQ6","either","2","361","","","","","","","1","0","0","0.4786694594","","0.2","0.6","0.8","0.4","","","","","0.137099288","0.4786694594","0.4164239898","0.3614143111","","","","","","","","74","J","1","","","107","main_expt"
"","bandit","187","883729","0.0-148.0-0.0","37153696","wem/bandit_either_2","A2ZR3PL5I0KPQ6","either","2","500","","","","","","","1","0","0","0.4810065258","","0.2","0.6","0.8","0.4","","","","","0.1443984823","0.4810065258","0.3836571442","0.3681250399","","","","","","","","74","J","1","","","108","main_expt"
"","bandit","188","885621","0.0-149.0-0.0","37153696","wem/bandit_either_2","A2ZR3PL5I0KPQ6","either","2","355","","","","","","","0","1","0","","0.4816764674","0.2","0.6","0.8","0.4","0.1409511773","0.4816764674","0.3881214568","0.3446081275","","","","","","","","","","","","74","J","1","","","109","main_expt"
"","bandit","189","887523","0.0-150.0-0.0","37153696","wem/bandit_either_2","A2ZR3PL5I0KPQ6","either","2","369","","","","","","","0","0","1","0.4882082215","","0.2","0.6","0.8","0.4","","","","","0.1787750665","0.4882082215","0.4266873791","0.3681270965","","","","","","","","74","J","1","","","110","main_expt"
"","bandit","190","889458","0.0-151.0-0.0","37153696","wem/bandit_either_2","A2ZR3PL5I0KPQ6","either","2","405","","","","","","","0","0","1","","0.478642168","0.2","0.6","0.8","0.4","0.1862786225","0.478642168","0.4475699482","0.391379093","","","","","","","","","","","","74","J","1","","","111","main_expt"
"","bandit","191","891365","0.0-152.0-0.0","37153696","wem/bandit_either_2","A2ZR3PL5I0KPQ6","either","2","377","","","","","","","0","1","0","","0.1654620982","0.2","0.6","0.8","0.4","0.1654620982","0.4841415165","0.4190314983","0.4131544452","","","","","","","","","","","","72","H","0","img/none_selected.jpg","","112","main_expt"
"","bandit","192","893355","0.0-153.0-0.0","37153696","wem/bandit_either_2","A2ZR3PL5I0KPQ6","either","2","457","","","","","","","0","0","1","","0.1582981878","0.2","0.6","0.8","0.4","0.1582981878","0.4883212127","0.3666128881","0.3963985948","","","","","","","","","","","","72","H","0","img/none_selected.jpg","","113","main_expt"
"","bandit","193","895267","0.0-154.0-0.0","37153696","wem/bandit_either_2","A2ZR3PL5I0KPQ6","either","2","380","","","","","","","0","0","1","","0.1922757069","0.2","0.6","0.8","0.4","0.1922757069","0.4883790739","0.3866259854","0.4117985871","","","","","","","","","","","","72","H","0","img/none_selected.jpg","","114","main_expt"
"","bandit","194","897195","0.0-155.0-0.0","37153696","wem/bandit_either_2","A2ZR3PL5I0KPQ6","either","2","396","","","","","","","1","0","0","0.354161152","","0.2","0.6","0.8","0.4","","","","","0.185618385","0.4902011966","0.354161152","0.394381103","","","","","","","","75","K","2","","","115","main_expt"
"","bandit","195","899289","0.0-156.0-0.0","37153696","wem/bandit_either_2","A2ZR3PL5I0KPQ6","either","2","562","","","","","","","1","0","0","0.4844723045","","0.2","0.6","0.8","0.4","","","","","0.2057277395","0.4844723045","0.3170745426","0.3762408663","","","","","","","","74","J","1","","","116","main_expt"
"","bandit","196","901231","0.0-157.0-0.0","37153696","wem/bandit_either_2","A2ZR3PL5I0KPQ6","either","2","414","","","","","","","0","0","1","0.304536318","","0.2","0.6","0.8","0.4","","","","","0.2288411079","0.4895589844","0.304536318","0.3823674378","","","","","","","","75","K","2","","","117","main_expt"
"","bandit","197","903096","0.0-158.0-0.0","37153696","wem/bandit_either_2","A2ZR3PL5I0KPQ6","either","2","336","","","","","","","0","0","1","","0.4050195855","0.2","0.6","0.8","0.4","0.2207517482","0.4899729034","0.3411026949","0.4050195855","","","","","","","","","","","","76","L","3","","","118","main_expt"
"","bandit","198","905394","0.0-159.0-0.0","37153696","wem/bandit_either_2","A2ZR3PL5I0KPQ6","either","2","769","","","","","","","0","1","0","","0.4947041593","0.2","0.6","0.8","0.4","0.1955286499","0.4947041593","0.3447942488","0.4227562767","","","","","","","","","","","","74","J","1","","","119","main_expt"
"","bandit","199","907750","0.0-160.0-0.0","37153696","wem/bandit_either_2","A2ZR3PL5I0KPQ6","either","2","821","","","","","","","0","0","1","0.4916865355","","0.2","0.6","0.8","0.4","","","","","0.2427950695","0.4916865355","0.3686185352","0.4163810796","","","","","","","","74","J","1","","","120","main_expt"
"","bandit","200","910190","0.0-161.0-0.0","37153696","wem/bandit_either_2","A2ZR3PL5I0KPQ6","either","2","912","","","","","","","0","0","1","","0.2479682904","0.2","0.6","0.8","0.4","0.2479682904","0.4860386064","0.3547669752","0.406821829","","","","","","","","","","","","72","H","0","img/none_selected.jpg","","121","main_expt"
"","bandit","201","912160","0.0-162.0-0.0","37153696","wem/bandit_either_2","A2ZR3PL5I0KPQ6","either","2","440","","","","","","","1","0","0","0.483083859","","0.2","0.6","0.8","0.4","","","","","0.3081985406","0.483083859","0.365994073","0.3999449125","","","","","","","","74","J","1","","","122","main_expt"
"","bandit","202","914357","0.0-163.0-0.0","37153696","wem/bandit_either_2","A2ZR3PL5I0KPQ6","either","2","670","","","","","","","1","0","0","0.4791491275","","0.2","0.6","0.8","0.4","","","","","0.3089359708","0.4791491275","0.3120596142","0.366626489","","","","","","","","74","J","1","","","123","main_expt"
"","bandit","203","916366","0.0-164.0-0.0","37153696","wem/bandit_either_2","A2ZR3PL5I0KPQ6","either","2","477","","","","","","","0","0","1","0.4776777384","","0.2","0.6","0.8","0.4","","","","","0.3298338218","0.4776777384","0.302161917","0.3706278578","","","","","","","","74","J","1","","","124","main_expt"
"","bandit","204","918614","0.0-165.0-0.0","37153696","wem/bandit_either_2","A2ZR3PL5I0KPQ6","either","2","696","","","","","","","1","0","0","0.478983255","","0.2","0.6","0.8","0.4","","","","","0.2795250441","0.478983255","0.2794370347","0.3545504723","","","","","","","","74","J","1","","","125","main_expt"
"","bandit","205","920798","0.0-166.0-0.0","37153696","wem/bandit_either_2","A2ZR3PL5I0KPQ6","either","2","649","","","","","","","0","0","1","0.4724726719","","0.2","0.6","0.8","0.4","","","","","0.2184127205","0.4724726719","0.2466154908","0.3106298006","","","","","","","","74","J","1","","","126","main_expt"
"","bandit","206","922780","0.0-167.0-0.0","37153696","wem/bandit_either_2","A2ZR3PL5I0KPQ6","either","2","446","","","","","","","0","0","1","","0.4796244369","0.2","0.6","0.8","0.4","0.2488858907","0.4796244369","0.2712823261","0.3351405197","","","","","","","","","","","","74","J","1","","","127","main_expt"
"","bandit","207","925483","0.0-168.0-0.0","37153696","wem/bandit_either_2","A2ZR3PL5I0KPQ6","either","2","1164","","","","","","","0","0","1","","0.2850827173","0.2","0.6","0.8","0.4","0.2850827173","0.4825212971","0.2095517986","0.2984422464","","","","","","","","","","","","72","H","0","img/none_selected.jpg","","128","main_expt"
"","bandit","208","927513","0.0-169.0-0.0","37153696","wem/bandit_either_2","A2ZR3PL5I0KPQ6","either","2","491","","","","","","","0","0","1","0.1986866195","","0.2","0.6","0.8","0.4","","","","","0.2867242009","0.4877535013","0.1986866195","0.2027892291","","","","","","","","75","K","2","","","129","main_expt"
"","bandit","209","929405","0.0-170.0-0.0","37153696","wem/bandit_either_2","A2ZR3PL5I0KPQ6","either","2","356","","","","","","","0","0","1","","0.13768179","0.2","0.6","0.8","0.4","0.2509552002","0.4833646461","0.172959111","0.13768179","","","","","","","","","","","","76","L","3","","","130","main_expt"
"","bandit","210","931308","0.0-171.0-0.0","37153696","wem/bandit_either_2","A2ZR3PL5I0KPQ6","either","2","367","","","","","","","0","0","1","","0.4790990265","0.2","0.6","0.8","0.4","0.2172434631","0.4790990265","0.163172462","0.1352832961","","","","","","","","","","","","74","J","1","","","131","main_expt"
"","bandit","211","933606","0.0-172.0-0.0","37153696","wem/bandit_either_2","A2ZR3PL5I0KPQ6","either","2","762","","","","","","","0","0","1","0.4882311922","","0.2","0.6","0.8","0.4","","","","","0.158295755","0.4882311922","0.161148659","0.08660982753","","","","","","","","74","J","1","","","132","main_expt"
"","bandit","212","935603","0.0-173.0-0.0","37153696","wem/bandit_either_2","A2ZR3PL5I0KPQ6","either","2","464","","","","","","","0","0","1","0.185310911","","0.2","0.6","0.8","0.4","","","","","0.185310911","0.4889625365","0.1735641072","0.1020907376","","","","","","","","72","H","0","img/none_selected.jpg","","133","main_expt"
"","bandit","213","937681","0.0-174.0-0.0","37153696","wem/bandit_either_2","A2ZR3PL5I0KPQ6","either","2","544","","","","","","","0","0","1","","0.4916783795","0.2","0.6","0.8","0.4","0.1966535246","0.4916783795","0.1597390633","0.1231499397","","","","","","","","","","","","74","J","1","","","134","main_expt"
"","bandit","214","939610","0.0-175.0-0.0","37153696","wem/bandit_either_2","A2ZR3PL5I0KPQ6","either","2","395","","","","","","","0","0","1","","0.1460070414","0.2","0.6","0.8","0.4","0.2290191974","0.4904315354","0.1460070414","0.1524236556","","","","","","","","","","","","75","K","2","","","135","main_expt"
"","bandit","215","941614","0.0-176.0-0.0","37153696","wem/bandit_either_2","A2ZR3PL5I0KPQ6","either","2","476","","","","","","","0","0","1","","0.1954247664","0.2","0.6","0.8","0.4","0.2929229053","0.491666595","0.105474526","0.1954247664","","","","","","","","","","","","76","L","3","","","136","main_expt"
"","bandit","216","943575","0.0-177.0-0.0","37153696","wem/bandit_either_2","A2ZR3PL5I0KPQ6","either","2","433","","","","","","","0","0","1","0.08835118593","","0.2","0.6","0.8","0.4","","","","","0.2780805385","0.4917142499","0.08835118593","0.1833989084","","","","","","","","75","K","2","","","137","main_expt"
"","bandit","217","945656","0.0-178.0-0.0","37153696","wem/bandit_either_2","A2ZR3PL5I0KPQ6","either","2","549","","","","","","","0","1","0","","0.4870170403","0.2","0.6","0.8","0.4","0.217224157","0.4870170403","0.06418360449","0.1490533902","","","","","","","","","","","","74","J","1","","","138","main_expt"
"","bandit","218","947768","0.0-179.0-0.0","37153696","wem/bandit_either_2","A2ZR3PL5I0KPQ6","either","2","576","","","","","","","1","0","0","0.4834992155","","0.2","0.6","0.8","0.4","","","","","0.2323391466","0.4834992155","0.03554325754","0.1318817547","","","","","","","","74","J","1","","","139","main_expt"
"","bandit","219","949791","0.0-180.0-0.0","37153696","wem/bandit_either_2","A2ZR3PL5I0KPQ6","either","2","494","","","","","","","1","0","0","0.4927392517","","0.2","0.6","0.8","0.4","","","","","0.244475209","0.4927392517","0.04477370895","0.1877412345","","","","","","","","74","J","1","","","140","main_expt"
"","bandit","220","951941","0.0-181.0-0.0","37153696","wem/bandit_either_2","A2ZR3PL5I0KPQ6","either","2","619","","","","","","","0","0","1","0.4872377518","","0.2","0.6","0.8","0.4","","","","","0.232604034","0.4872377518","0.03780119019","0.2363671377","","","","","","","","74","J","1","","","141","main_expt"
"","bandit","221","953840","0.0-182.0-0.0","37153696","wem/bandit_either_2","A2ZR3PL5I0KPQ6","either","2","362","","","","","","","0","0","1","0.4846254936","","0.2","0.6","0.8","0.4","","","","","0.2447345556","0.4846254936","0.03149913875","0.2546402356","","","","","","","","74","J","1","","","142","main_expt"
"","bandit","222","955769","0.0-183.0-0.0","37153696","wem/bandit_either_2","A2ZR3PL5I0KPQ6","either","2","393","","","","","","","0","0","1","","0.4815328815","0.2","0.6","0.8","0.4","0.26413271","0.4815328815","0.04191513266","0.2825544685","","","","","","","","","","","","74","J","1","","","143","main_expt"
"","bandit","223","957743","0.0-184.0-0.0","37153696","wem/bandit_either_2","A2ZR3PL5I0KPQ6","either","2","441","","","","","","","1","0","0","0.4854048375","","0.2","0.6","0.8","0.4","","","","","0.1988203511","0.4854048375","0.05613120157","0.2731230023","","","","","","","","74","J","1","","","144","main_expt"
"","bandit","224","959446","0.0-185.0-0.0","37153696","wem/bandit_either_2","A2ZR3PL5I0KPQ6","either","2","170","","","","","","","0","0","1","","0.4813029389","0.2","0.6","0.8","0.4","0.217822638","0.4813029389","0.03827589539","0.2943814715","","","","","","","","","","","","74","J","1","","","145","main_expt"
"","bandit","225","962316","0.0-186.0-0.0","37153696","wem/bandit_either_2","A2ZR3PL5I0KPQ6","either","2","1340","","","","","","","0","0","1","","0.4884824202","0.2","0.6","0.8","0.4","0.2009042904","0.4884824202","0.02861175853","0.328634005","","","","","","","","","","","","74","J","1","","","146","main_expt"
"","bandit","226","965207","0.0-187.0-0.0","37153696","wem/bandit_either_2","A2ZR3PL5I0KPQ6","either","2","1357","","","","","","","0","1","0","","0.4835291327","0.2","0.6","0.8","0.4","0.2080446297","0.4835291327","0.02140640811","0.3511209141","","","","","","","","","","","","74","J","1","","","147","main_expt"
"","bandit","227","967626","0.0-188.0-0.0","37153696","wem/bandit_either_2","A2ZR3PL5I0KPQ6","either","2","888","","","","","","","0","1","0","","0.4716003481","0.2","0.6","0.8","0.4","0.1536700415","0.4716003481","0.0202041473","0.3874996206","","","","","","","","","","","","74","J","1","","","148","main_expt"
"","bandit","228","969635","0.0-189.0-0.0","37153696","wem/bandit_either_2","A2ZR3PL5I0KPQ6","either","2","484","","","","","","","1","0","0","0.4341886607","","0.2","0.6","0.8","0.4","","","","","0.1593661633","0.4341886607","0.01154190459","0.3476646045","","","","","","","","74","J","1","","","149","main_expt"
"","bandit","229","972118","0.0-190.0-0.0","37153696","wem/bandit_either_2","A2ZR3PL5I0KPQ6","either","2","943","","","","","","","0","0","1","0.4014438172","","0.2","0.6","0.8","0.4","","","","","0.144955896","0.4014438172","0.01291237021","0.3323010919","","","","","","","","74","J","1","","","150","main_expt"
"","bandit","230","974125","0.0-191.0-0.0","37153696","wem/bandit_either_2","A2ZR3PL5I0KPQ6","either","2","472","","","","","","","1","0","0","0.3980713407","","0.2","0.6","0.8","0.4","","","","","0.2123564028","0.3980713407","0.0137789916","0.3954477196","","","","","","","","74","J","1","","","151","main_expt"
"","bandit","231","976414","0.0-192.0-0.0","37153696","wem/bandit_either_2","A2ZR3PL5I0KPQ6","either","2","757","","","","","","","0","1","0","","0.4002357887","0.2","0.6","0.8","0.4","0.2301890466","0.4002357887","0.01985271471","0.4186327087","","","","","","","","","","","","74","J","1","","","152","main_expt"
"","bandit","232","978481","0.0-193.0-0.0","37153696","wem/bandit_either_2","A2ZR3PL5I0KPQ6","either","2","533","","","","","","","1","0","0","0.388677987","","0.2","0.6","0.8","0.4","","","","","0.2295153641","0.388677987","0.02951100453","0.4029566754","","","","","","","","74","J","1","","","153","main_expt"
"","bandit","233","980419","0.0-194.0-0.0","37153696","wem/bandit_either_2","A2ZR3PL5I0KPQ6","either","2","404","","","","","","","0","0","1","0.3817747688","","0.2","0.6","0.8","0.4","","","","","0.2163321136","0.3817747688","0.02325572033","0.4037751878","","","","","","","","74","J","1","","","154","main_expt"
"","bandit","234","982358","0.0-195.0-0.0","37153696","wem/bandit_either_2","A2ZR3PL5I0KPQ6","either","2","400","","","","","","","0","0","1","0.327727533","","0.2","0.6","0.8","0.4","","","","","0.2257858177","0.327727533","0.03925092562","0.4078727314","","","","","","","","74","J","1","","","155","main_expt"
"","bandit","235","984146","0.0-196.0-0.0","37153696","wem/bandit_either_2","A2ZR3PL5I0KPQ6","either","2","255","","","","","","","0","0","1","","0.2821504166","0.2","0.6","0.8","0.4","0.2077891775","0.2821504166","0.05532081832","0.3941681487","","","","","","","","","","","","74","J","1","","","156","main_expt"
"","bandit","236","986036","0.0-197.0-0.0","37153696","wem/bandit_either_2","A2ZR3PL5I0KPQ6","either","2","362","","","","","","","0","1","0","","0.2784527126","0.2","0.6","0.8","0.4","0.1742908387","0.2784527126","0.05983660039","0.3417147062","","","","","","","","","","","","74","J","1","","","157","main_expt"
"","bandit","237","988330","0.0-198.0-0.0","37153696","wem/bandit_either_2","A2ZR3PL5I0KPQ6","either","2","747","","","","","","","0","0","1","0.2857058734","","0.2","0.6","0.8","0.4","","","","","0.162057643","0.2857058734","0.09347744845","0.2963220618","","","","","","","","74","J","1","","","158","main_expt"
"","bandit","238","990765","0.0-199.0-0.0","37153696","wem/bandit_either_2","A2ZR3PL5I0KPQ6","either","2","900","","","","","","","0","0","1","0.1805514511","","0.2","0.6","0.8","0.4","","","","","0.1805514511","0.2349295223","0.09649648717","0.2961528309","","","","","","","","72","H","0","img/none_selected.jpg","","159","main_expt"
"","bandit","239","992808","0.0-200.0-0.0","37153696","wem/bandit_either_2","A2ZR3PL5I0KPQ6","either","2","507","","","","","","","0","0","1","0.2275717407","","0.2","0.6","0.8","0.4","","","","","0.1724629995","0.2275717407","0.08382429791","0.2842772575","","","","","","","","74","J","1","","","160","main_expt"
"","bandit","240","994693","0.0-201.0-0.0","37153696","wem/bandit_either_2","A2ZR3PL5I0KPQ6","either","2","336","","","","","","","0","0","1","","0.1466352983","0.2","0.6","0.8","0.4","0.1660992999","0.2559884592","0.1466352983","0.2747674873","","","","","","","","","","","","75","K","2","","","161","main_expt"
"","bandit","241","996611","0.0-202.0-0.0","37153696","wem/bandit_either_2","A2ZR3PL5I0KPQ6","either","2","356","","","","","","","0","0","1","","0.2670526618","0.2","0.6","0.8","0.4","0.2281832109","0.2670526618","0.1569467617","0.2993190406","","","","","","","","","","","","74","J","1","","","162","main_expt"
"","bandit","242","998505","0.0-203.0-0.0","37153696","wem/bandit_either_2","A2ZR3PL5I0KPQ6","either","2","359","","","","","","","0","0","1","","0.3102408377","0.2","0.6","0.8","0.4","0.2144285545","0.2618894379","0.1437935099","0.3102408377","","","","","","","","","","","","76","L","3","","","163","main_expt"
"","bandit","243","1000479","0.0-204.0-0.0","37153696","wem/bandit_either_2","A2ZR3PL5I0KPQ6","either","2","437","","","","","","","0","0","1","","0.2131293933","0.2","0.6","0.8","0.4","0.2131293933","0.2977476978","0.1503677763","0.2607878409","","","","","","","","","","","","72","H","0","img/none_selected.jpg","","164","main_expt"
"","bandit","244","1002327","0.0-205.0-0.0","37153696","wem/bandit_either_2","A2ZR3PL5I0KPQ6","either","2","311","","","","","","","0","0","1","","0.3138636066","0.2","0.6","0.8","0.4","0.251698227","0.3138636066","0.1574825995","0.2470054868","","","","","","","","","","","","74","J","1","","","165","main_expt"
"","bandit","245","1004271","0.0-206.0-0.0","37153696","wem/bandit_either_2","A2ZR3PL5I0KPQ6","either","2","416","","","","","","","0","0","1","","0.1500633275","0.2","0.6","0.8","0.4","0.2831539445","0.3204338644","0.1500633275","0.2629624785","","","","","","","","","","","","75","K","2","","","166","main_expt"
"","bandit","246","1006108","0.0-207.0-0.0","37153696","wem/bandit_either_2","A2ZR3PL5I0KPQ6","either","2","308","","","","","","","0","0","1","0.3600517585","","0.2","0.6","0.8","0.4","","","","","0.2496169508","0.3600517585","0.1137242654","0.2745713682","","","","","","","","74","J","1","","","167","main_expt"
"","bandit","247","1008078","0.0-208.0-0.0","37153696","wem/bandit_either_2","A2ZR3PL5I0KPQ6","either","2","439","","","","","","","1","0","0","0.2557249153","","0.2","0.6","0.8","0.4","","","","","0.2315540067","0.3678373827","0.145192941","0.2557249153","","","","","","","","76","L","3","","","168","main_expt"
"","bandit","248","1011010","0.0-209.0-0.0","37153696","wem/bandit_either_2","A2ZR3PL5I0KPQ6","either","2","1397","","","","","","","0","0","1","0.3421512568","","0.2","0.6","0.8","0.4","","","","","0.1825517174","0.3421512568","0.1863479632","0.2016321063","","","","","","","","74","J","1","","","169","main_expt"
"","bandit","249","1012877","0.0-210.0-0.0","37153696","wem/bandit_either_2","A2ZR3PL5I0KPQ6","either","2","338","","","","","","","0","0","1","","0.2210696627","0.2","0.6","0.8","0.4","0.2535959064","0.3917895485","0.142304713","0.2210696627","","","","","","","","","","","","76","L","3","","","170","main_expt"
"","bandit","250","1015077","0.0-211.0-0.0","37153696","wem/bandit_either_2","A2ZR3PL5I0KPQ6","either","2","664","","","","","","","0","0","1","0.1739768979","","0.2","0.6","0.8","0.4","","","","","0.3004284576","0.3206692194","0.1739768979","0.1627904758","","","","","","","","75","K","2","","","171","main_expt"
"","bandit","251","1017095","0.0-212.0-0.0","37153696","wem/bandit_either_2","A2ZR3PL5I0KPQ6","either","2","481","","","","","","","0","0","1","","0.3198600846","0.2","0.6","0.8","0.4","0.2716191145","0.3198600846","0.2172659048","0.1421076649","","","","","","","","","","","","74","J","1","","","172","main_expt"
"","bandit","252","1019246","0.0-213.0-0.0","37153696","wem/bandit_either_2","A2ZR3PL5I0KPQ6","either","2","616","","","","","","","1","0","0","0.2419731025","","0.2","0.6","0.8","0.4","","","","","0.3253138029","0.2641483633","0.2419731025","0.165050165","","","","","","","","75","K","2","","","173","main_expt"
"","bandit","253","1021333","0.0-214.0-0.0","37153696","wem/bandit_either_2","A2ZR3PL5I0KPQ6","either","2","557","","","","","","","0","1","0","","0.2248062597","0.2","0.6","0.8","0.4","0.3419591401","0.2248062597","0.2239571331","0.1406738207","","","","","","","","","","","","74","J","1","","","174","main_expt"
"","bandit","254","1023340","0.0-215.0-0.0","37153696","wem/bandit_either_2","A2ZR3PL5I0KPQ6","either","2","476","","","","","","","0","1","0","","0.2370379408","0.2","0.6","0.8","0.4","0.3442692367","0.2370379408","0.2311410243","0.138310495","","","","","","","","","","","","74","J","1","","","175","main_expt"
"","bandit","255","1025305","0.0-216.0-0.0","37153696","wem/bandit_either_2","A2ZR3PL5I0KPQ6","either","2","431","","","","","","","0","0","1","","0.2157433706","0.2","0.6","0.8","0.4","0.3397266539","0.2157433706","0.2610077479","0.1675243642","","","","","","","","","","","","74","J","1","","","176","main_expt"
"","bandit","256","1027300","0.0-217.0-0.0","37153696","wem/bandit_either_2","A2ZR3PL5I0KPQ6","either","2","461","","","","","","","1","0","0","0.2780938204","","0.2","0.6","0.8","0.4","","","","","0.2997078274","0.2014791824","0.2780938204","0.1919885971","","","","","","","","75","K","2","","","177","main_expt"
"","bandit","257","1029694","0.0-218.0-0.0","37153696","wem/bandit_either_2","A2ZR3PL5I0KPQ6","either","2","855","","","","","","","0","0","1","0.3151752793","","0.2","0.6","0.8","0.4","","","","","0.3064007527","0.1913564418","0.3151752793","0.2365392944","","","","","","","","75","K","2","","","178","main_expt"
"","bandit","258","1031585","0.0-219.0-0.0","37153696","wem/bandit_either_2","A2ZR3PL5I0KPQ6","either","2","361","","","","","","","0","0","1","","0.1980728016","0.2","0.6","0.8","0.4","0.3533432679","0.1980728016","0.2799621139","0.2509455726","","","","","","","","","","","","74","J","1","","","179","main_expt"
"","bandit","259","1034129","0.0-220.0-0.0","37153696","wem/bandit_either_2","A2ZR3PL5I0KPQ6","either","2","1013","","","","","","","0","0","1","","0.1833491223","0.2","0.6","0.8","0.4","0.3652522579","0.1833491223","0.3170936092","0.2767223981","","","","","","","","","","","","74","J","1","","","180","main_expt"
"","bandit","260","1036330","0.0-221.0-0.0","37153696","wem/bandit_either_2","A2ZR3PL5I0KPQ6","either","2","671","","","","","","","0","0","1","","0.3383156657","0.2","0.6","0.8","0.4","0.3383156657","0.1342686697","0.28101752","0.314600373","","","","","","","","","","","","72","H","0","img/none_selected.jpg","","181","main_expt"
"","bandit","261","1038494","0.0-222.0-0.0","37153696","wem/bandit_either_2","A2ZR3PL5I0KPQ6","either","2","628","","","","","","","0","0","1","0.3043342224","","0.2","0.6","0.8","0.4","","","","","0.2902116232","0.1636660304","0.3043342224","0.3943610609","","","","","","","","75","K","2","","","182","main_expt"
"","bandit","262","1040874","0.0-223.0-0.0","37153696","wem/bandit_either_2","A2ZR3PL5I0KPQ6","either","2","847","","","","","","","0","0","1","","0.3586422101","0.2","0.6","0.8","0.4","0.3026157476","0.136761637","0.3192524042","0.3586422101","","","","","","","","","","","","76","L","3","","","183","main_expt"
"","bandit","263","1042650","0.0-224.0-0.0","37153696","wem/bandit_either_2","A2ZR3PL5I0KPQ6","either","2","243","","","","","","","0","0","1","0.1685989701","","0.2","0.6","0.8","0.4","","","","","0.3360229169","0.1685989701","0.3332516821","0.3879999062","","","","","","","","74","J","1","","","184","main_expt"
"","bandit","264","1044565","0.0-225.0-0.0","37153696","wem/bandit_either_2","A2ZR3PL5I0KPQ6","either","2","385","","","","","","","0","0","1","0.1663529744","","0.2","0.6","0.8","0.4","","","","","0.3336456265","0.1663529744","0.3228184693","0.3831340227","","","","","","","","74","J","1","","","185","main_expt"
"","bandit","265","1046529","0.0-226.0-0.0","37153696","wem/bandit_either_2","A2ZR3PL5I0KPQ6","either","2","423","","","","","","","0","0","1","0.1916836285","","0.2","0.6","0.8","0.4","","","","","0.3308881938","0.1916836285","0.3111703144","0.3999004662","","","","","","","","74","J","1","","","186","main_expt"
"","bandit","266","1048068","0.0-227.0-0.0","37153696","wem/bandit_either_2","A2ZR3PL5I0KPQ6","either","2","14","","","","","","","1","0","0","0.3353611299","","0.2","0.6","0.8","0.4","","","","","0.325530054","0.1686829448","0.3353611299","0.3875363153","","","","","","","","75","K","2","","","187","main_expt"
"","bandit","267","1050068","0.0-228.0-0.0","37153696","wem/bandit_either_2","A2ZR3PL5I0KPQ6","either","2","471","","","","","","","0","0","1","0.3646937268","","0.2","0.6","0.8","0.4","","","","","0.3055482451","0.1461675531","0.3646937268","0.3875691392","","","","","","","","75","K","2","","","188","main_expt"
"","bandit","268","1051896","0.0-229.0-0.0","37153696","wem/bandit_either_2","A2ZR3PL5I0KPQ6","either","2","301","","","","","","","0","0","1","0.3891323825","","0.2","0.6","0.8","0.4","","","","","0.3002345065","0.1382971047","0.3891323825","0.4166866882","","","","","","","","75","K","2","","","189","main_expt"
"","bandit","269","1053680","0.0-230.0-0.0","37153696","wem/bandit_either_2","A2ZR3PL5I0KPQ6","either","2","240","","","","","","","1","0","0","0.3860741766","","0.2","0.6","0.8","0.4","","","","","0.2693931213","0.1898135375","0.3860741766","0.4124474499","","","","","","","","75","K","2","","","190","main_expt"
"","bandit","270","1055673","0.0-231.0-0.0","37153696","wem/bandit_either_2","A2ZR3PL5I0KPQ6","either","2","454","","","","","","","1","0","0","0.3864243721","","0.2","0.6","0.8","0.4","","","","","0.3009284261","0.1264917812","0.3864243721","0.3638199534","","","","","","","","75","K","2","","","191","main_expt"
"","bandit","271","1057526","0.0-232.0-0.0","37153696","wem/bandit_either_2","A2ZR3PL5I0KPQ6","either","2","318","","","","","","","0","0","1","0.400448014","","0.2","0.6","0.8","0.4","","","","","0.3157917784","0.1185409567","0.400448014","0.3711146034","","","","","","","","75","K","2","","","192","main_expt"
"","bandit","272","1059214","0.0-233.0-0.0","37153696","wem/bandit_either_2","A2ZR3PL5I0KPQ6","either","2","148","","","","","","","1","0","0","0.3895367297","","0.2","0.6","0.8","0.4","","","","","0.2999212614","0.09837948322","0.3895367297","0.3654165885","","","","","","","","75","K","2","","","193","main_expt"
"","bandit","273","1061360","0.0-234.0-0.0","37153696","wem/bandit_either_2","A2ZR3PL5I0KPQ6","either","2","607","","","","","","","0","0","1","0.4032313792","","0.2","0.6","0.8","0.4","","","","","0.3287494418","0.137690802","0.4032313792","0.3537818584","","","","","","","","75","K","2","","","194","main_expt"
"","bandit","274","1063437","0.0-235.0-0.0","37153696","wem/bandit_either_2","A2ZR3PL5I0KPQ6","either","2","530","","","","","","","0","0","1","0.337234763","","0.2","0.6","0.8","0.4","","","","","0.3031978913","0.1683354775","0.337234763","0.3597494918","","","","","","","","75","K","2","","","195","main_expt"
"","bandit","275","1065118","0.0-236.0-0.0","37153696","wem/bandit_either_2","A2ZR3PL5I0KPQ6","either","2","147","","","","","","","1","0","0","0.3950764453","","0.2","0.6","0.8","0.4","","","","","0.2901303692","0.1561951964","0.3950764453","0.3479121901","","","","","","","","75","K","2","","","196","main_expt"
"","bandit","276","1067034","0.0-237.0-0.0","37153696","wem/bandit_either_2","A2ZR3PL5I0KPQ6","either","2","379","","","","","","","0","0","1","0.4193743727","","0.2","0.6","0.8","0.4","","","","","0.2444781728","0.1329868482","0.4193743727","0.3596292454","","","","","","","","75","K","2","","","197","main_expt"
"","bandit","277","1068694","0.0-238.0-0.0","37153696","wem/bandit_either_2","A2ZR3PL5I0KPQ6","either","2","125","","","","","","","0","0","1","0.4375347816","","0.2","0.6","0.8","0.4","","","","","0.2140047665","0.1730826789","0.4375347816","0.3555371828","","","","","","","","75","K","2","","","198","main_expt"
"","bandit","278","1070914","0.0-239.0-0.0","37153696","wem/bandit_either_2","A2ZR3PL5I0KPQ6","either","2","657","","","","","","","0","0","1","0.1385649096","","0.2","0.6","0.8","0.4","","","","","0.2077842613","0.1385649096","0.4315030007","0.4016486285","","","","","","","","74","J","1","","","199","main_expt"
"","bandit","279","1072920","0.0-240.0-0.0","37153696","wem/bandit_either_2","A2ZR3PL5I0KPQ6","either","2","472","","","","","","","0","0","1","0.4340108373","","0.2","0.6","0.8","0.4","","","","","0.180488049","0.1941139053","0.4340108373","0.3871107612","","","","","","","","75","K","2","","","200","main_expt"
"","bandit","280","1074867","0.0-241.0-0.0","37153696","wem/bandit_either_2","A2ZR3PL5I0KPQ6","either","2","410","","","","","","","0","0","1","0.441078118","","0.2","0.6","0.8","0.4","","","","","0.2084987087","0.1825013029","0.441078118","0.3856539452","","","","","","","","75","K","2","","","201","main_expt"
"","bandit","281","1076613","0.0-242.0-0.0","37153696","wem/bandit_either_2","A2ZR3PL5I0KPQ6","either","2","217","","","","","","","1","0","0","0.4143682719","","0.2","0.6","0.8","0.4","","","","","0.1869669721","0.162440572","0.4143682719","0.358588673","","","","","","","","75","K","2","","","202","main_expt"
"","bandit","282","1078643","0.0-243.0-0.0","37153696","wem/bandit_either_2","A2ZR3PL5I0KPQ6","either","2","493","","","","","","","0","0","1","","0.1383076553","0.2","0.6","0.8","0.4","0.1383076553","0.1914238456","0.4280720422","0.3460881607","","","","","","","","","","","","72","H","0","img/none_selected.jpg","","203","main_expt"
"","bandit","283","1080607","0.0-244.0-0.0","37153696","wem/bandit_either_2","A2ZR3PL5I0KPQ6","either","2","437","","","","","","","0","0","1","0.4113524858","","0.2","0.6","0.8","0.4","","","","","0.1656187697","0.1849793247","0.4113524858","0.3091432968","","","","","","","","75","K","2","","","204","main_expt"
"","bandit","284","1082641","0.0-245.0-0.0","37153696","wem/bandit_either_2","A2ZR3PL5I0KPQ6","either","2","495","","","","","","","0","0","1","0.4151465815","","0.2","0.6","0.8","0.4","","","","","0.1699285253","0.1722293799","0.4151465815","0.3016396897","","","","","","","","75","K","2","","","205","main_expt"
"","bandit","285","1085236","0.0-246.0-0.0","37153696","wem/bandit_either_2","A2ZR3PL5I0KPQ6","either","2","1055","","","","","","","0","0","1","","0.1625694713","0.2","0.6","0.8","0.4","0.161732949","0.1625694713","0.4002359997","0.3300702997","","","","","","","","","","","","74","J","1","","","206","main_expt"
"","bandit","286","1087162","0.0-247.0-0.0","37153696","wem/bandit_either_2","A2ZR3PL5I0KPQ6","either","2","384","","","","","","","1","0","0","0.3692387261","","0.2","0.6","0.8","0.4","","","","","0.1699017951","0.1079769143","0.3692387261","0.2648848683","","","","","","","","75","K","2","","","207","main_expt"
"","bandit","287","1089332","0.0-248.0-0.0","37153696","wem/bandit_either_2","A2ZR3PL5I0KPQ6","either","2","642","","","","","","","1","0","0","0.2502792914","","0.2","0.6","0.8","0.4","","","","","0.1592107695","0.1380178959","0.3283471685","0.2502792914","","","","","","","","76","L","3","","","208","main_expt"
"","bandit","288","1091363","0.0-249.0-0.0","37153696","wem/bandit_either_2","A2ZR3PL5I0KPQ6","either","2","497","","","","","","","0","0","1","0.2924758898","","0.2","0.6","0.8","0.4","","","","","0.1659907122","0.1538506734","0.2924758898","0.2770073026","","","","","","","","75","K","2","","","209","main_expt"
"","bandit","289","1093527","0.0-250.0-0.0","37153696","wem/bandit_either_2","A2ZR3PL5I0KPQ6","either","2","632","","","","","","","0","1","0","","0.3451435735","0.2","0.6","0.8","0.4","0.229525517","0.1406222791","0.2279470939","0.3451435735","","","","","","","","","","","","76","L","3","","","210","main_expt"
"","bandit","290","1095527","0.0-251.0-0.0","37153696","wem/bandit_either_2","A2ZR3PL5I0KPQ6","either","2","463","","","","","","","0","0","1","","0.3514478275","0.2","0.6","0.8","0.4","0.2434605193","0.08987887408","0.2131844406","0.3514478275","","","","","","","","","","","","76","L","3","","","211","main_expt"
"","bandit","291","1097567","0.0-252.0-0.0","37153696","wem/bandit_either_2","A2ZR3PL5I0KPQ6","either","2","506","","","","","","","1","0","0","0.3579324364","","0.2","0.6","0.8","0.4","","","","","0.1633214123","0.1277875359","0.1601793481","0.3579324364","","","","","","","","76","L","3","","","212","main_expt"
"","bandit","292","1099495","0.0-253.0-0.0","37153696","wem/bandit_either_2","A2ZR3PL5I0KPQ6","either","2","390","","","","","","","0","0","1","","0.3231243524","0.2","0.6","0.8","0.4","0.1014835246","0.134271297","0.1354109392","0.3231243524","","","","","","","","","","","","76","L","3","","","213","main_expt"
"","bandit","293","1101451","0.0-254.0-0.0","37153696","wem/bandit_either_2","A2ZR3PL5I0KPQ6","either","2","428","","","","","","","1","0","0","0.2798540136","","0.2","0.6","0.8","0.4","","","","","0.09587264096","0.1385204111","0.1142105534","0.2798540136","","","","","","","","76","L","3","","","214","main_expt"
"","bandit","294","1103384","0.0-255.0-0.0","37153696","wem/bandit_either_2","A2ZR3PL5I0KPQ6","either","2","396","","","","","","","0","0","1","","0.2469391402","0.2","0.6","0.8","0.4","0.08342689115","0.1089132689","0.1031311673","0.2469391402","","","","","","","","","","","","76","L","3","","","215","main_expt"
"","bandit","295","1105265","0.0-256.0-0.0","37153696","wem/bandit_either_2","A2ZR3PL5I0KPQ6","either","2","344","","","","","","","0","0","1","","0.3211823944","0.2","0.6","0.8","0.4","0.05361264496","0.1299508563","0.1031732366","0.3211823944","","","","","","","","","","","","76","L","3","","","216","main_expt"
"","bandit","296","1107355","0.0-257.0-0.0","37153696","wem/bandit_either_2","A2ZR3PL5I0KPQ6","either","2","555","","","","","","","0","0","1","","0.3545519007","0.2","0.6","0.8","0.4","0.09912420903","0.131109262","0.1188097379","0.3545519007","","","","","","","","","","","","76","L","3","","","217","main_expt"
"","bandit","297","1109274","0.0-258.0-0.0","37153696","wem/bandit_either_2","A2ZR3PL5I0KPQ6","either","2","384","","","","","","","1","0","0","0.3781539282","","0.2","0.6","0.8","0.4","","","","","0.1021137889","0.1039495344","0.1096623481","0.3781539282","","","","","","","","76","L","3","","","218","main_expt"
"","bandit","298","1111580","0.0-259.0-0.0","37153696","wem/bandit_either_2","A2ZR3PL5I0KPQ6","either","2","542","","","","","","","1","0","0","0.3674409598","","0.2","0.6","0.8","0.4","","","","","0.1025207236","0.09488552944","0.08679630722","0.3674409598","","","","","","","","76","L","3","","","219","main_expt"
"","bandit","299","1113561","0.0-260.0-0.0","37153696","wem/bandit_either_2","A2ZR3PL5I0KPQ6","either","2","452","","","","","","","0","0","1","","0.315237632","0.2","0.6","0.8","0.4","0.1049734862","0.1311925698","0.1482089448","0.315237632","","","","","","","","","","","","76","L","3","","","220","main_expt"
"","bandit","300","1115571","0.0-261.0-0.0","37153696","wem/bandit_either_2","A2ZR3PL5I0KPQ6","either","2","480","","","","","","","0","0","1","","0.3572442142","0.2","0.6","0.8","0.4","0.08244295151","0.08224132258","0.217172314","0.3572442142","","","","","","","","","","","","76","L","3","","","221","main_expt"
"","bandit","301","1118235","0.0-262.0-0.0","37153696","wem/bandit_either_2","A2ZR3PL5I0KPQ6","either","2","1135","","","","","","","1","0","0","0.2227738938","","0.2","0.6","0.8","0.4","","","","","0.09815111748","0.06870998364","0.2227738938","0.2796125419","","","","","","","","75","K","2","","","222","main_expt"
"","bandit","302","1120323","0.0-263.0-0.0","37153696","wem/bandit_either_2","A2ZR3PL5I0KPQ6","either","2","550","","","","","","","1","0","0","0.2265565182","","0.2","0.6","0.8","0.4","","","","","0.09925351505","0.111762886","0.2768694491","0.2265565182","","","","","","","","76","L","3","","","223","main_expt"
"","bandit","303","1122360","0.0-264.0-0.0","37153696","wem/bandit_either_2","A2ZR3PL5I0KPQ6","either","2","505","","","","","","","0","0","1","","0.2895694018","0.2","0.6","0.8","0.4","0.07842644678","0.09652303785","0.2895694018","0.1727872262","","","","","","","","","","","","75","K","2","","","224","main_expt"
"","bandit","304","1124192","0.0-265.0-0.0","37153696","wem/bandit_either_2","A2ZR3PL5I0KPQ6","either","2","282","","","","","","","0","0","1","","0.1580797834","0.2","0.6","0.8","0.4","0.05284632075","0.09424892582","0.3515154126","0.1580797834","","","","","","","","","","","","76","L","3","","","225","main_expt"
"","bandit","305","1126660","0.0-266.0-0.0","37153696","wem/bandit_either_2","A2ZR3PL5I0KPQ6","either","2","928","","","","","","","0","0","1","","0.3960872924","0.2","0.6","0.8","0.4","0.06788221328","0.1094697254","0.3960872924","0.1206031336","","","","","","","","","","","","75","K","2","","","226","main_expt"
"","bandit","306","1128537","0.0-267.0-0.0","37153696","wem/bandit_either_2","A2ZR3PL5I0KPQ6","either","2","330","","","","","","","0","0","1","0.3301105445","","0.2","0.6","0.8","0.4","","","","","0.04226868229","0.1055794081","0.3301105445","0.1218099769","","","","","","","","75","K","2","","","227","main_expt"
"","bandit","307","1130403","0.0-268.0-0.0","37153696","wem/bandit_either_2","A2ZR3PL5I0KPQ6","either","2","323","","","","","","","0","0","1","","0.08458740206","0.2","0.6","0.8","0.4","0.06174471126","0.1210232629","0.3679650562","0.08458740206","","","","","","","","","","","","76","L","3","","","228","main_expt"
"","bandit","308","1132304","0.0-269.0-0.0","37153696","wem/bandit_either_2","A2ZR3PL5I0KPQ6","either","2","361","","","","","","","0","0","1","","0.06311990622","0.2","0.6","0.8","0.4","0.06122033102","0.1249199002","0.3413725311","0.06311990622","","","","","","","","","","","","76","L","3","","","229","main_expt"
"","bandit","309","1134235","0.0-270.0-0.0","37153696","wem/bandit_either_2","A2ZR3PL5I0KPQ6","either","2","398","","","","","","","0","0","1","","0.04674316758","0.2","0.6","0.8","0.4","0.09369367087","0.1423167866","0.3652503211","0.04674316758","","","","","","","","","","","","76","L","3","","","230","main_expt"
"","bandit","310","1136206","0.0-271.0-0.0","37153696","wem/bandit_either_2","A2ZR3PL5I0KPQ6","either","2","431","","","","","","","0","0","1","0.1441411413","","0.2","0.6","0.8","0.4","","","","","0.1378364932","0.1441411413","0.3774172636","0.06697327866","","","","","","","","74","J","1","","","231","main_expt"
"","bandit","311","1138109","0.0-272.0-0.0","37153696","wem/bandit_either_2","A2ZR3PL5I0KPQ6","either","2","369","","","","","","","0","1","0","","0.3507397895","0.2","0.6","0.8","0.4","0.1138343256","0.1132866493","0.3507397895","0.08617656909","","","","","","","","","","","","75","K","2","","","232","main_expt"
"","bandit","312","1140207","0.0-273.0-0.0","37153696","wem/bandit_either_2","A2ZR3PL5I0KPQ6","either","2","552","","","","","","","1","0","0","0.3228668676","","0.2","0.6","0.8","0.4","","","","","0.1602674987","0.07587191469","0.3228668676","0.08388286328","","","","","","","","75","K","2","","","233","main_expt"
"","bandit","313","1142246","0.0-274.0-0.0","37153696","wem/bandit_either_2","A2ZR3PL5I0KPQ6","either","2","503","","","","","","","0","0","1","0.3219168209","","0.2","0.6","0.8","0.4","","","","","0.1399599793","0.08330376307","0.3219168209","0.08303297831","","","","","","","","75","K","2","","","234","main_expt"
"","bandit","314","1144235","0.0-275.0-0.0","37153696","wem/bandit_either_2","A2ZR3PL5I0KPQ6","either","2","438","","","","","","","0","0","1","0.2907257894","","0.2","0.6","0.8","0.4","","","","","0.1577883936","0.07960395758","0.2907257894","0.08228619446","","","","","","","","75","K","2","","","235","main_expt"
"","bandit","315","1147007","0.0-276.0-0.0","37153696","wem/bandit_either_2","A2ZR3PL5I0KPQ6","either","2","1223","","","","","","","0","0","1","0.2879125653","","0.2","0.6","0.8","0.4","","","","","0.1206463377","0.06703487678","0.2879125653","0.07856112713","","","","","","","","75","K","2","","","236","main_expt"
"","bandit","316","1149210","0.0-277.0-0.0","37153696","wem/bandit_either_2","A2ZR3PL5I0KPQ6","either","2","666","","","","","","","0","0","1","","0.1224948263","0.2","0.6","0.8","0.4","0.1224948263","0.07970276757","0.3055933028","0.09394336493","","","","","","","","","","","","72","H","0","img/none_selected.jpg","","237","main_expt"
"","bandit","317","1151242","0.0-278.0-0.0","37153696","wem/bandit_either_2","A2ZR3PL5I0KPQ6","either","2","492","","","","","","","0","0","1","0.3197806133","","0.2","0.6","0.8","0.4","","","","","0.1163601633","0.05589422377","0.3197806133","0.1044036833","","","","","","","","75","K","2","","","238","main_expt"
"","bandit","318","1153665","0.0-279.0-0.0","37153696","wem/bandit_either_2","A2ZR3PL5I0KPQ6","either","2","890","","","","","","","0","0","1","","0.1010835707","0.2","0.6","0.8","0.4","0.09302868556","0.07304711058","0.2699970134","0.1010835707","","","","","","","","","","","","76","L","3","","","239","main_expt"
"","bandit","319","1155818","0.0-280.0-0.0","37153696","wem/bandit_either_2","A2ZR3PL5I0KPQ6","either","2","609","","","","","","","0","0","1","0.2594796501","","0.2","0.6","0.8","0.4","","","","","0.1142909623","0.05193691484","0.2594796501","0.1196592177","","","","","","","","75","K","2","","","240","main_expt"
"","bandit","320","1157779","0.0-281.0-0.0","37153696","wem/bandit_either_2","A2ZR3PL5I0KPQ6","either","2","422","","","","","","","0","0","1","0.127320561","","0.2","0.6","0.8","0.4","","","","","0.1694552561","0.06844812817","0.252227353","0.127320561","","","","","","","","76","L","3","","","241","main_expt"
"","bandit","321","1159794","0.0-282.0-0.0","37153696","wem/bandit_either_2","A2ZR3PL5I0KPQ6","either","2","483","","","","","","","0","0","1","","0.10641745","0.2","0.6","0.8","0.4","0.1828807391","0.07869989264","0.301231011","0.10641745","","","","","","","","","","","","76","L","3","","","242","main_expt"
"","bandit","322","1161618","0.0-283.0-0.0","37153696","wem/bandit_either_2","A2ZR3PL5I0KPQ6","either","2","287","","","","","","","0","0","1","","0.06084245892","0.2","0.6","0.8","0.4","0.1236361748","0.06084245892","0.2903867436","0.131785075","","","","","","","","","","","","74","J","1","","","243","main_expt"
"","bandit","323","1163506","0.0-284.0-0.0","37153696","wem/bandit_either_2","A2ZR3PL5I0KPQ6","either","2","345","","","","","","","0","0","1","0.2659167858","","0.2","0.6","0.8","0.4","","","","","0.1131162958","0.04982625113","0.2659167858","0.1150513838","","","","","","","","75","K","2","","","244","main_expt"
"","bandit","324","1165400","0.0-285.0-0.0","37153696","wem/bandit_either_2","A2ZR3PL5I0KPQ6","either","2","357","","","","","","","0","0","1","0.08611006768","","0.2","0.6","0.8","0.4","","","","","0.08611006768","0.04708965441","0.254087564","0.1651966394","","","","","","","","72","H","0","img/none_selected.jpg","","245","main_expt"
"","bandit","325","1167695","0.0-286.0-0.0","37153696","wem/bandit_either_2","A2ZR3PL5I0KPQ6","either","2","762","","","","","","","0","0","1","","0.1555796254","0.2","0.6","0.8","0.4","0.1123216353","0.0280961865","0.2551799517","0.1555796254","","","","","","","","","","","","76","L","3","","","246","main_expt"
"","bandit","326","1169597","0.0-287.0-0.0","37153696","wem/bandit_either_2","A2ZR3PL5I0KPQ6","either","2","369","","","","","","","0","0","1","0.2629335529","","0.2","0.6","0.8","0.4","","","","","0.09475638668","0.04499456282","0.2629335529","0.1703980626","","","","","","","","75","K","2","","","247","main_expt"
"","bandit","327","1171650","0.0-288.0-0.0","37153696","wem/bandit_either_2","A2ZR3PL5I0KPQ6","either","2","520","","","","","","","1","0","0","0.2393496224","","0.2","0.6","0.8","0.4","","","","","0.08309477664","0.03910304398","0.2393496224","0.1502680902","","","","","","","","75","K","2","","","248","main_expt"
"","bandit","328","1173705","0.0-289.0-0.0","37153696","wem/bandit_either_2","A2ZR3PL5I0KPQ6","either","2","519","","","","","","","0","0","1","0.2612635012","","0.2","0.6","0.8","0.4","","","","","0.09118761135","0.02658952892","0.2612635012","0.1515252412","","","","","","","","75","K","2","","","249","main_expt"