"consent","trial_type","trial_index","time_elapsed","internal_node_id","subjID","study","MID","cond","drift","rt","responses","key_press","expt_phase","like","value","connected","gems","bombs","no_reward","GemPrChosen","BombPrChosen","GainOverPainPr_0","GainOverPainPr_1","GainOverPainPr_2","GainOverPainPr_3","LosePr_0","LosePr_1","LosePr_2","LosePr_3","WinPr_0","WinPr_1","WinPr_2","WinPr_3","Q0","Q1","Q2","gender","age","ethnicity","target","respCharCode","respKey","respChoiceNum","respChoice","practice","trial_counter","trial_label"
"INL_behavioral_consent_30min_online.html","consent","0","6447","0.0-0.0","40792425","wem/bandit_either_2","A0017268R9SKD8U2Y3F","either","2","","","","","","","","","","","","","","","","","","","","","","","","","","","","","","","","","","","","","",""
"","survey-text","1","10755","0.0-1.0","40792425","wem/bandit_either_2","A0017268R9SKD8U2Y3F","either","2","3302","{""Q0"":""A0017268R9SKD8U2Y3F""}","","","","","","","","","","","","","","","","","","","","","","","","","","","","","","","","","","","",""
"","text","2","17331","0.0-2.0","40792425","wem/bandit_either_2","A0017268R9SKD8U2Y3F","either","2","5574","","32","","","","","","","","","","","","","","","","","","","","","","","","","","","","","","","","","","",""
"","text","3","23514","0.0-3.0","40792425","wem/bandit_either_2","A0017268R9SKD8U2Y3F","either","2","6182","","32","","","","","","","","","","","","","","","","","","","","","","","","","","","","","","","","","","",""
"","text","4","45451","0.0-4.0","40792425","wem/bandit_either_2","A0017268R9SKD8U2Y3F","either","2","21936","","32","","","","","","","","","","","","","","","","","","","","","","","","","","","","","","","","","","",""
"","text","5","70883","0.0-5.0","40792425","wem/bandit_either_2","A0017268R9SKD8U2Y3F","either","2","25430","","32","","","","","","","","","","","","","","","","","","","","","","","","","","","","","","","","","","",""
"","text","6","87667","0.0-6.0","40792425","wem/bandit_either_2","A0017268R9SKD8U2Y3F","either","2","16783","","32","","","","","","","","","","","","","","","","","","","","","","","","","","","","","","","","","","",""
"","text","7","97555","0.0-7.0","40792425","wem/bandit_either_2","A0017268R9SKD8U2Y3F","either","2","9887","","32","","","","","","","","","","","","","","","","","","","","","","","","","","","","","","","","","","",""
"","text","8","104547","0.0-8.0","40792425","wem/bandit_either_2","A0017268R9SKD8U2Y3F","either","2","6991","","32","","","","","","","","","","","","","","","","","","","","","","","","","","","","","","","","","","",""
"","identification","9","110818","0.0-9.0-0.0","40792425","wem/bandit_either_2","A0017268R9SKD8U2Y3F","either","2","6259","","","","6","6","6","","","","","","","","","","","","","","","","","","","","","","","","the village of Zur","","","","","","",""
"","identification","10","115313","0.0-9.0-1.0","40792425","wem/bandit_either_2","A0017268R9SKD8U2Y3F","either","2","3486","","","","0","0","0","","","","","","","","","","","","","","","","","","","","","","","","the village of Nyx","","","","","","",""
"","text","11","125531","0.0-10.0","40792425","wem/bandit_either_2","A0017268R9SKD8U2Y3F","either","2","9216","","32","","","","","","","","","","","","","","","","","","","","","","","","","","","","","","","","","","",""
"","text","12","129545","0.0-11.0","40792425","wem/bandit_either_2","A0017268R9SKD8U2Y3F","either","2","4013","","32","","","","","","","","","","","","","","","","","","","","","","","","","","","","","","","","","","",""
"","text","13","133873","0.0-12.0","40792425","wem/bandit_either_2","A0017268R9SKD8U2Y3F","either","2","4326","","32","","","","","","","","","","","","","","","","","","","","","","","","","","","","","","","","","","",""
"","text","14","139010","0.0-13.0","40792425","wem/bandit_either_2","A0017268R9SKD8U2Y3F","either","2","5136","","32","","","","","","","","","","","","","","","","","","","","","","","","","","","","","","","","","","",""
"","bandit","15","142751","0.0-14.0-0.0","40792425","wem/bandit_either_2","A0017268R9SKD8U2Y3F","either","2","2236","","","","","","","0","0","1","0","0","","","","","0","","","","0","","","","","","","","","","","74","J","0","img/none_selected_demo.jpg","true","0",""
"","bandit","16","145543","0.0-15.0-0.0","40792425","wem/bandit_either_2","A0017268R9SKD8U2Y3F","either","2","1287","","","","","","","0","0","1","0","0","","","","","0","","","","0","","","","","","","","","","","75","K","0","img/none_selected_demo.jpg","true","0",""
"","text","17","159953","0.0-16.0","40792425","wem/bandit_either_2","A0017268R9SKD8U2Y3F","either","2","14409","","32","","","","","","","","","","","","","","","","","","","","","","","","","","","","","","","","","","",""
"","text","18","170450","0.0-17.0","40792425","wem/bandit_either_2","A0017268R9SKD8U2Y3F","either","2","10495","","32","","","","","","","","","","","","","","","","","","","","","","","","","","","","","","","","","","",""
"","text","19","178560","0.0-18.0","40792425","wem/bandit_either_2","A0017268R9SKD8U2Y3F","either","2","8110","","32","","","","","","","","","","","","","","","","","","","","","","","","","","","","","","","","","","",""
"","text","20","181026","0.0-19.0","40792425","wem/bandit_either_2","A0017268R9SKD8U2Y3F","either","2","2465","","32","","","","","","","","","","","","","","","","","","","","","","","","","","","","","","","","","","",""
"","bandit","21","183839","0.0-20.0-0.0","40792425","wem/bandit_either_2","A0017268R9SKD8U2Y3F","either","2","1308","","","","","","","0","1","0","","0.8","0.5","0.5","","","0.8","0.2","","","","","","","","","","","","","","74","J","0","img/none_selected_demo.jpg","true","0","80_20_practice"
"","bandit","22","185655","0.0-20.0-1.0","40792425","wem/bandit_either_2","A0017268R9SKD8U2Y3F","either","2","311","","","","","","","0","1","0","","0.2","0.5","0.5","","","0.8","0.2","","","","","","","","","","","","","","75","K","1","","true","0","80_20_practice"
"","bandit","23","187375","0.0-20.0-2.0","40792425","wem/bandit_either_2","A0017268R9SKD8U2Y3F","either","2","215","","","","","","","0","0","1","0.2","","0.5","0.5","","","","","","","0.8","0.2","","","","","","","","","","75","K","1","","true","0","80_20_practice"
"","bandit","24","189119","0.0-20.0-3.0","40792425","wem/bandit_either_2","A0017268R9SKD8U2Y3F","either","2","239","","","","","","","0","0","1","0.2","","0.5","0.5","","","","","","","0.8","0.2","","","","","","","","","","75","K","1","","true","0","80_20_practice"
"","bandit","25","190791","0.0-20.0-4.0","40792425","wem/bandit_either_2","A0017268R9SKD8U2Y3F","either","2","168","","","","","","","0","0","1","0.2","","0.5","0.5","","","","","","","0.8","0.2","","","","","","","","","","75","K","1","","true","0","80_20_practice"
"","bandit","26","192296","0.0-20.0-5.0","40792425","wem/bandit_either_2","A0017268R9SKD8U2Y3F","either","2","1","","","","","","","0","1","0","","0.8","0.5","0.5","","","0.8","0.2","","","","","","","","","","","","","","74","J","0","img/none_selected_demo.jpg","true","0","80_20_practice"
"","bandit","27","194159","0.0-20.0-6.0","40792425","wem/bandit_either_2","A0017268R9SKD8U2Y3F","either","2","359","","","","","","","0","0","1","0.2","","0.5","0.5","","","","","","","0.8","0.2","","","","","","","","","","75","K","1","","true","0","80_20_practice"
"","bandit","28","195871","0.0-20.0-7.0","40792425","wem/bandit_either_2","A0017268R9SKD8U2Y3F","either","2","208","","","","","","","0","0","1","","0.8","0.5","0.5","","","0.8","0.2","","","","","","","","","","","","","","74","J","0","img/none_selected_demo.jpg","true","0","80_20_practice"
"","bandit","29","197625","0.0-20.0-8.0","40792425","wem/bandit_either_2","A0017268R9SKD8U2Y3F","either","2","247","","","","","","","0","1","0","","0.8","0.5","0.5","","","0.8","0.2","","","","","","","","","","","","","","74","J","0","img/none_selected_demo.jpg","true","0","80_20_practice"
"","bandit","30","199271","0.0-20.0-9.0","40792425","wem/bandit_either_2","A0017268R9SKD8U2Y3F","either","2","142","","","","","","","0","0","1","","0.2","0.5","0.5","","","0.8","0.2","","","","","","","","","","","","","","75","K","1","","true","0","80_20_practice"
"","bandit","31","200960","0.0-20.0-10.0","40792425","wem/bandit_either_2","A0017268R9SKD8U2Y3F","either","2","184","","","","","","","0","0","1","","0.8","0.5","0.5","","","0.8","0.2","","","","","","","","","","","","","","74","J","0","img/none_selected_demo.jpg","true","0","80_20_practice"
"","bandit","32","202736","0.0-20.0-11.0","40792425","wem/bandit_either_2","A0017268R9SKD8U2Y3F","either","2","271","","","","","","","0","1","0","","0.8","0.5","0.5","","","0.8","0.2","","","","","","","","","","","","","","74","J","0","img/none_selected_demo.jpg","true","0","80_20_practice"
"","bandit","33","204472","0.0-20.0-12.0","40792425","wem/bandit_either_2","A0017268R9SKD8U2Y3F","either","2","232","","","","","","","0","1","0","","0.8","0.5","0.5","","","0.8","0.2","","","","","","","","","","","","","","74","J","0","img/none_selected_demo.jpg","true","0","80_20_practice"
"","bandit","34","206223","0.0-20.0-13.0","40792425","wem/bandit_either_2","A0017268R9SKD8U2Y3F","either","2","247","","","","","","","1","0","0","0.8","","0.5","0.5","","","","","","","0.8","0.2","","","","","","","","","","74","J","0","img/none_selected_demo.jpg","true","0","80_20_practice"
"","bandit","35","208039","0.0-20.0-14.0","40792425","wem/bandit_either_2","A0017268R9SKD8U2Y3F","either","2","311","","","","","","","0","1","0","","0.8","0.5","0.5","","","0.8","0.2","","","","","","","","","","","","","","74","J","0","img/none_selected_demo.jpg","true","0","80_20_practice"
"","bandit","36","209583","0.0-20.0-15.0","40792425","wem/bandit_either_2","A0017268R9SKD8U2Y3F","either","2","40","","","","","","","0","0","1","","0.2","0.5","0.5","","","0.8","0.2","","","","","","","","","","","","","","75","K","1","","true","0","80_20_practice"
"","bandit","37","211247","0.0-20.0-16.0","40792425","wem/bandit_either_2","A0017268R9SKD8U2Y3F","either","2","160","","","","","","","0","0","1","0.2","","0.5","0.5","","","","","","","0.8","0.2","","","","","","","","","","75","K","1","","true","0","80_20_practice"
"","bandit","38","212927","0.0-20.0-17.0","40792425","wem/bandit_either_2","A0017268R9SKD8U2Y3F","either","2","176","","","","","","","0","0","1","0.2","","0.5","0.5","","","","","","","0.8","0.2","","","","","","","","","","75","K","1","","true","0","80_20_practice"
"","bandit","39","214649","0.0-20.0-18.0","40792425","wem/bandit_either_2","A0017268R9SKD8U2Y3F","either","2","217","","","","","","","0","0","1","","0.2","0.5","0.5","","","0.8","0.2","","","","","","","","","","","","","","75","K","1","","true","0","80_20_practice"
"","bandit","40","216599","0.0-20.0-19.0","40792425","wem/bandit_either_2","A0017268R9SKD8U2Y3F","either","2","446","","","","","","","0","0","1","","0.2","0.5","0.5","","","0.8","0.2","","","","","","","","","","","","","","75","K","1","","true","0","80_20_practice"
"","text","41","221761","0.0-21.0","40792425","wem/bandit_either_2","A0017268R9SKD8U2Y3F","either","2","5161","","32","","","","","","","","","","","","","","","","","","","","","","","","","","","","","","","","","","",""
"","bandit","42","224159","0.0-22.0-0.0","40792425","wem/bandit_either_2","A0017268R9SKD8U2Y3F","either","2","894","","","","","","","1","0","0","1","0","","","","","0","1","","","1","0","","","","","","","","","","74","J","0","img/none_selected_demo.jpg","true","0",""
"","text","43","231747","0.0-23.0","40792425","wem/bandit_either_2","A0017268R9SKD8U2Y3F","either","2","7585","","32","","","","","","","","","","","","","","","","","","","","","","","","","","","","","","","","","","",""
"","text","44","235417","0.0-24.0","40792425","wem/bandit_either_2","A0017268R9SKD8U2Y3F","either","2","3669","","32","","","","","","","","","","","","","","","","","","","","","","","","","","","","","","","","","","",""
"","text","45","239490","0.0-25.0","40792425","wem/bandit_either_2","A0017268R9SKD8U2Y3F","either","2","4071","","32","","","","","","","","","","","","","","","","","","","","","","","","","","","","","","","","","","",""
"","text","46","243666","0.0-26.0","40792425","wem/bandit_either_2","A0017268R9SKD8U2Y3F","either","2","4176","","32","","","","","","","","","","","","","","","","","","","","","","","","","","","","","","","","","","",""
"","text","47","246105","0.0-27.0","40792425","wem/bandit_either_2","A0017268R9SKD8U2Y3F","either","2","2437","","32","","","","","","","","","","","","","","","","","","","","","","","","","","","","","","","","","","",""
"","text","48","247521","0.0-28.0","40792425","wem/bandit_either_2","A0017268R9SKD8U2Y3F","either","2","1414","","32","","","","","","","","","","","","","","","","","","","","","","","","","","","","","","","","","","",""
"","text","49","249666","0.0-29.0","40792425","wem/bandit_either_2","A0017268R9SKD8U2Y3F","either","2","2144","","32","","","","","","","","","","","","","","","","","","","","","","","","","","","","","","","","","","",""
"","text","50","251113","0.0-30.0","40792425","wem/bandit_either_2","A0017268R9SKD8U2Y3F","either","2","1447","","32","","","","","","","","","","","","","","","","","","","","","","","","","","","","","","","","","","",""
"","text","51","252545","0.0-31.0","40792425","wem/bandit_either_2","A0017268R9SKD8U2Y3F","either","2","1431","","32","","","","","","","","","","","","","","","","","","","","","","","","","","","","","","","","","","",""
"","text","52","253986","0.0-32.0","40792425","wem/bandit_either_2","A0017268R9SKD8U2Y3F","either","2","1440","","32","","","","","","","","","","","","","","","","","","","","","","","","","","","","","","","","","","",""
"","text","53","256577","0.0-33.0","40792425","wem/bandit_either_2","A0017268R9SKD8U2Y3F","either","2","2589","","32","","","","","","","","","","","","","","","","","","","","","","","","","","","","","","","","","","",""
"","bandit","54","258607","0.0-34.0-0.0","40792425","wem/bandit_either_2","A0017268R9SKD8U2Y3F","either","2","526","","","","","","","0","0","1","","0.8","0.5","0.5","0.5","0.5","0.8","0.2","0.6","0.2","","","","","","","","","","","","72","H","0","img/none_selected.jpg","true","0","full_practice"
"","bandit","55","260391","0.0-34.0-1.0","40792425","wem/bandit_either_2","A0017268R9SKD8U2Y3F","either","2","279","","","","","","","0","0","1","","0.2","0.5","0.5","0.5","0.5","0.8","0.2","0.6","0.2","","","","","","","","","","","","74","J","1","","true","0","full_practice"
"","bandit","56","262199","0.0-34.0-2.0","40792425","wem/bandit_either_2","A0017268R9SKD8U2Y3F","either","2","303","","","","","","","0","1","0","","0.6","0.5","0.5","0.5","0.5","0.8","0.2","0.6","0.2","","","","","","","","","","","","75","K","2","","true","0","full_practice"
"","bandit","57","263879","0.0-34.0-3.0","40792425","wem/bandit_either_2","A0017268R9SKD8U2Y3F","either","2","175","","","","","","","0","0","1","","0.2","0.5","0.5","0.5","0.5","0.8","0.2","0.6","0.2","","","","","","","","","","","","76","L","3","","true","0","full_practice"
"","bandit","58","265616","0.0-34.0-4.0","40792425","wem/bandit_either_2","A0017268R9SKD8U2Y3F","either","2","232","","","","","","","1","0","0","0.8","","0.5","0.5","0.5","0.5","","","","","0.8","0.2","0.6","0.2","","","","","","","","72","H","0","img/none_selected.jpg","true","0","full_practice"
"","bandit","59","267351","0.0-34.0-5.0","40792425","wem/bandit_either_2","A0017268R9SKD8U2Y3F","either","2","230","","","","","","","0","1","0","","0.2","0.5","0.5","0.5","0.5","0.8","0.2","0.6","0.2","","","","","","","","","","","","76","L","3","","true","0","full_practice"
"","bandit","60","269047","0.0-34.0-6.0","40792425","wem/bandit_either_2","A0017268R9SKD8U2Y3F","either","2","192","","","","","","","1","0","0","0.8","","0.5","0.5","0.5","0.5","","","","","0.8","0.2","0.6","0.2","","","","","","","","72","H","0","img/none_selected.jpg","true","0","full_practice"
"","bandit","61","270759","0.0-34.0-7.0","40792425","wem/bandit_either_2","A0017268R9SKD8U2Y3F","either","2","208","","","","","","","0","0","1","0.8","","0.5","0.5","0.5","0.5","","","","","0.8","0.2","0.6","0.2","","","","","","","","72","H","0","img/none_selected.jpg","true","0","full_practice"
"","bandit","62","272359","0.0-34.0-8.0","40792425","wem/bandit_either_2","A0017268R9SKD8U2Y3F","either","2","96","","","","","","","0","1","0","","0.8","0.5","0.5","0.5","0.5","0.8","0.2","0.6","0.2","","","","","","","","","","","","72","H","0","img/none_selected.jpg","true","0","full_practice"
"","bandit","63","274055","0.0-34.0-9.0","40792425","wem/bandit_either_2","A0017268R9SKD8U2Y3F","either","2","191","","","","","","","1","0","0","0.8","","0.5","0.5","0.5","0.5","","","","","0.8","0.2","0.6","0.2","","","","","","","","72","H","0","img/none_selected.jpg","true","0","full_practice"
"","bandit","64","275704","0.0-34.0-10.0","40792425","wem/bandit_either_2","A0017268R9SKD8U2Y3F","either","2","145","","","","","","","1","0","0","0.8","","0.5","0.5","0.5","0.5","","","","","0.8","0.2","0.6","0.2","","","","","","","","72","H","0","img/none_selected.jpg","true","0","full_practice"
"","bandit","65","277423","0.0-34.0-11.0","40792425","wem/bandit_either_2","A0017268R9SKD8U2Y3F","either","2","213","","","","","","","1","0","0","0.8","","0.5","0.5","0.5","0.5","","","","","0.8","0.2","0.6","0.2","","","","","","","","72","H","0","img/none_selected.jpg","true","0","full_practice"
"","bandit","66","279095","0.0-34.0-12.0","40792425","wem/bandit_either_2","A0017268R9SKD8U2Y3F","either","2","167","","","","","","","1","0","0","0.8","","0.5","0.5","0.5","0.5","","","","","0.8","0.2","0.6","0.2","","","","","","","","72","H","0","img/none_selected.jpg","true","0","full_practice"
"","bandit","67","280814","0.0-34.0-13.0","40792425","wem/bandit_either_2","A0017268R9SKD8U2Y3F","either","2","215","","","","","","","0","0","1","","0.8","0.5","0.5","0.5","0.5","0.8","0.2","0.6","0.2","","","","","","","","","","","","72","H","0","img/none_selected.jpg","true","0","full_practice"
"","bandit","68","282398","0.0-34.0-14.0","40792425","wem/bandit_either_2","A0017268R9SKD8U2Y3F","either","2","80","","","","","","","0","0","1","","0.2","0.5","0.5","0.5","0.5","0.8","0.2","0.6","0.2","","","","","","","","","","","","74","J","1","","true","0","full_practice"
"","bandit","69","284039","0.0-34.0-15.0","40792425","wem/bandit_either_2","A0017268R9SKD8U2Y3F","either","2","136","","","","","","","0","0","1","","0.8","0.5","0.5","0.5","0.5","0.8","0.2","0.6","0.2","","","","","","","","","","","","72","H","0","img/none_selected.jpg","true","0","full_practice"
"","bandit","70","285575","0.0-34.0-16.0","40792425","wem/bandit_either_2","A0017268R9SKD8U2Y3F","either","2","32","","","","","","","1","0","0","0.8","","0.5","0.5","0.5","0.5","","","","","0.8","0.2","0.6","0.2","","","","","","","","72","H","0","img/none_selected.jpg","true","0","full_practice"
"","bandit","71","287400","0.0-34.0-17.0","40792425","wem/bandit_either_2","A0017268R9SKD8U2Y3F","either","2","321","","","","","","","0","1","0","","0.8","0.5","0.5","0.5","0.5","0.8","0.2","0.6","0.2","","","","","","","","","","","","72","H","0","img/none_selected.jpg","true","0","full_practice"
"","bandit","72","289319","0.0-34.0-18.0","40792425","wem/bandit_either_2","A0017268R9SKD8U2Y3F","either","2","414","","","","","","","0","1","0","","0.8","0.5","0.5","0.5","0.5","0.8","0.2","0.6","0.2","","","","","","","","","","","","72","H","0","img/none_selected.jpg","true","0","full_practice"
"","bandit","73","290855","0.0-34.0-19.0","40792425","wem/bandit_either_2","A0017268R9SKD8U2Y3F","either","2","30","","","","","","","1","0","0","0.8","","0.5","0.5","0.5","0.5","","","","","0.8","0.2","0.6","0.2","","","","","","","","72","H","0","img/none_selected.jpg","true","0","full_practice"
"","text","74","295641","0.0-35.0","40792425","wem/bandit_either_2","A0017268R9SKD8U2Y3F","either","2","4781","","32","","","","","","","","","","","","","","","","","","","","","","","","","","","","","","","","","","",""
"","text","75","302754","0.0-36.0","40792425","wem/bandit_either_2","A0017268R9SKD8U2Y3F","either","2","6112","","32","","","","","","","","","","","","","","","","","","","","","","","","","","","","","","","","","","",""
"","text","76","306057","0.0-37.0","40792425","wem/bandit_either_2","A0017268R9SKD8U2Y3F","either","2","3300","","32","","","","","","","","","","","","","","","","","","","","","","","","","","","","","","","","","","",""
"","text","77","309489","0.0-38.0","40792425","wem/bandit_either_2","A0017268R9SKD8U2Y3F","either","2","3430","","32","","","","","","","","","","","","","","","","","","","","","","","","","","","","","","","","","","",""
"","text","78","311273","0.0-39.0","40792425","wem/bandit_either_2","A0017268R9SKD8U2Y3F","either","2","1782","","32","","","","","","","","","","","","","","","","","","","","","","","","","","","","","","","","","","",""
"","text","79","316009","0.0-40.0","40792425","wem/bandit_either_2","A0017268R9SKD8U2Y3F","either","2","4735","","32","","","","","","","","","","","","","","","","","","","","","","","","","","","","","","","","","","",""
"","bandit","80","319751","0.0-41.0-0.0","40792425","wem/bandit_either_2","A0017268R9SKD8U2Y3F","either","2","2236","","","","","","","1","0","0","0.326135308","","0.8","0.2","0.4","0.6","","","","","0.326135308","0.3653736811","0.4781977867","0.362799796","","","","","","","","72","H","0","img/none_selected.jpg","","1","main_expt"
"","bandit","81","321447","0.0-42.0-0.0","40792425","wem/bandit_either_2","A0017268R9SKD8U2Y3F","either","2","191","","","","","","","1","0","0","0.3564958201","","0.8","0.2","0.4","0.6","","","","","0.3564958201","0.3999069229","0.4765481994","0.3891507205","","","","","","","","72","H","0","img/none_selected.jpg","","2","main_expt"
"","bandit","82","323047","0.0-43.0-0.0","40792425","wem/bandit_either_2","A0017268R9SKD8U2Y3F","either","2","95","","","","","","","0","0","1","","0.3309056029","0.8","0.2","0.4","0.6","0.3309056029","0.4363582421","0.4722158263","0.3151339382","","","","","","","","","","","","72","H","0","img/none_selected.jpg","","3","main_expt"
"","bandit","83","324567","0.0-44.0-0.0","40792425","wem/bandit_either_2","A0017268R9SKD8U2Y3F","either","2","15","","","","","","","0","0","1","0.308467875","","0.8","0.2","0.4","0.6","","","","","0.308467875","0.4300921111","0.4609570051","0.250648122","","","","","","","","72","H","0","img/none_selected.jpg","","4","main_expt"
"","bandit","84","326135","0.0-45.0-0.0","40792425","wem/bandit_either_2","A0017268R9SKD8U2Y3F","either","2","63","","","","","","","1","0","0","0.3349995635","","0.8","0.2","0.4","0.6","","","","","0.3349995635","0.3863220662","0.4707799186","0.2382585344","","","","","","","","72","H","0","img/none_selected.jpg","","5","main_expt"
"","bandit","85","327784","0.0-46.0-0.0","40792425","wem/bandit_either_2","A0017268R9SKD8U2Y3F","either","2","144","","","","","","","0","0","1","0.3743101545","","0.8","0.2","0.4","0.6","","","","","0.3743101545","0.4192648028","0.4676743975","0.2088101903","","","","","","","","72","H","0","img/none_selected.jpg","","6","main_expt"
"","bandit","86","329407","0.0-47.0-0.0","40792425","wem/bandit_either_2","A0017268R9SKD8U2Y3F","either","2","117","","","","","","","1","0","0","0.377506125","","0.8","0.2","0.4","0.6","","","","","0.377506125","0.4218548145","0.4767364015","0.1884279889","","","","","","","","72","H","0","img/none_selected.jpg","","7","main_expt"
"","bandit","87","331190","0.0-48.0-0.0","40792425","wem/bandit_either_2","A0017268R9SKD8U2Y3F","either","2","278","","","","","","","0","0","1","0.3452849142","","0.8","0.2","0.4","0.6","","","","","0.3452849142","0.4298914749","0.4837409877","0.2297930851","","","","","","","","72","H","0","img/none_selected.jpg","","8","main_expt"
"","bandit","88","332950","0.0-49.0-0.0","40792425","wem/bandit_either_2","A0017268R9SKD8U2Y3F","either","2","255","","","","","","","0","0","1","","0.2713567333","0.8","0.2","0.4","0.6","0.2713567333","0.4215440671","0.4825212187","0.2219539873","","","","","","","","","","","","72","H","0","img/none_selected.jpg","","9","main_expt"
"","bandit","89","334510","0.0-50.0-0.0","40792425","wem/bandit_either_2","A0017268R9SKD8U2Y3F","either","2","56","","","","","","","0","0","1","","0.2712708503","0.8","0.2","0.4","0.6","0.2712708503","0.3991616263","0.4791264729","0.2398128751","","","","","","","","","","","","72","H","0","img/none_selected.jpg","","10","main_expt"
"","bandit","90","336182","0.0-51.0-0.0","40792425","wem/bandit_either_2","A0017268R9SKD8U2Y3F","either","2","168","","","","","","","0","1","0","","0.4762013833","0.8","0.2","0.4","0.6","0.2635531688","0.4002673883","0.4762013833","0.2551733424","","","","","","","","","","","","75","K","2","","","11","main_expt"
"","bandit","91","337767","0.0-52.0-0.0","40792425","wem/bandit_either_2","A0017268R9SKD8U2Y3F","either","2","79","","","","","","","1","0","0","0.2669056975","","0.8","0.2","0.4","0.6","","","","","0.2669056975","0.368629831","0.4729837645","0.2593424883","","","","","","","","72","H","0","img/none_selected.jpg","","12","main_expt"
"","bandit","92","339520","0.0-53.0-0.0","40792425","wem/bandit_either_2","A0017268R9SKD8U2Y3F","either","2","248","","","","","","","0","0","1","","0.3204456557","0.8","0.2","0.4","0.6","0.3204456557","0.4189726289","0.4749786695","0.2493591627","","","","","","","","","","","","72","H","0","img/none_selected.jpg","","13","main_expt"
"","bandit","93","341143","0.0-54.0-0.0","40792425","wem/bandit_either_2","A0017268R9SKD8U2Y3F","either","2","117","","","","","","","0","0","1","0.3466526728","","0.8","0.2","0.4","0.6","","","","","0.3466526728","0.4352425359","0.4810115094","0.2686446846","","","","","","","","72","H","0","img/none_selected.jpg","","14","main_expt"
"","bandit","94","342814","0.0-55.0-0.0","40792425","wem/bandit_either_2","A0017268R9SKD8U2Y3F","either","2","167","","","","","","","0","0","1","0.3736671224","","0.8","0.2","0.4","0.6","","","","","0.3736671224","0.3819090161","0.4705329286","0.2690169042","","","","","","","","72","H","0","img/none_selected.jpg","","15","main_expt"
"","bandit","95","344398","0.0-56.0-0.0","40792425","wem/bandit_either_2","A0017268R9SKD8U2Y3F","either","2","80","","","","","","","0","0","1","0.3778143907","","0.8","0.2","0.4","0.6","","","","","0.3778143907","0.3737760256","0.4687419894","0.2518303543","","","","","","","","72","H","0","img/none_selected.jpg","","16","main_expt"
"","bandit","96","346062","0.0-57.0-0.0","40792425","wem/bandit_either_2","A0017268R9SKD8U2Y3F","either","2","160","","","","","","","0","0","1","0.3845750066","","0.8","0.2","0.4","0.6","","","","","0.3845750066","0.4151791473","0.4594180265","0.2406549936","","","","","","","","72","H","0","img/none_selected.jpg","","17","main_expt"
"","bandit","97","347750","0.0-58.0-0.0","40792425","wem/bandit_either_2","A0017268R9SKD8U2Y3F","either","2","184","","","","","","","0","0","1","0.4041286345","","0.8","0.2","0.4","0.6","","","","","0.4041286345","0.4137363134","0.425397146","0.2670149403","","","","","","","","72","H","0","img/none_selected.jpg","","18","main_expt"
"","bandit","98","349470","0.0-59.0-0.0","40792425","wem/bandit_either_2","A0017268R9SKD8U2Y3F","either","2","216","","","","","","","0","1","0","","0.4084056464","0.8","0.2","0.4","0.6","0.4127350431","0.4084056464","0.4201246927","0.2658482338","","","","","","","","","","","","74","J","1","","","19","main_expt"
"","bandit","99","351111","0.0-60.0-0.0","40792425","wem/bandit_either_2","A0017268R9SKD8U2Y3F","either","2","136","","","","","","","1","0","0","0.2452433766","","0.8","0.2","0.4","0.6","","","","","0.4107359536","0.4129175496","0.3954271328","0.2452433766","","","","","","","","76","L","3","","","20","main_expt"
"","bandit","100","352862","0.0-61.0-0.0","40792425","wem/bandit_either_2","A0017268R9SKD8U2Y3F","either","2","246","","","","","","","0","0","1","","0.2298761452","0.8","0.2","0.4","0.6","0.3954861765","0.3888488162","0.4196431029","0.2298761452","","","","","","","","","","","","76","L","3","","","21","main_expt"
"","bandit","101","354631","0.0-62.0-0.0","40792425","wem/bandit_either_2","A0017268R9SKD8U2Y3F","either","2","262","","","","","","","0","0","1","0.3805979297","","0.8","0.2","0.4","0.6","","","","","0.3805979297","0.3873149631","0.3843335182","0.266827693","","","","","","","","72","H","0","img/none_selected.jpg","","22","main_expt"
"","bandit","102","356359","0.0-63.0-0.0","40792425","wem/bandit_either_2","A0017268R9SKD8U2Y3F","either","2","222","","","","","","","0","0","1","","0.2519769849","0.8","0.2","0.4","0.6","0.425451992","0.3659772031","0.3839977458","0.2519769849","","","","","","","","","","","","76","L","3","","","23","main_expt"
"","bandit","103","358166","0.0-64.0-0.0","40792425","wem/bandit_either_2","A0017268R9SKD8U2Y3F","either","2","303","","","","","","","0","0","1","0.3338939571","","0.8","0.2","0.4","0.6","","","","","0.4699447661","0.3594327093","0.3338939571","0.2447613107","","","","","","","","75","K","2","","","24","main_expt"
"","bandit","104","359910","0.0-65.0-0.0","40792425","wem/bandit_either_2","A0017268R9SKD8U2Y3F","either","2","239","","","","","","","1","0","0","0.2350413847","","0.8","0.2","0.4","0.6","","","","","0.4484050393","0.3719143394","0.324486952","0.2350413847","","","","","","","","76","L","3","","","25","main_expt"
"","bandit","105","361920","0.0-66.0-0.0","40792425","wem/bandit_either_2","A0017268R9SKD8U2Y3F","either","2","504","","","","","","","0","0","1","0.207774486","","0.8","0.2","0.4","0.6","","","","","0.4190234423","0.3690014044","0.3095710384","0.207774486","","","","","","","","76","L","3","","","26","main_expt"
"","bandit","106","363670","0.0-67.0-0.0","40792425","wem/bandit_either_2","A0017268R9SKD8U2Y3F","either","2","245","","","","","","","0","1","0","","0.4251478254","0.8","0.2","0.4","0.6","0.4251478254","0.3940030818","0.3355629191","0.2164182795","","","","","","","","","","","","72","H","0","img/none_selected.jpg","","27","main_expt"
"","bandit","107","365446","0.0-68.0-0.0","40792425","wem/bandit_either_2","A0017268R9SKD8U2Y3F","either","2","271","","","","","","","0","0","1","0.2164031865","","0.8","0.2","0.4","0.6","","","","","0.4287328697","0.4111080327","0.3668681485","0.2164031865","","","","","","","","76","L","3","","","28","main_expt"
"","bandit","108","367102","0.0-69.0-0.0","40792425","wem/bandit_either_2","A0017268R9SKD8U2Y3F","either","2","150","","","","","","","0","1","0","","0.41290056","0.8","0.2","0.4","0.6","0.4106025245","0.41290056","0.343198694","0.2770000278","","","","","","","","","","","","74","J","1","","","29","main_expt"
"","bandit","109","368806","0.0-70.0-0.0","40792425","wem/bandit_either_2","A0017268R9SKD8U2Y3F","either","2","198","","","","","","","0","0","1","","0.2354797847","0.8","0.2","0.4","0.6","0.3942494676","0.3937480262","0.326069126","0.2354797847","","","","","","","","","","","","76","L","3","","","30","main_expt"
"","bandit","110","370518","0.0-71.0-0.0","40792425","wem/bandit_either_2","A0017268R9SKD8U2Y3F","either","2","206","","","","","","","0","0","1","0.2692030882","","0.8","0.2","0.4","0.6","","","","","0.4285056211","0.3997016236","0.3390127419","0.2692030882","","","","","","","","76","L","3","","","31","main_expt"
"","bandit","111","372248","0.0-72.0-0.0","40792425","wem/bandit_either_2","A0017268R9SKD8U2Y3F","either","2","223","","","","","","","0","0","1","0.2471118655","","0.8","0.2","0.4","0.6","","","","","0.4249454459","0.3574295763","0.3360649894","0.2471118655","","","","","","","","76","L","3","","","32","main_expt"
"","bandit","112","373934","0.0-73.0-0.0","40792425","wem/bandit_either_2","A0017268R9SKD8U2Y3F","either","2","181","","","","","","","0","0","1","0.2879199001","","0.8","0.2","0.4","0.6","","","","","0.416417765","0.3877818659","0.3052602024","0.2879199001","","","","","","","","76","L","3","","","33","main_expt"
"","bandit","113","375582","0.0-74.0-0.0","40792425","wem/bandit_either_2","A0017268R9SKD8U2Y3F","either","2","143","","","","","","","0","1","0","","0.4623714429","0.8","0.2","0.4","0.6","0.4623714429","0.3799496232","0.3594788954","0.3180115212","","","","","","","","","","","","72","H","0","img/none_selected.jpg","","34","main_expt"
"","bandit","114","377222","0.0-75.0-0.0","40792425","wem/bandit_either_2","A0017268R9SKD8U2Y3F","either","2","135","","","","","","","0","0","1","0.2524306687","","0.8","0.2","0.4","0.6","","","","","0.4591977302","0.3577573403","0.380235832","0.2524306687","","","","","","","","76","L","3","","","35","main_expt"
"","bandit","115","378966","0.0-76.0-0.0","40792425","wem/bandit_either_2","A0017268R9SKD8U2Y3F","either","2","239","","","","","","","1","0","0","0.4686235256","","0.8","0.2","0.4","0.6","","","","","0.4686235256","0.3895375856","0.3459989602","0.2351869563","","","","","","","","72","H","0","img/none_selected.jpg","","36","main_expt"
"","bandit","116","380710","0.0-77.0-0.0","40792425","wem/bandit_either_2","A0017268R9SKD8U2Y3F","either","2","239","","","","","","","0","0","1","0.2629170466","","0.8","0.2","0.4","0.6","","","","","0.4571547709","0.3783527007","0.3320905149","0.2629170466","","","","","","","","76","L","3","","","37","main_expt"
"","bandit","117","382487","0.0-78.0-0.0","40792425","wem/bandit_either_2","A0017268R9SKD8U2Y3F","either","2","272","","","","","","","1","0","0","0.4688430709","","0.8","0.2","0.4","0.6","","","","","0.4688430709","0.284076782","0.3471020919","0.3090194305","","","","","","","","72","H","0","img/none_selected.jpg","","38","main_expt"
"","bandit","118","384286","0.0-79.0-0.0","40792425","wem/bandit_either_2","A0017268R9SKD8U2Y3F","either","2","293","","","","","","","1","0","0","0.2845371228","","0.8","0.2","0.4","0.6","","","","","0.4612923778","0.3388972186","0.3401763967","0.2845371228","","","","","","","","76","L","3","","","39","main_expt"
"","bandit","119","386039","0.0-80.0-0.0","40792425","wem/bandit_either_2","A0017268R9SKD8U2Y3F","either","2","246","","","","","","","0","0","1","","0.4576194683","0.8","0.2","0.4","0.6","0.4576194683","0.2663655232","0.3260487483","0.3076259244","","","","","","","","","","","","72","H","0","img/none_selected.jpg","","40","main_expt"
"","bandit","120","387790","0.0-81.0-0.0","40792425","wem/bandit_either_2","A0017268R9SKD8U2Y3F","either","2","246","","","","","","","0","0","1","","0.2888769276","0.8","0.2","0.4","0.6","0.4473921051","0.2608266697","0.3390218734","0.2888769276","","","","","","","","","","","","76","L","3","","","41","main_expt"
"","bandit","121","389519","0.0-82.0-0.0","40792425","wem/bandit_either_2","A0017268R9SKD8U2Y3F","either","2","222","","","","","","","1","0","0","0.425470286","","0.8","0.2","0.4","0.6","","","","","0.425470286","0.2287676803","0.2889680017","0.2639198141","","","","","","","","72","H","0","img/none_selected.jpg","","42","main_expt"
"","bandit","122","391230","0.0-83.0-0.0","40792425","wem/bandit_either_2","A0017268R9SKD8U2Y3F","either","2","206","","","","","","","0","0","1","0.2255441472","","0.8","0.2","0.4","0.6","","","","","0.4030522017","0.2043112358","0.2784828801","0.2255441472","","","","","","","","76","L","3","","","43","main_expt"
"","bandit","123","393008","0.0-84.0-0.0","40792425","wem/bandit_either_2","A0017268R9SKD8U2Y3F","either","2","272","","","","","","","0","0","1","","0.4106315797","0.8","0.2","0.4","0.6","0.4106315797","0.1957049551","0.2805729819","0.2050272072","","","","","","","","","","","","72","H","0","img/none_selected.jpg","","44","main_expt"
"","bandit","124","394774","0.0-85.0-0.0","40792425","wem/bandit_either_2","A0017268R9SKD8U2Y3F","either","2","261","","","","","","","0","0","1","","0.239455925","0.8","0.2","0.4","0.6","0.4258527362","0.2207366272","0.2195119073","0.239455925","","","","","","","","","","","","76","L","3","","","45","main_expt"
"","bandit","125","396486","0.0-86.0-0.0","40792425","wem/bandit_either_2","A0017268R9SKD8U2Y3F","either","2","207","","","","","","","0","0","1","0.4425966235","","0.8","0.2","0.4","0.6","","","","","0.4425966235","0.1727988076","0.2657932304","0.2414778298","","","","","","","","72","H","0","img/none_selected.jpg","","46","main_expt"
"","bandit","126","398134","0.0-87.0-0.0","40792425","wem/bandit_either_2","A0017268R9SKD8U2Y3F","either","2","143","","","","","","","0","1","0","","0.1884211613","0.8","0.2","0.4","0.6","0.4428977597","0.1446735631","0.2678398397","0.1884211613","","","","","","","","","","","","76","L","3","","","47","main_expt"
"","bandit","127","399870","0.0-88.0-0.0","40792425","wem/bandit_either_2","A0017268R9SKD8U2Y3F","either","2","230","","","","","","","0","0","1","0.4479964269","","0.8","0.2","0.4","0.6","","","","","0.4479964269","0.1681765936","0.2866904938","0.1755274282","","","","","","","","72","H","0","img/none_selected.jpg","","48","main_expt"
"","bandit","128","401558","0.0-89.0-0.0","40792425","wem/bandit_either_2","A0017268R9SKD8U2Y3F","either","2","183","","","","","","","1","0","0","0.4660387519","","0.8","0.2","0.4","0.6","","","","","0.4660387519","0.1473883531","0.2803848884","0.1646396384","","","","","","","","72","H","0","img/none_selected.jpg","","49","main_expt"
"","bandit","129","403359","0.0-90.0-0.0","40792425","wem/bandit_either_2","A0017268R9SKD8U2Y3F","either","2","296","","","","","","","0","0","1","0.2024226619","","0.8","0.2","0.4","0.6","","","","","0.4345757832","0.1378170987","0.2587411269","0.2024226619","","","","","","","","76","L","3","","","50","main_expt"
"","bandit","130","405141","0.0-91.0-0.0","40792425","wem/bandit_either_2","A0017268R9SKD8U2Y3F","either","2","277","","","","","","","0","0","1","","0.4450950844","0.8","0.2","0.4","0.6","0.4450950844","0.1430360168","0.2212901065","0.1976760068","","","","","","","","","","","","72","H","0","img/none_selected.jpg","","51","main_expt"
"","bandit","131","406910","0.0-92.0-0.0","40792425","wem/bandit_either_2","A0017268R9SKD8U2Y3F","either","2","263","","","","","","","0","0","1","0.1796352224","","0.8","0.2","0.4","0.6","","","","","0.4475354499","0.1731798725","0.236006857","0.1796352224","","","","","","","","76","L","3","","","52","main_expt"
"","bandit","132","408718","0.0-93.0-0.0","40792425","wem/bandit_either_2","A0017268R9SKD8U2Y3F","either","2","303","","","","","","","0","0","1","0.4627294295","","0.8","0.2","0.4","0.6","","","","","0.4627294295","0.1312409056","0.2660825342","0.2451732725","","","","","","","","72","H","0","img/none_selected.jpg","","53","main_expt"
"","bandit","133","410478","0.0-94.0-0.0","40792425","wem/bandit_either_2","A0017268R9SKD8U2Y3F","either","2","254","","","","","","","0","0","1","0.2621482643","","0.8","0.2","0.4","0.6","","","","","0.44829207","0.1862053218","0.2458345041","0.2621482643","","","","","","","","76","L","3","","","54","main_expt"
"","bandit","134","412198","0.0-95.0-0.0","40792425","wem/bandit_either_2","A0017268R9SKD8U2Y3F","either","2","215","","","","","","","1","0","0","0.4505537928","","0.8","0.2","0.4","0.6","","","","","0.4505537928","0.1733563037","0.2265690781","0.2441780383","","","","","","","","72","H","0","img/none_selected.jpg","","55","main_expt"
"","bandit","135","413951","0.0-96.0-0.0","40792425","wem/bandit_either_2","A0017268R9SKD8U2Y3F","either","2","248","","","","","","","0","0","1","","0.4686400132","0.8","0.2","0.4","0.6","0.4686400132","0.1728369204","0.2741820357","0.199729785","","","","","","","","","","","","72","H","0","img/none_selected.jpg","","56","main_expt"
"","bandit","136","415782","0.0-97.0-0.0","40792425","wem/bandit_either_2","A0017268R9SKD8U2Y3F","either","2","325","","","","","","","1","0","0","0.4572679106","","0.8","0.2","0.4","0.6","","","","","0.4572679106","0.09176359954","0.2937641054","0.1945085845","","","","","","","","72","H","0","img/none_selected.jpg","","57","main_expt"
"","bandit","137","417550","0.0-98.0-0.0","40792425","wem/bandit_either_2","A0017268R9SKD8U2Y3F","either","2","261","","","","","","","1","0","0","0.4300169527","","0.8","0.2","0.4","0.6","","","","","0.4300169527","0.04991422033","0.2949827607","0.2614759052","","","","","","","","72","H","0","img/none_selected.jpg","","58","main_expt"
"","bandit","138","419310","0.0-99.0-0.0","40792425","wem/bandit_either_2","A0017268R9SKD8U2Y3F","either","2","254","","","","","","","0","0","1","0.4050829606","","0.8","0.2","0.4","0.6","","","","","0.4050829606","0.053239915","0.2710075273","0.2426118991","","","","","","","","72","H","0","img/none_selected.jpg","","59","main_expt"
"","bandit","139","420925","0.0-100.0-0.0","40792425","wem/bandit_either_2","A0017268R9SKD8U2Y3F","either","2","110","","","","","","","0","0","1","0.4070720156","","0.8","0.2","0.4","0.6","","","","","0.4070720156","0.06994226662","0.2766623035","0.2623750897","","","","","","","","72","H","0","img/none_selected.jpg","","60","main_expt"
"","bandit","140","422517","0.0-101.0-0.0","40792425","wem/bandit_either_2","A0017268R9SKD8U2Y3F","either","2","87","","","","","","","1","0","0","0.3895400789","","0.8","0.2","0.4","0.6","","","","","0.3895400789","0.07064832373","0.2574592035","0.2139103784","","","","","","","","72","H","0","img/none_selected.jpg","","61","main_expt"
"","bandit","141","424511","0.0-102.0-0.0","40792425","wem/bandit_either_2","A0017268R9SKD8U2Y3F","either","2","487","","","","","","","1","0","0","0.4050708951","","0.8","0.2","0.4","0.6","","","","","0.4050708951","0.08925217872","0.2425209234","0.2566580444","","","","","","","","72","H","0","img/none_selected.jpg","","62","main_expt"
"","bandit","142","426294","0.0-103.0-0.0","40792425","wem/bandit_either_2","A0017268R9SKD8U2Y3F","either","2","278","","","","","","","0","1","0","","0.3765761212","0.8","0.2","0.4","0.6","0.3765761212","0.08505035955","0.2294211584","0.2393402704","","","","","","","","","","","","72","H","0","img/none_selected.jpg","","63","main_expt"
"","bandit","143","428086","0.0-104.0-0.0","40792425","wem/bandit_either_2","A0017268R9SKD8U2Y3F","either","2","286","","","","","","","0","0","1","","0.300105392","0.8","0.2","0.4","0.6","0.3859881554","0.09892528285","0.2350173232","0.300105392","","","","","","","","","","","","76","L","3","","","64","main_expt"
"","bandit","144","429829","0.0-105.0-0.0","40792425","wem/bandit_either_2","A0017268R9SKD8U2Y3F","either","2","237","","","","","","","0","0","1","0.3817039273","","0.8","0.2","0.4","0.6","","","","","0.3817039273","0.1428545766","0.2775473173","0.2584268813","","","","","","","","72","H","0","img/none_selected.jpg","","65","main_expt"
"","bandit","145","431653","0.0-106.0-0.0","40792425","wem/bandit_either_2","A0017268R9SKD8U2Y3F","either","2","317","","","","","","","0","0","1","0.3622232449","","0.8","0.2","0.4","0.6","","","","","0.3622232449","0.120440259","0.298861572","0.2536378703","","","","","","","","72","H","0","img/none_selected.jpg","","66","main_expt"
"","bandit","146","433453","0.0-107.0-0.0","40792425","wem/bandit_either_2","A0017268R9SKD8U2Y3F","either","2","294","","","","","","","0","0","1","0.3768721334","","0.8","0.2","0.4","0.6","","","","","0.3768721334","0.2019700983","0.3043747659","0.2548884231","","","","","","","","72","H","0","img/none_selected.jpg","","67","main_expt"
"","bandit","147","435590","0.0-108.0-0.0","40792425","wem/bandit_either_2","A0017268R9SKD8U2Y3F","either","2","631","","","","","","","0","0","1","0.3826604183","","0.8","0.2","0.4","0.6","","","","","0.3826604183","0.1467862533","0.2533072519","0.2105458193","","","","","","","","72","H","0","img/none_selected.jpg","","68","main_expt"
"","bandit","148","437798","0.0-109.0-0.0","40792425","wem/bandit_either_2","A0017268R9SKD8U2Y3F","either","2","702","","","","","","","0","1","0","","0.3981811202","0.8","0.2","0.4","0.6","0.3981811202","0.09022805221","0.2451677402","0.2901666962","","","","","","","","","","","","72","H","0","img/none_selected.jpg","","69","main_expt"
"","bandit","149","439540","0.0-110.0-0.0","40792425","wem/bandit_either_2","A0017268R9SKD8U2Y3F","either","2","237","","","","","","","0","0","1","0.3936557204","","0.8","0.2","0.4","0.6","","","","","0.3936557204","0.1128827508","0.2403061491","0.2973761433","","","","","","","","72","H","0","img/none_selected.jpg","","70","main_expt"
"","bandit","150","441228","0.0-111.0-0.0","40792425","wem/bandit_either_2","A0017268R9SKD8U2Y3F","either","2","183","","","","","","","0","0","1","","0.1184182172","0.8","0.2","0.4","0.6","0.3949471057","0.1184182172","0.1917576795","0.2737706179","","","","","","","","","","","","74","J","1","","","71","main_expt"
"","bandit","151","442829","0.0-112.0-0.0","40792425","wem/bandit_either_2","A0017268R9SKD8U2Y3F","either","2","96","","","","","","","0","0","1","","0.1894079546","0.8","0.2","0.4","0.6","0.3888869603","0.1038133506","0.1894079546","0.3005227265","","","","","","","","","","","","75","K","2","","","72","main_expt"
"","bandit","152","444597","0.0-113.0-0.0","40792425","wem/bandit_either_2","A0017268R9SKD8U2Y3F","either","2","262","","","","","","","0","0","1","","0.3205676235","0.8","0.2","0.4","0.6","0.4015056825","0.07830871569","0.235909594","0.3205676235","","","","","","","","","","","","76","L","3","","","73","main_expt"
"","bandit","153","446270","0.0-114.0-0.0","40792425","wem/bandit_either_2","A0017268R9SKD8U2Y3F","either","2","168","","","","","","","0","0","1","","0.2772030277","0.8","0.2","0.4","0.6","0.4200542591","0.09226686474","0.2772030277","0.3040473008","","","","","","","","","","","","75","K","2","","","74","main_expt"
"","bandit","154","447909","0.0-115.0-0.0","40792425","wem/bandit_either_2","A0017268R9SKD8U2Y3F","either","2","133","","","","","","","0","0","1","","0.07948082514","0.8","0.2","0.4","0.6","0.4353174817","0.07948082514","0.2237268092","0.2686744794","","","","","","","","","","","","74","J","1","","","75","main_expt"
"","bandit","155","449469","0.0-116.0-0.0","40792425","wem/bandit_either_2","A0017268R9SKD8U2Y3F","either","2","54","","","","","","","1","0","0","0.4196821318","","0.8","0.2","0.4","0.6","","","","","0.4196821318","0.1279570505","0.1739375455","0.258707356","","","","","","","","72","H","0","img/none_selected.jpg","","76","main_expt"
"","bandit","156","451181","0.0-117.0-0.0","40792425","wem/bandit_either_2","A0017268R9SKD8U2Y3F","either","2","205","","","","","","","0","0","1","0.3787369199","","0.8","0.2","0.4","0.6","","","","","0.3787369199","0.1202820049","0.1648796623","0.3010070056","","","","","","","","72","H","0","img/none_selected.jpg","","77","main_expt"
"","bandit","157","452956","0.0-118.0-0.0","40792425","wem/bandit_either_2","A0017268R9SKD8U2Y3F","either","2","270","","","","","","","0","0","1","","0.4314930014","0.8","0.2","0.4","0.6","0.4314930014","0.1054071572","0.1637798684","0.2648586626","","","","","","","","","","","","72","H","0","img/none_selected.jpg","","78","main_expt"
"","bandit","158","454692","0.0-119.0-0.0","40792425","wem/bandit_either_2","A0017268R9SKD8U2Y3F","either","2","231","","","","","","","0","0","1","0.4155078174","","0.8","0.2","0.4","0.6","","","","","0.4155078174","0.1403095361","0.1490076182","0.1984114041","","","","","","","","72","H","0","img/none_selected.jpg","","79","main_expt"
"","bandit","159","456325","0.0-120.0-0.0","40792425","wem/bandit_either_2","A0017268R9SKD8U2Y3F","either","2","127","","","","","","","0","1","0","","0.180325551","0.8","0.2","0.4","0.6","0.4226243671","0.1891235553","0.1093198388","0.180325551","","","","","","","","","","","","76","L","3","","","80","main_expt"
"","bandit","160","458036","0.0-121.0-0.0","40792425","wem/bandit_either_2","A0017268R9SKD8U2Y3F","either","2","206","","","","","","","0","0","1","0.4474166549","","0.8","0.2","0.4","0.6","","","","","0.4474166549","0.1858030354","0.08868186825","0.224531153","","","","","","","","72","H","0","img/none_selected.jpg","","81","main_expt"
"","bandit","161","459717","0.0-122.0-0.0","40792425","wem/bandit_either_2","A0017268R9SKD8U2Y3F","either","2","175","","","","","","","0","1","0","","0.221125015","0.8","0.2","0.4","0.6","0.4636297045","0.2476542501","0.1073880826","0.221125015","","","","","","","","","","","","76","L","3","","","82","main_expt"
"","bandit","162","461477","0.0-123.0-0.0","40792425","wem/bandit_either_2","A0017268R9SKD8U2Y3F","either","2","253","","","","","","","1","0","0","0.467509749","","0.8","0.2","0.4","0.6","","","","","0.467509749","0.2188241074","0.1022587498","0.2143237207","","","","","","","","72","H","0","img/none_selected.jpg","","83","main_expt"
"","bandit","163","463349","0.0-124.0-0.0","40792425","wem/bandit_either_2","A0017268R9SKD8U2Y3F","either","2","366","","","","","","","0","0","1","0.4551111531","","0.8","0.2","0.4","0.6","","","","","0.4551111531","0.2754771977","0.1085807699","0.2097367537","","","","","","","","72","H","0","img/none_selected.jpg","","84","main_expt"
"","bandit","164","465205","0.0-125.0-0.0","40792425","wem/bandit_either_2","A0017268R9SKD8U2Y3F","either","2","350","","","","","","","0","0","1","0.4621419017","","0.8","0.2","0.4","0.6","","","","","0.4621419017","0.2965575968","0.1263918358","0.1661536269","","","","","","","","72","H","0","img/none_selected.jpg","","85","main_expt"
"","bandit","165","466982","0.0-126.0-0.0","40792425","wem/bandit_either_2","A0017268R9SKD8U2Y3F","either","2","271","","","","","","","1","0","0","0.4612050897","","0.8","0.2","0.4","0.6","","","","","0.4612050897","0.257129161","0.1481941301","0.1364458955","","","","","","","","72","H","0","img/none_selected.jpg","","86","main_expt"
"","bandit","166","468772","0.0-127.0-0.0","40792425","wem/bandit_either_2","A0017268R9SKD8U2Y3F","either","2","284","","","","","","","0","1","0","","0.4334675206","0.8","0.2","0.4","0.6","0.4334675206","0.2338967043","0.1447872846","0.08235553135","","","","","","","","","","","","72","H","0","img/none_selected.jpg","","87","main_expt"
"","bandit","167","470573","0.0-128.0-0.0","40792425","wem/bandit_either_2","A0017268R9SKD8U2Y3F","either","2","295","","","","","","","1","0","0","0.4397617206","","0.8","0.2","0.4","0.6","","","","","0.4397617206","0.2161535794","0.1391637727","0.0754832669","","","","","","","","72","H","0","img/none_selected.jpg","","88","main_expt"
"","bandit","168","472493","0.0-129.0-0.0","40792425","wem/bandit_either_2","A0017268R9SKD8U2Y3F","either","2","413","","","","","","","0","0","1","0.4635478967","","0.8","0.2","0.4","0.6","","","","","0.4635478967","0.2043146745","0.1476089376","0.109361408","","","","","","","","72","H","0","img/none_selected.jpg","","89","main_expt"
"","bandit","169","474356","0.0-130.0-0.0","40792425","wem/bandit_either_2","A0017268R9SKD8U2Y3F","either","2","357","","","","","","","1","0","0","0.4234969579","","0.8","0.2","0.4","0.6","","","","","0.4234969579","0.2346009907","0.2081489191","0.07391079866","","","","","","","","72","H","0","img/none_selected.jpg","","90","main_expt"
"","bandit","170","476220","0.0-131.0-0.0","40792425","wem/bandit_either_2","A0017268R9SKD8U2Y3F","either","2","359","","","","","","","0","0","1","0.4267507071","","0.8","0.2","0.4","0.6","","","","","0.4267507071","0.2333967219","0.1834039029","0.1164594673","","","","","","","","72","H","0","img/none_selected.jpg","","91","main_expt"
"","bandit","171","478174","0.0-132.0-0.0","40792425","wem/bandit_either_2","A0017268R9SKD8U2Y3F","either","2","449","","","","","","","0","1","0","","0.4089505196","0.8","0.2","0.4","0.6","0.4089505196","0.2150480475","0.2027314649","0.113043345","","","","","","","","","","","","72","H","0","img/none_selected.jpg","","92","main_expt"
"","bandit","172","480013","0.0-133.0-0.0","40792425","wem/bandit_either_2","A0017268R9SKD8U2Y3F","either","2","332","","","","","","","1","0","0","0.4112501448","","0.8","0.2","0.4","0.6","","","","","0.4112501448","0.2588080464","0.1738894496","0.1714352716","","","","","","","","72","H","0","img/none_selected.jpg","","93","main_expt"
"","bandit","173","481845","0.0-134.0-0.0","40792425","wem/bandit_either_2","A0017268R9SKD8U2Y3F","either","2","326","","","","","","","1","0","0","0.452415855","","0.8","0.2","0.4","0.6","","","","","0.452415855","0.2748849181","0.2484708832","0.1253024032","","","","","","","","72","H","0","img/none_selected.jpg","","94","main_expt"
"","bandit","174","483773","0.0-135.0-0.0","40792425","wem/bandit_either_2","A0017268R9SKD8U2Y3F","either","2","422","","","","","","","0","0","1","0.4589197587","","0.8","0.2","0.4","0.6","","","","","0.4589197587","0.2791739054","0.2914685715","0.1401284447","","","","","","","","72","H","0","img/none_selected.jpg","","95","main_expt"
"","bandit","175","485604","0.0-136.0-0.0","40792425","wem/bandit_either_2","A0017268R9SKD8U2Y3F","either","2","325","","","","","","","0","0","1","0.4481870348","","0.8","0.2","0.4","0.6","","","","","0.4481870348","0.3149564315","0.2417524935","0.1320491369","","","","","","","","72","H","0","img/none_selected.jpg","","96","main_expt"
"","bandit","176","487436","0.0-137.0-0.0","40792425","wem/bandit_either_2","A0017268R9SKD8U2Y3F","either","2","327","","","","","","","0","0","1","0.4597072186","","0.8","0.2","0.4","0.6","","","","","0.4597072186","0.372564007","0.2492821404","0.1518453759","","","","","","","","72","H","0","img/none_selected.jpg","","97","main_expt"
"","bandit","177","489286","0.0-138.0-0.0","40792425","wem/bandit_either_2","A0017268R9SKD8U2Y3F","either","2","343","","","","","","","1","0","0","0.4705619112","","0.8","0.2","0.4","0.6","","","","","0.4705619112","0.393328365","0.3002958449","0.2173959583","","","","","","","","72","H","0","img/none_selected.jpg","","98","main_expt"
"","bandit","178","491069","0.0-139.0-0.0","40792425","wem/bandit_either_2","A0017268R9SKD8U2Y3F","either","2","276","","","","","","","1","0","0","0.4800968761","","0.8","0.2","0.4","0.6","","","","","0.4800968761","0.421239771","0.3544832656","0.2618725657","","","","","","","","72","H","0","img/none_selected.jpg","","99","main_expt"
"","bandit","179","492917","0.0-140.0-0.0","40792425","wem/bandit_either_2","A0017268R9SKD8U2Y3F","either","2","342","","","","","","","0","0","1","","0.4780143146","0.8","0.2","0.4","0.6","0.4780143146","0.4130759476","0.3810954338","0.2487788848","","","","","","","","","","","","72","H","0","img/none_selected.jpg","","100","main_expt"
"","bandit","180","494782","0.0-141.0-0.0","40792425","wem/bandit_either_2","A0017268R9SKD8U2Y3F","either","2","358","","","","","","","0","0","1","0.4849002763","","0.8","0.2","0.4","0.6","","","","","0.4849002763","0.4089462913","0.4042362267","0.2890792313","","","","","","","","72","H","0","img/none_selected.jpg","","101","main_expt"
"","bandit","181","496598","0.0-142.0-0.0","40792425","wem/bandit_either_2","A0017268R9SKD8U2Y3F","either","2","309","","","","","","","0","0","1","0.4886078379","","0.8","0.2","0.4","0.6","","","","","0.4886078379","0.370330464","0.4594696392","0.3136369757","","","","","","","","72","H","0","img/none_selected.jpg","","102","main_expt"
"","bandit","182","498366","0.0-143.0-0.0","40792425","wem/bandit_either_2","A0017268R9SKD8U2Y3F","either","2","261","","","","","","","0","0","1","0.47121906","","0.8","0.2","0.4","0.6","","","","","0.47121906","0.3306315663","0.4588766667","0.2364671533","","","","","","","","72","H","0","img/none_selected.jpg","","103","main_expt"
"","bandit","183","500159","0.0-144.0-0.0","40792425","wem/bandit_either_2","A0017268R9SKD8U2Y3F","either","2","286","","","","","","","0","0","1","0.4760763377","","0.8","0.2","0.4","0.6","","","","","0.4760763377","0.354634178","0.4372785745","0.2202486688","","","","","","","","72","H","0","img/none_selected.jpg","","104","main_expt"
"","bandit","184","501941","0.0-145.0-0.0","40792425","wem/bandit_either_2","A0017268R9SKD8U2Y3F","either","2","276","","","","","","","0","1","0","","0.4701389446","0.8","0.2","0.4","0.6","0.4701389446","0.3896605338","0.4063887309","0.1854418088","","","","","","","","","","","","72","H","0","img/none_selected.jpg","","105","main_expt"
"","bandit","185","503653","0.0-146.0-0.0","40792425","wem/bandit_either_2","A0017268R9SKD8U2Y3F","either","2","206","","","","","","","0","0","1","","0.471324938","0.8","0.2","0.4","0.6","0.471324938","0.414339711","0.3778019321","0.1596754559","","","","","","","","","","","","72","H","0","img/none_selected.jpg","","106","main_expt"
"","bandit","186","505445","0.0-147.0-0.0","40792425","wem/bandit_either_2","A0017268R9SKD8U2Y3F","either","2","286","","","","","","","1","0","0","0.4786694594","","0.8","0.2","0.4","0.6","","","","","0.4786694594","0.4164239898","0.3614143111","0.137099288","","","","","","","","72","H","0","img/none_selected.jpg","","107","main_expt"
"","bandit","187","507237","0.0-148.0-0.0","40792425","wem/bandit_either_2","A0017268R9SKD8U2Y3F","either","2","286","","","","","","","0","1","0","","0.4810065258","0.8","0.2","0.4","0.6","0.4810065258","0.3836571442","0.3681250399","0.1443984823","","","","","","","","","","","","72","H","0","img/none_selected.jpg","","108","main_expt"
"","bandit","188","508981","0.0-149.0-0.0","40792425","wem/bandit_either_2","A0017268R9SKD8U2Y3F","either","2","237","","","","","","","0","0","1","","0.4816764674","0.8","0.2","0.4","0.6","0.4816764674","0.3881214568","0.3446081275","0.1409511773","","","","","","","","","","","","72","H","0","img/none_selected.jpg","","109","main_expt"
"","bandit","189","510702","0.0-150.0-0.0","40792425","wem/bandit_either_2","A0017268R9SKD8U2Y3F","either","2","215","","","","","","","1","0","0","0.4882082215","","0.8","0.2","0.4","0.6","","","","","0.4882082215","0.4266873791","0.3681270965","0.1787750665","","","","","","","","72","H","0","img/none_selected.jpg","","110","main_expt"
"","bandit","190","512462","0.0-151.0-0.0","40792425","wem/bandit_either_2","A0017268R9SKD8U2Y3F","either","2","252","","","","","","","0","1","0","","0.478642168","0.8","0.2","0.4","0.6","0.478642168","0.4475699482","0.391379093","0.1862786225","","","","","","","","","","","","72","H","0","img/none_selected.jpg","","111","main_expt"
"","bandit","191","514157","0.0-152.0-0.0","40792425","wem/bandit_either_2","A0017268R9SKD8U2Y3F","either","2","189","","","","","","","0","0","1","0.4841415165","","0.8","0.2","0.4","0.6","","","","","0.4841415165","0.4190314983","0.4131544452","0.1654620982","","","","","","","","72","H","0","img/none_selected.jpg","","112","main_expt"
"","bandit","192","515813","0.0-153.0-0.0","40792425","wem/bandit_either_2","A0017268R9SKD8U2Y3F","either","2","151","","","","","","","1","0","0","0.4883212127","","0.8","0.2","0.4","0.6","","","","","0.4883212127","0.3666128881","0.3963985948","0.1582981878","","","","","","","","72","H","0","img/none_selected.jpg","","113","main_expt"
"","bandit","193","517549","0.0-154.0-0.0","40792425","wem/bandit_either_2","A0017268R9SKD8U2Y3F","either","2","230","","","","","","","1","0","0","0.4883790739","","0.8","0.2","0.4","0.6","","","","","0.4883790739","0.3866259854","0.4117985871","0.1922757069","","","","","","","","72","H","0","img/none_selected.jpg","","114","main_expt"
"","bandit","194","519605","0.0-155.0-0.0","40792425","wem/bandit_either_2","A0017268R9SKD8U2Y3F","either","2","550","","","","","","","0","1","0","","0.4902011966","0.8","0.2","0.4","0.6","0.4902011966","0.354161152","0.394381103","0.185618385","","","","","","","","","","","","72","H","0","img/none_selected.jpg","","115","main_expt"
"","bandit","195","521398","0.0-156.0-0.0","40792425","wem/bandit_either_2","A0017268R9SKD8U2Y3F","either","2","287","","","","","","","0","1","0","","0.4844723045","0.8","0.2","0.4","0.6","0.4844723045","0.3170745426","0.3762408663","0.2057277395","","","","","","","","","","","","72","H","0","img/none_selected.jpg","","116","main_expt"
"","bandit","196","523493","0.0-157.0-0.0","40792425","wem/bandit_either_2","A0017268R9SKD8U2Y3F","either","2","588","","","","","","","1","0","0","0.4895589844","","0.8","0.2","0.4","0.6","","","","","0.4895589844","0.304536318","0.3823674378","0.2288411079","","","","","","","","72","H","0","img/none_selected.jpg","","117","main_expt"
"","bandit","197","525388","0.0-158.0-0.0","40792425","wem/bandit_either_2","A0017268R9SKD8U2Y3F","either","2","389","","","","","","","0","0","1","","0.4899729034","0.8","0.2","0.4","0.6","0.4899729034","0.3411026949","0.4050195855","0.2207517482","","","","","","","","","","","","72","H","0","img/none_selected.jpg","","118","main_expt"
"","bandit","198","527485","0.0-159.0-0.0","40792425","wem/bandit_either_2","A0017268R9SKD8U2Y3F","either","2","590","","","","","","","0","0","1","0.4947041593","","0.8","0.2","0.4","0.6","","","","","0.4947041593","0.3447942488","0.4227562767","0.1955286499","","","","","","","","72","H","0","img/none_selected.jpg","","119","main_expt"
"","bandit","199","529278","0.0-160.0-0.0","40792425","wem/bandit_either_2","A0017268R9SKD8U2Y3F","either","2","285","","","","","","","0","0","1","0.4916865355","","0.8","0.2","0.4","0.6","","","","","0.4916865355","0.3686185352","0.4163810796","0.2427950695","","","","","","","","72","H","0","img/none_selected.jpg","","120","main_expt"
"","bandit","200","531927","0.0-161.0-0.0","40792425","wem/bandit_either_2","A0017268R9SKD8U2Y3F","either","2","1142","","","","","","","0","1","0","","0.4860386064","0.8","0.2","0.4","0.6","0.4860386064","0.3547669752","0.406821829","0.2479682904","","","","","","","","","","","","72","H","0","img/none_selected.jpg","","121","main_expt"
"","bandit","201","533701","0.0-162.0-0.0","40792425","wem/bandit_either_2","A0017268R9SKD8U2Y3F","either","2","268","","","","","","","1","0","0","0.483083859","","0.8","0.2","0.4","0.6","","","","","0.483083859","0.365994073","0.3999449125","0.3081985406","","","","","","","","72","H","0","img/none_selected.jpg","","122","main_expt"
"","bandit","202","535518","0.0-163.0-0.0","40792425","wem/bandit_either_2","A0017268R9SKD8U2Y3F","either","2","310","","","","","","","0","1","0","","0.4791491275","0.8","0.2","0.4","0.6","0.4791491275","0.3120596142","0.366626489","0.3089359708","","","","","","","","","","","","72","H","0","img/none_selected.jpg","","123","main_expt"
"","bandit","203","537293","0.0-164.0-0.0","40792425","wem/bandit_either_2","A0017268R9SKD8U2Y3F","either","2","270","","","","","","","0","0","1","0.4776777384","","0.8","0.2","0.4","0.6","","","","","0.4776777384","0.302161917","0.3706278578","0.3298338218","","","","","","","","72","H","0","img/none_selected.jpg","","124","main_expt"
"","bandit","204","539093","0.0-165.0-0.0","40792425","wem/bandit_either_2","A0017268R9SKD8U2Y3F","either","2","294","","","","","","","1","0","0","0.478983255","","0.8","0.2","0.4","0.6","","","","","0.478983255","0.2794370347","0.3545504723","0.2795250441","","","","","","","","72","H","0","img/none_selected.jpg","","125","main_expt"
"","bandit","205","540901","0.0-166.0-0.0","40792425","wem/bandit_either_2","A0017268R9SKD8U2Y3F","either","2","301","","","","","","","1","0","0","0.4724726719","","0.8","0.2","0.4","0.6","","","","","0.4724726719","0.2466154908","0.3106298006","0.2184127205","","","","","","","","72","H","0","img/none_selected.jpg","","126","main_expt"
"","bandit","206","542582","0.0-167.0-0.0","40792425","wem/bandit_either_2","A0017268R9SKD8U2Y3F","either","2","175","","","","","","","0","0","1","0.4796244369","","0.8","0.2","0.4","0.6","","","","","0.4796244369","0.2712823261","0.3351405197","0.2488858907","","","","","","","","72","H","0","img/none_selected.jpg","","127","main_expt"
"","bandit","207","544325","0.0-168.0-0.0","40792425","wem/bandit_either_2","A0017268R9SKD8U2Y3F","either","2","236","","","","","","","0","0","1","","0.4825212971","0.8","0.2","0.4","0.6","0.4825212971","0.2095517986","0.2984422464","0.2850827173","","","","","","","","","","","","72","H","0","img/none_selected.jpg","","128","main_expt"
"","bandit","208","546116","0.0-169.0-0.0","40792425","wem/bandit_either_2","A0017268R9SKD8U2Y3F","either","2","285","","","","","","","0","0","1","0.4877535013","","0.8","0.2","0.4","0.6","","","","","0.4877535013","0.1986866195","0.2027892291","0.2867242009","","","","","","","","72","H","0","img/none_selected.jpg","","129","main_expt"
"","bandit","209","547805","0.0-170.0-0.0","40792425","wem/bandit_either_2","A0017268R9SKD8U2Y3F","either","2","183","","","","","","","1","0","0","0.4833646461","","0.8","0.2","0.4","0.6","","","","","0.4833646461","0.172959111","0.13768179","0.2509552002","","","","","","","","72","H","0","img/none_selected.jpg","","130","main_expt"
"","bandit","210","549532","0.0-171.0-0.0","40792425","wem/bandit_either_2","A0017268R9SKD8U2Y3F","either","2","222","","","","","","","0","0","1","","0.4790990265","0.8","0.2","0.4","0.6","0.4790990265","0.163172462","0.1352832961","0.2172434631","","","","","","","","","","","","72","H","0","img/none_selected.jpg","","131","main_expt"
"","bandit","211","551316","0.0-172.0-0.0","40792425","wem/bandit_either_2","A0017268R9SKD8U2Y3F","either","2","276","","","","","","","0","0","1","0.4882311922","","0.8","0.2","0.4","0.6","","","","","0.4882311922","0.161148659","0.08660982753","0.158295755","","","","","","","","72","H","0","img/none_selected.jpg","","132","main_expt"
"","bandit","212","553812","0.0-173.0-0.0","40792425","wem/bandit_either_2","A0017268R9SKD8U2Y3F","either","2","989","","","","","","","1","0","0","0.4889625365","","0.8","0.2","0.4","0.6","","","","","0.4889625365","0.1735641072","0.1020907376","0.185310911","","","","","","","","72","H","0","img/none_selected.jpg","","133","main_expt"
"","bandit","213","555988","0.0-174.0-0.0","40792425","wem/bandit_either_2","A0017268R9SKD8U2Y3F","either","2","670","","","","","","","0","0","1","0.4916783795","","0.8","0.2","0.4","0.6","","","","","0.4916783795","0.1597390633","0.1231499397","0.1966535246","","","","","","","","72","H","0","img/none_selected.jpg","","134","main_expt"
"","bandit","214","557756","0.0-175.0-0.0","40792425","wem/bandit_either_2","A0017268R9SKD8U2Y3F","either","2","260","","","","","","","1","0","0","0.4904315354","","0.8","0.2","0.4","0.6","","","","","0.4904315354","0.1460070414","0.1524236556","0.2290191974","","","","","","","","72","H","0","img/none_selected.jpg","","135","main_expt"
"","bandit","215","559548","0.0-176.0-0.0","40792425","wem/bandit_either_2","A0017268R9SKD8U2Y3F","either","2","285","","","","","","","0","0","1","0.491666595","","0.8","0.2","0.4","0.6","","","","","0.491666595","0.105474526","0.1954247664","0.2929229053","","","","","","","","72","H","0","img/none_selected.jpg","","136","main_expt"
"","bandit","216","561299","0.0-177.0-0.0","40792425","wem/bandit_either_2","A0017268R9SKD8U2Y3F","either","2","244","","","","","","","0","0","1","","0.4917142499","0.8","0.2","0.4","0.6","0.4917142499","0.08835118593","0.1833989084","0.2780805385","","","","","","","","","","","","72","H","0","img/none_selected.jpg","","137","main_expt"
"","bandit","217","563069","0.0-178.0-0.0","40792425","wem/bandit_either_2","A0017268R9SKD8U2Y3F","either","2","263","","","","","","","0","0","1","0.4870170403","","0.8","0.2","0.4","0.6","","","","","0.4870170403","0.06418360449","0.1490533902","0.217224157","","","","","","","","72","H","0","img/none_selected.jpg","","138","main_expt"
"","bandit","218","564797","0.0-179.0-0.0","40792425","wem/bandit_either_2","A0017268R9SKD8U2Y3F","either","2","220","","","","","","","0","0","1","0.4834992155","","0.8","0.2","0.4","0.6","","","","","0.4834992155","0.03554325754","0.1318817547","0.2323391466","","","","","","","","72","H","0","img/none_selected.jpg","","139","main_expt"
"","bandit","219","566564","0.0-180.0-0.0","40792425","wem/bandit_either_2","A0017268R9SKD8U2Y3F","either","2","261","","","","","","","0","0","1","0.4927392517","","0.8","0.2","0.4","0.6","","","","","0.4927392517","0.04477370895","0.1877412345","0.244475209","","","","","","","","72","H","0","img/none_selected.jpg","","140","main_expt"
"","bandit","220","568372","0.0-181.0-0.0","40792425","wem/bandit_either_2","A0017268R9SKD8U2Y3F","either","2","302","","","","","","","0","0","1","","0.4872377518","0.8","0.2","0.4","0.6","0.4872377518","0.03780119019","0.2363671377","0.232604034","","","","","","","","","","","","72","H","0","img/none_selected.jpg","","141","main_expt"
"","bandit","221","570580","0.0-182.0-0.0","40792425","wem/bandit_either_2","A0017268R9SKD8U2Y3F","either","2","700","","","","","","","1","0","0","0.4846254936","","0.8","0.2","0.4","0.6","","","","","0.4846254936","0.03149913875","0.2546402356","0.2447345556","","","","","","","","72","H","0","img/none_selected.jpg","","142","main_expt"
"","bandit","222","572476","0.0-183.0-0.0","40792425","wem/bandit_either_2","A0017268R9SKD8U2Y3F","either","2","389","","","","","","","0","0","1","0.4815328815","","0.8","0.2","0.4","0.6","","","","","0.4815328815","0.04191513266","0.2825544685","0.26413271","","","","","","","","72","H","0","img/none_selected.jpg","","143","main_expt"
"","bandit","223","574253","0.0-184.0-0.0","40792425","wem/bandit_either_2","A0017268R9SKD8U2Y3F","either","2","270","","","","","","","1","0","0","0.4854048375","","0.8","0.2","0.4","0.6","","","","","0.4854048375","0.05613120157","0.2731230023","0.1988203511","","","","","","","","72","H","0","img/none_selected.jpg","","144","main_expt"
"","bandit","224","575932","0.0-185.0-0.0","40792425","wem/bandit_either_2","A0017268R9SKD8U2Y3F","either","2","172","","","","","","","1","0","0","0.4813029389","","0.8","0.2","0.4","0.6","","","","","0.4813029389","0.03827589539","0.2943814715","0.217822638","","","","","","","","72","H","0","img/none_selected.jpg","","145","main_expt"
"","bandit","225","577763","0.0-186.0-0.0","40792425","wem/bandit_either_2","A0017268R9SKD8U2Y3F","either","2","325","","","","","","","0","0","1","0.4884824202","","0.8","0.2","0.4","0.6","","","","","0.4884824202","0.02861175853","0.328634005","0.2009042904","","","","","","","","72","H","0","img/none_selected.jpg","","146","main_expt"
"","bandit","226","579515","0.0-187.0-0.0","40792425","wem/bandit_either_2","A0017268R9SKD8U2Y3F","either","2","246","","","","","","","1","0","0","0.4835291327","","0.8","0.2","0.4","0.6","","","","","0.4835291327","0.02140640811","0.3511209141","0.2080446297","","","","","","","","72","H","0","img/none_selected.jpg","","147","main_expt"
"","bandit","227","581300","0.0-188.0-0.0","40792425","wem/bandit_either_2","A0017268R9SKD8U2Y3F","either","2","278","","","","","","","0","0","1","0.4716003481","","0.8","0.2","0.4","0.6","","","","","0.4716003481","0.0202041473","0.3874996206","0.1536700415","","","","","","","","72","H","0","img/none_selected.jpg","","148","main_expt"
"","bandit","228","583060","0.0-189.0-0.0","40792425","wem/bandit_either_2","A0017268R9SKD8U2Y3F","either","2","253","","","","","","","1","0","0","0.4341886607","","0.8","0.2","0.4","0.6","","","","","0.4341886607","0.01154190459","0.3476646045","0.1593661633","","","","","","","","72","H","0","img/none_selected.jpg","","149","main_expt"
"","bandit","229","584805","0.0-190.0-0.0","40792425","wem/bandit_either_2","A0017268R9SKD8U2Y3F","either","2","239","","","","","","","0","0","1","","0.4014438172","0.8","0.2","0.4","0.6","0.4014438172","0.01291237021","0.3323010919","0.144955896","","","","","","","","","","","","72","H","0","img/none_selected.jpg","","150","main_expt"
"","bandit","230","586668","0.0-191.0-0.0","40792425","wem/bandit_either_2","A0017268R9SKD8U2Y3F","either","2","355","","","","","","","0","0","1","0.3980713407","","0.8","0.2","0.4","0.6","","","","","0.3980713407","0.0137789916","0.3954477196","0.2123564028","","","","","","","","72","H","0","img/none_selected.jpg","","151","main_expt"
"","bandit","231","588315","0.0-192.0-0.0","40792425","wem/bandit_either_2","A0017268R9SKD8U2Y3F","either","2","141","","","","","","","0","0","1","","0.4002357887","0.8","0.2","0.4","0.6","0.4002357887","0.01985271471","0.4186327087","0.2301890466","","","","","","","","","","","","72","H","0","img/none_selected.jpg","","152","main_expt"
"","bandit","232","590668","0.0-193.0-0.0","40792425","wem/bandit_either_2","A0017268R9SKD8U2Y3F","either","2","845","","","","","","","0","0","1","0.388677987","","0.8","0.2","0.4","0.6","","","","","0.388677987","0.02951100453","0.4029566754","0.2295153641","","","","","","","","72","H","0","img/none_selected.jpg","","153","main_expt"
"","bandit","233","592211","0.0-194.0-0.0","40792425","wem/bandit_either_2","A0017268R9SKD8U2Y3F","either","2","37","","","","","","","0","0","1","0.3817747688","","0.8","0.2","0.4","0.6","","","","","0.3817747688","0.02325572033","0.4037751878","0.2163321136","","","","","","","","72","H","0","img/none_selected.jpg","","154","main_expt"
"","bandit","234","593923","0.0-195.0-0.0","40792425","wem/bandit_either_2","A0017268R9SKD8U2Y3F","either","2","205","","","","","","","0","0","1","","0.03925092562","0.8","0.2","0.4","0.6","0.327727533","0.03925092562","0.4078727314","0.2257858177","","","","","","","","","","","","74","J","1","","","155","main_expt"
"","bandit","235","595580","0.0-196.0-0.0","40792425","wem/bandit_either_2","A0017268R9SKD8U2Y3F","either","2","151","","","","","","","0","0","1","","0.2077891775","0.8","0.2","0.4","0.6","0.2821504166","0.05532081832","0.3941681487","0.2077891775","","","","","","","","","","","","76","L","3","","","156","main_expt"
"","bandit","236","597299","0.0-197.0-0.0","40792425","wem/bandit_either_2","A0017268R9SKD8U2Y3F","either","2","212","","","","","","","0","0","1","","0.3417147062","0.8","0.2","0.4","0.6","0.2784527126","0.05983660039","0.3417147062","0.1742908387","","","","","","","","","","","","75","K","2","","","157","main_expt"
"","bandit","237","598948","0.0-198.0-0.0","40792425","wem/bandit_either_2","A0017268R9SKD8U2Y3F","either","2","142","","","","","","","1","0","0","0.2963220618","","0.8","0.2","0.4","0.6","","","","","0.2857058734","0.09347744845","0.2963220618","0.162057643","","","","","","","","75","K","2","","","158","main_expt"
"","bandit","238","600740","0.0-199.0-0.0","40792425","wem/bandit_either_2","A0017268R9SKD8U2Y3F","either","2","284","","","","","","","0","0","1","0.2961528309","","0.8","0.2","0.4","0.6","","","","","0.2349295223","0.09649648717","0.2961528309","0.1805514511","","","","","","","","75","K","2","","","159","main_expt"
"","bandit","239","602444","0.0-200.0-0.0","40792425","wem/bandit_either_2","A0017268R9SKD8U2Y3F","either","2","197","","","","","","","0","1","0","","0.2842772575","0.8","0.2","0.4","0.6","0.2275717407","0.08382429791","0.2842772575","0.1724629995","","","","","","","","","","","","75","K","2","","","160","main_expt"
"","bandit","240","604251","0.0-201.0-0.0","40792425","wem/bandit_either_2","A0017268R9SKD8U2Y3F","either","2","300","","","","","","","0","0","1","0.2559884592","","0.8","0.2","0.4","0.6","","","","","0.2559884592","0.1466352983","0.2747674873","0.1660992999","","","","","","","","72","H","0","img/none_selected.jpg","","161","main_expt"
"","bandit","241","606053","0.0-202.0-0.0","40792425","wem/bandit_either_2","A0017268R9SKD8U2Y3F","either","2","295","","","","","","","0","1","0","","0.2993190406","0.8","0.2","0.4","0.6","0.2670526618","0.1569467617","0.2993190406","0.2281832109","","","","","","","","","","","","75","K","2","","","162","main_expt"
"","bandit","242","607828","0.0-203.0-0.0","40792425","wem/bandit_either_2","A0017268R9SKD8U2Y3F","either","2","267","","","","","","","0","0","1","0.2618894379","","0.8","0.2","0.4","0.6","","","","","0.2618894379","0.1437935099","0.3102408377","0.2144285545","","","","","","","","72","H","0","img/none_selected.jpg","","163","main_expt"
"","bandit","243","609588","0.0-204.0-0.0","40792425","wem/bandit_either_2","A0017268R9SKD8U2Y3F","either","2","253","","","","","","","0","0","1","0.2977476978","","0.8","0.2","0.4","0.6","","","","","0.2977476978","0.1503677763","0.2607878409","0.2131293933","","","","","","","","72","H","0","img/none_selected.jpg","","164","main_expt"
"","bandit","244","611396","0.0-205.0-0.0","40792425","wem/bandit_either_2","A0017268R9SKD8U2Y3F","either","2","301","","","","","","","0","0","1","","0.3138636066","0.8","0.2","0.4","0.6","0.3138636066","0.1574825995","0.2470054868","0.251698227","","","","","","","","","","","","72","H","0","img/none_selected.jpg","","165","main_expt"
"","bandit","245","613204","0.0-206.0-0.0","40792425","wem/bandit_either_2","A0017268R9SKD8U2Y3F","either","2","301","","","","","","","0","0","1","0.3204338644","","0.8","0.2","0.4","0.6","","","","","0.3204338644","0.1500633275","0.2629624785","0.2831539445","","","","","","","","72","H","0","img/none_selected.jpg","","166","main_expt"
"","bandit","246","614852","0.0-207.0-0.0","40792425","wem/bandit_either_2","A0017268R9SKD8U2Y3F","either","2","141","","","","","","","1","0","0","0.3600517585","","0.8","0.2","0.4","0.6","","","","","0.3600517585","0.1137242654","0.2745713682","0.2496169508","","","","","","","","72","H","0","img/none_selected.jpg","","167","main_expt"
"","bandit","247","616639","0.0-208.0-0.0","40792425","wem/bandit_either_2","A0017268R9SKD8U2Y3F","either","2","279","","","","","","","0","0","1","0.3678373827","","0.8","0.2","0.4","0.6","","","","","0.3678373827","0.145192941","0.2557249153","0.2315540067","","","","","","","","72","H","0","img/none_selected.jpg","","168","main_expt"
"","bandit","248","618485","0.0-209.0-0.0","40792425","wem/bandit_either_2","A0017268R9SKD8U2Y3F","either","2","338","","","","","","","0","0","1","0.3421512568","","0.8","0.2","0.4","0.6","","","","","0.3421512568","0.1863479632","0.2016321063","0.1825517174","","","","","","","","72","H","0","img/none_selected.jpg","","169","main_expt"
"","bandit","249","620301","0.0-210.0-0.0","40792425","wem/bandit_either_2","A0017268R9SKD8U2Y3F","either","2","309","","","","","","","0","0","1","0.3917895485","","0.8","0.2","0.4","0.6","","","","","0.3917895485","0.142304713","0.2210696627","0.2535959064","","","","","","","","72","H","0","img/none_selected.jpg","","170","main_expt"
"","bandit","250","622213","0.0-211.0-0.0","40792425","wem/bandit_either_2","A0017268R9SKD8U2Y3F","either","2","404","","","","","","","0","0","1","0.3206692194","","0.8","0.2","0.4","0.6","","","","","0.3206692194","0.1739768979","0.1627904758","0.3004284576","","","","","","","","72","H","0","img/none_selected.jpg","","171","main_expt"
"","bandit","251","624117","0.0-212.0-0.0","40792425","wem/bandit_either_2","A0017268R9SKD8U2Y3F","either","2","397","","","","","","","1","0","0","0.3198600846","","0.8","0.2","0.4","0.6","","","","","0.3198600846","0.2172659048","0.1421076649","0.2716191145","","","","","","","","72","H","0","img/none_selected.jpg","","172","main_expt"
"","bandit","252","625748","0.0-213.0-0.0","40792425","wem/bandit_either_2","A0017268R9SKD8U2Y3F","either","2","125","","","","","","","0","0","1","0.2641483633","","0.8","0.2","0.4","0.6","","","","","0.2641483633","0.2419731025","0.165050165","0.3253138029","","","","","","","","72","H","0","img/none_selected.jpg","","173","main_expt"
"","bandit","253","627509","0.0-214.0-0.0","40792425","wem/bandit_either_2","A0017268R9SKD8U2Y3F","either","2","254","","","","","","","0","0","1","0.2248062597","","0.8","0.2","0.4","0.6","","","","","0.2248062597","0.2239571331","0.1406738207","0.3419591401","","","","","","","","72","H","0","img/none_selected.jpg","","174","main_expt"
"","bandit","254","629612","0.0-215.0-0.0","40792425","wem/bandit_either_2","A0017268R9SKD8U2Y3F","either","2","596","","","","","","","0","0","1","0.2370379408","","0.8","0.2","0.4","0.6","","","","","0.2370379408","0.2311410243","0.138310495","0.3442692367","","","","","","","","72","H","0","img/none_selected.jpg","","175","main_expt"
"","bandit","255","631420","0.0-216.0-0.0","40792425","wem/bandit_either_2","A0017268R9SKD8U2Y3F","either","2","302","","","","","","","1","0","0","0.2157433706","","0.8","0.2","0.4","0.6","","","","","0.2157433706","0.2610077479","0.1675243642","0.3397266539","","","","","","","","72","H","0","img/none_selected.jpg","","176","main_expt"
"","bandit","256","633172","0.0-217.0-0.0","40792425","wem/bandit_either_2","A0017268R9SKD8U2Y3F","either","2","244","","","","","","","0","0","1","0.2014791824","","0.8","0.2","0.4","0.6","","","","","0.2014791824","0.2780938204","0.1919885971","0.2997078274","","","","","","","","72","H","0","img/none_selected.jpg","","177","main_expt"
"","bandit","257","634909","0.0-218.0-0.0","40792425","wem/bandit_either_2","A0017268R9SKD8U2Y3F","either","2","228","","","","","","","0","0","1","0.1913564418","","0.8","0.2","0.4","0.6","","","","","0.1913564418","0.3151752793","0.2365392944","0.3064007527","","","","","","","","72","H","0","img/none_selected.jpg","","178","main_expt"
"","bandit","258","636645","0.0-219.0-0.0","40792425","wem/bandit_either_2","A0017268R9SKD8U2Y3F","either","2","228","","","","","","","0","0","1","0.1980728016","","0.8","0.2","0.4","0.6","","","","","0.1980728016","0.2799621139","0.2509455726","0.3533432679","","","","","","","","72","H","0","img/none_selected.jpg","","179","main_expt"
"","bandit","259","638238","0.0-220.0-0.0","40792425","wem/bandit_either_2","A0017268R9SKD8U2Y3F","either","2","85","","","","","","","0","0","1","0.1833491223","","0.8","0.2","0.4","0.6","","","","","0.1833491223","0.3170936092","0.2767223981","0.3652522579","","","","","","","","72","H","0","img/none_selected.jpg","","180","main_expt"
"","bandit","260","639948","0.0-221.0-0.0","40792425","wem/bandit_either_2","A0017268R9SKD8U2Y3F","either","2","203","","","","","","","0","0","1","0.1342686697","","0.8","0.2","0.4","0.6","","","","","0.1342686697","0.28101752","0.314600373","0.3383156657","","","","","","","","72","H","0","img/none_selected.jpg","","181","main_expt"
"","bandit","261","641684","0.0-222.0-0.0","40792425","wem/bandit_either_2","A0017268R9SKD8U2Y3F","either","2","229","","","","","","","0","0","1","0.1636660304","","0.8","0.2","0.4","0.6","","","","","0.1636660304","0.3043342224","0.3943610609","0.2902116232","","","","","","","","72","H","0","img/none_selected.jpg","","182","main_expt"
"","bandit","262","643436","0.0-223.0-0.0","40792425","wem/bandit_either_2","A0017268R9SKD8U2Y3F","either","2","245","","","","","","","0","0","1","0.136761637","","0.8","0.2","0.4","0.6","","","","","0.136761637","0.3192524042","0.3586422101","0.3026157476","","","","","","","","72","H","0","img/none_selected.jpg","","183","main_expt"
"","bandit","263","645188","0.0-224.0-0.0","40792425","wem/bandit_either_2","A0017268R9SKD8U2Y3F","either","2","246","","","","","","","0","0","1","","0.1685989701","0.8","0.2","0.4","0.6","0.1685989701","0.3332516821","0.3879999062","0.3360229169","","","","","","","","","","","","72","H","0","img/none_selected.jpg","","184","main_expt"
"","bandit","264","646828","0.0-225.0-0.0","40792425","wem/bandit_either_2","A0017268R9SKD8U2Y3F","either","2","133","","","","","","","0","0","1","0.1663529744","","0.8","0.2","0.4","0.6","","","","","0.1663529744","0.3228184693","0.3831340227","0.3336456265","","","","","","","","72","H","0","img/none_selected.jpg","","185","main_expt"
"","bandit","265","648653","0.0-226.0-0.0","40792425","wem/bandit_either_2","A0017268R9SKD8U2Y3F","either","2","318","","","","","","","1","0","0","0.1916836285","","0.8","0.2","0.4","0.6","","","","","0.1916836285","0.3111703144","0.3999004662","0.3308881938","","","","","","","","72","H","0","img/none_selected.jpg","","186","main_expt"
"","bandit","266","650452","0.0-227.0-0.0","40792425","wem/bandit_either_2","A0017268R9SKD8U2Y3F","either","2","290","","","","","","","0","0","1","0.1686829448","","0.8","0.2","0.4","0.6","","","","","0.1686829448","0.3353611299","0.3875363153","0.325530054","","","","","","","","72","H","0","img/none_selected.jpg","","187","main_expt"
"","bandit","267","652317","0.0-228.0-0.0","40792425","wem/bandit_either_2","A0017268R9SKD8U2Y3F","either","2","356","","","","","","","0","0","1","","0.1461675531","0.8","0.2","0.4","0.6","0.1461675531","0.3646937268","0.3875691392","0.3055482451","","","","","","","","","","","","72","H","0","img/none_selected.jpg","","188","main_expt"
"","bandit","268","654180","0.0-229.0-0.0","40792425","wem/bandit_either_2","A0017268R9SKD8U2Y3F","either","2","356","","","","","","","0","0","1","0.1382971047","","0.8","0.2","0.4","0.6","","","","","0.1382971047","0.3891323825","0.4166866882","0.3002345065","","","","","","","","72","H","0","img/none_selected.jpg","","189","main_expt"
"","bandit","269","655973","0.0-230.0-0.0","40792425","wem/bandit_either_2","A0017268R9SKD8U2Y3F","either","2","285","","","","","","","1","0","0","0.1898135375","","0.8","0.2","0.4","0.6","","","","","0.1898135375","0.3860741766","0.4124474499","0.2693931213","","","","","","","","72","H","0","img/none_selected.jpg","","190","main_expt"
"","bandit","270","657740","0.0-231.0-0.0","40792425","wem/bandit_either_2","A0017268R9SKD8U2Y3F","either","2","260","","","","","","","0","0","1","0.1264917812","","0.8","0.2","0.4","0.6","","","","","0.1264917812","0.3864243721","0.3638199534","0.3009284261","","","","","","","","72","H","0","img/none_selected.jpg","","191","main_expt"
"","bandit","271","659421","0.0-232.0-0.0","40792425","wem/bandit_either_2","A0017268R9SKD8U2Y3F","either","2","174","","","","","","","0","0","1","0.1185409567","","0.8","0.2","0.4","0.6","","","","","0.1185409567","0.400448014","0.3711146034","0.3157917784","","","","","","","","72","H","0","img/none_selected.jpg","","192","main_expt"
"","bandit","272","662684","0.0-233.0-0.0","40792425","wem/bandit_either_2","A0017268R9SKD8U2Y3F","either","2","1756","","","","","","","0","0","1","","0.09837948322","0.8","0.2","0.4","0.6","0.09837948322","0.3895367297","0.3654165885","0.2999212614","","","","","","","","","","","","72","H","0","img/none_selected.jpg","","193","main_expt"
"","bandit","273","665796","0.0-234.0-0.0","40792425","wem/bandit_either_2","A0017268R9SKD8U2Y3F","either","2","1605","","","","","","","0","0","1","0.137690802","","0.8","0.2","0.4","0.6","","","","","0.137690802","0.4032313792","0.3537818584","0.3287494418","","","","","","","","72","H","0","img/none_selected.jpg","","194","main_expt"
"","bandit","274","667636","0.0-235.0-0.0","40792425","wem/bandit_either_2","A0017268R9SKD8U2Y3F","either","2","331","","","","","","","0","0","1","","0.1683354775","0.8","0.2","0.4","0.6","0.1683354775","0.337234763","0.3597494918","0.3031978913","","","","","","","","","","","","72","H","0","img/none_selected.jpg","","195","main_expt"
"","bandit","275","670326","0.0-236.0-0.0","40792425","wem/bandit_either_2","A0017268R9SKD8U2Y3F","either","2","1182","","","","","","","1","0","0","0.1561951964","","0.8","0.2","0.4","0.6","","","","","0.1561951964","0.3950764453","0.3479121901","0.2901303692","","","","","","","","72","H","0","img/none_selected.jpg","","196","main_expt"
"","bandit","276","672092","0.0-237.0-0.0","40792425","wem/bandit_either_2","A0017268R9SKD8U2Y3F","either","2","259","","","","","","","0","0","1","0.1329868482","","0.8","0.2","0.4","0.6","","","","","0.1329868482","0.4193743727","0.3596292454","0.2444781728","","","","","","","","72","H","0","img/none_selected.jpg","","197","main_expt"
"","bandit","277","673764","0.0-238.0-0.0","40792425","wem/bandit_either_2","A0017268R9SKD8U2Y3F","either","2","165","","","","","","","0","0","1","0.1730826789","","0.8","0.2","0.4","0.6","","","","","0.1730826789","0.4375347816","0.3555371828","0.2140047665","","","","","","","","72","H","0","img/none_selected.jpg","","198","main_expt"
"","bandit","278","675556","0.0-239.0-0.0","40792425","wem/bandit_either_2","A0017268R9SKD8U2Y3F","either","2","285","","","","","","","0","0","1","0.1385649096","","0.8","0.2","0.4","0.6","","","","","0.1385649096","0.4315030007","0.4016486285","0.2077842613","","","","","","","","72","H","0","img/none_selected.jpg","","199","main_expt"
"","bandit","279","677132","0.0-240.0-0.0","40792425","wem/bandit_either_2","A0017268R9SKD8U2Y3F","either","2","69","","","","","","","0","0","1","","0.1941139053","0.8","0.2","0.4","0.6","0.1941139053","0.4340108373","0.3871107612","0.180488049","","","","","","","","","","","","72","H","0","img/none_selected.jpg","","200","main_expt"
"","bandit","280","678948","0.0-241.0-0.0","40792425","wem/bandit_either_2","A0017268R9SKD8U2Y3F","either","2","309","","","","","","","0","0","1","","0.2084987087","0.8","0.2","0.4","0.6","0.1825013029","0.441078118","0.3856539452","0.2084987087","","","","","","","","","","","","76","L","3","","","201","main_expt"
"","bandit","281","680693","0.0-242.0-0.0","40792425","wem/bandit_either_2","A0017268R9SKD8U2Y3F","either","2","238","","","","","","","0","0","1","","0.4143682719","0.8","0.2","0.4","0.6","0.162440572","0.4143682719","0.358588673","0.1869669721","","","","","","","","","","","","74","J","1","","","202","main_expt"
"","bandit","282","682388","0.0-243.0-0.0","40792425","wem/bandit_either_2","A0017268R9SKD8U2Y3F","either","2","187","","","","","","","0","0","1","","0.1383076553","0.8","0.2","0.4","0.6","0.1914238456","0.4280720422","0.3460881607","0.1383076553","","","","","","","","","","","","76","L","3","","","203","main_expt"
"","bandit","283","684212","0.0-244.0-0.0","40792425","wem/bandit_either_2","A0017268R9SKD8U2Y3F","either","2","316","","","","","","","0","0","1","","0.4113524858","0.8","0.2","0.4","0.6","0.1849793247","0.4113524858","0.3091432968","0.1656187697","","","","","","","","","","","","74","J","1","","","204","main_expt"
"","bandit","284","685996","0.0-245.0-0.0","40792425","wem/bandit_either_2","A0017268R9SKD8U2Y3F","either","2","276","","","","","","","0","0","1","0.1699285253","","0.8","0.2","0.4","0.6","","","","","0.1722293799","0.4151465815","0.3016396897","0.1699285253","","","","","","","","76","L","3","","","205","main_expt"
"","bandit","285","687700","0.0-246.0-0.0","40792425","wem/bandit_either_2","A0017268R9SKD8U2Y3F","either","2","197","","","","","","","0","0","1","","0.1625694713","0.8","0.2","0.4","0.6","0.1625694713","0.4002359997","0.3300702997","0.161732949","","","","","","","","","","","","72","H","0","img/none_selected.jpg","","206","main_expt"
"","bandit","286","689476","0.0-247.0-0.0","40792425","wem/bandit_either_2","A0017268R9SKD8U2Y3F","either","2","269","","","","","","","0","0","1","0.1699017951","","0.8","0.2","0.4","0.6","","","","","0.1079769143","0.3692387261","0.2648848683","0.1699017951","","","","","","","","76","L","3","","","207","main_expt"
"","bandit","287","691253","0.0-248.0-0.0","40792425","wem/bandit_either_2","A0017268R9SKD8U2Y3F","either","2","270","","","","","","","0","0","1","","0.1380178959","0.8","0.2","0.4","0.6","0.1380178959","0.3283471685","0.2502792914","0.1592107695","","","","","","","","","","","","72","H","0","img/none_selected.jpg","","208","main_expt"
"","bandit","288","692900","0.0-249.0-0.0","40792425","wem/bandit_either_2","A0017268R9SKD8U2Y3F","either","2","139","","","","","","","0","0","1","","0.2924758898","0.8","0.2","0.4","0.6","0.1538506734","0.2924758898","0.2770073026","0.1659907122","","","","","","","","","","","","74","J","1","","","209","main_expt"
"","bandit","289","694636","0.0-250.0-0.0","40792425","wem/bandit_either_2","A0017268R9SKD8U2Y3F","either","2","228","","","","","","","1","0","0","0.3451435735","","0.8","0.2","0.4","0.6","","","","","0.1406222791","0.2279470939","0.3451435735","0.229525517","","","","","","","","75","K","2","","","210","main_expt"
"","bandit","290","696372","0.0-251.0-0.0","40792425","wem/bandit_either_2","A0017268R9SKD8U2Y3F","either","2","228","","","","","","","0","1","0","","0.3514478275","0.8","0.2","0.4","0.6","0.08987887408","0.2131844406","0.3514478275","0.2434605193","","","","","","","","","","","","75","K","2","","","211","main_expt"
"","bandit","291","698148","0.0-252.0-0.0","40792425","wem/bandit_either_2","A0017268R9SKD8U2Y3F","either","2","268","","","","","","","1","0","0","0.3579324364","","0.8","0.2","0.4","0.6","","","","","0.1277875359","0.1601793481","0.3579324364","0.1633214123","","","","","","","","75","K","2","","","212","main_expt"
"","bandit","292","699931","0.0-253.0-0.0","40792425","wem/bandit_either_2","A0017268R9SKD8U2Y3F","either","2","276","","","","","","","0","0","1","0.3231243524","","0.8","0.2","0.4","0.6","","","","","0.134271297","0.1354109392","0.3231243524","0.1014835246","","","","","","","","75","K","2","","","213","main_expt"
"","bandit","293","701549","0.0-254.0-0.0","40792425","wem/bandit_either_2","A0017268R9SKD8U2Y3F","either","2","110","","","","","","","0","0","1","","0.2798540136","0.8","0.2","0.4","0.6","0.1385204111","0.1142105534","0.2798540136","0.09587264096","","","","","","","","","","","","75","K","2","","","214","main_expt"
"","bandit","294","703188","0.0-255.0-0.0","40792425","wem/bandit_either_2","A0017268R9SKD8U2Y3F","either","2","131","","","","","","","0","0","1","0.2469391402","","0.8","0.2","0.4","0.6","","","","","0.1089132689","0.1031311673","0.2469391402","0.08342689115","","","","","","","","75","K","2","","","215","main_expt"
"","bandit","295","704780","0.0-256.0-0.0","40792425","wem/bandit_either_2","A0017268R9SKD8U2Y3F","either","2","84","","","","","","","0","0","1","","0.3211823944","0.8","0.2","0.4","0.6","0.1299508563","0.1031732366","0.3211823944","0.05361264496","","","","","","","","","","","","75","K","2","","","216","main_expt"
"","bandit","296","706828","0.0-257.0-0.0","40792425","wem/bandit_either_2","A0017268R9SKD8U2Y3F","either","2","540","","","","","","","0","0","1","0.131109262","","0.8","0.2","0.4","0.6","","","","","0.131109262","0.1188097379","0.3545519007","0.09912420903","","","","","","","","72","H","0","img/none_selected.jpg","","217","main_expt"
"","bandit","297","708492","0.0-258.0-0.0","40792425","wem/bandit_either_2","A0017268R9SKD8U2Y3F","either","2","157","","","","","","","0","0","1","","0.3781539282","0.8","0.2","0.4","0.6","0.1039495344","0.1096623481","0.3781539282","0.1021137889","","","","","","","","","","","","75","K","2","","","218","main_expt"
"","bandit","298","710188","0.0-259.0-0.0","40792425","wem/bandit_either_2","A0017268R9SKD8U2Y3F","either","2","188","","","","","","","0","0","1","","0.3674409598","0.8","0.2","0.4","0.6","0.09488552944","0.08679630722","0.3674409598","0.1025207236","","","","","","","","","","","","75","K","2","","","219","main_expt"
"","bandit","299","712092","0.0-260.0-0.0","40792425","wem/bandit_either_2","A0017268R9SKD8U2Y3F","either","2","396","","","","","","","0","0","1","0.1482089448","","0.8","0.2","0.4","0.6","","","","","0.1311925698","0.1482089448","0.315237632","0.1049734862","","","","","","","","74","J","1","","","220","main_expt"
"","bandit","300","713964","0.0-261.0-0.0","40792425","wem/bandit_either_2","A0017268R9SKD8U2Y3F","either","2","363","","","","","","","0","0","1","","0.08244295151","0.8","0.2","0.4","0.6","0.08224132258","0.217172314","0.3572442142","0.08244295151","","","","","","","","","","","","76","L","3","","","221","main_expt"
"","bandit","301","715644","0.0-262.0-0.0","40792425","wem/bandit_either_2","A0017268R9SKD8U2Y3F","either","2","171","","","","","","","1","0","0","0.2796125419","","0.8","0.2","0.4","0.6","","","","","0.06870998364","0.2227738938","0.2796125419","0.09815111748","","","","","","","","75","K","2","","","222","main_expt"
"","bandit","302","717411","0.0-263.0-0.0","40792425","wem/bandit_either_2","A0017268R9SKD8U2Y3F","either","2","260","","","","","","","0","0","1","","0.2265565182","0.8","0.2","0.4","0.6","0.111762886","0.2768694491","0.2265565182","0.09925351505","","","","","","","","","","","","75","K","2","","","223","main_expt"
"","bandit","303","719011","0.0-264.0-0.0","40792425","wem/bandit_either_2","A0017268R9SKD8U2Y3F","either","2","92","","","","","","","1","0","0","0.09652303785","","0.8","0.2","0.4","0.6","","","","","0.09652303785","0.2895694018","0.1727872262","0.07842644678","","","","","","","","72","H","0","img/none_selected.jpg","","224","main_expt"
"","bandit","304","720739","0.0-265.0-0.0","40792425","wem/bandit_either_2","A0017268R9SKD8U2Y3F","either","2","221","","","","","","","0","0","1","0.09424892582","","0.8","0.2","0.4","0.6","","","","","0.09424892582","0.3515154126","0.1580797834","0.05284632075","","","","","","","","72","H","0","img/none_selected.jpg","","225","main_expt"
"","bandit","305","722517","0.0-266.0-0.0","40792425","wem/bandit_either_2","A0017268R9SKD8U2Y3F","either","2","271","","","","","","","0","1","0","","0.1206031336","0.8","0.2","0.4","0.6","0.1094697254","0.3960872924","0.1206031336","0.06788221328","","","","","","","","","","","","75","K","2","","","226","main_expt"
"","bandit","306","724292","0.0-267.0-0.0","40792425","wem/bandit_either_2","A0017268R9SKD8U2Y3F","either","2","268","","","","","","","0","0","1","","0.1218099769","0.8","0.2","0.4","0.6","0.1055794081","0.3301105445","0.1218099769","0.04226868229","","","","","","","","","","","","75","K","2","","","227","main_expt"
"","bandit","307","725972","0.0-268.0-0.0","40792425","wem/bandit_either_2","A0017268R9SKD8U2Y3F","either","2","172","","","","","","","0","0","1","0.06174471126","","0.8","0.2","0.4","0.6","","","","","0.1210232629","0.3679650562","0.08458740206","0.06174471126","","","","","","","","76","L","3","","","228","main_expt"
"","bandit","308","727900","0.0-269.0-0.0","40792425","wem/bandit_either_2","A0017268R9SKD8U2Y3F","either","2","420","","","","","","","0","0","1","0.1249199002","","0.8","0.2","0.4","0.6","","","","","0.1249199002","0.3413725311","0.06311990622","0.06122033102","","","","","","","","72","H","0","img/none_selected.jpg","","229","main_expt"
"","bandit","309","729627","0.0-270.0-0.0","40792425","wem/bandit_either_2","A0017268R9SKD8U2Y3F","either","2","219","","","","","","","0","0","1","","0.04674316758","0.8","0.2","0.4","0.6","0.1423167866","0.3652503211","0.04674316758","0.09369367087","","","","","","","","","","","","75","K","2","","","230","main_expt"
"","bandit","310","731628","0.0-271.0-0.0","40792425","wem/bandit_either_2","A0017268R9SKD8U2Y3F","either","2","492","","","","","","","0","1","0","","0.3774172636","0.8","0.2","0.4","0.6","0.1441411413","0.3774172636","0.06697327866","0.1378364932","","","","","","","","","","","","74","J","1","","","231","main_expt"
"","bandit","311","733357","0.0-272.0-0.0","40792425","wem/bandit_either_2","A0017268R9SKD8U2Y3F","either","2","221","","","","","","","0","1","0","","0.3507397895","0.8","0.2","0.4","0.6","0.1132866493","0.3507397895","0.08617656909","0.1138343256","","","","","","","","","","","","74","J","1","","","232","main_expt"
"","bandit","312","735099","0.0-273.0-0.0","40792425","wem/bandit_either_2","A0017268R9SKD8U2Y3F","either","2","234","","","","","","","0","0","1","0.07587191469","","0.8","0.2","0.4","0.6","","","","","0.07587191469","0.3228668676","0.08388286328","0.1602674987","","","","","","","","72","H","0","img/none_selected.jpg","","233","main_expt"
"","bandit","313","736811","0.0-274.0-0.0","40792425","wem/bandit_either_2","A0017268R9SKD8U2Y3F","either","2","205","","","","","","","0","0","1","","0.3219168209","0.8","0.2","0.4","0.6","0.08330376307","0.3219168209","0.08303297831","0.1399599793","","","","","","","","","","","","74","J","1","","","234","main_expt"
"","bandit","314","738467","0.0-275.0-0.0","40792425","wem/bandit_either_2","A0017268R9SKD8U2Y3F","either","2","149","","","","","","","0","0","1","0.08228619446","","0.8","0.2","0.4","0.6","","","","","0.07960395758","0.2907257894","0.08228619446","0.1577883936","","","","","","","","75","K","2","","","235","main_expt"
