"consent","trial_type","trial_index","time_elapsed","internal_node_id","subjID","study","MID","cond","drift","rt","responses","key_press","expt_phase","like","value","connected","gems","bombs","no_reward","GemPrChosen","BombPrChosen","GainOverPainPr_0","GainOverPainPr_1","GainOverPainPr_2","GainOverPainPr_3","LosePr_0","LosePr_1","LosePr_2","LosePr_3","WinPr_0","WinPr_1","WinPr_2","WinPr_3","Q0","Q1","Q2","gender","age","ethnicity","target","respCharCode","respKey","respChoiceNum","respChoice","practice","trial_counter","trial_label"
"INL_behavioral_consent_30min_online.html","consent","0","12547","0.0-0.0","45985203","wem/bandit_either_2","ACGHHDT7RY1AH","either","6","","","","","","","","","","","","","","","","","","","","","","","","","","","","","","","","","","","","","",""
"","survey-text","1","18113","0.0-1.0","45985203","wem/bandit_either_2","ACGHHDT7RY1AH","either","6","4554","{""Q0"":""ACGHHDT7RY1AH""}","","","","","","","","","","","","","","","","","","","","","","","","","","","","","","","","","","","",""
"","text","2","30418","0.0-2.0","45985203","wem/bandit_either_2","ACGHHDT7RY1AH","either","6","11300","","32","","","","","","","","","","","","","","","","","","","","","","","","","","","","","","","","","","",""
"","text","3","35874","0.0-3.0","45985203","wem/bandit_either_2","ACGHHDT7RY1AH","either","6","5454","","32","","","","","","","","","","","","","","","","","","","","","","","","","","","","","","","","","","",""
"","text","4","57126","0.0-4.0","45985203","wem/bandit_either_2","ACGHHDT7RY1AH","either","6","21250","","32","","","","","","","","","","","","","","","","","","","","","","","","","","","","","","","","","","",""
"","text","5","70124","0.0-5.0","45985203","wem/bandit_either_2","ACGHHDT7RY1AH","either","6","12998","","32","","","","","","","","","","","","","","","","","","","","","","","","","","","","","","","","","","",""
"","text","6","86626","0.0-6.0","45985203","wem/bandit_either_2","ACGHHDT7RY1AH","either","6","16500","","32","","","","","","","","","","","","","","","","","","","","","","","","","","","","","","","","","","",""
"","text","7","98128","0.0-7.0","45985203","wem/bandit_either_2","ACGHHDT7RY1AH","either","6","11500","","32","","","","","","","","","","","","","","","","","","","","","","","","","","","","","","","","","","",""
"","text","8","100846","0.0-8.0","45985203","wem/bandit_either_2","ACGHHDT7RY1AH","either","6","2716","","32","","","","","","","","","","","","","","","","","","","","","","","","","","","","","","","","","","",""
"","identification","9","122732","0.0-9.0-0.0","45985203","wem/bandit_either_2","ACGHHDT7RY1AH","either","6","21864","","","","5","5","3","","","","","","","","","","","","","","","","","","","","","","","","the village of Zur","","","","","","",""
"","identification","10","145960","0.0-9.0-1.0","45985203","wem/bandit_either_2","ACGHHDT7RY1AH","either","6","22207","","","","2","2","3","","","","","","","","","","","","","","","","","","","","","","","","the village of Nyx","","","","","","",""
"","text","11","151112","0.0-10.0","45985203","wem/bandit_either_2","ACGHHDT7RY1AH","either","6","4147","","32","","","","","","","","","","","","","","","","","","","","","","","","","","","","","","","","","","",""
"","text","12","154163","0.0-11.0","45985203","wem/bandit_either_2","ACGHHDT7RY1AH","either","6","3048","","32","","","","","","","","","","","","","","","","","","","","","","","","","","","","","","","","","","",""
"","text","13","156538","0.0-12.0","45985203","wem/bandit_either_2","ACGHHDT7RY1AH","either","6","2374","","32","","","","","","","","","","","","","","","","","","","","","","","","","","","","","","","","","","",""
"","text","14","163170","0.0-13.0","45985203","wem/bandit_either_2","ACGHHDT7RY1AH","either","6","6631","","32","","","","","","","","","","","","","","","","","","","","","","","","","","","","","","","","","","",""
"","bandit","15","166253","0.0-14.0-0.0","45985203","wem/bandit_either_2","ACGHHDT7RY1AH","either","6","1572","","","","","","","0","0","1","0","0","","","","","0","","","","0","","","","","","","","","","","74","J","0","img/none_selected_demo.jpg","true","0",""
"","bandit","16","169171","0.0-15.0-0.0","45985203","wem/bandit_either_2","ACGHHDT7RY1AH","either","6","1409","","","","","","","0","0","1","0","0","","","","","0","","","","0","","","","","","","","","","","75","K","0","img/none_selected_demo.jpg","true","0",""
"","text","17","178450","0.0-16.0","45985203","wem/bandit_either_2","ACGHHDT7RY1AH","either","6","9277","","32","","","","","","","","","","","","","","","","","","","","","","","","","","","","","","","","","","",""
"","text","18","184215","0.0-17.0","45985203","wem/bandit_either_2","ACGHHDT7RY1AH","either","6","5764","","32","","","","","","","","","","","","","","","","","","","","","","","","","","","","","","","","","","",""
"","text","19","199532","0.0-18.0","45985203","wem/bandit_either_2","ACGHHDT7RY1AH","either","6","15315","","32","","","","","","","","","","","","","","","","","","","","","","","","","","","","","","","","","","",""
"","text","20","201689","0.0-19.0","45985203","wem/bandit_either_2","ACGHHDT7RY1AH","either","6","2155","","32","","","","","","","","","","","","","","","","","","","","","","","","","","","","","","","","","","",""
"","bandit","21","203980","0.0-20.0-0.0","45985203","wem/bandit_either_2","ACGHHDT7RY1AH","either","6","782","","","","","","","0","0","1","","0.8","0.5","0.5","","","0.8","0.2","","","","","","","","","","","","","","74","J","0","img/none_selected_demo.jpg","true","0","80_20_practice"
"","bandit","22","205850","0.0-20.0-1.0","45985203","wem/bandit_either_2","ACGHHDT7RY1AH","either","6","360","","","","","","","1","0","0","0.8","","0.5","0.5","","","","","","","0.8","0.2","","","","","","","","","","74","J","0","img/none_selected_demo.jpg","true","0","80_20_practice"
"","bandit","23","207651","0.0-20.0-2.0","45985203","wem/bandit_either_2","ACGHHDT7RY1AH","either","6","292","","","","","","","0","0","1","","0.8","0.5","0.5","","","0.8","0.2","","","","","","","","","","","","","","74","J","0","img/none_selected_demo.jpg","true","0","80_20_practice"
"","bandit","24","209443","0.0-20.0-3.0","45985203","wem/bandit_either_2","ACGHHDT7RY1AH","either","6","283","","","","","","","0","1","0","","0.8","0.5","0.5","","","0.8","0.2","","","","","","","","","","","","","","74","J","0","img/none_selected_demo.jpg","true","0","80_20_practice"
"","bandit","25","211210","0.0-20.0-4.0","45985203","wem/bandit_either_2","ACGHHDT7RY1AH","either","6","257","","","","","","","0","0","1","","0.2","0.5","0.5","","","0.8","0.2","","","","","","","","","","","","","","75","K","1","","true","0","80_20_practice"
"","bandit","26","213043","0.0-20.0-5.0","45985203","wem/bandit_either_2","ACGHHDT7RY1AH","either","6","323","","","","","","","0","1","0","","0.2","0.5","0.5","","","0.8","0.2","","","","","","","","","","","","","","75","K","1","","true","0","80_20_practice"
"","bandit","27","214859","0.0-20.0-6.0","45985203","wem/bandit_either_2","ACGHHDT7RY1AH","either","6","307","","","","","","","0","0","1","0.2","","0.5","0.5","","","","","","","0.8","0.2","","","","","","","","","","75","K","1","","true","0","80_20_practice"
"","bandit","28","216633","0.0-20.0-7.0","45985203","wem/bandit_either_2","ACGHHDT7RY1AH","either","6","265","","","","","","","0","0","1","0.2","","0.5","0.5","","","","","","","0.8","0.2","","","","","","","","","","75","K","1","","true","0","80_20_practice"
"","bandit","29","218275","0.0-20.0-8.0","45985203","wem/bandit_either_2","ACGHHDT7RY1AH","either","6","134","","","","","","","1","0","0","0.8","","0.5","0.5","","","","","","","0.8","0.2","","","","","","","","","","74","J","0","img/none_selected_demo.jpg","true","0","80_20_practice"
"","bandit","30","220067","0.0-20.0-9.0","45985203","wem/bandit_either_2","ACGHHDT7RY1AH","either","6","283","","","","","","","1","0","0","0.8","","0.5","0.5","","","","","","","0.8","0.2","","","","","","","","","","74","J","0","img/none_selected_demo.jpg","true","0","80_20_practice"
"","bandit","31","221876","0.0-20.0-10.0","45985203","wem/bandit_either_2","ACGHHDT7RY1AH","either","6","299","","","","","","","0","0","1","","0.8","0.5","0.5","","","0.8","0.2","","","","","","","","","","","","","","74","J","0","img/none_selected_demo.jpg","true","0","80_20_practice"
"","bandit","32","223675","0.0-20.0-11.0","45985203","wem/bandit_either_2","ACGHHDT7RY1AH","either","6","289","","","","","","","0","1","0","","0.8","0.5","0.5","","","0.8","0.2","","","","","","","","","","","","","","74","J","0","img/none_selected_demo.jpg","true","0","80_20_practice"
"","bandit","33","225472","0.0-20.0-12.0","45985203","wem/bandit_either_2","ACGHHDT7RY1AH","either","6","288","","","","","","","0","0","1","","0.2","0.5","0.5","","","0.8","0.2","","","","","","","","","","","","","","75","K","1","","true","0","80_20_practice"
"","bandit","34","227300","0.0-20.0-13.0","45985203","wem/bandit_either_2","ACGHHDT7RY1AH","either","6","317","","","","","","","0","0","1","0.2","","0.5","0.5","","","","","","","0.8","0.2","","","","","","","","","","75","K","1","","true","0","80_20_practice"
"","bandit","35","229107","0.0-20.0-14.0","45985203","wem/bandit_either_2","ACGHHDT7RY1AH","either","6","295","","","","","","","0","0","1","0.2","","0.5","0.5","","","","","","","0.8","0.2","","","","","","","","","","75","K","1","","true","0","80_20_practice"
"","bandit","36","230892","0.0-20.0-15.0","45985203","wem/bandit_either_2","ACGHHDT7RY1AH","either","6","273","","","","","","","1","0","0","0.8","","0.5","0.5","","","","","","","0.8","0.2","","","","","","","","","","74","J","0","img/none_selected_demo.jpg","true","0","80_20_practice"
"","bandit","37","232676","0.0-20.0-16.0","45985203","wem/bandit_either_2","ACGHHDT7RY1AH","either","6","273","","","","","","","1","0","0","0.8","","0.5","0.5","","","","","","","0.8","0.2","","","","","","","","","","74","J","0","img/none_selected_demo.jpg","true","0","80_20_practice"
"","bandit","38","234426","0.0-20.0-17.0","45985203","wem/bandit_either_2","ACGHHDT7RY1AH","either","6","240","","","","","","","1","0","0","0.8","","0.5","0.5","","","","","","","0.8","0.2","","","","","","","","","","74","J","0","img/none_selected_demo.jpg","true","0","80_20_practice"
"","bandit","39","236201","0.0-20.0-18.0","45985203","wem/bandit_either_2","ACGHHDT7RY1AH","either","6","266","","","","","","","1","0","0","0.8","","0.5","0.5","","","","","","","0.8","0.2","","","","","","","","","","74","J","0","img/none_selected_demo.jpg","true","0","80_20_practice"
"","bandit","40","237987","0.0-20.0-19.0","45985203","wem/bandit_either_2","ACGHHDT7RY1AH","either","6","277","","","","","","","1","0","0","0.8","","0.5","0.5","","","","","","","0.8","0.2","","","","","","","","","","74","J","0","img/none_selected_demo.jpg","true","0","80_20_practice"
"","text","41","241183","0.0-21.0","45985203","wem/bandit_either_2","ACGHHDT7RY1AH","either","6","3192","","32","","","","","","","","","","","","","","","","","","","","","","","","","","","","","","","","","","",""
"","bandit","42","243839","0.0-22.0-0.0","45985203","wem/bandit_either_2","ACGHHDT7RY1AH","either","6","1149","","","","","","","1","0","0","1","0","","","","","0","1","","","1","0","","","","","","","","","","74","J","0","img/none_selected_demo.jpg","true","0",""
"","text","43","247772","0.0-23.0","45985203","wem/bandit_either_2","ACGHHDT7RY1AH","either","6","3930","","32","","","","","","","","","","","","","","","","","","","","","","","","","","","","","","","","","","",""
"","text","44","249996","0.0-24.0","45985203","wem/bandit_either_2","ACGHHDT7RY1AH","either","6","2221","","32","","","","","","","","","","","","","","","","","","","","","","","","","","","","","","","","","","",""
"","text","45","251734","0.0-25.0","45985203","wem/bandit_either_2","ACGHHDT7RY1AH","either","6","1735","","32","","","","","","","","","","","","","","","","","","","","","","","","","","","","","","","","","","",""
"","text","46","256120","0.0-26.0","45985203","wem/bandit_either_2","ACGHHDT7RY1AH","either","6","4383","","32","","","","","","","","","","","","","","","","","","","","","","","","","","","","","","","","","","",""
"","text","47","264904","0.0-27.0","45985203","wem/bandit_either_2","ACGHHDT7RY1AH","either","6","8782","","32","","","","","","","","","","","","","","","","","","","","","","","","","","","","","","","","","","",""
"","text","48","267864","0.0-28.0","45985203","wem/bandit_either_2","ACGHHDT7RY1AH","either","6","2958","","32","","","","","","","","","","","","","","","","","","","","","","","","","","","","","","","","","","",""
"","text","49","270832","0.0-29.0","45985203","wem/bandit_either_2","ACGHHDT7RY1AH","either","6","2966","","32","","","","","","","","","","","","","","","","","","","","","","","","","","","","","","","","","","",""
"","text","50","275013","0.0-30.0","45985203","wem/bandit_either_2","ACGHHDT7RY1AH","either","6","4180","","32","","","","","","","","","","","","","","","","","","","","","","","","","","","","","","","","","","",""
"","text","51","281129","0.0-31.0","45985203","wem/bandit_either_2","ACGHHDT7RY1AH","either","6","6114","","32","","","","","","","","","","","","","","","","","","","","","","","","","","","","","","","","","","",""
"","text","52","282211","0.0-32.0","45985203","wem/bandit_either_2","ACGHHDT7RY1AH","either","6","1079","","32","","","","","","","","","","","","","","","","","","","","","","","","","","","","","","","","","","",""
"","text","53","283848","0.0-33.0","45985203","wem/bandit_either_2","ACGHHDT7RY1AH","either","6","1634","","32","","","","","","","","","","","","","","","","","","","","","","","","","","","","","","","","","","",""
"","bandit","54","287402","0.0-34.0-0.0","45985203","wem/bandit_either_2","ACGHHDT7RY1AH","either","6","2045","","","","","","","0","1","0","","0.8","0.5","0.5","0.5","0.5","0.8","0.2","0.6","0.2","","","","","","","","","","","","72","H","0","img/none_selected.jpg","true","0","full_practice"
"","bandit","55","289186","0.0-34.0-1.0","45985203","wem/bandit_either_2","ACGHHDT7RY1AH","either","6","274","","","","","","","1","0","0","0.8","","0.5","0.5","0.5","0.5","","","","","0.8","0.2","0.6","0.2","","","","","","","","72","H","0","img/none_selected.jpg","true","0","full_practice"
"","bandit","56","290974","0.0-34.0-2.0","45985203","wem/bandit_either_2","ACGHHDT7RY1AH","either","6","274","","","","","","","1","0","0","0.8","","0.5","0.5","0.5","0.5","","","","","0.8","0.2","0.6","0.2","","","","","","","","72","H","0","img/none_selected.jpg","true","0","full_practice"
"","bandit","57","292762","0.0-34.0-3.0","45985203","wem/bandit_either_2","ACGHHDT7RY1AH","either","6","279","","","","","","","0","0","1","0.8","","0.5","0.5","0.5","0.5","","","","","0.8","0.2","0.6","0.2","","","","","","","","72","H","0","img/none_selected.jpg","true","0","full_practice"
"","bandit","58","294848","0.0-34.0-4.0","45985203","wem/bandit_either_2","ACGHHDT7RY1AH","either","6","577","","","","","","","1","0","0","0.8","","0.5","0.5","0.5","0.5","","","","","0.8","0.2","0.6","0.2","","","","","","","","72","H","0","img/none_selected.jpg","true","0","full_practice"
"","bandit","59","296648","0.0-34.0-5.0","45985203","wem/bandit_either_2","ACGHHDT7RY1AH","either","6","290","","","","","","","0","1","0","","0.8","0.5","0.5","0.5","0.5","0.8","0.2","0.6","0.2","","","","","","","","","","","","72","H","0","img/none_selected.jpg","true","0","full_practice"
"","bandit","60","298450","0.0-34.0-6.0","45985203","wem/bandit_either_2","ACGHHDT7RY1AH","either","6","292","","","","","","","0","0","1","0.8","","0.5","0.5","0.5","0.5","","","","","0.8","0.2","0.6","0.2","","","","","","","","72","H","0","img/none_selected.jpg","true","0","full_practice"
"","bandit","61","300217","0.0-34.0-7.0","45985203","wem/bandit_either_2","ACGHHDT7RY1AH","either","6","258","","","","","","","0","1","0","","0.8","0.5","0.5","0.5","0.5","0.8","0.2","0.6","0.2","","","","","","","","","","","","72","H","0","img/none_selected.jpg","true","0","full_practice"
"","bandit","62","301977","0.0-34.0-8.0","45985203","wem/bandit_either_2","ACGHHDT7RY1AH","either","6","251","","","","","","","1","0","0","0.8","","0.5","0.5","0.5","0.5","","","","","0.8","0.2","0.6","0.2","","","","","","","","72","H","0","img/none_selected.jpg","true","0","full_practice"
"","bandit","63","303609","0.0-34.0-9.0","45985203","wem/bandit_either_2","ACGHHDT7RY1AH","either","6","122","","","","","","","1","0","0","0.8","","0.5","0.5","0.5","0.5","","","","","0.8","0.2","0.6","0.2","","","","","","","","72","H","0","img/none_selected.jpg","true","0","full_practice"
"","bandit","64","305377","0.0-34.0-10.0","45985203","wem/bandit_either_2","ACGHHDT7RY1AH","either","6","259","","","","","","","0","0","1","","0.8","0.5","0.5","0.5","0.5","0.8","0.2","0.6","0.2","","","","","","","","","","","","72","H","0","img/none_selected.jpg","true","0","full_practice"
"","bandit","65","307080","0.0-34.0-11.0","45985203","wem/bandit_either_2","ACGHHDT7RY1AH","either","6","192","","","","","","","0","1","0","","0.8","0.5","0.5","0.5","0.5","0.8","0.2","0.6","0.2","","","","","","","","","","","","72","H","0","img/none_selected.jpg","true","0","full_practice"
"","bandit","66","308865","0.0-34.0-12.0","45985203","wem/bandit_either_2","ACGHHDT7RY1AH","either","6","276","","","","","","","0","1","0","","0.8","0.5","0.5","0.5","0.5","0.8","0.2","0.6","0.2","","","","","","","","","","","","72","H","0","img/none_selected.jpg","true","0","full_practice"
"","bandit","67","310649","0.0-34.0-13.0","45985203","wem/bandit_either_2","ACGHHDT7RY1AH","either","6","273","","","","","","","0","1","0","","0.8","0.5","0.5","0.5","0.5","0.8","0.2","0.6","0.2","","","","","","","","","","","","72","H","0","img/none_selected.jpg","true","0","full_practice"
"","bandit","68","312401","0.0-34.0-14.0","45985203","wem/bandit_either_2","ACGHHDT7RY1AH","either","6","242","","","","","","","0","0","1","0.8","","0.5","0.5","0.5","0.5","","","","","0.8","0.2","0.6","0.2","","","","","","","","72","H","0","img/none_selected.jpg","true","0","full_practice"
"","bandit","69","314175","0.0-34.0-15.0","45985203","wem/bandit_either_2","ACGHHDT7RY1AH","either","6","265","","","","","","","1","0","0","0.8","","0.5","0.5","0.5","0.5","","","","","0.8","0.2","0.6","0.2","","","","","","","","72","H","0","img/none_selected.jpg","true","0","full_practice"
"","bandit","70","315913","0.0-34.0-16.0","45985203","wem/bandit_either_2","ACGHHDT7RY1AH","either","6","227","","","","","","","0","1","0","","0.8","0.5","0.5","0.5","0.5","0.8","0.2","0.6","0.2","","","","","","","","","","","","72","H","0","img/none_selected.jpg","true","0","full_practice"
"","bandit","71","317520","0.0-34.0-17.0","45985203","wem/bandit_either_2","ACGHHDT7RY1AH","either","6","96","","","","","","","1","0","0","0.8","","0.5","0.5","0.5","0.5","","","","","0.8","0.2","0.6","0.2","","","","","","","","72","H","0","img/none_selected.jpg","true","0","full_practice"
"","bandit","72","319473","0.0-34.0-18.0","45985203","wem/bandit_either_2","ACGHHDT7RY1AH","either","6","442","","","","","","","0","1","0","","0.8","0.5","0.5","0.5","0.5","0.8","0.2","0.6","0.2","","","","","","","","","","","","72","H","0","img/none_selected.jpg","true","0","full_practice"
"","bandit","73","321241","0.0-34.0-19.0","45985203","wem/bandit_either_2","ACGHHDT7RY1AH","either","6","256","","","","","","","0","1","0","","0.8","0.5","0.5","0.5","0.5","0.8","0.2","0.6","0.2","","","","","","","","","","","","72","H","0","img/none_selected.jpg","true","0","full_practice"
"","text","74","323769","0.0-35.0","45985203","wem/bandit_either_2","ACGHHDT7RY1AH","either","6","2520","","32","","","","","","","","","","","","","","","","","","","","","","","","","","","","","","","","","","",""
"","text","75","336770","0.0-36.0","45985203","wem/bandit_either_2","ACGHHDT7RY1AH","either","6","11997","","32","","","","","","","","","","","","","","","","","","","","","","","","","","","","","","","","","","",""
"","text","76","344338","0.0-37.0","45985203","wem/bandit_either_2","ACGHHDT7RY1AH","either","6","7566","","32","","","","","","","","","","","","","","","","","","","","","","","","","","","","","","","","","","",""
"","text","77","352164","0.0-38.0","45985203","wem/bandit_either_2","ACGHHDT7RY1AH","either","6","7823","","32","","","","","","","","","","","","","","","","","","","","","","","","","","","","","","","","","","",""
"","text","78","356098","0.0-39.0","45985203","wem/bandit_either_2","ACGHHDT7RY1AH","either","6","3931","","32","","","","","","","","","","","","","","","","","","","","","","","","","","","","","","","","","","",""
"","text","79","363067","0.0-40.0","45985203","wem/bandit_either_2","ACGHHDT7RY1AH","either","6","6966","","32","","","","","","","","","","","","","","","","","","","","","","","","","","","","","","","","","","",""
"","bandit","80","365755","0.0-41.0-0.0","45985203","wem/bandit_either_2","ACGHHDT7RY1AH","either","6","1179","","","","","","","0","0","1","0.06094066238","","0.8","0.4","0.6","0.2","","","","","0.06094066238","0.1734470434","0.1720655487","0.4656478179","","","","","","","","72","H","0","img/none_selected.jpg","","1","main_expt"
"","bandit","81","367827","0.0-42.0-0.0","45985203","wem/bandit_either_2","ACGHHDT7RY1AH","either","6","561","","","","","","","0","0","1","","0.1582158198","0.8","0.4","0.6","0.2","0.04941180107","0.1582158198","0.1607886358","0.4661883906","","","","","","","","","","","","74","J","1","","","2","main_expt"
"","bandit","82","369584","0.0-43.0-0.0","45985203","wem/bandit_either_2","ACGHHDT7RY1AH","either","6","250","","","","","","","0","0","1","","0.1825924006","0.8","0.4","0.6","0.2","0.09066711981","0.1264016625","0.1825924006","0.4608397999","","","","","","","","","","","","75","K","2","","","3","main_expt"
"","bandit","83","371372","0.0-44.0-0.0","45985203","wem/bandit_either_2","ACGHHDT7RY1AH","either","6","275","","","","","","","0","0","1","","0.4568511376","0.8","0.4","0.6","0.2","0.07815644495","0.1212924903","0.1572982515","0.4568511376","","","","","","","","","","","","76","L","3","","","4","main_expt"
"","bandit","84","373148","0.0-45.0-0.0","45985203","wem/bandit_either_2","ACGHHDT7RY1AH","either","6","266","","","","","","","0","0","1","","0.06547040057","0.8","0.4","0.6","0.2","0.06547040057","0.1603104869","0.1873501432","0.4576747282","","","","","","","","","","","","72","H","0","img/none_selected.jpg","","5","main_expt"
"","bandit","85","374947","0.0-46.0-0.0","45985203","wem/bandit_either_2","ACGHHDT7RY1AH","either","6","289","","","","","","","0","0","1","0.09500806419","","0.8","0.4","0.6","0.2","","","","","0.09500806419","0.1916070739","0.1484719509","0.4673201091","","","","","","","","72","H","0","img/none_selected.jpg","","6","main_expt"
"","bandit","86","376843","0.0-47.0-0.0","45985203","wem/bandit_either_2","ACGHHDT7RY1AH","either","6","384","","","","","","","0","0","1","0.1156714339","","0.8","0.4","0.6","0.2","","","","","0.1156714339","0.1624213819","0.1368680622","0.4671816856","","","","","","","","72","H","0","img/none_selected.jpg","","7","main_expt"
"","bandit","87","378451","0.0-48.0-0.0","45985203","wem/bandit_either_2","ACGHHDT7RY1AH","either","6","99","","","","","","","0","1","0","","0.1529627983","0.8","0.4","0.6","0.2","0.08939878806","0.1529627983","0.1412197478","0.4577650209","","","","","","","","","","","","74","J","1","","","8","main_expt"
"","bandit","88","380226","0.0-49.0-0.0","45985203","wem/bandit_either_2","ACGHHDT7RY1AH","either","6","263","","","","","","","0","0","1","","0.1638779","0.8","0.4","0.6","0.2","0.1379609943","0.1638779","0.1285241668","0.4538037209","","","","","","","","","","","","74","J","1","","","9","main_expt"
"","bandit","89","382001","0.0-50.0-0.0","45985203","wem/bandit_either_2","ACGHHDT7RY1AH","either","6","267","","","","","","","0","0","1","0.1682184418","","0.8","0.4","0.6","0.2","","","","","0.08892925829","0.1682184418","0.1137500729","0.4567906288","","","","","","","","74","J","1","","","10","main_expt"
"","bandit","90","383811","0.0-51.0-0.0","45985203","wem/bandit_either_2","ACGHHDT7RY1AH","either","6","298","","","","","","","0","1","0","","0.1511948373","0.8","0.4","0.6","0.2","0.1053961985","0.1511948373","0.1134058804","0.4707556997","","","","","","","","","","","","74","J","1","","","11","main_expt"
"","bandit","91","385580","0.0-52.0-0.0","45985203","wem/bandit_either_2","ACGHHDT7RY1AH","either","6","259","","","","","","","0","0","1","0.2144966391","","0.8","0.4","0.6","0.2","","","","","0.1267534428","0.2144966391","0.1358134986","0.4534589675","","","","","","","","74","J","1","","","12","main_expt"
"","bandit","92","387363","0.0-53.0-0.0","45985203","wem/bandit_either_2","ACGHHDT7RY1AH","either","6","272","","","","","","","1","0","0","0.1443049275","","0.8","0.4","0.6","0.2","","","","","0.1179877152","0.1443049275","0.1105925571","0.4474824422","","","","","","","","74","J","1","","","13","main_expt"
"","bandit","93","389083","0.0-54.0-0.0","45985203","wem/bandit_either_2","ACGHHDT7RY1AH","either","6","209","","","","","","","0","0","1","0.09057326494","","0.8","0.4","0.6","0.2","","","","","0.1300626215","0.149160688","0.09057326494","0.4125602811","","","","","","","","75","K","2","","","14","main_expt"
"","bandit","94","390884","0.0-55.0-0.0","45985203","wem/bandit_either_2","ACGHHDT7RY1AH","either","6","290","","","","","","","0","0","1","","0.05963436345","0.8","0.4","0.6","0.2","0.1129073675","0.1525333278","0.05963436345","0.3715785473","","","","","","","","","","","","75","K","2","","","15","main_expt"
"","bandit","95","392922","0.0-56.0-0.0","45985203","wem/bandit_either_2","ACGHHDT7RY1AH","either","6","528","","","","","","","0","0","1","0.03970917029","","0.8","0.4","0.6","0.2","","","","","0.1132840383","0.1437253933","0.03970917029","0.3670357029","","","","","","","","75","K","2","","","16","main_expt"
"","bandit","96","394745","0.0-57.0-0.0","45985203","wem/bandit_either_2","ACGHHDT7RY1AH","either","6","313","","","","","","","0","0","1","","0.333794799","0.8","0.4","0.6","0.2","0.1530786807","0.1191274054","0.03301664506","0.333794799","","","","","","","","","","","","76","L","3","","","17","main_expt"
"","bandit","97","396506","0.0-58.0-0.0","45985203","wem/bandit_either_2","ACGHHDT7RY1AH","either","6","253","","","","","","","1","0","0","0.3720862831","","0.8","0.4","0.6","0.2","","","","","0.1367655081","0.1231388663","0.0325619","0.3720862831","","","","","","","","76","L","3","","","18","main_expt"
"","bandit","98","398588","0.0-59.0-0.0","45985203","wem/bandit_either_2","ACGHHDT7RY1AH","either","6","572","","","","","","","0","0","1","","0.3940248177","0.8","0.4","0.6","0.2","0.1519969922","0.1014962652","0.05136562407","0.3940248177","","","","","","","","","","","","76","L","3","","","19","main_expt"
"","bandit","99","400370","0.0-60.0-0.0","45985203","wem/bandit_either_2","ACGHHDT7RY1AH","either","6","269","","","","","","","1","0","0","0.3980303587","","0.8","0.4","0.6","0.2","","","","","0.2344823222","0.1184271466","0.05620034239","0.3980303587","","","","","","","","76","L","3","","","20","main_expt"
"","bandit","100","402128","0.0-61.0-0.0","45985203","wem/bandit_either_2","ACGHHDT7RY1AH","either","6","248","","","","","","","0","0","1","","0.405953395","0.8","0.4","0.6","0.2","0.2227593861","0.1434190777","0.04865895453","0.405953395","","","","","","","","","","","","76","L","3","","","21","main_expt"
"","bandit","101","403802","0.0-62.0-0.0","45985203","wem/bandit_either_2","ACGHHDT7RY1AH","either","6","164","","","","","","","1","0","0","0.37898799","","0.8","0.4","0.6","0.2","","","","","0.1831098024","0.1323354157","0.05276066643","0.37898799","","","","","","","","76","L","3","","","22","main_expt"
"","bandit","102","405560","0.0-63.0-0.0","45985203","wem/bandit_either_2","ACGHHDT7RY1AH","either","6","249","","","","","","","0","0","1","","0.3661255489","0.8","0.4","0.6","0.2","0.1660310818","0.1384191998","0.05284133488","0.3661255489","","","","","","","","","","","","76","L","3","","","23","main_expt"
"","bandit","103","407274","0.0-64.0-0.0","45985203","wem/bandit_either_2","ACGHHDT7RY1AH","either","6","205","","","","","","","0","0","1","","0.3576379461","0.8","0.4","0.6","0.2","0.1400827643","0.1395593146","0.0333904923","0.3576379461","","","","","","","","","","","","76","L","3","","","24","main_expt"
"","bandit","104","408984","0.0-65.0-0.0","45985203","wem/bandit_either_2","ACGHHDT7RY1AH","either","6","201","","","","","","","0","0","1","","0.3346121782","0.8","0.4","0.6","0.2","0.2022937807","0.1696236693","0.04666446392","0.3346121782","","","","","","","","","","","","76","L","3","","","25","main_expt"
"","bandit","105","410888","0.0-66.0-0.0","45985203","wem/bandit_either_2","ACGHHDT7RY1AH","either","6","394","","","","","","","0","0","1","","0.1754084838","0.8","0.4","0.6","0.2","0.1725383963","0.1754084838","0.04067930801","0.3790434843","","","","","","","","","","","","74","J","1","","","26","main_expt"
"","bandit","106","412653","0.0-67.0-0.0","45985203","wem/bandit_either_2","ACGHHDT7RY1AH","either","6","253","","","","","","","0","0","1","","0.118483546","0.8","0.4","0.6","0.2","0.1735642386","0.118483546","0.03070036018","0.3744762435","","","","","","","","","","","","74","J","1","","","27","main_expt"
"","bandit","107","414443","0.0-68.0-0.0","45985203","wem/bandit_either_2","ACGHHDT7RY1AH","either","6","279","","","","","","","0","0","1","","0.1259847853","0.8","0.4","0.6","0.2","0.149532802","0.1259847853","0.02292460278","0.3650769418","","","","","","","","","","","","74","J","1","","","28","main_expt"
"","bandit","108","416322","0.0-69.0-0.0","45985203","wem/bandit_either_2","ACGHHDT7RY1AH","either","6","367","","","","","","","1","0","0","0.1072727049","","0.8","0.4","0.6","0.2","","","","","0.1597785082","0.1072727049","0.03476379039","0.3299345172","","","","","","","","74","J","1","","","29","main_expt"
"","bandit","109","418475","0.0-70.0-0.0","45985203","wem/bandit_either_2","ACGHHDT7RY1AH","either","6","642","","","","","","","0","0","1","0.07952930744","","0.8","0.4","0.6","0.2","","","","","0.1978771271","0.07952930744","0.04211589453","0.3010095271","","","","","","","","74","J","1","","","30","main_expt"
"","bandit","110","420210","0.0-71.0-0.0","45985203","wem/bandit_either_2","ACGHHDT7RY1AH","either","6","225","","","","","","","0","0","1","0.09691030242","","0.8","0.4","0.6","0.2","","","","","0.1928768267","0.09691030242","0.04495483672","0.331530841","","","","","","","","74","J","1","","","31","main_expt"
"","bandit","111","421938","0.0-72.0-0.0","45985203","wem/bandit_either_2","ACGHHDT7RY1AH","either","6","218","","","","","","","0","0","1","","0.04126869591","0.8","0.4","0.6","0.2","0.1511047494","0.1338720944","0.04126869591","0.3469043085","","","","","","","","","","","","75","K","2","","","32","main_expt"
"","bandit","112","423745","0.0-73.0-0.0","45985203","wem/bandit_either_2","ACGHHDT7RY1AH","either","6","296","","","","","","","0","0","1","0.02396570111","","0.8","0.4","0.6","0.2","","","","","0.09247049486","0.1428203538","0.02396570111","0.2778139242","","","","","","","","75","K","2","","","33","main_expt"
"","bandit","113","425546","0.0-74.0-0.0","45985203","wem/bandit_either_2","ACGHHDT7RY1AH","either","6","289","","","","","","","0","0","1","0.1127946788","","0.8","0.4","0.6","0.2","","","","","0.1127946788","0.1258169527","0.03561151332","0.236883459","","","","","","","","72","H","0","img/none_selected.jpg","","34","main_expt"
"","bandit","114","427314","0.0-75.0-0.0","45985203","wem/bandit_either_2","ACGHHDT7RY1AH","either","6","256","","","","","","","0","0","1","0.1279928094","","0.8","0.4","0.6","0.2","","","","","0.1279928094","0.1652362889","0.04565222073","0.2656196476","","","","","","","","72","H","0","img/none_selected.jpg","","35","main_expt"
"","bandit","115","429083","0.0-76.0-0.0","45985203","wem/bandit_either_2","ACGHHDT7RY1AH","either","6","259","","","","","","","0","0","1","","0.1472348388","0.8","0.4","0.6","0.2","0.09285608896","0.1472348388","0.05036449293","0.2309028503","","","","","","","","","","","","74","J","1","","","36","main_expt"
"","bandit","116","430882","0.0-77.0-0.0","45985203","wem/bandit_either_2","ACGHHDT7RY1AH","either","6","288","","","","","","","0","0","1","","0.20581188","0.8","0.4","0.6","0.2","0.1251507517","0.20581188","0.04764774511","0.1961267878","","","","","","","","","","","","74","J","1","","","37","main_expt"
"","bandit","117","432633","0.0-78.0-0.0","45985203","wem/bandit_either_2","ACGHHDT7RY1AH","either","6","240","","","","","","","0","0","1","0.04692466818","","0.8","0.4","0.6","0.2","","","","","0.1248439258","0.2096070571","0.04692466818","0.2197692452","","","","","","","","75","K","2","","","38","main_expt"
"","bandit","118","434754","0.0-79.0-0.0","45985203","wem/bandit_either_2","ACGHHDT7RY1AH","either","6","609","","","","","","","0","0","1","","0.1783178102","0.8","0.4","0.6","0.2","0.1192858938","0.1888903691","0.06150360576","0.1783178102","","","","","","","","","","","","76","L","3","","","39","main_expt"
"","bandit","119","436526","0.0-80.0-0.0","45985203","wem/bandit_either_2","ACGHHDT7RY1AH","either","6","263","","","","","","","0","0","1","","0.1354267005","0.8","0.4","0.6","0.2","0.1457630933","0.1769314034","0.1025324214","0.1354267005","","","","","","","","","","","","76","L","3","","","40","main_expt"
"","bandit","120","438273","0.0-81.0-0.0","45985203","wem/bandit_either_2","ACGHHDT7RY1AH","either","6","236","","","","","","","0","1","0","","0.1278282258","0.8","0.4","0.6","0.2","0.1788887836","0.1764673912","0.1278282258","0.1307301687","","","","","","","","","","","","75","K","2","","","41","main_expt"
"","bandit","121","440033","0.0-82.0-0.0","45985203","wem/bandit_either_2","ACGHHDT7RY1AH","either","6","249","","","","","","","0","0","1","0.1144783829","","0.8","0.4","0.6","0.2","","","","","0.1550439797","0.1164002711","0.1144783829","0.1002459791","","","","","","","","75","K","2","","","42","main_expt"
"","bandit","122","441634","0.0-83.0-0.0","45985203","wem/bandit_either_2","ACGHHDT7RY1AH","either","6","89","","","","","","","0","1","0","","0.148274456","0.8","0.4","0.6","0.2","0.1624336935","0.1248357276","0.148274456","0.06131682752","","","","","","","","","","","","75","K","2","","","43","main_expt"
"","bandit","123","443370","0.0-84.0-0.0","45985203","wem/bandit_either_2","ACGHHDT7RY1AH","either","6","225","","","","","","","0","0","1","","0.1733993608","0.8","0.4","0.6","0.2","0.2610419313","0.1801883524","0.1733993608","0.05757194937","","","","","","","","","","","","75","K","2","","","44","main_expt"
"","bandit","124","444983","0.0-85.0-0.0","45985203","wem/bandit_either_2","ACGHHDT7RY1AH","either","6","104","","","","","","","0","0","1","","0.1731137141","0.8","0.4","0.6","0.2","0.2547096211","0.1536252234","0.1731137141","0.06317169253","","","","","","","","","","","","75","K","2","","","45","main_expt"
"","bandit","125","446648","0.0-86.0-0.0","45985203","wem/bandit_either_2","ACGHHDT7RY1AH","either","6","152","","","","","","","0","0","1","0.2577534017","","0.8","0.4","0.6","0.2","","","","","0.2690630982","0.1453657368","0.2577534017","0.08604650327","","","","","","","","75","K","2","","","46","main_expt"
"","bandit","126","448410","0.0-87.0-0.0","45985203","wem/bandit_either_2","ACGHHDT7RY1AH","either","6","249","","","","","","","0","0","1","","0.2436059896","0.8","0.4","0.6","0.2","0.2613787364","0.1163474927","0.2436059896","0.07503215105","","","","","","","","","","","","75","K","2","","","47","main_expt"
"","bandit","127","449993","0.0-88.0-0.0","45985203","wem/bandit_either_2","ACGHHDT7RY1AH","either","6","72","","","","","","","0","0","1","0.1187671899","","0.8","0.4","0.6","0.2","","","","","0.2764851171","0.1187671899","0.261356988","0.09661626413","","","","","","","","74","J","1","","","48","main_expt"
"","bandit","128","451786","0.0-89.0-0.0","45985203","wem/bandit_either_2","ACGHHDT7RY1AH","either","6","283","","","","","","","0","0","1","","0.1321787199","0.8","0.4","0.6","0.2","0.2628846066","0.1321787199","0.2707362224","0.141419135","","","","","","","","","","","","74","J","1","","","49","main_expt"
"","bandit","129","453577","0.0-90.0-0.0","45985203","wem/bandit_either_2","ACGHHDT7RY1AH","either","6","279","","","","","","","0","0","1","","0.1310663867","0.8","0.4","0.6","0.2","0.3634831931","0.1310663867","0.2733601765","0.1341637883","","","","","","","","","","","","74","J","1","","","50","main_expt"
"","bandit","130","455250","0.0-91.0-0.0","45985203","wem/bandit_either_2","ACGHHDT7RY1AH","either","6","162","","","","","","","0","0","1","0.3771608335","","0.8","0.4","0.6","0.2","","","","","0.3771608335","0.1450472339","0.2590969561","0.1225974466","","","","","","","","72","H","0","img/none_selected.jpg","","51","main_expt"
"","bandit","131","456945","0.0-92.0-0.0","45985203","wem/bandit_either_2","ACGHHDT7RY1AH","either","6","183","","","","","","","1","0","0","0.3093307572","","0.8","0.4","0.6","0.2","","","","","0.3093307572","0.1731775471","0.2515646212","0.1145468474","","","","","","","","72","H","0","img/none_selected.jpg","","52","main_expt"
"","bandit","132","458654","0.0-93.0-0.0","45985203","wem/bandit_either_2","ACGHHDT7RY1AH","either","6","196","","","","","","","0","0","1","","0.2990929044","0.8","0.4","0.6","0.2","0.2990929044","0.2258016315","0.2257746054","0.1059564611","","","","","","","","","","","","72","H","0","img/none_selected.jpg","","53","main_expt"
"","bandit","133","460385","0.0-94.0-0.0","45985203","wem/bandit_either_2","ACGHHDT7RY1AH","either","6","220","","","","","","","1","0","0","0.2221679908","","0.8","0.4","0.6","0.2","","","","","0.2221679908","0.2172527187","0.2750925763","0.1090017536","","","","","","","","72","H","0","img/none_selected.jpg","","54","main_expt"
"","bandit","134","462143","0.0-95.0-0.0","45985203","wem/bandit_either_2","ACGHHDT7RY1AH","either","6","246","","","","","","","0","0","1","0.1886471815","","0.8","0.4","0.6","0.2","","","","","0.1886471815","0.1652356872","0.3608357377","0.1249444004","","","","","","","","72","H","0","img/none_selected.jpg","","55","main_expt"
"","bandit","135","463785","0.0-96.0-0.0","45985203","wem/bandit_either_2","ACGHHDT7RY1AH","either","6","131","","","","","","","0","1","0","","0.1973213641","0.8","0.4","0.6","0.2","0.1973213641","0.1576418272","0.4022545085","0.09043885587","","","","","","","","","","","","72","H","0","img/none_selected.jpg","","56","main_expt"
"","bandit","136","465488","0.0-97.0-0.0","45985203","wem/bandit_either_2","ACGHHDT7RY1AH","either","6","193","","","","","","","0","0","1","0.2207101474","","0.8","0.4","0.6","0.2","","","","","0.2207101474","0.180776926","0.3867568464","0.07448640425","","","","","","","","72","H","0","img/none_selected.jpg","","57","main_expt"
"","bandit","137","467047","0.0-98.0-0.0","45985203","wem/bandit_either_2","ACGHHDT7RY1AH","either","6","51","","","","","","","1","0","0","0.2480089655","","0.8","0.4","0.6","0.2","","","","","0.2480089655","0.1489081552","0.3840355114","0.09808879237","","","","","","","","72","H","0","img/none_selected.jpg","","58","main_expt"
"","bandit","138","468776","0.0-99.0-0.0","45985203","wem/bandit_either_2","ACGHHDT7RY1AH","either","6","217","","","","","","","0","0","1","","0.2667579505","0.8","0.4","0.6","0.2","0.2667579505","0.125555473","0.3617876187","0.0721355853","","","","","","","","","","","","72","H","0","img/none_selected.jpg","","59","main_expt"
"","bandit","139","470457","0.0-100.0-0.0","45985203","wem/bandit_either_2","ACGHHDT7RY1AH","either","6","169","","","","","","","0","0","1","","0.2637313595","0.8","0.4","0.6","0.2","0.2637313595","0.1228814318","0.3018070945","0.08871326978","","","","","","","","","","","","72","H","0","img/none_selected.jpg","","60","main_expt"
"","bandit","140","473265","0.0-101.0-0.0","45985203","wem/bandit_either_2","ACGHHDT7RY1AH","either","6","1296","","","","","","","0","0","1","","0.195834737","0.8","0.4","0.6","0.2","0.2400462537","0.195834737","0.2687465691","0.1472383223","","","","","","","","","","","","74","J","1","","","61","main_expt"
"","bandit","141","475013","0.0-102.0-0.0","45985203","wem/bandit_either_2","ACGHHDT7RY1AH","either","6","241","","","","","","","0","1","0","","0.1952904108","0.8","0.4","0.6","0.2","0.2396546157","0.1952904108","0.287622952","0.1625866577","","","","","","","","","","","","74","J","1","","","62","main_expt"
"","bandit","142","476696","0.0-103.0-0.0","45985203","wem/bandit_either_2","ACGHHDT7RY1AH","either","6","172","","","","","","","0","0","1","","0.187392073","0.8","0.4","0.6","0.2","0.2558687718","0.187392073","0.2060093557","0.1196153378","","","","","","","","","","","","74","J","1","","","63","main_expt"
"","bandit","143","478320","0.0-104.0-0.0","45985203","wem/bandit_either_2","ACGHHDT7RY1AH","either","6","112","","","","","","","0","0","1","0.1774517964","","0.8","0.4","0.6","0.2","","","","","0.1789331692","0.1774517964","0.1865830226","0.1025290435","","","","","","","","74","J","1","","","64","main_expt"
"","bandit","144","480099","0.0-105.0-0.0","45985203","wem/bandit_either_2","ACGHHDT7RY1AH","either","6","266","","","","","","","0","0","1","","0.2242960511","0.8","0.4","0.6","0.2","0.2041721298","0.1956590225","0.2242960511","0.06637487434","","","","","","","","","","","","75","K","2","","","65","main_expt"
"","bandit","145","481862","0.0-106.0-0.0","45985203","wem/bandit_either_2","ACGHHDT7RY1AH","either","6","251","","","","","","","0","0","1","0.213739571","","0.8","0.4","0.6","0.2","","","","","0.1083731131","0.1559932489","0.213739571","0.09888809835","","","","","","","","75","K","2","","","66","main_expt"
"","bandit","146","483379","0.0-107.0-0.0","45985203","wem/bandit_either_2","ACGHHDT7RY1AH","either","6","4","","","","","","","0","0","1","0.08542348091","","0.8","0.4","0.6","0.2","","","","","0.08148965902","0.1327283285","0.2463093088","0.08542348091","","","","","","","","76","L","3","","","67","main_expt"
"","bandit","147","485110","0.0-108.0-0.0","45985203","wem/bandit_either_2","ACGHHDT7RY1AH","either","6","222","","","","","","","0","0","1","","0.05648132023","0.8","0.4","0.6","0.2","0.115871946","0.1646421129","0.1863602012","0.05648132023","","","","","","","","","","","","76","L","3","","","68","main_expt"
"","bandit","148","486873","0.0-109.0-0.0","45985203","wem/bandit_either_2","ACGHHDT7RY1AH","either","6","249","","","","","","","0","0","1","","0.1049465522","0.8","0.4","0.6","0.2","0.1049465522","0.1879918005","0.1481768435","0.07427448495","","","","","","","","","","","","72","H","0","img/none_selected.jpg","","69","main_expt"
"","bandit","149","488561","0.0-110.0-0.0","45985203","wem/bandit_either_2","ACGHHDT7RY1AH","either","6","176","","","","","","","0","0","1","0.1224614501","","0.8","0.4","0.6","0.2","","","","","0.1224614501","0.1708527721","0.2062415021","0.1052870039","","","","","","","","72","H","0","img/none_selected.jpg","","70","main_expt"
"","bandit","150","490299","0.0-111.0-0.0","45985203","wem/bandit_either_2","ACGHHDT7RY1AH","either","6","226","","","","","","","0","0","1","0.1930923514","","0.8","0.4","0.6","0.2","","","","","0.1687358413","0.1930923514","0.2175562698","0.1114501371","","","","","","","","74","J","1","","","71","main_expt"
"","bandit","151","491888","0.0-112.0-0.0","45985203","wem/bandit_either_2","ACGHHDT7RY1AH","either","6","75","","","","","","","0","0","1","0.2289396243","","0.8","0.4","0.6","0.2","","","","","0.1902964731","0.2289396243","0.2182173038","0.1282799478","","","","","","","","74","J","1","","","72","main_expt"
"","bandit","152","493578","0.0-113.0-0.0","45985203","wem/bandit_either_2","ACGHHDT7RY1AH","either","6","177","","","","","","","0","0","1","0.1629952044","","0.8","0.4","0.6","0.2","","","","","0.1764690901","0.2223781067","0.1629952044","0.1113050996","","","","","","","","75","K","2","","","73","main_expt"
"","bandit","153","495336","0.0-114.0-0.0","45985203","wem/bandit_either_2","ACGHHDT7RY1AH","either","6","245","","","","","","","0","0","1","0.2291178652","","0.8","0.4","0.6","0.2","","","","","0.1720288853","0.1664819569","0.2291178652","0.1573287606","","","","","","","","75","K","2","","","74","main_expt"
"","bandit","154","497121","0.0-115.0-0.0","45985203","wem/bandit_either_2","ACGHHDT7RY1AH","either","6","273","","","","","","","0","0","1","","0.168318459","0.8","0.4","0.6","0.2","0.098780463","0.1157276324","0.2087405931","0.168318459","","","","","","","","","","","","76","L","3","","","75","main_expt"
"","bandit","155","498848","0.0-116.0-0.0","45985203","wem/bandit_either_2","ACGHHDT7RY1AH","either","6","215","","","","","","","0","0","1","0.131742089","","0.8","0.4","0.6","0.2","","","","","0.08192786134","0.06912044911","0.1981976751","0.131742089","","","","","","","","76","L","3","","","76","main_expt"
"","bandit","156","500544","0.0-117.0-0.0","45985203","wem/bandit_either_2","ACGHHDT7RY1AH","either","6","185","","","","","","","0","0","1","0.03620126105","","0.8","0.4","0.6","0.2","","","","","0.03620126105","0.06151132513","0.2302368041","0.1382621175","","","","","","","","72","H","0","img/none_selected.jpg","","77","main_expt"
"","bandit","157","502248","0.0-118.0-0.0","45985203","wem/bandit_either_2","ACGHHDT7RY1AH","either","6","191","","","","","","","0","0","1","0.03362754592","","0.8","0.4","0.6","0.2","","","","","0.03362754592","0.08824794056","0.2538269909","0.1351161864","","","","","","","","72","H","0","img/none_selected.jpg","","78","main_expt"
"","bandit","158","504064","0.0-119.0-0.0","45985203","wem/bandit_either_2","ACGHHDT7RY1AH","either","6","303","","","","","","","0","0","1","","0.08425003046","0.8","0.4","0.6","0.2","0.03917851348","0.08425003046","0.221492582","0.1125986002","","","","","","","","","","","","74","J","1","","","79","main_expt"
"","bandit","159","505656","0.0-120.0-0.0","45985203","wem/bandit_either_2","ACGHHDT7RY1AH","either","6","79","","","","","","","0","0","1","","0.1059393704","0.8","0.4","0.6","0.2","0.06916691586","0.1059393704","0.2126184008","0.1071358869","","","","","","","","","","","","74","J","1","","","80","main_expt"
"","bandit","160","507289","0.0-121.0-0.0","45985203","wem/bandit_either_2","ACGHHDT7RY1AH","either","6","120","","","","","","","0","0","1","0.1803612399","","0.8","0.4","0.6","0.2","","","","","0.1110223174","0.114990546","0.1803612399","0.1410751298","","","","","","","","75","K","2","","","81","main_expt"
"","bandit","161","509046","0.0-122.0-0.0","45985203","wem/bandit_either_2","ACGHHDT7RY1AH","either","6","247","","","","","","","0","0","1","0.1883980103","","0.8","0.4","0.6","0.2","","","","","0.08899533144","0.1246300745","0.1883980103","0.1518454263","","","","","","","","75","K","2","","","82","main_expt"
"","bandit","162","510670","0.0-123.0-0.0","45985203","wem/bandit_either_2","ACGHHDT7RY1AH","either","6","113","","","","","","","0","0","1","","0.1285150734","0.8","0.4","0.6","0.2","0.1383499545","0.1523433176","0.2099895667","0.1285150734","","","","","","","","","","","","76","L","3","","","83","main_expt"
"","bandit","163","512441","0.0-124.0-0.0","45985203","wem/bandit_either_2","ACGHHDT7RY1AH","either","6","258","","","","","","","0","0","1","","0.1083679187","0.8","0.4","0.6","0.2","0.1815119679","0.1230513595","0.1760666055","0.1083679187","","","","","","","","","","","","76","L","3","","","84","main_expt"
"","bandit","164","514192","0.0-125.0-0.0","45985203","wem/bandit_either_2","ACGHHDT7RY1AH","either","6","239","","","","","","","0","0","1","","0.08985983991","0.8","0.4","0.6","0.2","0.2121304898","0.1460595132","0.2077415988","0.08985983991","","","","","","","","","","","","76","L","3","","","85","main_expt"
"","bandit","165","515959","0.0-126.0-0.0","45985203","wem/bandit_either_2","ACGHHDT7RY1AH","either","6","255","","","","","","","1","0","0","0.1940704576","","0.8","0.4","0.6","0.2","","","","","0.1931166697","0.1578730034","0.1940704576","0.08377758623","","","","","","","","75","K","2","","","86","main_expt"
"","bandit","166","517717","0.0-127.0-0.0","45985203","wem/bandit_either_2","ACGHHDT7RY1AH","either","6","245","","","","","","","0","0","1","","0.1920524506","0.8","0.4","0.6","0.2","0.1908876969","0.1329566931","0.1920524506","0.08340742779","","","","","","","","","","","","75","K","2","","","87","main_expt"
"","bandit","167","519401","0.0-128.0-0.0","45985203","wem/bandit_either_2","ACGHHDT7RY1AH","either","6","171","","","","","","","0","0","1","","0.2525081946","0.8","0.4","0.6","0.2","0.1727332377","0.1156353122","0.2525081946","0.06937011617","","","","","","","","","","","","75","K","2","","","88","main_expt"
"","bandit","168","521162","0.0-129.0-0.0","45985203","wem/bandit_either_2","ACGHHDT7RY1AH","either","6","245","","","","","","","0","0","1","","0.2476280913","0.8","0.4","0.6","0.2","0.1747664758","0.1169245856","0.2476280913","0.08556693901","","","","","","","","","","","","75","K","2","","","89","main_expt"
"","bandit","169","522926","0.0-130.0-0.0","45985203","wem/bandit_either_2","ACGHHDT7RY1AH","either","6","255","","","","","","","0","0","1","","0.1276927611","0.8","0.4","0.6","0.2","0.1302891894","0.1276927611","0.2476417222","0.1013294801","","","","","","","","","","","","74","J","1","","","90","main_expt"
"","bandit","170","524657","0.0-131.0-0.0","45985203","wem/bandit_either_2","ACGHHDT7RY1AH","either","6","219","","","","","","","0","1","0","","0.1633868825","0.8","0.4","0.6","0.2","0.1143331172","0.1633868825","0.1875867431","0.1567130635","","","","","","","","","","","","74","J","1","","","91","main_expt"
"","bandit","171","526408","0.0-132.0-0.0","45985203","wem/bandit_either_2","ACGHHDT7RY1AH","either","6","239","","","","","","","1","0","0","0.2172033847","","0.8","0.4","0.6","0.2","","","","","0.1674068059","0.2172033847","0.1804963823","0.1214255195","","","","","","","","74","J","1","","","92","main_expt"
"","bandit","172","528119","0.0-133.0-0.0","45985203","wem/bandit_either_2","ACGHHDT7RY1AH","either","6","197","","","","","","","0","1","0","","0.2178255547","0.8","0.4","0.6","0.2","0.1405005834","0.2178255547","0.1468121695","0.1317465968","","","","","","","","","","","","74","J","1","","","93","main_expt"
"","bandit","173","529863","0.0-134.0-0.0","45985203","wem/bandit_either_2","ACGHHDT7RY1AH","either","6","230","","","","","","","0","0","1","0.2058786334","","0.8","0.4","0.6","0.2","","","","","0.1338278818","0.2058786334","0.1270151289","0.1810196293","","","","","","","","74","J","1","","","94","main_expt"
"","bandit","174","531535","0.0-135.0-0.0","45985203","wem/bandit_either_2","ACGHHDT7RY1AH","either","6","160","","","","","","","0","0","1","0.2009860572","","0.8","0.4","0.6","0.2","","","","","0.16416917","0.2009860572","0.1049494322","0.1537803575","","","","","","","","74","J","1","","","95","main_expt"
"","bandit","175","533271","0.0-136.0-0.0","45985203","wem/bandit_either_2","ACGHHDT7RY1AH","either","6","225","","","","","","","0","0","1","","0.2792576191","0.8","0.4","0.6","0.2","0.1075549125","0.2792576191","0.1242023773","0.2255368078","","","","","","","","","","","","74","J","1","","","96","main_expt"
"","bandit","176","534880","0.0-137.0-0.0","45985203","wem/bandit_either_2","ACGHHDT7RY1AH","either","6","96","","","","","","","0","0","1","0.07285617598","","0.8","0.4","0.6","0.2","","","","","0.07285617598","0.291042229","0.101802889","0.1881791955","","","","","","","","72","H","0","img/none_selected.jpg","","97","main_expt"
"","bandit","177","536404","0.0-138.0-0.0","45985203","wem/bandit_either_2","ACGHHDT7RY1AH","either","6","12","","","","","","","0","0","1","","0.1128802937","0.8","0.4","0.6","0.2","0.1128802937","0.2919937097","0.08559904752","0.1722186849","","","","","","","","","","","","72","H","0","img/none_selected.jpg","","98","main_expt"
"","bandit","178","537993","0.0-139.0-0.0","45985203","wem/bandit_either_2","ACGHHDT7RY1AH","either","6","73","","","","","","","0","0","1","","0.338066437","0.8","0.4","0.6","0.2","0.07338875894","0.338066437","0.04480153982","0.2581810796","","","","","","","","","","","","74","J","1","","","99","main_expt"
"","bandit","179","539766","0.0-140.0-0.0","45985203","wem/bandit_either_2","ACGHHDT7RY1AH","either","6","261","","","","","","","0","1","0","","0.3466775547","0.8","0.4","0.6","0.2","0.06256672301","0.3466775547","0.03694367041","0.3094702251","","","","","","","","","","","","74","J","1","","","100","main_expt"
"","bandit","180","541478","0.0-141.0-0.0","45985203","wem/bandit_either_2","ACGHHDT7RY1AH","either","6","200","","","","","","","0","0","1","","0.3776837944","0.8","0.4","0.6","0.2","0.06765033746","0.3776837944","0.02534596886","0.3217449289","","","","","","","","","","","","74","J","1","","","101","main_expt"
"","bandit","181","543085","0.0-142.0-0.0","45985203","wem/bandit_either_2","ACGHHDT7RY1AH","either","6","95","","","","","","","0","0","1","0.3988278911","","0.8","0.4","0.6","0.2","","","","","0.08460413752","0.3988278911","0.03456503798","0.3656493725","","","","","","","","74","J","1","","","102","main_expt"
"","bandit","182","544839","0.0-143.0-0.0","45985203","wem/bandit_either_2","ACGHHDT7RY1AH","either","6","241","","","","","","","0","0","1","0.03116272615","","0.8","0.4","0.6","0.2","","","","","0.1149622558","0.3642388176","0.03116272615","0.4097417878","","","","","","","","75","K","2","","","103","main_expt"
"","bandit","183","546624","0.0-144.0-0.0","45985203","wem/bandit_either_2","ACGHHDT7RY1AH","either","6","273","","","","","","","0","0","1","0.04034009898","","0.8","0.4","0.6","0.2","","","","","0.1223821921","0.3059376685","0.04034009898","0.4005896235","","","","","","","","75","K","2","","","104","main_expt"
"","bandit","184","548327","0.0-145.0-0.0","45985203","wem/bandit_either_2","ACGHHDT7RY1AH","either","6","189","","","","","","","0","0","1","0.06132200156","","0.8","0.4","0.6","0.2","","","","","0.1302837569","0.2658022239","0.06132200156","0.3967946647","","","","","","","","75","K","2","","","105","main_expt"
"","bandit","185","549919","0.0-146.0-0.0","45985203","wem/bandit_either_2","ACGHHDT7RY1AH","either","6","79","","","","","","","0","0","1","","0.3920329447","0.8","0.4","0.6","0.2","0.1405927316","0.2583534607","0.03171667797","0.3920329447","","","","","","","","","","","","76","L","3","","","106","main_expt"
"","bandit","186","551518","0.0-147.0-0.0","45985203","wem/bandit_either_2","ACGHHDT7RY1AH","either","6","86","","","","","","","0","0","1","","0.3973329777","0.8","0.4","0.6","0.2","0.1835021143","0.2402432731","0.06603394544","0.3973329777","","","","","","","","","","","","76","L","3","","","107","main_expt"
"","bandit","187","553295","0.0-148.0-0.0","45985203","wem/bandit_either_2","ACGHHDT7RY1AH","either","6","266","","","","","","","0","0","1","","0.3839010997","0.8","0.4","0.6","0.2","0.2124513917","0.2364509509","0.08137973005","0.3839010997","","","","","","","","","","","","76","L","3","","","108","main_expt"
"","bandit","188","554822","0.0-149.0-0.0","45985203","wem/bandit_either_2","ACGHHDT7RY1AH","either","6","16","","","","","","","0","0","1","0.04765661509","","0.8","0.4","0.6","0.2","","","","","0.218007314","0.2164051194","0.04765661509","0.3879107289","","","","","","","","75","K","2","","","109","main_expt"
"","bandit","189","556623","0.0-150.0-0.0","45985203","wem/bandit_either_2","ACGHHDT7RY1AH","either","6","289","","","","","","","0","0","1","0.06789381979","","0.8","0.4","0.6","0.2","","","","","0.229469423","0.1611838666","0.06789381979","0.3989855113","","","","","","","","75","K","2","","","110","main_expt"
"","bandit","190","558287","0.0-151.0-0.0","45985203","wem/bandit_either_2","ACGHHDT7RY1AH","either","6","153","","","","","","","0","0","1","","0.2042622235","0.8","0.4","0.6","0.2","0.2923436213","0.2042622235","0.08972795074","0.3959495959","","","","","","","","","","","","74","J","1","","","111","main_expt"
"","bandit","191","560031","0.0-152.0-0.0","45985203","wem/bandit_either_2","ACGHHDT7RY1AH","either","6","228","","","","","","","0","0","1","0.2113733305","","0.8","0.4","0.6","0.2","","","","","0.2778802509","0.2113733305","0.1176683061","0.335596647","","","","","","","","74","J","1","","","112","main_expt"
"","bandit","192","561798","0.0-153.0-0.0","45985203","wem/bandit_either_2","ACGHHDT7RY1AH","either","6","254","","","","","","","1","0","0","0.2852166322","","0.8","0.4","0.6","0.2","","","","","0.2852166322","0.220236308","0.1973953549","0.2876347753","","","","","","","","72","H","0","img/none_selected.jpg","","113","main_expt"
"","bandit","193","563590","0.0-154.0-0.0","45985203","wem/bandit_either_2","ACGHHDT7RY1AH","either","6","279","","","","","","","1","0","0","0.3222351196","","0.8","0.4","0.6","0.2","","","","","0.3222351196","0.2453392608","0.200840576","0.2811359795","","","","","","","","72","H","0","img/none_selected.jpg","","114","main_expt"
"","bandit","194","565360","0.0-155.0-0.0","45985203","wem/bandit_either_2","ACGHHDT7RY1AH","either","6","256","","","","","","","0","0","1","0.2865303103","","0.8","0.4","0.6","0.2","","","","","0.2865303103","0.2311931225","0.2544006126","0.2056035349","","","","","","","","72","H","0","img/none_selected.jpg","","115","main_expt"
"","bandit","195","567187","0.0-156.0-0.0","45985203","wem/bandit_either_2","ACGHHDT7RY1AH","either","6","316","","","","","","","0","0","1","0.1901772154","","0.8","0.4","0.6","0.2","","","","","0.1901772154","0.2290532582","0.2264812366","0.2435386161","","","","","","","","72","H","0","img/none_selected.jpg","","116","main_expt"
"","bandit","196","569198","0.0-157.0-0.0","45985203","wem/bandit_either_2","ACGHHDT7RY1AH","either","6","499","","","","","","","0","0","1","0.2610634121","","0.8","0.4","0.6","0.2","","","","","0.1854727963","0.2610634121","0.2535822563","0.2523066444","","","","","","","","74","J","1","","","117","main_expt"
"","bandit","197","570820","0.0-158.0-0.0","45985203","wem/bandit_either_2","ACGHHDT7RY1AH","either","6","109","","","","","","","0","0","1","","0.2915584027","0.8","0.4","0.6","0.2","0.223078523","0.2915584027","0.288462609","0.258758296","","","","","","","","","","","","74","J","1","","","118","main_expt"
"","bandit","198","572716","0.0-159.0-0.0","45985203","wem/bandit_either_2","ACGHHDT7RY1AH","either","6","384","","","","","","","0","0","1","0.3077733757","","0.8","0.4","0.6","0.2","","","","","0.2157898803","0.3240034744","0.3077733757","0.2513882557","","","","","","","","75","K","2","","","119","main_expt"
"","bandit","199","574478","0.0-160.0-0.0","45985203","wem/bandit_either_2","ACGHHDT7RY1AH","either","6","249","","","","","","","0","0","1","","0.3470363664","0.8","0.4","0.6","0.2","0.2055853597","0.3584552205","0.3470363664","0.2178230887","","","","","","","","","","","","75","K","2","","","120","main_expt"
"","bandit","200","576214","0.0-161.0-0.0","45985203","wem/bandit_either_2","ACGHHDT7RY1AH","either","6","225","","","","","","","0","0","1","","0.2249913612","0.8","0.4","0.6","0.2","0.2308362602","0.3392259721","0.36369082","0.2249913612","","","","","","","","","","","","76","L","3","","","121","main_expt"
"","bandit","201","578056","0.0-162.0-0.0","45985203","wem/bandit_either_2","ACGHHDT7RY1AH","either","6","326","","","","","","","0","0","1","","0.2135386538","0.8","0.4","0.6","0.2","0.1858821776","0.3211990091","0.3740977319","0.2135386538","","","","","","","","","","","","76","L","3","","","122","main_expt"
"","bandit","202","579843","0.0-163.0-0.0","45985203","wem/bandit_either_2","ACGHHDT7RY1AH","either","6","275","","","","","","","1","0","0","0.1948645322","","0.8","0.4","0.6","0.2","","","","","0.1948645322","0.3082515077","0.3617230251","0.2742148462","","","","","","","","72","H","0","img/none_selected.jpg","","123","main_expt"
"","bandit","203","581614","0.0-164.0-0.0","45985203","wem/bandit_either_2","ACGHHDT7RY1AH","either","6","258","","","","","","","0","0","1","0.1875433284","","0.8","0.4","0.6","0.2","","","","","0.1875433284","0.3337980485","0.3189133642","0.3092488957","","","","","","","","72","H","0","img/none_selected.jpg","","124","main_expt"
"","bandit","204","583550","0.0-165.0-0.0","45985203","wem/bandit_either_2","ACGHHDT7RY1AH","either","6","423","","","","","","","1","0","0","0.1805360773","","0.8","0.4","0.6","0.2","","","","","0.1805360773","0.2815584253","0.3134342975","0.2832498899","","","","","","","","72","H","0","img/none_selected.jpg","","125","main_expt"
"","bandit","205","585341","0.0-166.0-0.0","45985203","wem/bandit_either_2","ACGHHDT7RY1AH","either","6","278","","","","","","","0","0","1","0.2199741614","","0.8","0.4","0.6","0.2","","","","","0.2199741614","0.2544389989","0.2889117865","0.321902755","","","","","","","","72","H","0","img/none_selected.jpg","","126","main_expt"
"","bandit","206","586949","0.0-167.0-0.0","45985203","wem/bandit_either_2","ACGHHDT7RY1AH","either","6","96","","","","","","","0","0","1","0.212963778","","0.8","0.4","0.6","0.2","","","","","0.212963778","0.217883989","0.3101500906","0.3163630435","","","","","","","","72","H","0","img/none_selected.jpg","","127","main_expt"
"","bandit","207","588717","0.0-168.0-0.0","45985203","wem/bandit_either_2","ACGHHDT7RY1AH","either","6","254","","","","","","","0","0","1","0.1853882534","","0.8","0.4","0.6","0.2","","","","","0.1853882534","0.1941215274","0.3257933697","0.3242789072","","","","","","","","72","H","0","img/none_selected.jpg","","128","main_expt"
"","bandit","208","590613","0.0-169.0-0.0","45985203","wem/bandit_either_2","ACGHHDT7RY1AH","either","6","383","","","","","","","0","0","1","","0.2093197904","0.8","0.4","0.6","0.2","0.1486900389","0.2093197904","0.2767822115","0.3430844202","","","","","","","","","","","","74","J","1","","","129","main_expt"
"","bandit","209","592316","0.0-170.0-0.0","45985203","wem/bandit_either_2","ACGHHDT7RY1AH","either","6","192","","","","","","","1","0","0","0.2325895014","","0.8","0.4","0.6","0.2","","","","","0.1581202816","0.2325895014","0.3389859305","0.3487272729","","","","","","","","74","J","1","","","130","main_expt"
"","bandit","210","594086","0.0-171.0-0.0","45985203","wem/bandit_either_2","ACGHHDT7RY1AH","either","6","255","","","","","","","0","1","0","","0.2680880231","0.8","0.4","0.6","0.2","0.1189605486","0.2680880231","0.2807576759","0.3850752379","","","","","","","","","","","","74","J","1","","","131","main_expt"
"","bandit","211","595821","0.0-172.0-0.0","45985203","wem/bandit_either_2","ACGHHDT7RY1AH","either","6","222","","","","","","","0","1","0","","0.2053564998","0.8","0.4","0.6","0.2","0.08638656351","0.2053564998","0.2044414959","0.3547422913","","","","","","","","","","","","74","J","1","","","132","main_expt"
"","bandit","212","597604","0.0-173.0-0.0","45985203","wem/bandit_either_2","ACGHHDT7RY1AH","either","6","272","","","","","","","0","0","1","0.2102644512","","0.8","0.4","0.6","0.2","","","","","0.104542274","0.2102644512","0.2352631215","0.3256782816","","","","","","","","74","J","1","","","133","main_expt"
"","bandit","213","599710","0.0-174.0-0.0","45985203","wem/bandit_either_2","ACGHHDT7RY1AH","either","6","592","","","","","","","0","0","1","0.2028105977","","0.8","0.4","0.6","0.2","","","","","0.1401790922","0.2028105977","0.2808822736","0.2479378245","","","","","","","","74","J","1","","","134","main_expt"
"","bandit","214","601436","0.0-175.0-0.0","45985203","wem/bandit_either_2","ACGHHDT7RY1AH","either","6","214","","","","","","","0","0","1","0.1556880781","","0.8","0.4","0.6","0.2","","","","","0.1818128853","0.1556880781","0.3053704558","0.24301602","","","","","","","","74","J","1","","","135","main_expt"
"","bandit","215","603174","0.0-176.0-0.0","45985203","wem/bandit_either_2","ACGHHDT7RY1AH","either","6","223","","","","","","","0","0","1","0.3140058771","","0.8","0.4","0.6","0.2","","","","","0.1583738081","0.1428421262","0.3140058771","0.2630427063","","","","","","","","75","K","2","","","136","main_expt"
"","bandit","216","604866","0.0-177.0-0.0","45985203","wem/bandit_either_2","ACGHHDT7RY1AH","either","6","179","","","","","","","0","0","1","","0.3053425806","0.8","0.4","0.6","0.2","0.1497920091","0.1039390038","0.323699752","0.3053425806","","","","","","","","","","","","76","L","3","","","137","main_expt"
"","bandit","217","606502","0.0-178.0-0.0","45985203","wem/bandit_either_2","ACGHHDT7RY1AH","either","6","122","","","","","","","0","0","1","0.1128601551","","0.8","0.4","0.6","0.2","","","","","0.1128601551","0.07132433681","0.3435108126","0.3588623722","","","","","","","","72","H","0","img/none_selected.jpg","","138","main_expt"
"","bandit","218","608042","0.0-179.0-0.0","45985203","wem/bandit_either_2","ACGHHDT7RY1AH","either","6","28","","","","","","","0","0","1","0.1047165976","","0.8","0.4","0.6","0.2","","","","","0.1073604677","0.1047165976","0.3505637202","0.2762704672","","","","","","","","74","J","1","","","139","main_expt"
"","bandit","219","609766","0.0-180.0-0.0","45985203","wem/bandit_either_2","ACGHHDT7RY1AH","either","6","208","","","","","","","0","0","1","","0.4185251601","0.8","0.4","0.6","0.2","0.1376710563","0.09043849554","0.4185251601","0.2475753012","","","","","","","","","","","","75","K","2","","","140","main_expt"
"","bandit","220","611437","0.0-181.0-0.0","45985203","wem/bandit_either_2","ACGHHDT7RY1AH","either","6","157","","","","","","","0","0","1","","0.2436306075","0.8","0.4","0.6","0.2","0.1412662962","0.05096505815","0.4225289085","0.2436306075","","","","","","","","","","","","76","L","3","","","141","main_expt"
"","bandit","221","613068","0.0-182.0-0.0","45985203","wem/bandit_either_2","ACGHHDT7RY1AH","either","6","121","","","","","","","0","0","1","0.1543424817","","0.8","0.4","0.6","0.2","","","","","0.1543424817","0.02973759478","0.455259632","0.1998899021","","","","","","","","72","H","0","img/none_selected.jpg","","142","main_expt"
"","bandit","222","614797","0.0-183.0-0.0","45985203","wem/bandit_either_2","ACGHHDT7RY1AH","either","6","216","","","","","","","0","0","1","","0.04457260366","0.8","0.4","0.6","0.2","0.1552636118","0.04457260366","0.4287003803","0.2568100034","","","","","","","","","","","","74","J","1","","","143","main_expt"
"","bandit","223","616563","0.0-184.0-0.0","45985203","wem/bandit_either_2","ACGHHDT7RY1AH","either","6","253","","","","","","","0","0","1","","0.4260506414","0.8","0.4","0.6","0.2","0.2241753426","0.04060115041","0.4260506414","0.2859833531","","","","","","","","","","","","75","K","2","","","144","main_expt"
"","bandit","224","618243","0.0-185.0-0.0","45985203","wem/bandit_either_2","ACGHHDT7RY1AH","either","6","165","","","","","","","0","0","1","","0.2080640158","0.8","0.4","0.6","0.2","0.2484131349","0.06712401514","0.4202170594","0.2080640158","","","","","","","","","","","","76","L","3","","","145","main_expt"
"","bandit","225","619922","0.0-186.0-0.0","45985203","wem/bandit_either_2","ACGHHDT7RY1AH","either","6","167","","","","","","","0","0","1","0.2905032103","","0.8","0.4","0.6","0.2","","","","","0.2905032103","0.08780921534","0.4333226383","0.2469639643","","","","","","","","72","H","0","img/none_selected.jpg","","146","main_expt"
"","bandit","226","621542","0.0-187.0-0.0","45985203","wem/bandit_either_2","ACGHHDT7RY1AH","either","6","102","","","","","","","0","0","1","0.1333368233","","0.8","0.4","0.6","0.2","","","","","0.2846703457","0.1333368233","0.4340954059","0.2169279296","","","","","","","","74","J","1","","","147","main_expt"
"","bandit","227","623287","0.0-188.0-0.0","45985203","wem/bandit_either_2","ACGHHDT7RY1AH","either","6","230","","","","","","","0","1","0","","0.3903754431","0.8","0.4","0.6","0.2","0.3010433131","0.09264147873","0.3903754431","0.1248284812","","","","","","","","","","","","75","K","2","","","148","main_expt"
"","bandit","228","624997","0.0-189.0-0.0","45985203","wem/bandit_either_2","ACGHHDT7RY1AH","either","6","196","","","","","","","0","1","0","","0.4161192262","0.8","0.4","0.6","0.2","0.3421268102","0.123708687","0.4161192262","0.1498862571","","","","","","","","","","","","75","K","2","","","149","main_expt"
"","bandit","229","626772","0.0-190.0-0.0","45985203","wem/bandit_either_2","ACGHHDT7RY1AH","either","6","261","","","","","","","1","0","0","0.4545257836","","0.8","0.4","0.6","0.2","","","","","0.3382865341","0.1087811601","0.4545257836","0.2044632824","","","","","","","","75","K","2","","","150","main_expt"
"","bandit","230","628452","0.0-191.0-0.0","45985203","wem/bandit_either_2","ACGHHDT7RY1AH","either","6","166","","","","","","","1","0","0","0.4553704948","","0.8","0.4","0.6","0.2","","","","","0.3031951358","0.1640336927","0.4553704948","0.1630699797","","","","","","","","75","K","2","","","151","main_expt"
"","bandit","231","630136","0.0-192.0-0.0","45985203","wem/bandit_either_2","ACGHHDT7RY1AH","either","6","166","","","","","","","0","0","1","0.4692720684","","0.8","0.4","0.6","0.2","","","","","0.3163498213","0.1474195158","0.4692720684","0.1534962237","","","","","","","","75","K","2","","","152","main_expt"
"","bandit","232","631827","0.0-193.0-0.0","45985203","wem/bandit_either_2","ACGHHDT7RY1AH","either","6","179","","","","","","","0","0","1","","0.1506701345","0.8","0.4","0.6","0.2","0.3205280093","0.1200421148","0.4794448159","0.1506701345","","","","","","","","","","","","76","L","3","","","153","main_expt"
"","bandit","233","633486","0.0-194.0-0.0","45985203","wem/bandit_either_2","ACGHHDT7RY1AH","either","6","144","","","","","","","0","0","1","0.2780981807","","0.8","0.4","0.6","0.2","","","","","0.2780981807","0.1295208369","0.4762011242","0.1810992197","","","","","","","","72","H","0","img/none_selected.jpg","","154","main_expt"
"","bandit","234","635151","0.0-195.0-0.0","45985203","wem/bandit_either_2","ACGHHDT7RY1AH","either","6","151","","","","","","","0","0","1","0.1189574303","","0.8","0.4","0.6","0.2","","","","","0.2543788853","0.1189574303","0.4797315341","0.2574031695","","","","","","","","74","J","1","","","155","main_expt"
"","bandit","235","637381","0.0-196.0-0.0","45985203","wem/bandit_either_2","ACGHHDT7RY1AH","either","6","717","","","","","","","1","0","0","0.4815153028","","0.8","0.4","0.6","0.2","","","","","0.2601772157","0.1511338071","0.4815153028","0.1838662476","","","","","","","","75","K","2","","","156","main_expt"
"","bandit","236","639113","0.0-197.0-0.0","45985203","wem/bandit_either_2","ACGHHDT7RY1AH","either","6","221","","","","","","","0","0","1","0.4769669351","","0.8","0.4","0.6","0.2","","","","","0.27050514","0.1494559257","0.4769669351","0.1951262555","","","","","","","","75","K","2","","","157","main_expt"
"","bandit","237","640764","0.0-198.0-0.0","45985203","wem/bandit_either_2","ACGHHDT7RY1AH","either","6","137","","","","","","","0","0","1","0.4819637572","","0.8","0.4","0.6","0.2","","","","","0.2912044809","0.1398300683","0.4819637572","0.1711173681","","","","","","","","75","K","2","","","158","main_expt"
"","bandit","238","642466","0.0-199.0-0.0","45985203","wem/bandit_either_2","ACGHHDT7RY1AH","either","6","190","","","","","","","0","0","1","","0.1262927185","0.8","0.4","0.6","0.2","0.2863852675","0.1482700517","0.4802617926","0.1262927185","","","","","","","","","","","","76","L","3","","","159","main_expt"
"","bandit","239","644252","0.0-200.0-0.0","45985203","wem/bandit_either_2","ACGHHDT7RY1AH","either","6","272","","","","","","","0","0","1","0.3188379944","","0.8","0.4","0.6","0.2","","","","","0.3188379944","0.1327856751","0.4834703177","0.1289005464","","","","","","","","72","H","0","img/none_selected.jpg","","160","main_expt"
"","bandit","240","645973","0.0-201.0-0.0","45985203","wem/bandit_either_2","ACGHHDT7RY1AH","either","6","207","","","","","","","0","1","0","","0.1936248495","0.8","0.4","0.6","0.2","0.3918259889","0.1936248495","0.4783639554","0.07062595825","","","","","","","","","","","","74","J","1","","","161","main_expt"
"","bandit","241","647661","0.0-202.0-0.0","45985203","wem/bandit_either_2","ACGHHDT7RY1AH","either","6","174","","","","","","","0","0","1","","0.1917288119","0.8","0.4","0.6","0.2","0.3825352776","0.1917288119","0.4702379588","0.08554885259","","","","","","","","","","","","74","J","1","","","162","main_expt"
"","bandit","242","649395","0.0-203.0-0.0","45985203","wem/bandit_either_2","ACGHHDT7RY1AH","either","6","219","","","","","","","0","0","1","0.2410074379","","0.8","0.4","0.6","0.2","","","","","0.3500114378","0.2410074379","0.4761999765","0.05790820845","","","","","","","","74","J","1","","","163","main_expt"
"","bandit","243","650963","0.0-204.0-0.0","45985203","wem/bandit_either_2","ACGHHDT7RY1AH","either","6","54","","","","","","","0","0","1","0.2717164652","","0.8","0.4","0.6","0.2","","","","","0.3138306729","0.2717164652","0.4683988395","0.04744410613","","","","","","","","74","J","1","","","164","main_expt"
"","bandit","244","652734","0.0-205.0-0.0","45985203","wem/bandit_either_2","ACGHHDT7RY1AH","either","6","258","","","","","","","1","0","0","0.4594806004","","0.8","0.4","0.6","0.2","","","","","0.3066591237","0.3360488911","0.4594806004","0.07721988326","","","","","","","","75","K","2","","","165","main_expt"
"","bandit","245","654422","0.0-206.0-0.0","45985203","wem/bandit_either_2","ACGHHDT7RY1AH","either","6","174","","","","","","","0","0","1","0.4769271284","","0.8","0.4","0.6","0.2","","","","","0.359337808","0.3288768439","0.4769271284","0.09276645858","","","","","","","","75","K","2","","","166","main_expt"
"","bandit","246","656170","0.0-207.0-0.0","45985203","wem/bandit_either_2","ACGHHDT7RY1AH","either","6","235","","","","","","","0","1","0","","0.4824675089","0.8","0.4","0.6","0.2","0.3888119778","0.341079324","0.4824675089","0.1092251717","","","","","","","","","","","","75","K","2","","","167","main_expt"
"","bandit","247","657826","0.0-208.0-0.0","45985203","wem/bandit_either_2","ACGHHDT7RY1AH","either","6","141","","","","","","","0","0","1","0.4731218304","","0.8","0.4","0.6","0.2","","","","","0.3188253523","0.2972081376","0.4731218304","0.09704797424","","","","","","","","75","K","2","","","168","main_expt"
"","bandit","248","659413","0.0-209.0-0.0","45985203","wem/bandit_either_2","ACGHHDT7RY1AH","either","6","72","","","","","","","1","0","0","0.4558692975","","0.8","0.4","0.6","0.2","","","","","0.3035082617","0.2716537329","0.4558692975","0.1131958007","","","","","","","","75","K","2","","","169","main_expt"
"","bandit","249","661019","0.0-210.0-0.0","45985203","wem/bandit_either_2","ACGHHDT7RY1AH","either","6","91","","","","","","","0","1","0","","0.424927817","0.8","0.4","0.6","0.2","0.3540810543","0.3705489528","0.424927817","0.1636150477","","","","","","","","","","","","75","K","2","","","170","main_expt"
"","bandit","250","662636","0.0-211.0-0.0","45985203","wem/bandit_either_2","ACGHHDT7RY1AH","either","6","106","","","","","","","0","0","1","0.4254050478","","0.8","0.4","0.6","0.2","","","","","0.2912941695","0.3259531709","0.4254050478","0.1889182236","","","","","","","","75","K","2","","","171","main_expt"
"","bandit","251","664380","0.0-212.0-0.0","45985203","wem/bandit_either_2","ACGHHDT7RY1AH","either","6","229","","","","","","","0","0","1","","0.4319935488","0.8","0.4","0.6","0.2","0.2964718019","0.3253578443","0.4319935488","0.1494540944","","","","","","","","","","","","75","K","2","","","172","main_expt"
"","bandit","252","666081","0.0-213.0-0.0","45985203","wem/bandit_either_2","ACGHHDT7RY1AH","either","6","191","","","","","","","0","1","0","","0.1700291406","0.8","0.4","0.6","0.2","0.2411205861","0.3133285256","0.4157756128","0.1700291406","","","","","","","","","","","","76","L","3","","","173","main_expt"
"","bandit","253","667837","0.0-214.0-0.0","45985203","wem/bandit_either_2","ACGHHDT7RY1AH","either","6","241","","","","","","","0","1","0","","0.2007600912","0.8","0.4","0.6","0.2","0.2132737127","0.3470844982","0.3650518631","0.2007600912","","","","","","","","","","","","76","L","3","","","174","main_expt"
"","bandit","254","669672","0.0-215.0-0.0","45985203","wem/bandit_either_2","ACGHHDT7RY1AH","either","6","322","","","","","","","0","0","1","0.1613291475","","0.8","0.4","0.6","0.2","","","","","0.2722172758","0.3615725976","0.3583375904","0.1613291475","","","","","","","","76","L","3","","","175","main_expt"
"","bandit","255","671187","0.0-216.0-0.0","45985203","wem/bandit_either_2","ACGHHDT7RY1AH","either","6","1","","","","","","","1","0","0","0.3158297255","","0.8","0.4","0.6","0.2","","","","","0.3158297255","0.3592449917","0.3849487833","0.1618540135","","","","","","","","72","H","0","img/none_selected.jpg","","176","main_expt"
"","bandit","256","672955","0.0-217.0-0.0","45985203","wem/bandit_either_2","ACGHHDT7RY1AH","either","6","256","","","","","","","0","0","1","","0.3033070912","0.8","0.4","0.6","0.2","0.3033070912","0.3614776984","0.3741193846","0.1337509382","","","","","","","","","","","","72","H","0","img/none_selected.jpg","","177","main_expt"
"","bandit","257","674578","0.0-218.0-0.0","45985203","wem/bandit_either_2","ACGHHDT7RY1AH","either","6","109","","","","","","","0","0","1","0.172909152","","0.8","0.4","0.6","0.2","","","","","0.3070990366","0.4042649322","0.3704436283","0.172909152","","","","","","","","76","L","3","","","178","main_expt"
"","bandit","258","676213","0.0-219.0-0.0","45985203","wem/bandit_either_2","ACGHHDT7RY1AH","either","6","119","","","","","","","1","0","0","0.349206168","","0.8","0.4","0.6","0.2","","","","","0.349206168","0.3626499081","0.3718647044","0.2306318455","","","","","","","","72","H","0","img/none_selected.jpg","","179","main_expt"
"","bandit","259","677947","0.0-220.0-0.0","45985203","wem/bandit_either_2","ACGHHDT7RY1AH","either","6","221","","","","","","","0","0","1","0.3533593609","","0.8","0.4","0.6","0.2","","","","","0.3533593609","0.365831292","0.3144845341","0.2531752843","","","","","","","","72","H","0","img/none_selected.jpg","","180","main_expt"
"","bandit","260","679668","0.0-221.0-0.0","45985203","wem/bandit_either_2","ACGHHDT7RY1AH","either","6","206","","","","","","","0","0","1","0.3792633926","","0.8","0.4","0.6","0.2","","","","","0.3792633926","0.3720079561","0.3328992573","0.2995137733","","","","","","","","72","H","0","img/none_selected.jpg","","181","main_expt"
"","bandit","261","681340","0.0-222.0-0.0","45985203","wem/bandit_either_2","ACGHHDT7RY1AH","either","6","157","","","","","","","0","0","1","0.3747751333","","0.8","0.4","0.6","0.2","","","","","0.4170401524","0.3747751333","0.3443004049","0.2818604164","","","","","","","","74","J","1","","","182","main_expt"
"","bandit","262","682956","0.0-223.0-0.0","45985203","wem/bandit_either_2","ACGHHDT7RY1AH","either","6","102","","","","","","","1","0","0","0.3572445505","","0.8","0.4","0.6","0.2","","","","","0.4349898381","0.3772869326","0.3572445505","0.2706787236","","","","","","","","75","K","2","","","183","main_expt"
"","bandit","263","684660","0.0-224.0-0.0","45985203","wem/bandit_either_2","ACGHHDT7RY1AH","either","6","189","","","","","","","0","0","1","","0.358140682","0.8","0.4","0.6","0.2","0.4355724899","0.3719200221","0.358140682","0.2788381055","","","","","","","","","","","","75","K","2","","","184","main_expt"
"","bandit","264","686291","0.0-225.0-0.0","45985203","wem/bandit_either_2","ACGHHDT7RY1AH","either","6","118","","","","","","","0","0","1","","0.2591604306","0.8","0.4","0.6","0.2","0.443517249","0.3759280431","0.2938856532","0.2591604306","","","","","","","","","","","","76","L","3","","","185","main_expt"
"","bandit","265","688027","0.0-226.0-0.0","45985203","wem/bandit_either_2","ACGHHDT7RY1AH","either","6","221","","","","","","","1","0","0","0.2570442146","","0.8","0.4","0.6","0.2","","","","","0.4185550765","0.3686405037","0.2570442146","0.1717283936","","","","","","","","75","K","2","","","186","main_expt"
"","bandit","266","689756","0.0-227.0-0.0","45985203","wem/bandit_either_2","ACGHHDT7RY1AH","either","6","214","","","","","","","0","0","1","0.2781151114","","0.8","0.4","0.6","0.2","","","","","0.4582246802","0.3693778387","0.2781151114","0.1399016055","","","","","","","","75","K","2","","","187","main_expt"
"","bandit","267","691427","0.0-228.0-0.0","45985203","wem/bandit_either_2","ACGHHDT7RY1AH","either","6","156","","","","","","","0","1","0","","0.2510368257","0.8","0.4","0.6","0.2","0.4499637214","0.3858781765","0.2510368257","0.116743447","","","","","","","","","","","","75","K","2","","","188","main_expt"
"","bandit","268","693180","0.0-229.0-0.0","45985203","wem/bandit_either_2","ACGHHDT7RY1AH","either","6","238","","","","","","","0","0","1","0.2299291889","","0.8","0.4","0.6","0.2","","","","","0.4681283031","0.353665234","0.2299291889","0.09810356538","","","","","","","","75","K","2","","","189","main_expt"
"","bandit","269","694932","0.0-230.0-0.0","45985203","wem/bandit_either_2","ACGHHDT7RY1AH","either","6","236","","","","","","","0","0","1","","0.2957770397","0.8","0.4","0.6","0.2","0.4672384316","0.3702546744","0.2957770397","0.1333212727","","","","","","","","","","","","75","K","2","","","190","main_expt"
"","bandit","270","696709","0.0-231.0-0.0","45985203","wem/bandit_either_2","ACGHHDT7RY1AH","either","6","261","","","","","","","0","0","1","","0.2806998676","0.8","0.4","0.6","0.2","0.4633056668","0.3373283559","0.2806998676","0.07289491444","","","","","","","","","","","","75","K","2","","","191","main_expt"
"","bandit","271","698530","0.0-232.0-0.0","45985203","wem/bandit_either_2","ACGHHDT7RY1AH","either","6","307","","","","","","","1","0","0","0.4701423021","","0.8","0.4","0.6","0.2","","","","","0.4701423021","0.3717228864","0.2578649702","0.09060717316","","","","","","","","72","H","0","img/none_selected.jpg","","192","main_expt"
"","bandit","272","700291","0.0-233.0-0.0","45985203","wem/bandit_either_2","ACGHHDT7RY1AH","either","6","248","","","","","","","1","0","0","0.4625827917","","0.8","0.4","0.6","0.2","","","","","0.4625827917","0.3861484819","0.3019093773","0.1038106097","","","","","","","","72","H","0","img/none_selected.jpg","","193","main_expt"
"","bandit","273","702099","0.0-234.0-0.0","45985203","wem/bandit_either_2","ACGHHDT7RY1AH","either","6","292","","","","","","","1","0","0","0.4480064119","","0.8","0.4","0.6","0.2","","","","","0.4480064119","0.3884838939","0.3028603149","0.1222204007","","","","","","","","72","H","0","img/none_selected.jpg","","194","main_expt"
"","bandit","274","703884","0.0-235.0-0.0","45985203","wem/bandit_either_2","ACGHHDT7RY1AH","either","6","271","","","","","","","1","0","0","0.4263193963","","0.8","0.4","0.6","0.2","","","","","0.4263193963","0.4058549971","0.2933095063","0.1230179676","","","","","","","","72","H","0","img/none_selected.jpg","","195","main_expt"
"","bandit","275","705699","0.0-236.0-0.0","45985203","wem/bandit_either_2","ACGHHDT7RY1AH","either","6","300","","","","","","","1","0","0","0.4399191733","","0.8","0.4","0.6","0.2","","","","","0.4399191733","0.3894648227","0.3333663608","0.1972068901","","","","","","","","72","H","0","img/none_selected.jpg","","196","main_expt"
"","bandit","276","707466","0.0-237.0-0.0","45985203","wem/bandit_either_2","ACGHHDT7RY1AH","either","6","254","","","","","","","1","0","0","0.4303685687","","0.8","0.4","0.6","0.2","","","","","0.4303685687","0.3452919481","0.3472763543","0.2091218652","","","","","","","","72","H","0","img/none_selected.jpg","","197","main_expt"
"","bandit","277","709307","0.0-238.0-0.0","45985203","wem/bandit_either_2","ACGHHDT7RY1AH","either","6","327","","","","","","","0","0","1","0.4166638701","","0.8","0.4","0.6","0.2","","","","","0.4166638701","0.3571156804","0.3420385624","0.2316117542","","","","","","","","72","H","0","img/none_selected.jpg","","198","main_expt"
"","bandit","278","711105","0.0-239.0-0.0","45985203","wem/bandit_either_2","ACGHHDT7RY1AH","either","6","285","","","","","","","0","0","1","0.4166192342","","0.8","0.4","0.6","0.2","","","","","0.4166192342","0.3761278261","0.3009927129","0.1983173389","","","","","","","","72","H","0","img/none_selected.jpg","","199","main_expt"
"","bandit","279","712898","0.0-240.0-0.0","45985203","wem/bandit_either_2","ACGHHDT7RY1AH","either","6","279","","","","","","","1","0","0","0.4065109498","","0.8","0.4","0.6","0.2","","","","","0.4065109498","0.3623939384","0.2834367318","0.2275108597","","","","","","","","72","H","0","img/none_selected.jpg","","200","main_expt"
"","bandit","280","714635","0.0-241.0-0.0","45985203","wem/bandit_either_2","ACGHHDT7RY1AH","either","6","223","","","","","","","1","0","0","0.4210367682","","0.8","0.4","0.6","0.2","","","","","0.4210367682","0.3470966653","0.2305195973","0.2753755663","","","","","","","","72","H","0","img/none_selected.jpg","","201","main_expt"
"","bandit","281","716411","0.0-242.0-0.0","45985203","wem/bandit_either_2","ACGHHDT7RY1AH","either","6","262","","","","","","","1","0","0","0.4059774394","","0.8","0.4","0.6","0.2","","","","","0.4059774394","0.3738670455","0.236439039","0.2867984519","","","","","","","","72","H","0","img/none_selected.jpg","","202","main_expt"
"","bandit","282","718094","0.0-243.0-0.0","45985203","wem/bandit_either_2","ACGHHDT7RY1AH","either","6","169","","","","","","","0","0","1","0.4217634448","","0.8","0.4","0.6","0.2","","","","","0.4217634448","0.4434414113","0.207292508","0.227681123","","","","","","","","72","H","0","img/none_selected.jpg","","203","main_expt"
"","bandit","283","719802","0.0-244.0-0.0","45985203","wem/bandit_either_2","ACGHHDT7RY1AH","either","6","190","","","","","","","0","0","1","0.417590799","","0.8","0.4","0.6","0.2","","","","","0.417590799","0.4363530878","0.2706274655","0.2421814767","","","","","","","","72","H","0","img/none_selected.jpg","","204","main_expt"
"","bandit","284","721546","0.0-245.0-0.0","45985203","wem/bandit_either_2","ACGHHDT7RY1AH","either","6","231","","","","","","","0","0","1","","0.3892328218","0.8","0.4","0.6","0.2","0.3892328218","0.4390009565","0.2688171721","0.2250127273","","","","","","","","","","","","72","H","0","img/none_selected.jpg","","205","main_expt"
"","bandit","285","723201","0.0-246.0-0.0","45985203","wem/bandit_either_2","ACGHHDT7RY1AH","either","6","141","","","","","","","0","1","0","","0.4606838579","0.8","0.4","0.6","0.2","0.3877758809","0.4606838579","0.2774640617","0.2148063869","","","","","","","","","","","","74","J","1","","","206","main_expt"
"","bandit","286","724881","0.0-247.0-0.0","45985203","wem/bandit_either_2","ACGHHDT7RY1AH","either","6","167","","","","","","","1","0","0","0.4679198071","","0.8","0.4","0.6","0.2","","","","","0.3344078408","0.4679198071","0.31303597","0.2370073307","","","","","","","","74","J","1","","","207","main_expt"
"","bandit","287","726617","0.0-248.0-0.0","45985203","wem/bandit_either_2","ACGHHDT7RY1AH","either","6","224","","","","","","","0","1","0","","0.4731710197","0.8","0.4","0.6","0.2","0.3285414067","0.4731710197","0.3187850143","0.1736764344","","","","","","","","","","","","74","J","1","","","208","main_expt"
"","bandit","288","728268","0.0-249.0-0.0","45985203","wem/bandit_either_2","ACGHHDT7RY1AH","either","6","135","","","","","","","0","1","0","","0.472507437","0.8","0.4","0.6","0.2","0.337659841","0.472507437","0.3031297305","0.2033963155","","","","","","","","","","","","74","J","1","","","209","main_expt"
"","bandit","289","729973","0.0-250.0-0.0","45985203","wem/bandit_either_2","ACGHHDT7RY1AH","either","6","187","","","","","","","0","0","1","","0.4759946166","0.8","0.4","0.6","0.2","0.322880172","0.4759946166","0.3593083662","0.1849029676","","","","","","","","","","","","74","J","1","","","210","main_expt"
"","bandit","290","731722","0.0-251.0-0.0","45985203","wem/bandit_either_2","ACGHHDT7RY1AH","either","6","234","","","","","","","0","1","0","","0.4838002785","0.8","0.4","0.6","0.2","0.3440981268","0.4838002785","0.3758292662","0.08033524441","","","","","","","","","","","","74","J","1","","","211","main_expt"
"","bandit","291","733432","0.0-252.0-0.0","45985203","wem/bandit_either_2","ACGHHDT7RY1AH","either","6","195","","","","","","","0","1","0","","0.4871609062","0.8","0.4","0.6","0.2","0.3135232579","0.4871609062","0.3771764803","0.1024936548","","","","","","","","","","","","74","J","1","","","212","main_expt"
"","bandit","292","735178","0.0-253.0-0.0","45985203","wem/bandit_either_2","ACGHHDT7RY1AH","either","6","235","","","","","","","0","1","0","","0.4829725273","0.8","0.4","0.6","0.2","0.328558382","0.4829725273","0.3935517348","0.1380366818","","","","","","","","","","","","74","J","1","","","213","main_expt"
"","bandit","293","736802","0.0-254.0-0.0","45985203","wem/bandit_either_2","ACGHHDT7RY1AH","either","6","108","","","","","","","0","0","1","","0.4742933803","0.8","0.4","0.6","0.2","0.3024402918","0.4742933803","0.3792377037","0.1206441992","","","","","","","","","","","","74","J","1","","","214","main_expt"
"","bandit","294","738370","0.0-255.0-0.0","45985203","wem/bandit_either_2","ACGHHDT7RY1AH","either","6","51","","","","","","","1","0","0","0.4754417465","","0.8","0.4","0.6","0.2","","","","","0.3024001881","0.4754417465","0.3364308411","0.1320715796","","","","","","","","74","J","1","","","215","main_expt"
"","bandit","295","739921","0.0-256.0-0.0","45985203","wem/bandit_either_2","ACGHHDT7RY1AH","either","6","38","","","","","","","0","0","1","","0.4764866221","0.8","0.4","0.6","0.2","0.2975117226","0.4764866221","0.3348871659","0.1152906885","","","","","","","","","","","","74","J","1","","","216","main_expt"
"","bandit","296","741659","0.0-257.0-0.0","45985203","wem/bandit_either_2","ACGHHDT7RY1AH","either","6","223","","","","","","","1","0","0","0.4727866334","","0.8","0.4","0.6","0.2","","","","","0.3331298207","0.4727866334","0.321293363","0.1191406027","","","","","","","","74","J","1","","","217","main_expt"
"","bandit","297","743482","0.0-258.0-0.0","45985203","wem/bandit_either_2","ACGHHDT7RY1AH","either","6","308","","","","","","","0","0","1","0.4664653133","","0.8","0.4","0.6","0.2","","","","","0.2905667849","0.4664653133","0.3530973922","0.1177717736","","","","","","","","74","J","1","","","218","main_expt"
"","bandit","298","745419","0.0-259.0-0.0","45985203","wem/bandit_either_2","ACGHHDT7RY1AH","either","6","422","","","","","","","1","0","0","0.4636837267","","0.8","0.4","0.6","0.2","","","","","0.2701708387","0.4636837267","0.3837093308","0.1178729669","","","","","","","","74","J","1","","","219","main_expt"
"","bandit","299","747179","0.0-260.0-0.0","45985203","wem/bandit_either_2","ACGHHDT7RY1AH","either","6","244","","","","","","","0","0","1","","0.4599900571","0.8","0.4","0.6","0.2","0.2395453957","0.4599900571","0.3651541458","0.1284790336","","","","","","","","","","","","74","J","1","","","220","main_expt"
"","bandit","300","748849","0.0-261.0-0.0","45985203","wem/bandit_either_2","ACGHHDT7RY1AH","either","6","153","","","","","","","1","0","0","0.4490722186","","0.8","0.4","0.6","0.2","","","","","0.2770622605","0.4490722186","0.254085412","0.147465279","","","","","","","","74","J","1","","","221","main_expt"
"","bandit","301","750587","0.0-262.0-0.0","45985203","wem/bandit_either_2","ACGHHDT7RY1AH","either","6","222","","","","","","","0","1","0","","0.4253353094","0.8","0.4","0.6","0.2","0.3390746663","0.4253353094","0.2590796483","0.1441925756","","","","","","","","","","","","74","J","1","","","222","main_expt"
"","bandit","302","752242","0.0-263.0-0.0","45985203","wem/bandit_either_2","ACGHHDT7RY1AH","either","6","140","","","","","","","0","0","1","","0.4559825987","0.8","0.4","0.6","0.2","0.384843876","0.4559825987","0.2640852941","0.1731110736","","","","","","","","","","","","74","J","1","","","223","main_expt"
"","bandit","303","754345","0.0-264.0-0.0","45985203","wem/bandit_either_2","ACGHHDT7RY1AH","either","6","587","","","","","","","1","0","0","0.464560515","","0.8","0.4","0.6","0.2","","","","","0.4367619307","0.464560515","0.2636590797","0.1124600034","","","","","","","","74","J","1","","","224","main_expt"
"","bandit","304","756034","0.0-265.0-0.0","45985203","wem/bandit_either_2","ACGHHDT7RY1AH","either","6","172","","","","","","","0","0","1","","0.4528378766","0.8","0.4","0.6","0.2","0.42055701","0.4528378766","0.3110444069","0.1174510337","","","","","","","","","","","","74","J","1","","","225","main_expt"
"","bandit","305","757705","0.0-266.0-0.0","45985203","wem/bandit_either_2","ACGHHDT7RY1AH","either","6","155","","","","","","","1","0","0","0.4585160156","","0.8","0.4","0.6","0.2","","","","","0.4282593698","0.4585160156","0.3268768972","0.1494320736","","","","","","","","74","J","1","","","226","main_expt"
"","bandit","306","759525","0.0-267.0-0.0","45985203","wem/bandit_either_2","ACGHHDT7RY1AH","either","6","303","","","","","","","1","0","0","0.4525914875","","0.8","0.4","0.6","0.2","","","","","0.4213985596","0.4525914875","0.3112991039","0.1655037845","","","","","","","","74","J","1","","","227","main_expt"
"","bandit","307","761234","0.0-268.0-0.0","45985203","wem/bandit_either_2","ACGHHDT7RY1AH","either","6","193","","","","","","","0","1","0","","0.4618810074","0.8","0.4","0.6","0.2","0.4115599459","0.4618810074","0.3481066565","0.1595877114","","","","","","","","","","","","74","J","1","","","228","main_expt"
"","bandit","308","762978","0.0-269.0-0.0","45985203","wem/bandit_either_2","ACGHHDT7RY1AH","either","6","229","","","","","","","0","0","1","","0.4661541784","0.8","0.4","0.6","0.2","0.375967734","0.4661541784","0.3267856819","0.1811982871","","","","","","","","","","","","74","J","1","","","229","main_expt"
"","bandit","309","764584","0.0-270.0-0.0","45985203","wem/bandit_either_2","ACGHHDT7RY1AH","either","6","92","","","","","","","0","0","1","","0.4681373403","0.8","0.4","0.6","0.2","0.4172813036","0.4681373403","0.3043034776","0.2088208598","","","","","","","","","","","","74","J","1","","","230","main_expt"
"","bandit","310","766281","0.0-271.0-0.0","45985203","wem/bandit_either_2","ACGHHDT7RY1AH","either","6","181","","","","","","","0","0","1","0.4733838814","","0.8","0.4","0.6","0.2","","","","","0.3871641603","0.4733838814","0.3127123154","0.2062946352","","","","","","","","74","J","1","","","231","main_expt"
"","bandit","311","768127","0.0-272.0-0.0","45985203","wem/bandit_either_2","ACGHHDT7RY1AH","either","6","331","","","","","","","0","1","0","","0.455942125","0.8","0.4","0.6","0.2","0.3381606844","0.455942125","0.3039198066","0.1448621505","","","","","","","","","","","","74","J","1","","","232","main_expt"
"","bandit","312","769850","0.0-273.0-0.0","45985203","wem/bandit_either_2","ACGHHDT7RY1AH","either","6","208","","","","","","","1","0","0","0.4523014459","","0.8","0.4","0.6","0.2","","","","","0.2918198365","0.4523014459","0.2846072758","0.1096360744","","","","","","","","74","J","1","","","233","main_expt"
"","bandit","313","771561","0.0-274.0-0.0","45985203","wem/bandit_either_2","ACGHHDT7RY1AH","either","6","194","","","","","","","0","1","0","","0.4715877437","0.8","0.4","0.6","0.2","0.3016980071","0.4715877437","0.2430061478","0.1102272527","","","","","","","","","","","","74","J","1","","","234","main_expt"
"","bandit","314","773297","0.0-275.0-0.0","45985203","wem/bandit_either_2","ACGHHDT7RY1AH","either","6","220","","","","","","","0","0","1","","0.4667146267","0.8","0.4","0.6","0.2","0.2940059945","0.4667146267","0.263037213","0.1428859574","","","","","","","","","","","","74","J","1","","","235","main_expt"
"","bandit","315","775050","0.0-276.0-0.0","45985203","wem/bandit_either_2","ACGHHDT7RY1AH","either","6","236","","","","","","","0","1","0","","0.4638430617","0.8","0.4","0.6","0.2","0.2926833733","0.4638430617","0.2976510001","0.1659437887","","","","","","","","","","","","74","J","1","","","236","main_expt"
"","bandit","316","776791","0.0-277.0-0.0","45985203","wem/bandit_either_2","ACGHHDT7RY1AH","either","6","226","","","","","","","0","0","1","0.4584702359","","0.8","0.4","0.6","0.2","","","","","0.278351659","0.4584702359","0.2789990486","0.1948695303","","","","","","","","74","J","1","","","237","main_expt"
"","bandit","317","778593","0.0-278.0-0.0","45985203","wem/bandit_either_2","ACGHHDT7RY1AH","either","6","285","","","","","","","0","0","1","","0.4297714473","0.8","0.4","0.6","0.2","0.2475781625","0.4297714473","0.2760904485","0.2231382717","","","","","","","","","","","","74","J","1","","","238","main_expt"
"","bandit","318","780562","0.0-279.0-0.0","45985203","wem/bandit_either_2","ACGHHDT7RY1AH","either","6","450","","","","","","","0","0","1","","0.4225482751","0.8","0.4","0.6","0.2","0.2476463542","0.4225482751","0.2679201555","0.2118273477","","","","","","","","","","","","74","J","1","","","239","main_expt"
"","bandit","319","782265","0.0-280.0-0.0","45985203","wem/bandit_either_2","ACGHHDT7RY1AH","either","6","186","","","","","","","0","0","1","0.3911766626","","0.8","0.4","0.6","0.2","","","","","0.2691810592","0.3911766626","0.1815101208","0.175879666","","","","","","","","74","J","1","","","240","main_expt"
"","bandit","320","784017","0.0-281.0-0.0","45985203","wem/bandit_either_2","ACGHHDT7RY1AH","either","6","236","","","","","","","0","0","1","","0.2107278188","0.8","0.4","0.6","0.2","0.2600118225","0.3576719612","0.2107278188","0.2619723004","","","","","","","","","","","","75","K","2","","","241","main_expt"
"","bandit","321","785799","0.0-282.0-0.0","45985203","wem/bandit_either_2","ACGHHDT7RY1AH","either","6","268","","","","","","","0","0","1","0.253357122","","0.8","0.4","0.6","0.2","","","","","0.2585740571","0.3649942216","0.1890457695","0.253357122","","","","","","","","76","L","3","","","242","main_expt"
"","bandit","322","787456","0.0-283.0-0.0","45985203","wem/bandit_either_2","ACGHHDT7RY1AH","either","6","139","","","","","","","0","0","1","","0.1943885749","0.8","0.4","0.6","0.2","0.1943885749","0.3462843793","0.1983598585","0.2937411872","","","","","","","","","","","","72","H","0","img/none_selected.jpg","","243","main_expt"
"","bandit","323","789090","0.0-284.0-0.0","45985203","wem/bandit_either_2","ACGHHDT7RY1AH","either","6","118","","","","","","","0","1","0","","0.3520149162","0.8","0.4","0.6","0.2","0.1861062248","0.3520149162","0.2165838592","0.2743784529","","","","","","","","","","","","74","J","1","","","244","main_expt"
"","bandit","324","790899","0.0-285.0-0.0","45985203","wem/bandit_either_2","ACGHHDT7RY1AH","either","6","289","","","","","","","1","0","0","0.3483485742","","0.8","0.4","0.6","0.2","","","","","0.1398782291","0.3483485742","0.1823109088","0.2734657034","","","","","","","","74","J","1","","","245","main_expt"
"","bandit","325","792864","0.0-286.0-0.0","45985203","wem/bandit_either_2","ACGHHDT7RY1AH","either","6","450","","","","","","","0","0","1","","0.3814570076","0.8","0.4","0.6","0.2","0.1392076576","0.3814570076","0.172760958","0.2285423815","","","","","","","","","","","","74","J","1","","","246","main_expt"
"","bandit","326","794639","0.0-287.0-0.0","45985203","wem/bandit_either_2","ACGHHDT7RY1AH","either","6","260","","","","","","","0","0","1","","0.3871035364","0.8","0.4","0.6","0.2","0.2028121248","0.3871035364","0.1955602127","0.269943793","","","","","","","","","","","","74","J","1","","","247","main_expt"
"","bandit","327","796487","0.0-288.0-0.0","45985203","wem/bandit_either_2","ACGHHDT7RY1AH","either","6","334","","","","","","","0","0","1","0.1770790361","","0.8","0.4","0.6","0.2","","","","","0.2522392451","0.3746835134","0.1770790361","0.2974302923","","","","","","","","75","K","2","","","248","main_expt"
