"consent","trial_type","trial_index","time_elapsed","internal_node_id","subjID","study","MID","cond","drift","rt","responses","key_press","expt_phase","like","value","connected","gems","bombs","no_reward","GemPrChosen","BombPrChosen","GainOverPainPr_0","GainOverPainPr_1","GainOverPainPr_2","GainOverPainPr_3","LosePr_0","LosePr_1","LosePr_2","LosePr_3","WinPr_0","WinPr_1","WinPr_2","WinPr_3","Q0","Q1","Q2","gender","age","ethnicity","target","respCharCode","respKey","respChoiceNum","respChoice","practice","trial_counter","trial_label"
"INL_behavioral_consent_30min_online.html","consent","0","17499","0.0-0.0","46635588","wem/bandit_either_2","A2RCJ30AFLCI54","either","4","","","","","","","","","","","","","","","","","","","","","","","","","","","","","","","","","","","","","",""
"","survey-text","1","22384","0.0-1.0","46635588","wem/bandit_either_2","A2RCJ30AFLCI54","either","4","3881","{""Q0"":""A2RCJ30AFLCI54""}","","","","","","","","","","","","","","","","","","","","","","","","","","","","","","","","","","","",""
"","text","2","38887","0.0-2.0","46635588","wem/bandit_either_2","A2RCJ30AFLCI54","either","4","15502","","32","","","","","","","","","","","","","","","","","","","","","","","","","","","","","","","","","","",""
"","text","3","48702","0.0-3.0","46635588","wem/bandit_either_2","A2RCJ30AFLCI54","either","4","9813","","32","","","","","","","","","","","","","","","","","","","","","","","","","","","","","","","","","","",""
"","text","4","73519","0.0-4.0","46635588","wem/bandit_either_2","A2RCJ30AFLCI54","either","4","24816","","32","","","","","","","","","","","","","","","","","","","","","","","","","","","","","","","","","","",""
"","text","5","98287","0.0-5.0","46635588","wem/bandit_either_2","A2RCJ30AFLCI54","either","4","24767","","32","","","","","","","","","","","","","","","","","","","","","","","","","","","","","","","","","","",""
"","text","6","119224","0.0-6.0","46635588","wem/bandit_either_2","A2RCJ30AFLCI54","either","4","20936","","32","","","","","","","","","","","","","","","","","","","","","","","","","","","","","","","","","","",""
"","text","7","128734","0.0-7.0","46635588","wem/bandit_either_2","A2RCJ30AFLCI54","either","4","9509","","32","","","","","","","","","","","","","","","","","","","","","","","","","","","","","","","","","","",""
"","text","8","134815","0.0-8.0","46635588","wem/bandit_either_2","A2RCJ30AFLCI54","either","4","6079","","32","","","","","","","","","","","","","","","","","","","","","","","","","","","","","","","","","","",""
"","identification","9","148022","0.0-9.0-0.0","46635588","wem/bandit_either_2","A2RCJ30AFLCI54","either","4","13200","","","","5","5","5","","","","","","","","","","","","","","","","","","","","","","","","the village of Zur","","","","","","",""
"","identification","10","156090","0.0-9.0-1.0","46635588","wem/bandit_either_2","A2RCJ30AFLCI54","either","4","7062","","","","2","2","1","","","","","","","","","","","","","","","","","","","","","","","","the village of Nyx","","","","","","",""
"","text","11","164064","0.0-10.0","46635588","wem/bandit_either_2","A2RCJ30AFLCI54","either","4","6972","","32","","","","","","","","","","","","","","","","","","","","","","","","","","","","","","","","","","",""
"","text","12","167950","0.0-11.0","46635588","wem/bandit_either_2","A2RCJ30AFLCI54","either","4","3886","","32","","","","","","","","","","","","","","","","","","","","","","","","","","","","","","","","","","",""
"","text","13","170414","0.0-12.0","46635588","wem/bandit_either_2","A2RCJ30AFLCI54","either","4","2463","","32","","","","","","","","","","","","","","","","","","","","","","","","","","","","","","","","","","",""
"","text","14","179783","0.0-13.0","46635588","wem/bandit_either_2","A2RCJ30AFLCI54","either","4","9369","","32","","","","","","","","","","","","","","","","","","","","","","","","","","","","","","","","","","",""
"","bandit","15","185828","0.0-14.0-0.0","46635588","wem/bandit_either_2","A2RCJ30AFLCI54","either","4","4542","","","","","","","0","0","1","0","0","","","","","0","","","","0","","","","","","","","","","","74","J","0","img/none_selected_demo.jpg","true","0",""
"","bandit","16","188309","0.0-15.0-0.0","46635588","wem/bandit_either_2","A2RCJ30AFLCI54","either","4","976","","","","","","","0","0","1","0","0","","","","","0","","","","0","","","","","","","","","","","75","K","0","img/none_selected_demo.jpg","true","0",""
"","text","17","196775","0.0-16.0","46635588","wem/bandit_either_2","A2RCJ30AFLCI54","either","4","8466","","32","","","","","","","","","","","","","","","","","","","","","","","","","","","","","","","","","","",""
"","text","18","213679","0.0-17.0","46635588","wem/bandit_either_2","A2RCJ30AFLCI54","either","4","16904","","32","","","","","","","","","","","","","","","","","","","","","","","","","","","","","","","","","","",""
"","text","19","224175","0.0-18.0","46635588","wem/bandit_either_2","A2RCJ30AFLCI54","either","4","10496","","32","","","","","","","","","","","","","","","","","","","","","","","","","","","","","","","","","","",""
"","text","20","227823","0.0-19.0","46635588","wem/bandit_either_2","A2RCJ30AFLCI54","either","4","3646","","32","","","","","","","","","","","","","","","","","","","","","","","","","","","","","","","","","","",""
"","bandit","21","232357","0.0-20.0-0.0","46635588","wem/bandit_either_2","A2RCJ30AFLCI54","either","4","3032","","","","","","","0","1","0","","0.8","0.5","0.5","","","0.8","0.2","","","","","","","","","","","","","","74","J","0","img/none_selected_demo.jpg","true","0","80_20_practice"
"","bandit","22","234380","0.0-20.0-1.0","46635588","wem/bandit_either_2","A2RCJ30AFLCI54","either","4","520","","","","","","","0","1","0","","0.8","0.5","0.5","","","0.8","0.2","","","","","","","","","","","","","","74","J","0","img/none_selected_demo.jpg","true","0","80_20_practice"
"","bandit","23","236373","0.0-20.0-2.0","46635588","wem/bandit_either_2","A2RCJ30AFLCI54","either","4","489","","","","","","","0","0","1","","0.8","0.5","0.5","","","0.8","0.2","","","","","","","","","","","","","","74","J","0","img/none_selected_demo.jpg","true","0","80_20_practice"
"","bandit","24","238260","0.0-20.0-3.0","46635588","wem/bandit_either_2","A2RCJ30AFLCI54","either","4","384","","","","","","","1","0","0","0.8","","0.5","0.5","","","","","","","0.8","0.2","","","","","","","","","","74","J","0","img/none_selected_demo.jpg","true","0","80_20_practice"
"","bandit","25","240133","0.0-20.0-4.0","46635588","wem/bandit_either_2","A2RCJ30AFLCI54","either","4","369","","","","","","","0","1","0","","0.8","0.5","0.5","","","0.8","0.2","","","","","","","","","","","","","","74","J","0","img/none_selected_demo.jpg","true","0","80_20_practice"
"","bandit","26","242133","0.0-20.0-5.0","46635588","wem/bandit_either_2","A2RCJ30AFLCI54","either","4","496","","","","","","","0","0","1","0.8","","0.5","0.5","","","","","","","0.8","0.2","","","","","","","","","","74","J","0","img/none_selected_demo.jpg","true","0","80_20_practice"
"","bandit","27","244029","0.0-20.0-6.0","46635588","wem/bandit_either_2","A2RCJ30AFLCI54","either","4","393","","","","","","","1","0","0","0.8","","0.5","0.5","","","","","","","0.8","0.2","","","","","","","","","","74","J","0","img/none_selected_demo.jpg","true","0","80_20_practice"
"","bandit","28","246006","0.0-20.0-7.0","46635588","wem/bandit_either_2","A2RCJ30AFLCI54","either","4","472","","","","","","","0","0","1","0.8","","0.5","0.5","","","","","","","0.8","0.2","","","","","","","","","","74","J","0","img/none_selected_demo.jpg","true","0","80_20_practice"
"","bandit","29","248007","0.0-20.0-8.0","46635588","wem/bandit_either_2","A2RCJ30AFLCI54","either","4","496","","","","","","","1","0","0","0.8","","0.5","0.5","","","","","","","0.8","0.2","","","","","","","","","","74","J","0","img/none_selected_demo.jpg","true","0","80_20_practice"
"","bandit","30","250101","0.0-20.0-9.0","46635588","wem/bandit_either_2","A2RCJ30AFLCI54","either","4","590","","","","","","","1","0","0","0.8","","0.5","0.5","","","","","","","0.8","0.2","","","","","","","","","","74","J","0","img/none_selected_demo.jpg","true","0","80_20_practice"
"","bandit","31","252452","0.0-20.0-10.0","46635588","wem/bandit_either_2","A2RCJ30AFLCI54","either","4","847","","","","","","","0","1","0","","0.8","0.5","0.5","","","0.8","0.2","","","","","","","","","","","","","","74","J","0","img/none_selected_demo.jpg","true","0","80_20_practice"
"","bandit","32","254636","0.0-20.0-11.0","46635588","wem/bandit_either_2","A2RCJ30AFLCI54","either","4","681","","","","","","","0","1","0","","0.8","0.5","0.5","","","0.8","0.2","","","","","","","","","","","","","","74","J","0","img/none_selected_demo.jpg","true","0","80_20_practice"
"","bandit","33","256852","0.0-20.0-12.0","46635588","wem/bandit_either_2","A2RCJ30AFLCI54","either","4","713","","","","","","","0","0","1","0.8","","0.5","0.5","","","","","","","0.8","0.2","","","","","","","","","","74","J","0","img/none_selected_demo.jpg","true","0","80_20_practice"
"","bandit","34","258774","0.0-20.0-13.0","46635588","wem/bandit_either_2","A2RCJ30AFLCI54","either","4","417","","","","","","","0","0","1","0.8","","0.5","0.5","","","","","","","0.8","0.2","","","","","","","","","","74","J","0","img/none_selected_demo.jpg","true","0","80_20_practice"
"","bandit","35","260781","0.0-20.0-14.0","46635588","wem/bandit_either_2","A2RCJ30AFLCI54","either","4","504","","","","","","","0","0","1","0.8","","0.5","0.5","","","","","","","0.8","0.2","","","","","","","","","","74","J","0","img/none_selected_demo.jpg","true","0","80_20_practice"
"","bandit","36","262813","0.0-20.0-15.0","46635588","wem/bandit_either_2","A2RCJ30AFLCI54","either","4","528","","","","","","","0","0","1","0.8","","0.5","0.5","","","","","","","0.8","0.2","","","","","","","","","","74","J","0","img/none_selected_demo.jpg","true","0","80_20_practice"
"","bandit","37","264909","0.0-20.0-16.0","46635588","wem/bandit_either_2","A2RCJ30AFLCI54","either","4","592","","","","","","","0","1","0","","0.8","0.5","0.5","","","0.8","0.2","","","","","","","","","","","","","","74","J","0","img/none_selected_demo.jpg","true","0","80_20_practice"
"","bandit","38","266996","0.0-20.0-17.0","46635588","wem/bandit_either_2","A2RCJ30AFLCI54","either","4","583","","","","","","","0","0","1","","0.2","0.5","0.5","","","0.8","0.2","","","","","","","","","","","","","","75","K","1","","true","0","80_20_practice"
"","bandit","39","268893","0.0-20.0-18.0","46635588","wem/bandit_either_2","A2RCJ30AFLCI54","either","4","394","","","","","","","0","0","1","0.2","","0.5","0.5","","","","","","","0.8","0.2","","","","","","","","","","75","K","1","","true","0","80_20_practice"
"","bandit","40","270844","0.0-20.0-19.0","46635588","wem/bandit_either_2","A2RCJ30AFLCI54","either","4","448","","","","","","","0","1","0","","0.2","0.5","0.5","","","0.8","0.2","","","","","","","","","","","","","","75","K","1","","true","0","80_20_practice"
"","text","41","274742","0.0-21.0","46635588","wem/bandit_either_2","A2RCJ30AFLCI54","either","4","3897","","32","","","","","","","","","","","","","","","","","","","","","","","","","","","","","","","","","","",""
"","bandit","42","276949","0.0-22.0-0.0","46635588","wem/bandit_either_2","A2RCJ30AFLCI54","either","4","703","","","","","","","1","0","0","1","0","","","","","0","1","","","1","0","","","","","","","","","","74","J","0","img/none_selected_demo.jpg","true","0",""
"","text","43","289391","0.0-23.0","46635588","wem/bandit_either_2","A2RCJ30AFLCI54","either","4","12441","","32","","","","","","","","","","","","","","","","","","","","","","","","","","","","","","","","","","",""
"","text","44","291790","0.0-24.0","46635588","wem/bandit_either_2","A2RCJ30AFLCI54","either","4","2397","","32","","","","","","","","","","","","","","","","","","","","","","","","","","","","","","","","","","",""
"","text","45","295407","0.0-25.0","46635588","wem/bandit_either_2","A2RCJ30AFLCI54","either","4","3616","","32","","","","","","","","","","","","","","","","","","","","","","","","","","","","","","","","","","",""
"","text","46","301551","0.0-26.0","46635588","wem/bandit_either_2","A2RCJ30AFLCI54","either","4","6144","","32","","","","","","","","","","","","","","","","","","","","","","","","","","","","","","","","","","",""
"","text","47","314911","0.0-27.0","46635588","wem/bandit_either_2","A2RCJ30AFLCI54","either","4","13360","","32","","","","","","","","","","","","","","","","","","","","","","","","","","","","","","","","","","",""
"","text","48","320191","0.0-28.0","46635588","wem/bandit_either_2","A2RCJ30AFLCI54","either","4","5278","","32","","","","","","","","","","","","","","","","","","","","","","","","","","","","","","","","","","",""
"","text","49","327622","0.0-29.0","46635588","wem/bandit_either_2","A2RCJ30AFLCI54","either","4","7431","","32","","","","","","","","","","","","","","","","","","","","","","","","","","","","","","","","","","",""
"","text","50","332167","0.0-30.0","46635588","wem/bandit_either_2","A2RCJ30AFLCI54","either","4","4543","","32","","","","","","","","","","","","","","","","","","","","","","","","","","","","","","","","","","",""
"","text","51","341863","0.0-31.0","46635588","wem/bandit_either_2","A2RCJ30AFLCI54","either","4","9695","","32","","","","","","","","","","","","","","","","","","","","","","","","","","","","","","","","","","",""
"","text","52","344094","0.0-32.0","46635588","wem/bandit_either_2","A2RCJ30AFLCI54","either","4","2231","","32","","","","","","","","","","","","","","","","","","","","","","","","","","","","","","","","","","",""
"","text","53","349215","0.0-33.0","46635588","wem/bandit_either_2","A2RCJ30AFLCI54","either","4","5120","","32","","","","","","","","","","","","","","","","","","","","","","","","","","","","","","","","","","",""
"","bandit","54","351404","0.0-34.0-0.0","46635588","wem/bandit_either_2","A2RCJ30AFLCI54","either","4","686","","","","","","","0","1","0","","0.8","0.5","0.5","0.5","0.5","0.8","0.2","0.6","0.2","","","","","","","","","","","","72","H","0","img/none_selected.jpg","true","0","full_practice"
"","bandit","55","353244","0.0-34.0-1.0","46635588","wem/bandit_either_2","A2RCJ30AFLCI54","either","4","337","","","","","","","0","1","0","","0.8","0.5","0.5","0.5","0.5","0.8","0.2","0.6","0.2","","","","","","","","","","","","72","H","0","img/none_selected.jpg","true","0","full_practice"
"","bandit","56","355277","0.0-34.0-2.0","46635588","wem/bandit_either_2","A2RCJ30AFLCI54","either","4","530","","","","","","","0","0","1","","0.8","0.5","0.5","0.5","0.5","0.8","0.2","0.6","0.2","","","","","","","","","","","","72","H","0","img/none_selected.jpg","true","0","full_practice"
"","bandit","57","357164","0.0-34.0-3.0","46635588","wem/bandit_either_2","A2RCJ30AFLCI54","either","4","384","","","","","","","0","1","0","","0.8","0.5","0.5","0.5","0.5","0.8","0.2","0.6","0.2","","","","","","","","","","","","72","H","0","img/none_selected.jpg","true","0","full_practice"
"","bandit","58","358980","0.0-34.0-4.0","46635588","wem/bandit_either_2","A2RCJ30AFLCI54","either","4","313","","","","","","","0","1","0","","0.8","0.5","0.5","0.5","0.5","0.8","0.2","0.6","0.2","","","","","","","","","","","","72","H","0","img/none_selected.jpg","true","0","full_practice"
"","bandit","59","360772","0.0-34.0-5.0","46635588","wem/bandit_either_2","A2RCJ30AFLCI54","either","4","289","","","","","","","1","0","0","0.8","","0.5","0.5","0.5","0.5","","","","","0.8","0.2","0.6","0.2","","","","","","","","72","H","0","img/none_selected.jpg","true","0","full_practice"
"","bandit","60","362636","0.0-34.0-6.0","46635588","wem/bandit_either_2","A2RCJ30AFLCI54","either","4","360","","","","","","","0","1","0","","0.8","0.5","0.5","0.5","0.5","0.8","0.2","0.6","0.2","","","","","","","","","","","","72","H","0","img/none_selected.jpg","true","0","full_practice"
"","bandit","61","364453","0.0-34.0-7.0","46635588","wem/bandit_either_2","A2RCJ30AFLCI54","either","4","311","","","","","","","0","1","0","","0.8","0.5","0.5","0.5","0.5","0.8","0.2","0.6","0.2","","","","","","","","","","","","72","H","0","img/none_selected.jpg","true","0","full_practice"
"","bandit","62","366629","0.0-34.0-8.0","46635588","wem/bandit_either_2","A2RCJ30AFLCI54","either","4","673","","","","","","","0","1","0","","0.8","0.5","0.5","0.5","0.5","0.8","0.2","0.6","0.2","","","","","","","","","","","","72","H","0","img/none_selected.jpg","true","0","full_practice"
"","bandit","63","368428","0.0-34.0-9.0","46635588","wem/bandit_either_2","A2RCJ30AFLCI54","either","4","296","","","","","","","1","0","0","0.8","","0.5","0.5","0.5","0.5","","","","","0.8","0.2","0.6","0.2","","","","","","","","72","H","0","img/none_selected.jpg","true","0","full_practice"
"","bandit","64","370333","0.0-34.0-10.0","46635588","wem/bandit_either_2","A2RCJ30AFLCI54","either","4","401","","","","","","","1","0","0","0.8","","0.5","0.5","0.5","0.5","","","","","0.8","0.2","0.6","0.2","","","","","","","","72","H","0","img/none_selected.jpg","true","0","full_practice"
"","bandit","65","372268","0.0-34.0-11.0","46635588","wem/bandit_either_2","A2RCJ30AFLCI54","either","4","432","","","","","","","0","1","0","","0.8","0.5","0.5","0.5","0.5","0.8","0.2","0.6","0.2","","","","","","","","","","","","72","H","0","img/none_selected.jpg","true","0","full_practice"
"","bandit","66","374292","0.0-34.0-12.0","46635588","wem/bandit_either_2","A2RCJ30AFLCI54","either","4","521","","","","","","","0","1","0","","0.8","0.5","0.5","0.5","0.5","0.8","0.2","0.6","0.2","","","","","","","","","","","","72","H","0","img/none_selected.jpg","true","0","full_practice"
"","bandit","67","376276","0.0-34.0-13.0","46635588","wem/bandit_either_2","A2RCJ30AFLCI54","either","4","481","","","","","","","1","0","0","0.8","","0.5","0.5","0.5","0.5","","","","","0.8","0.2","0.6","0.2","","","","","","","","72","H","0","img/none_selected.jpg","true","0","full_practice"
"","bandit","68","378205","0.0-34.0-14.0","46635588","wem/bandit_either_2","A2RCJ30AFLCI54","either","4","425","","","","","","","0","1","0","","0.8","0.5","0.5","0.5","0.5","0.8","0.2","0.6","0.2","","","","","","","","","","","","72","H","0","img/none_selected.jpg","true","0","full_practice"
"","bandit","69","380332","0.0-34.0-15.0","46635588","wem/bandit_either_2","A2RCJ30AFLCI54","either","4","623","","","","","","","0","0","1","","0.8","0.5","0.5","0.5","0.5","0.8","0.2","0.6","0.2","","","","","","","","","","","","72","H","0","img/none_selected.jpg","true","0","full_practice"
"","bandit","70","382205","0.0-34.0-16.0","46635588","wem/bandit_either_2","A2RCJ30AFLCI54","either","4","369","","","","","","","0","1","0","","0.8","0.5","0.5","0.5","0.5","0.8","0.2","0.6","0.2","","","","","","","","","","","","72","H","0","img/none_selected.jpg","true","0","full_practice"
"","bandit","71","384221","0.0-34.0-17.0","46635588","wem/bandit_either_2","A2RCJ30AFLCI54","either","4","512","","","","","","","0","0","1","","0.8","0.5","0.5","0.5","0.5","0.8","0.2","0.6","0.2","","","","","","","","","","","","72","H","0","img/none_selected.jpg","true","0","full_practice"
"","bandit","72","386556","0.0-34.0-18.0","46635588","wem/bandit_either_2","A2RCJ30AFLCI54","either","4","832","","","","","","","0","1","0","","0.8","0.5","0.5","0.5","0.5","0.8","0.2","0.6","0.2","","","","","","","","","","","","72","H","0","img/none_selected.jpg","true","0","full_practice"
"","bandit","73","388741","0.0-34.0-19.0","46635588","wem/bandit_either_2","A2RCJ30AFLCI54","either","4","682","","","","","","","0","1","0","","0.8","0.5","0.5","0.5","0.5","0.8","0.2","0.6","0.2","","","","","","","","","","","","72","H","0","img/none_selected.jpg","true","0","full_practice"
"","text","74","392134","0.0-35.0","46635588","wem/bandit_either_2","A2RCJ30AFLCI54","either","4","3391","","32","","","","","","","","","","","","","","","","","","","","","","","","","","","","","","","","","","",""
"","text","75","408799","0.0-36.0","46635588","wem/bandit_either_2","A2RCJ30AFLCI54","either","4","15663","","32","","","","","","","","","","","","","","","","","","","","","","","","","","","","","","","","","","",""
"","text","76","424439","0.0-37.0","46635588","wem/bandit_either_2","A2RCJ30AFLCI54","either","4","15639","","32","","","","","","","","","","","","","","","","","","","","","","","","","","","","","","","","","","",""
"","text","77","440664","0.0-38.0","46635588","wem/bandit_either_2","A2RCJ30AFLCI54","either","4","16223","","32","","","","","","","","","","","","","","","","","","","","","","","","","","","","","","","","","","",""
"","text","78","458335","0.0-39.0","46635588","wem/bandit_either_2","A2RCJ30AFLCI54","either","4","17671","","32","","","","","","","","","","","","","","","","","","","","","","","","","","","","","","","","","","",""
"","text","79","466814","0.0-40.0","46635588","wem/bandit_either_2","A2RCJ30AFLCI54","either","4","8478","","32","","","","","","","","","","","","","","","","","","","","","","","","","","","","","","","","","","",""
"","bandit","80","470157","0.0-41.0-0.0","46635588","wem/bandit_either_2","A2RCJ30AFLCI54","either","4","1840","","","","","","","0","0","1","0.3242650943","","0.8","0.6","0.2","0.4","","","","","0.3242650943","0.3525715257","0.3894728165","0.2771551185","","","","","","","","72","H","0","img/none_selected.jpg","","1","main_expt"
"","bandit","81","472021","0.0-42.0-0.0","46635588","wem/bandit_either_2","A2RCJ30AFLCI54","either","4","359","","","","","","","1","0","0","0.3296228245","","0.8","0.6","0.2","0.4","","","","","0.3296228245","0.390153736","0.363660736","0.3030893157","","","","","","","","72","H","0","img/none_selected.jpg","","2","main_expt"
"","bandit","82","473996","0.0-43.0-0.0","46635588","wem/bandit_either_2","A2RCJ30AFLCI54","either","4","472","","","","","","","0","0","1","0.3102780753","","0.8","0.6","0.2","0.4","","","","","0.3102780753","0.3725447061","0.3842171554","0.3211059343","","","","","","","","72","H","0","img/none_selected.jpg","","3","main_expt"
"","bandit","83","476092","0.0-44.0-0.0","46635588","wem/bandit_either_2","A2RCJ30AFLCI54","either","4","592","","","","","","","0","0","1","0.2749892112","","0.8","0.6","0.2","0.4","","","","","0.2749892112","0.3431524481","0.3831963053","0.2804386453","","","","","","","","72","H","0","img/none_selected.jpg","","4","main_expt"
"","bandit","84","478028","0.0-45.0-0.0","46635588","wem/bandit_either_2","A2RCJ30AFLCI54","either","4","433","","","","","","","1","0","0","0.3448007793","","0.8","0.6","0.2","0.4","","","","","0.3037824898","0.3448007793","0.4056596471","0.2609559086","","","","","","","","74","J","1","","","5","main_expt"
"","bandit","85","479900","0.0-46.0-0.0","46635588","wem/bandit_either_2","A2RCJ30AFLCI54","either","4","369","","","","","","","1","0","0","0.3980888019","","0.8","0.6","0.2","0.4","","","","","0.3217417103","0.3980888019","0.4409946319","0.2259287768","","","","","","","","74","J","1","","","6","main_expt"
"","bandit","86","481925","0.0-47.0-0.0","46635588","wem/bandit_either_2","A2RCJ30AFLCI54","either","4","520","","","","","","","0","0","1","0.3693121862","","0.8","0.6","0.2","0.4","","","","","0.3018715163","0.3693121862","0.3821747998","0.2433618728","","","","","","","","74","J","1","","","7","main_expt"
"","bandit","87","483892","0.0-48.0-0.0","46635588","wem/bandit_either_2","A2RCJ30AFLCI54","either","4","464","","","","","","","0","0","1","0.2933697555","","0.8","0.6","0.2","0.4","","","","","0.3643645816","0.2933697555","0.3841844813","0.2025356769","","","","","","","","74","J","1","","","8","main_expt"
"","bandit","88","486429","0.0-49.0-0.0","46635588","wem/bandit_either_2","A2RCJ30AFLCI54","either","4","1032","","","","","","","0","0","1","0.3036212831","","0.8","0.6","0.2","0.4","","","","","0.3418610374","0.3036212831","0.3412237964","0.1441028094","","","","","","","","74","J","1","","","9","main_expt"
"","bandit","89","488429","0.0-50.0-0.0","46635588","wem/bandit_either_2","A2RCJ30AFLCI54","either","4","495","","","","","","","0","0","1","","0.3256420777","0.8","0.6","0.2","0.4","0.3190157878","0.308020301","0.3256420777","0.1736005971","","","","","","","","","","","","75","K","2","","","10","main_expt"
"","bandit","90","490324","0.0-51.0-0.0","46635588","wem/bandit_either_2","A2RCJ30AFLCI54","either","4","392","","","","","","","0","0","1","","0.3514007431","0.8","0.6","0.2","0.4","0.2998731478","0.3065973113","0.3514007431","0.1836365694","","","","","","","","","","","","75","K","2","","","11","main_expt"
"","bandit","91","492429","0.0-52.0-0.0","46635588","wem/bandit_either_2","A2RCJ30AFLCI54","either","4","602","","","","","","","0","0","1","","0.3722032088","0.8","0.6","0.2","0.4","0.2942822571","0.3271859636","0.3722032088","0.2143869662","","","","","","","","","","","","75","K","2","","","12","main_expt"
"","bandit","92","494644","0.0-53.0-0.0","46635588","wem/bandit_either_2","A2RCJ30AFLCI54","either","4","711","","","","","","","0","1","0","","0.3681707299","0.8","0.6","0.2","0.4","0.3009212619","0.2761076709","0.3681707299","0.1637139448","","","","","","","","","","","","75","K","2","","","13","main_expt"
"","bandit","93","496524","0.0-54.0-0.0","46635588","wem/bandit_either_2","A2RCJ30AFLCI54","either","4","377","","","","","","","0","0","1","0.1488535162","","0.8","0.6","0.2","0.4","","","","","0.3227424667","0.2311164494","0.3528222564","0.1488535162","","","","","","","","76","L","3","","","14","main_expt"
"","bandit","94","498164","0.0-55.0-0.0","46635588","wem/bandit_either_2","A2RCJ30AFLCI54","either","4","136","","","","","","","0","0","1","","0.1332411271","0.8","0.6","0.2","0.4","0.3547546862","0.2905977425","0.3738838661","0.1332411271","","","","","","","","","","","","76","L","3","","","15","main_expt"
"","bandit","95","500036","0.0-56.0-0.0","46635588","wem/bandit_either_2","A2RCJ30AFLCI54","either","4","368","","","","","","","0","0","1","0.09882415698","","0.8","0.6","0.2","0.4","","","","","0.3241157583","0.2924554969","0.3385239332","0.09882415698","","","","","","","","76","L","3","","","16","main_expt"
"","bandit","96","502036","0.0-57.0-0.0","46635588","wem/bandit_either_2","A2RCJ30AFLCI54","either","4","497","","","","","","","0","0","1","","0.1069157009","0.8","0.6","0.2","0.4","0.3363410386","0.3114836302","0.3111355138","0.1069157009","","","","","","","","","","","","76","L","3","","","17","main_expt"
"","bandit","97","505325","0.0-58.0-0.0","46635588","wem/bandit_either_2","A2RCJ30AFLCI54","either","4","1785","","","","","","","0","0","1","0.3215333475","","0.8","0.6","0.2","0.4","","","","","0.3880947854","0.3215333475","0.3487767647","0.134958137","","","","","","","","74","J","1","","","18","main_expt"
"","bandit","98","507253","0.0-59.0-0.0","46635588","wem/bandit_either_2","A2RCJ30AFLCI54","either","4","424","","","","","","","0","0","1","0.2733398822","","0.8","0.6","0.2","0.4","","","","","0.4116912081","0.2733398822","0.3010303499","0.1230418706","","","","","","","","74","J","1","","","19","main_expt"
"","bandit","99","509172","0.0-60.0-0.0","46635588","wem/bandit_either_2","A2RCJ30AFLCI54","either","4","416","","","","","","","0","1","0","","0.2351410235","0.8","0.6","0.2","0.4","0.3973894305","0.2351410235","0.2907203997","0.09866604889","","","","","","","","","","","","74","J","1","","","20","main_expt"
"","bandit","100","511037","0.0-61.0-0.0","46635588","wem/bandit_either_2","A2RCJ30AFLCI54","either","4","361","","","","","","","0","1","0","","0.2257810982","0.8","0.6","0.2","0.4","0.369037109","0.2257810982","0.3088108907","0.1021222834","","","","","","","","","","","","74","J","1","","","21","main_expt"
"","bandit","101","512885","0.0-62.0-0.0","46635588","wem/bandit_either_2","A2RCJ30AFLCI54","either","4","342","","","","","","","0","0","1","","0.2221856846","0.8","0.6","0.2","0.4","0.4179468344","0.2221856846","0.349202701","0.1234138809","","","","","","","","","","","","74","J","1","","","22","main_expt"
"","bandit","102","514844","0.0-63.0-0.0","46635588","wem/bandit_either_2","A2RCJ30AFLCI54","either","4","454","","","","","","","1","0","0","0.2127124712","","0.8","0.6","0.2","0.4","","","","","0.4276062926","0.2127124712","0.3785068464","0.1030640584","","","","","","","","74","J","1","","","23","main_expt"
"","bandit","103","516733","0.0-64.0-0.0","46635588","wem/bandit_either_2","A2RCJ30AFLCI54","either","4","386","","","","","","","0","0","1","0.1882566648","","0.8","0.6","0.2","0.4","","","","","0.4078122208","0.1882566648","0.4012919653","0.1261035851","","","","","","","","74","J","1","","","24","main_expt"
"","bandit","104","518532","0.0-65.0-0.0","46635588","wem/bandit_either_2","A2RCJ30AFLCI54","either","4","295","","","","","","","0","0","1","","0.400899794","0.8","0.6","0.2","0.4","0.3950411191","0.1273223766","0.400899794","0.1796705612","","","","","","","","","","","","75","K","2","","","25","main_expt"
"","bandit","105","520300","0.0-66.0-0.0","46635588","wem/bandit_either_2","A2RCJ30AFLCI54","either","4","265","","","","","","","0","0","1","0.15747458","","0.8","0.6","0.2","0.4","","","","","0.4322303329","0.15747458","0.4126274585","0.2414651519","","","","","","","","74","J","1","","","26","main_expt"
"","bandit","106","522405","0.0-67.0-0.0","46635588","wem/bandit_either_2","A2RCJ30AFLCI54","either","4","601","","","","","","","0","0","1","0.1442684908","","0.8","0.6","0.2","0.4","","","","","0.4353643722","0.1442684908","0.3992263875","0.2005374927","","","","","","","","74","J","1","","","27","main_expt"
"","bandit","107","523949","0.0-68.0-0.0","46635588","wem/bandit_either_2","A2RCJ30AFLCI54","either","4","40","","","","","","","1","0","0","0.4464017809","","0.8","0.6","0.2","0.4","","","","","0.4464017809","0.2255404594","0.3846584236","0.3197257227","","","","","","","","72","H","0","img/none_selected.jpg","","28","main_expt"
"","bandit","108","525765","0.0-69.0-0.0","46635588","wem/bandit_either_2","A2RCJ30AFLCI54","either","4","312","","","","","","","0","0","1","0.4417109462","","0.8","0.6","0.2","0.4","","","","","0.4417109462","0.2730951691","0.3561298134","0.3141869899","","","","","","","","72","H","0","img/none_selected.jpg","","29","main_expt"
"","bandit","109","527629","0.0-70.0-0.0","46635588","wem/bandit_either_2","A2RCJ30AFLCI54","either","4","360","","","","","","","0","0","1","0.4065908859","","0.8","0.6","0.2","0.4","","","","","0.4065908859","0.2890412698","0.3101363315","0.3445991012","","","","","","","","72","H","0","img/none_selected.jpg","","30","main_expt"
"","bandit","110","529396","0.0-71.0-0.0","46635588","wem/bandit_either_2","A2RCJ30AFLCI54","either","4","264","","","","","","","0","0","1","","0.3309226042","0.8","0.6","0.2","0.4","0.3954582793","0.3309226042","0.3322219809","0.3456655029","","","","","","","","","","","","74","J","1","","","31","main_expt"
"","bandit","111","531276","0.0-72.0-0.0","46635588","wem/bandit_either_2","A2RCJ30AFLCI54","either","4","376","","","","","","","0","0","1","","0.3516269472","0.8","0.6","0.2","0.4","0.3716723047","0.3519301717","0.3516269472","0.3826172224","","","","","","","","","","","","75","K","2","","","32","main_expt"
"","bandit","112","533508","0.0-73.0-0.0","46635588","wem/bandit_either_2","A2RCJ30AFLCI54","either","4","728","","","","","","","0","0","1","0.3804083149","","0.8","0.6","0.2","0.4","","","","","0.3799724366","0.3414953842","0.3852085553","0.3804083149","","","","","","","","76","L","3","","","33","main_expt"
"","bandit","113","536676","0.0-74.0-0.0","46635588","wem/bandit_either_2","A2RCJ30AFLCI54","either","4","1664","","","","","","","1","0","0","0.409480615","","0.8","0.6","0.2","0.4","","","","","0.409480615","0.2938412915","0.4196644934","0.3808178469","","","","","","","","72","H","0","img/none_selected.jpg","","34","main_expt"
"","bandit","114","538477","0.0-75.0-0.0","46635588","wem/bandit_either_2","A2RCJ30AFLCI54","either","4","296","","","","","","","0","0","1","0.3869649509","","0.8","0.6","0.2","0.4","","","","","0.3869649509","0.2256616696","0.420891004","0.376129724","","","","","","","","72","H","0","img/none_selected.jpg","","35","main_expt"
"","bandit","115","540197","0.0-76.0-0.0","46635588","wem/bandit_either_2","A2RCJ30AFLCI54","either","4","216","","","","","","","0","0","1","0.3045389962","","0.8","0.6","0.2","0.4","","","","","0.3045389962","0.2525957923","0.3808881167","0.4027809904","","","","","","","","72","H","0","img/none_selected.jpg","","36","main_expt"
"","bandit","116","542061","0.0-77.0-0.0","46635588","wem/bandit_either_2","A2RCJ30AFLCI54","either","4","359","","","","","","","0","0","1","0.2954217214","","0.8","0.6","0.2","0.4","","","","","0.2954217214","0.2333373749","0.3634360393","0.3715556026","","","","","","","","72","H","0","img/none_selected.jpg","","37","main_expt"
"","bandit","117","543885","0.0-78.0-0.0","46635588","wem/bandit_either_2","A2RCJ30AFLCI54","either","4","319","","","","","","","0","0","1","","0.2126884676","0.8","0.6","0.2","0.4","0.2749906923","0.2126884676","0.3432691328","0.354842885","","","","","","","","","","","","74","J","1","","","38","main_expt"
"","bandit","118","545836","0.0-79.0-0.0","46635588","wem/bandit_either_2","A2RCJ30AFLCI54","either","4","447","","","","","","","0","0","1","0.212498526","","0.8","0.6","0.2","0.4","","","","","0.2911873598","0.212498526","0.3113322025","0.3066825603","","","","","","","","74","J","1","","","39","main_expt"
"","bandit","119","547508","0.0-80.0-0.0","46635588","wem/bandit_either_2","A2RCJ30AFLCI54","either","4","168","","","","","","","0","0","1","","0.3066149412","0.8","0.6","0.2","0.4","0.3066149412","0.2031275136","0.3298138996","0.3208648015","","","","","","","","","","","","72","H","0","img/none_selected.jpg","","40","main_expt"
"","bandit","120","549493","0.0-81.0-0.0","46635588","wem/bandit_either_2","A2RCJ30AFLCI54","either","4","481","","","","","","","0","0","1","","0.3590557929","0.8","0.6","0.2","0.4","0.2612722093","0.2409224204","0.3590557929","0.2774570704","","","","","","","","","","","","75","K","2","","","41","main_expt"
"","bandit","121","552444","0.0-82.0-0.0","46635588","wem/bandit_either_2","A2RCJ30AFLCI54","either","4","1447","","","","","","","0","0","1","","0.3092882543","0.8","0.6","0.2","0.4","0.2579482203","0.2166695961","0.3455434044","0.3092882543","","","","","","","","","","","","76","L","3","","","42","main_expt"
"","bandit","122","554205","0.0-83.0-0.0","46635588","wem/bandit_either_2","A2RCJ30AFLCI54","either","4","256","","","","","","","1","0","0","0.3161251671","","0.8","0.6","0.2","0.4","","","","","0.2232302517","0.2314197793","0.4020043176","0.3161251671","","","","","","","","76","L","3","","","43","main_expt"
"","bandit","123","556045","0.0-84.0-0.0","46635588","wem/bandit_either_2","A2RCJ30AFLCI54","either","4","336","","","","","","","1","0","0","0.3032549762","","0.8","0.6","0.2","0.4","","","","","0.2435669349","0.1889371852","0.4088695108","0.3032549762","","","","","","","","76","L","3","","","44","main_expt"
"","bandit","124","557893","0.0-85.0-0.0","46635588","wem/bandit_either_2","A2RCJ30AFLCI54","either","4","343","","","","","","","0","1","0","","0.3012359134","0.8","0.6","0.2","0.4","0.1885724617","0.2152104473","0.3914045207","0.3012359134","","","","","","","","","","","","76","L","3","","","45","main_expt"
"","bandit","125","559677","0.0-86.0-0.0","46635588","wem/bandit_either_2","A2RCJ30AFLCI54","either","4","280","","","","","","","0","0","1","0.2994346937","","0.8","0.6","0.2","0.4","","","","","0.104230756","0.2260726972","0.3682142312","0.2994346937","","","","","","","","76","L","3","","","46","main_expt"
"","bandit","126","561333","0.0-87.0-0.0","46635588","wem/bandit_either_2","A2RCJ30AFLCI54","either","4","151","","","","","","","1","0","0","0.3169549043","","0.8","0.6","0.2","0.4","","","","","0.09013225529","0.2330399618","0.3462276735","0.3169549043","","","","","","","","76","L","3","","","47","main_expt"
"","bandit","127","563188","0.0-88.0-0.0","46635588","wem/bandit_either_2","A2RCJ30AFLCI54","either","4","351","","","","","","","1","0","0","0.3137179834","","0.8","0.6","0.2","0.4","","","","","0.1066227192","0.2769685944","0.3501405617","0.3137179834","","","","","","","","76","L","3","","","48","main_expt"
"","bandit","128","565140","0.0-89.0-0.0","46635588","wem/bandit_either_2","A2RCJ30AFLCI54","either","4","448","","","","","","","0","0","1","","0.3026837323","0.8","0.6","0.2","0.4","0.1273062614","0.2954986192","0.3607669766","0.3026837323","","","","","","","","","","","","76","L","3","","","49","main_expt"
"","bandit","129","566941","0.0-90.0-0.0","46635588","wem/bandit_either_2","A2RCJ30AFLCI54","either","4","295","","","","","","","0","0","1","","0.2690248343","0.8","0.6","0.2","0.4","0.08158159543","0.2730110453","0.3776327681","0.2690248343","","","","","","","","","","","","76","L","3","","","50","main_expt"
"","bandit","130","568884","0.0-91.0-0.0","46635588","wem/bandit_either_2","A2RCJ30AFLCI54","either","4","439","","","","","","","0","0","1","0.2407215714","","0.8","0.6","0.2","0.4","","","","","0.08035098666","0.2672659715","0.3922012959","0.2407215714","","","","","","","","76","L","3","","","51","main_expt"
"","bandit","131","570797","0.0-92.0-0.0","46635588","wem/bandit_either_2","A2RCJ30AFLCI54","either","4","408","","","","","","","0","0","1","0.2758158767","","0.8","0.6","0.2","0.4","","","","","0.1007468434","0.2552972095","0.3532085343","0.2758158767","","","","","","","","76","L","3","","","52","main_expt"
"","bandit","132","572668","0.0-93.0-0.0","46635588","wem/bandit_either_2","A2RCJ30AFLCI54","either","4","367","","","","","","","1","0","0","0.2661511239","","0.8","0.6","0.2","0.4","","","","","0.1479770317","0.1954439593","0.3597378762","0.2661511239","","","","","","","","76","L","3","","","53","main_expt"
"","bandit","133","574429","0.0-94.0-0.0","46635588","wem/bandit_either_2","A2RCJ30AFLCI54","either","4","257","","","","","","","1","0","0","0.250303373","","0.8","0.6","0.2","0.4","","","","","0.1450389045","0.1250298759","0.3553644404","0.250303373","","","","","","","","76","L","3","","","54","main_expt"
"","bandit","134","576277","0.0-95.0-0.0","46635588","wem/bandit_either_2","A2RCJ30AFLCI54","either","4","343","","","","","","","0","0","1","","0.1850572083","0.8","0.6","0.2","0.4","0.1678096349","0.1224949652","0.3427354451","0.1850572083","","","","","","","","","","","","76","L","3","","","55","main_expt"
"","bandit","135","578317","0.0-96.0-0.0","46635588","wem/bandit_either_2","A2RCJ30AFLCI54","either","4","535","","","","","","","0","0","1","0.2410157884","","0.8","0.6","0.2","0.4","","","","","0.1748395718","0.1312048923","0.3158877586","0.2410157884","","","","","","","","76","L","3","","","56","main_expt"
"","bandit","136","580148","0.0-97.0-0.0","46635588","wem/bandit_either_2","A2RCJ30AFLCI54","either","4","327","","","","","","","0","1","0","","0.2657224069","0.8","0.6","0.2","0.4","0.146986137","0.14452077","0.3224611445","0.2657224069","","","","","","","","","","","","76","L","3","","","57","main_expt"
"","bandit","137","582397","0.0-98.0-0.0","46635588","wem/bandit_either_2","A2RCJ30AFLCI54","either","4","745","","","","","","","0","0","1","0.2361308133","","0.8","0.6","0.2","0.4","","","","","0.1316135006","0.1198415177","0.3378672788","0.2361308133","","","","","","","","76","L","3","","","58","main_expt"
"","bandit","138","584364","0.0-99.0-0.0","46635588","wem/bandit_either_2","A2RCJ30AFLCI54","either","4","463","","","","","","","0","1","0","","0.2078360154","0.8","0.6","0.2","0.4","0.1776120447","0.1674914914","0.3438075972","0.2078360154","","","","","","","","","","","","76","L","3","","","59","main_expt"
"","bandit","139","586204","0.0-100.0-0.0","46635588","wem/bandit_either_2","A2RCJ30AFLCI54","either","4","336","","","","","","","0","0","1","0.2256957235","","0.8","0.6","0.2","0.4","","","","","0.2034864675","0.147959707","0.2950987239","0.2256957235","","","","","","","","76","L","3","","","60","main_expt"
"","bandit","140","588284","0.0-101.0-0.0","46635588","wem/bandit_either_2","A2RCJ30AFLCI54","either","4","575","","","","","","","0","0","1","0.2713547376","","0.8","0.6","0.2","0.4","","","","","0.1325668513","0.1217284172","0.2939622289","0.2713547376","","","","","","","","76","L","3","","","61","main_expt"
"","bandit","141","590116","0.0-102.0-0.0","46635588","wem/bandit_either_2","A2RCJ30AFLCI54","either","4","328","","","","","","","0","0","1","","0.2907096119","0.8","0.6","0.2","0.4","0.125492747","0.1392905859","0.2907096119","0.2800078023","","","","","","","","","","","","75","K","2","","","62","main_expt"
"","bandit","142","591925","0.0-103.0-0.0","46635588","wem/bandit_either_2","A2RCJ30AFLCI54","either","4","305","","","","","","","0","0","1","","0.2696382907","0.8","0.6","0.2","0.4","0.1081989139","0.1953314019","0.2696382907","0.362183352","","","","","","","","","","","","75","K","2","","","63","main_expt"
"","bandit","143","593933","0.0-104.0-0.0","46635588","wem/bandit_either_2","A2RCJ30AFLCI54","either","4","504","","","","","","","0","0","1","","0.2496415039","0.8","0.6","0.2","0.4","0.09104284411","0.2618523415","0.2496415039","0.3354395381","","","","","","","","","","","","75","K","2","","","64","main_expt"
"","bandit","144","595509","0.0-105.0-0.0","46635588","wem/bandit_either_2","A2RCJ30AFLCI54","either","4","71","","","","","","","1","0","0","0.2686672798","","0.8","0.6","0.2","0.4","","","","","0.1264903162","0.2686672798","0.2364994079","0.2893845237","","","","","","","","74","J","1","","","65","main_expt"
"","bandit","145","597333","0.0-106.0-0.0","46635588","wem/bandit_either_2","A2RCJ30AFLCI54","either","4","319","","","","","","","0","0","1","","0.2451656397","0.8","0.6","0.2","0.4","0.1665937301","0.2451656397","0.2541683514","0.2355717356","","","","","","","","","","","","74","J","1","","","66","main_expt"
"","bandit","146","599309","0.0-107.0-0.0","46635588","wem/bandit_either_2","A2RCJ30AFLCI54","either","4","471","","","","","","","1","0","0","0.2445320338","","0.8","0.6","0.2","0.4","","","","","0.1740025863","0.2445320338","0.2985471382","0.2848755716","","","","","","","","74","J","1","","","67","main_expt"
"","bandit","147","601236","0.0-108.0-0.0","46635588","wem/bandit_either_2","A2RCJ30AFLCI54","either","4","423","","","","","","","0","0","1","0.2261158315","","0.8","0.6","0.2","0.4","","","","","0.2300011382","0.2261158315","0.3391290389","0.3341158043","","","","","","","","74","J","1","","","68","main_expt"
"","bandit","148","603260","0.0-109.0-0.0","46635588","wem/bandit_either_2","A2RCJ30AFLCI54","either","4","520","","","","","","","0","0","1","0.1627286519","","0.8","0.6","0.2","0.4","","","","","0.1768594062","0.1627286519","0.3114764975","0.3253412689","","","","","","","","74","J","1","","","69","main_expt"
"","bandit","149","605221","0.0-110.0-0.0","46635588","wem/bandit_either_2","A2RCJ30AFLCI54","either","4","456","","","","","","","0","0","1","","0.1301009224","0.8","0.6","0.2","0.4","0.1906145184","0.1301009224","0.3056328376","0.3280915152","","","","","","","","","","","","74","J","1","","","70","main_expt"
"","bandit","150","606932","0.0-111.0-0.0","46635588","wem/bandit_either_2","A2RCJ30AFLCI54","either","4","207","","","","","","","1","0","0","0.1451664327","","0.8","0.6","0.2","0.4","","","","","0.1451664327","0.1356707761","0.3445325487","0.3772643828","","","","","","","","72","H","0","img/none_selected.jpg","","71","main_expt"
"","bandit","151","608806","0.0-112.0-0.0","46635588","wem/bandit_either_2","A2RCJ30AFLCI54","either","4","368","","","","","","","0","0","1","","0.1091447996","0.8","0.6","0.2","0.4","0.1091447996","0.1045412551","0.364612409","0.4074174212","","","","","","","","","","","","72","H","0","img/none_selected.jpg","","72","main_expt"
"","bandit","152","610733","0.0-113.0-0.0","46635588","wem/bandit_either_2","A2RCJ30AFLCI54","either","4","422","","","","","","","1","0","0","0.3736299767","","0.8","0.6","0.2","0.4","","","","","0.1248737042","0.0867882282","0.4454774056","0.3736299767","","","","","","","","76","L","3","","","73","main_expt"
"","bandit","153","612677","0.0-114.0-0.0","46635588","wem/bandit_either_2","A2RCJ30AFLCI54","either","4","439","","","","","","","0","0","1","0.383211712","","0.8","0.6","0.2","0.4","","","","","0.1073746888","0.1018359722","0.4492830973","0.383211712","","","","","","","","76","L","3","","","74","main_expt"
"","bandit","154","614429","0.0-115.0-0.0","46635588","wem/bandit_either_2","A2RCJ30AFLCI54","either","4","247","","","","","","","0","0","1","0.1051395745","","0.8","0.6","0.2","0.4","","","","","0.1051395745","0.09443707336","0.449321966","0.3681962321","","","","","","","","72","H","0","img/none_selected.jpg","","75","main_expt"
"","bandit","155","616357","0.0-116.0-0.0","46635588","wem/bandit_either_2","A2RCJ30AFLCI54","either","4","424","","","","","","","0","0","1","0.09171451076","","0.8","0.6","0.2","0.4","","","","","0.09171451076","0.08768691443","0.4299726132","0.3574328021","","","","","","","","72","H","0","img/none_selected.jpg","","76","main_expt"
"","bandit","156","618068","0.0-117.0-0.0","46635588","wem/bandit_either_2","A2RCJ30AFLCI54","either","4","207","","","","","","","0","1","0","","0.4041720962","0.8","0.6","0.2","0.4","0.1256070833","0.07744448812","0.4349340462","0.4041720962","","","","","","","","","","","","76","L","3","","","77","main_expt"
"","bandit","157","620100","0.0-118.0-0.0","46635588","wem/bandit_either_2","A2RCJ30AFLCI54","either","4","528","","","","","","","1","0","0","0.4000946746","","0.8","0.6","0.2","0.4","","","","","0.1398604905","0.05712631425","0.4112950215","0.4000946746","","","","","","","","76","L","3","","","78","main_expt"
"","bandit","158","622108","0.0-119.0-0.0","46635588","wem/bandit_either_2","A2RCJ30AFLCI54","either","4","504","","","","","","","0","1","0","","0.425248604","0.8","0.6","0.2","0.4","0.1303191282","0.03981704588","0.4123046053","0.425248604","","","","","","","","","","","","76","L","3","","","79","main_expt"
"","bandit","159","624076","0.0-120.0-0.0","46635588","wem/bandit_either_2","A2RCJ30AFLCI54","either","4","464","","","","","","","0","0","1","","0.4263383456","0.8","0.6","0.2","0.4","0.1491340647","0.02961196177","0.4345430878","0.4263383456","","","","","","","","","","","","76","L","3","","","80","main_expt"
"","bandit","160","626037","0.0-121.0-0.0","46635588","wem/bandit_either_2","A2RCJ30AFLCI54","either","4","456","","","","","","","0","1","0","","0.4377411966","0.8","0.6","0.2","0.4","0.1484119081","0.0408206899","0.4255274095","0.4377411966","","","","","","","","","","","","76","L","3","","","81","main_expt"
"","bandit","161","628069","0.0-122.0-0.0","46635588","wem/bandit_either_2","A2RCJ30AFLCI54","either","4","528","","","","","","","0","0","1","","0.4263216968","0.8","0.6","0.2","0.4","0.135460029","0.03491361241","0.4266934287","0.4263216968","","","","","","","","","","","","76","L","3","","","82","main_expt"
"","bandit","162","629989","0.0-123.0-0.0","46635588","wem/bandit_either_2","A2RCJ30AFLCI54","either","4","415","","","","","","","0","0","1","0.4536492548","","0.8","0.6","0.2","0.4","","","","","0.09497461961","0.01881925386","0.4321646522","0.4536492548","","","","","","","","76","L","3","","","83","main_expt"
"","bandit","163","631853","0.0-124.0-0.0","46635588","wem/bandit_either_2","A2RCJ30AFLCI54","either","4","359","","","","","","","0","0","1","0.4344769981","","0.8","0.6","0.2","0.4","","","","","0.0956585677","0.03441768066","0.43129245","0.4344769981","","","","","","","","76","L","3","","","84","main_expt"
"","bandit","164","634109","0.0-125.0-0.0","46635588","wem/bandit_either_2","A2RCJ30AFLCI54","either","4","751","","","","","","","0","0","1","0.08427930603","","0.8","0.6","0.2","0.4","","","","","0.08427930603","0.04015732792","0.4307495417","0.4167097255","","","","","","","","72","H","0","img/none_selected.jpg","","85","main_expt"
"","bandit","165","636068","0.0-126.0-0.0","46635588","wem/bandit_either_2","A2RCJ30AFLCI54","either","4","455","","","","","","","0","0","1","0.4215971904","","0.8","0.6","0.2","0.4","","","","","0.09540141202","0.0462821445","0.4327415212","0.4215971904","","","","","","","","76","L","3","","","86","main_expt"
"","bandit","166","637804","0.0-127.0-0.0","46635588","wem/bandit_either_2","A2RCJ30AFLCI54","either","4","232","","","","","","","0","0","1","0.3962725568","","0.8","0.6","0.2","0.4","","","","","0.06504543429","0.07236867375","0.4507305815","0.3962725568","","","","","","","","76","L","3","","","87","main_expt"
"","bandit","167","639701","0.0-128.0-0.0","46635588","wem/bandit_either_2","A2RCJ30AFLCI54","either","4","393","","","","","","","0","0","1","","0.4038430626","0.8","0.6","0.2","0.4","0.05894337134","0.1132918069","0.4571393315","0.4038430626","","","","","","","","","","","","76","L","3","","","88","main_expt"
"","bandit","168","641284","0.0-129.0-0.0","46635588","wem/bandit_either_2","A2RCJ30AFLCI54","either","4","77","","","","","","","0","1","0","","0.4247877058","0.8","0.6","0.2","0.4","0.06803635399","0.1466354559","0.4639779763","0.4247877058","","","","","","","","","","","","76","L","3","","","89","main_expt"
"","bandit","169","643101","0.0-130.0-0.0","46635588","wem/bandit_either_2","A2RCJ30AFLCI54","either","4","312","","","","","","","0","1","0","","0.4196700557","0.8","0.6","0.2","0.4","0.09657856289","0.1746819083","0.4620017245","0.4196700557","","","","","","","","","","","","76","L","3","","","90","main_expt"
"","bandit","170","645157","0.0-131.0-0.0","46635588","wem/bandit_either_2","A2RCJ30AFLCI54","either","4","552","","","","","","","0","0","1","","0.401758082","0.8","0.6","0.2","0.4","0.08522031428","0.1864657318","0.4492963398","0.401758082","","","","","","","","","","","","76","L","3","","","91","main_expt"
"","bandit","171","646941","0.0-132.0-0.0","46635588","wem/bandit_either_2","A2RCJ30AFLCI54","either","4","279","","","","","","","0","1","0","","0.3422099147","0.8","0.6","0.2","0.4","0.07078380504","0.2124622091","0.462009279","0.3422099147","","","","","","","","","","","","76","L","3","","","92","main_expt"
"","bandit","172","648925","0.0-133.0-0.0","46635588","wem/bandit_either_2","A2RCJ30AFLCI54","either","4","479","","","","","","","0","0","1","","0.3279059742","0.8","0.6","0.2","0.4","0.0564278809","0.245786276","0.4363090379","0.3279059742","","","","","","","","","","","","76","L","3","","","93","main_expt"
"","bandit","173","650965","0.0-134.0-0.0","46635588","wem/bandit_either_2","A2RCJ30AFLCI54","either","4","536","","","","","","","0","0","1","0.3155724737","","0.8","0.6","0.2","0.4","","","","","0.06067733924","0.2316759231","0.4457519602","0.3155724737","","","","","","","","76","L","3","","","94","main_expt"
"","bandit","174","653068","0.0-135.0-0.0","46635588","wem/bandit_either_2","A2RCJ30AFLCI54","either","4","599","","","","","","","0","0","1","0.3519625041","","0.8","0.6","0.2","0.4","","","","","0.08632751489","0.2231756969","0.4231248902","0.3519625041","","","","","","","","76","L","3","","","95","main_expt"
"","bandit","175","654924","0.0-136.0-0.0","46635588","wem/bandit_either_2","A2RCJ30AFLCI54","either","4","352","","","","","","","0","0","1","","0.3661455107","0.8","0.6","0.2","0.4","0.08481729553","0.1957128212","0.4210676831","0.3661455107","","","","","","","","","","","","76","L","3","","","96","main_expt"
"","bandit","176","656908","0.0-137.0-0.0","46635588","wem/bandit_either_2","A2RCJ30AFLCI54","either","4","480","","","","","","","0","0","1","0.3558031673","","0.8","0.6","0.2","0.4","","","","","0.08386440452","0.1638116915","0.4022895305","0.3558031673","","","","","","","","76","L","3","","","97","main_expt"
"","bandit","177","659020","0.0-138.0-0.0","46635588","wem/bandit_either_2","A2RCJ30AFLCI54","either","4","608","","","","","","","0","1","0","","0.3558230887","0.8","0.6","0.2","0.4","0.0940701929","0.1405816365","0.4187351015","0.3558230887","","","","","","","","","","","","76","L","3","","","98","main_expt"
"","bandit","178","661061","0.0-139.0-0.0","46635588","wem/bandit_either_2","A2RCJ30AFLCI54","either","4","536","","","","","","","0","0","1","0.3064708089","","0.8","0.6","0.2","0.4","","","","","0.1285058524","0.1435678602","0.3981340028","0.3064708089","","","","","","","","76","L","3","","","99","main_expt"
"","bandit","179","662941","0.0-140.0-0.0","46635588","wem/bandit_either_2","A2RCJ30AFLCI54","either","4","375","","","","","","","0","0","1","0.352498313","","0.8","0.6","0.2","0.4","","","","","0.065882019","0.1478754355","0.3520446815","0.352498313","","","","","","","","76","L","3","","","100","main_expt"
"","bandit","180","664653","0.0-141.0-0.0","46635588","wem/bandit_either_2","A2RCJ30AFLCI54","either","4","207","","","","","","","0","0","1","","0.3511810171","0.8","0.6","0.2","0.4","0.05692140794","0.1532559328","0.3715523215","0.3511810171","","","","","","","","","","","","76","L","3","","","101","main_expt"
"","bandit","181","666477","0.0-142.0-0.0","46635588","wem/bandit_either_2","A2RCJ30AFLCI54","either","4","319","","","","","","","0","1","0","","0.3966955113","0.8","0.6","0.2","0.4","0.04322280369","0.15857411","0.3966955113","0.3246867477","","","","","","","","","","","","75","K","2","","","102","main_expt"
"","bandit","182","668140","0.0-143.0-0.0","46635588","wem/bandit_either_2","A2RCJ30AFLCI54","either","4","159","","","","","","","0","0","1","","0.3865714765","0.8","0.6","0.2","0.4","0.05121437093","0.1552377357","0.3865714765","0.2827689756","","","","","","","","","","","","75","K","2","","","103","main_expt"
"","bandit","183","670052","0.0-144.0-0.0","46635588","wem/bandit_either_2","A2RCJ30AFLCI54","either","4","407","","","","","","","0","0","1","","0.3440646931","0.8","0.6","0.2","0.4","0.06548077564","0.1584193753","0.3440646931","0.3307995119","","","","","","","","","","","","75","K","2","","","104","main_expt"
"","bandit","184","671925","0.0-145.0-0.0","46635588","wem/bandit_either_2","A2RCJ30AFLCI54","either","4","369","","","","","","","0","1","0","","0.330981063","0.8","0.6","0.2","0.4","0.07577357845","0.192058402","0.330981063","0.3078297571","","","","","","","","","","","","75","K","2","","","105","main_expt"
"","bandit","185","673757","0.0-146.0-0.0","46635588","wem/bandit_either_2","A2RCJ30AFLCI54","either","4","327","","","","","","","0","0","1","","0.3317280627","0.8","0.6","0.2","0.4","0.09041352565","0.1562344916","0.3317280627","0.3202685942","","","","","","","","","","","","75","K","2","","","106","main_expt"
"","bandit","186","675396","0.0-147.0-0.0","46635588","wem/bandit_either_2","A2RCJ30AFLCI54","either","4","135","","","","","","","0","1","0","","0.2760665195","0.8","0.6","0.2","0.4","0.1184921167","0.1493116313","0.2760665195","0.3163418234","","","","","","","","","","","","75","K","2","","","107","main_expt"
"","bandit","187","677364","0.0-148.0-0.0","46635588","wem/bandit_either_2","A2RCJ30AFLCI54","either","4","463","","","","","","","1","0","0","0.2826301941","","0.8","0.6","0.2","0.4","","","","","0.1057615429","0.1357435498","0.2826301941","0.3425943818","","","","","","","","75","K","2","","","108","main_expt"
"","bandit","188","679165","0.0-149.0-0.0","46635588","wem/bandit_either_2","A2RCJ30AFLCI54","either","4","295","","","","","","","0","1","0","","0.318117281","0.8","0.6","0.2","0.4","0.1464484126","0.1164074326","0.318117281","0.2852030557","","","","","","","","","","","","75","K","2","","","109","main_expt"
"","bandit","189","680973","0.0-150.0-0.0","46635588","wem/bandit_either_2","A2RCJ30AFLCI54","either","4","303","","","","","","","0","0","1","","0.3358587519","0.8","0.6","0.2","0.4","0.1641354829","0.1444451916","0.3358587519","0.3392406975","","","","","","","","","","","","75","K","2","","","110","main_expt"
"","bandit","190","682807","0.0-151.0-0.0","46635588","wem/bandit_either_2","A2RCJ30AFLCI54","either","4","327","","","","","","","0","0","1","","0.3031660534","0.8","0.6","0.2","0.4","0.1386891192","0.09905323685","0.3031660534","0.3023411017","","","","","","","","","","","","75","K","2","","","111","main_expt"
"","bandit","191","684701","0.0-152.0-0.0","46635588","wem/bandit_either_2","A2RCJ30AFLCI54","either","4","388","","","","","","","0","0","1","","0.2773548355","0.8","0.6","0.2","0.4","0.1847512065","0.09652445584","0.2773548355","0.296849772","","","","","","","","","","","","75","K","2","","","112","main_expt"
"","bandit","192","686693","0.0-153.0-0.0","46635588","wem/bandit_either_2","A2RCJ30AFLCI54","either","4","487","","","","","","","1","0","0","0.2370758425","","0.8","0.6","0.2","0.4","","","","","0.1304555333","0.09961189632","0.2370758425","0.2673419259","","","","","","","","75","K","2","","","113","main_expt"
"","bandit","193","688653","0.0-154.0-0.0","46635588","wem/bandit_either_2","A2RCJ30AFLCI54","either","4","455","","","","","","","0","0","1","0.1821928837","","0.8","0.6","0.2","0.4","","","","","0.1770102637","0.1036139638","0.1821928837","0.2670531803","","","","","","","","75","K","2","","","114","main_expt"
"","bandit","194","690420","0.0-155.0-0.0","46635588","wem/bandit_either_2","A2RCJ30AFLCI54","either","4","262","","","","","","","0","0","1","","0.1315453283","0.8","0.6","0.2","0.4","0.1564651975","0.0968506792","0.1315453283","0.2825009356","","","","","","","","","","","","75","K","2","","","115","main_expt"
"","bandit","195","692348","0.0-156.0-0.0","46635588","wem/bandit_either_2","A2RCJ30AFLCI54","either","4","424","","","","","","","0","0","1","","0.1102777544","0.8","0.6","0.2","0.4","0.1665702367","0.08782875681","0.1102777544","0.3237719372","","","","","","","","","","","","75","K","2","","","116","main_expt"
"","bandit","196","694206","0.0-157.0-0.0","46635588","wem/bandit_either_2","A2RCJ30AFLCI54","either","4","353","","","","","","","0","0","1","","0.1101610351","0.8","0.6","0.2","0.4","0.1530687496","0.06031800864","0.1101610351","0.3154846423","","","","","","","","","","","","75","K","2","","","117","main_expt"
"","bandit","197","696117","0.0-158.0-0.0","46635588","wem/bandit_either_2","A2RCJ30AFLCI54","either","4","406","","","","","","","1","0","0","0.05633053331","","0.8","0.6","0.2","0.4","","","","","0.1674206906","0.05633053331","0.122460482","0.2584508078","","","","","","","","74","J","1","","","118","main_expt"
"","bandit","198","697877","0.0-159.0-0.0","46635588","wem/bandit_either_2","A2RCJ30AFLCI54","either","4","256","","","","","","","0","0","1","","0.07530514027","0.8","0.6","0.2","0.4","0.1990215448","0.07530514027","0.1451868924","0.2141905193","","","","","","","","","","","","74","J","1","","","119","main_expt"
"","bandit","199","699725","0.0-160.0-0.0","46635588","wem/bandit_either_2","A2RCJ30AFLCI54","either","4","343","","","","","","","0","0","1","","0.09639595661","0.8","0.6","0.2","0.4","0.2208640619","0.09639595661","0.09092593383","0.2341954374","","","","","","","","","","","","74","J","1","","","120","main_expt"
"","bandit","200","701565","0.0-161.0-0.0","46635588","wem/bandit_either_2","A2RCJ30AFLCI54","either","4","336","","","","","","","0","0","1","","0.1421799471","0.8","0.6","0.2","0.4","0.2602917539","0.1421799471","0.1080456108","0.1886372651","","","","","","","","","","","","74","J","1","","","121","main_expt"
"","bandit","201","703150","0.0-162.0-0.0","46635588","wem/bandit_either_2","A2RCJ30AFLCI54","either","4","79","","","","","","","0","0","1","","0.1624760489","0.8","0.6","0.2","0.4","0.2512498235","0.1624760489","0.1169053248","0.1597592322","","","","","","","","","","","","74","J","1","","","122","main_expt"
"","bandit","202","705260","0.0-163.0-0.0","46635588","wem/bandit_either_2","A2RCJ30AFLCI54","either","4","606","","","","","","","0","0","1","0.2266242761","","0.8","0.6","0.2","0.4","","","","","0.2266242761","0.1640214383","0.1571594809","0.1895266442","","","","","","","","72","H","0","img/none_selected.jpg","","123","main_expt"
"","bandit","203","707276","0.0-164.0-0.0","46635588","wem/bandit_either_2","A2RCJ30AFLCI54","either","4","511","","","","","","","0","0","1","","0.2373824638","0.8","0.6","0.2","0.4","0.2373824638","0.2014340991","0.2231804049","0.2042850732","","","","","","","","","","","","72","H","0","img/none_selected.jpg","","124","main_expt"
"","bandit","204","709052","0.0-165.0-0.0","46635588","wem/bandit_either_2","A2RCJ30AFLCI54","either","4","271","","","","","","","0","0","1","0.2538727107","","0.8","0.6","0.2","0.4","","","","","0.2538727107","0.2229229076","0.2232794356","0.1812515389","","","","","","","","72","H","0","img/none_selected.jpg","","125","main_expt"
"","bandit","205","711244","0.0-166.0-0.0","46635588","wem/bandit_either_2","A2RCJ30AFLCI54","either","4","688","","","","","","","0","0","1","0.290219491","","0.8","0.6","0.2","0.4","","","","","0.290219491","0.2324712723","0.2316903634","0.1694736183","","","","","","","","72","H","0","img/none_selected.jpg","","126","main_expt"
"","bandit","206","712973","0.0-167.0-0.0","46635588","wem/bandit_either_2","A2RCJ30AFLCI54","either","4","223","","","","","","","0","0","1","0.2628391623","","0.8","0.6","0.2","0.4","","","","","0.2542505169","0.2628391623","0.2337524142","0.1624528765","","","","","","","","74","J","1","","","127","main_expt"
"","bandit","207","714997","0.0-168.0-0.0","46635588","wem/bandit_either_2","A2RCJ30AFLCI54","either","4","519","","","","","","","1","0","0","0.2654356302","","0.8","0.6","0.2","0.4","","","","","0.2582316027","0.2654356302","0.2198210178","0.1632982916","","","","","","","","74","J","1","","","128","main_expt"
"","bandit","208","716957","0.0-169.0-0.0","46635588","wem/bandit_either_2","A2RCJ30AFLCI54","either","4","456","","","","","","","0","0","1","0.2070569149","","0.8","0.6","0.2","0.4","","","","","0.3267566011","0.2070569149","0.2280168395","0.2264598068","","","","","","","","74","J","1","","","129","main_expt"
"","bandit","209","718477","0.0-170.0-0.0","46635588","wem/bandit_either_2","A2RCJ30AFLCI54","either","4","14","","","","","","","0","0","1","","0.243895296","0.8","0.6","0.2","0.4","0.3323271388","0.2579182239","0.243895296","0.202760285","","","","","","","","","","","","75","K","2","","","130","main_expt"
"","bandit","210","720181","0.0-171.0-0.0","46635588","wem/bandit_either_2","A2RCJ30AFLCI54","either","4","198","","","","","","","0","0","1","","0.1585094705","0.8","0.6","0.2","0.4","0.2666668646","0.2329110821","0.2164454501","0.1585094705","","","","","","","","","","","","76","L","3","","","131","main_expt"
"","bandit","211","721796","0.0-172.0-0.0","46635588","wem/bandit_either_2","A2RCJ30AFLCI54","either","4","111","","","","","","","0","0","1","0.1304261544","","0.8","0.6","0.2","0.4","","","","","0.2359119393","0.2400232435","0.200468731","0.1304261544","","","","","","","","76","L","3","","","132","main_expt"
"","bandit","212","723676","0.0-173.0-0.0","46635588","wem/bandit_either_2","A2RCJ30AFLCI54","either","4","375","","","","","","","0","0","1","","0.2038597077","0.8","0.6","0.2","0.4","0.2540740643","0.2084798617","0.2038597077","0.09339990826","","","","","","","","","","","","75","K","2","","","133","main_expt"
"","bandit","213","725566","0.0-174.0-0.0","46635588","wem/bandit_either_2","A2RCJ30AFLCI54","either","4","385","","","","","","","0","0","1","0.2034544","","0.8","0.6","0.2","0.4","","","","","0.2414927735","0.2034544","0.2263269307","0.08524612959","","","","","","","","74","J","1","","","134","main_expt"
"","bandit","214","727500","0.0-175.0-0.0","46635588","wem/bandit_either_2","A2RCJ30AFLCI54","either","4","429","","","","","","","0","1","0","","0.2686469146","0.8","0.6","0.2","0.4","0.2632369982","0.2088958693","0.2686469146","0.0622033461","","","","","","","","","","","","75","K","2","","","135","main_expt"
"","bandit","215","729276","0.0-176.0-0.0","46635588","wem/bandit_either_2","A2RCJ30AFLCI54","either","4","272","","","","","","","0","0","1","","0.3170393738","0.8","0.6","0.2","0.4","0.3032623762","0.2573758916","0.3170393738","0.05632890875","","","","","","","","","","","","75","K","2","","","136","main_expt"
"","bandit","216","731045","0.0-177.0-0.0","46635588","wem/bandit_either_2","A2RCJ30AFLCI54","either","4","263","","","","","","","0","0","1","","0.06052980877","0.8","0.6","0.2","0.4","0.2984046037","0.2467438462","0.338962466","0.06052980877","","","","","","","","","","","","76","L","3","","","137","main_expt"
"","bandit","217","732685","0.0-178.0-0.0","46635588","wem/bandit_either_2","A2RCJ30AFLCI54","either","4","136","","","","","","","0","0","1","","0.1038497792","0.8","0.6","0.2","0.4","0.3110629865","0.2221944767","0.3586643031","0.1038497792","","","","","","","","","","","","76","L","3","","","138","main_expt"
"","bandit","218","734191","0.0-179.0-0.0","46635588","wem/bandit_either_2","A2RCJ30AFLCI54","either","4","0","","","","","","","0","0","1","0.08561062373","","0.8","0.6","0.2","0.4","","","","","0.3048373826","0.2750517365","0.3430902759","0.08561062373","","","","","","","","76","L","3","","","139","main_expt"
"","bandit","219","735973","0.0-180.0-0.0","46635588","wem/bandit_either_2","A2RCJ30AFLCI54","either","4","278","","","","","","","0","0","1","0.08025295029","","0.8","0.6","0.2","0.4","","","","","0.3163642845","0.277474309","0.3777112835","0.08025295029","","","","","","","","76","L","3","","","140","main_expt"
"","bandit","220","738149","0.0-181.0-0.0","46635588","wem/bandit_either_2","A2RCJ30AFLCI54","either","4","671","","","","","","","0","0","1","0.2213861514","","0.8","0.6","0.2","0.4","","","","","0.2213861514","0.2932007391","0.4276051364","0.09309891757","","","","","","","","72","H","0","img/none_selected.jpg","","141","main_expt"
"","bandit","221","740228","0.0-182.0-0.0","46635588","wem/bandit_either_2","A2RCJ30AFLCI54","either","4","575","","","","","","","0","0","1","0.2492613222","","0.8","0.6","0.2","0.4","","","","","0.2492613222","0.3001807938","0.4312347149","0.1107976638","","","","","","","","72","H","0","img/none_selected.jpg","","142","main_expt"
"","bandit","222","742140","0.0-183.0-0.0","46635588","wem/bandit_either_2","A2RCJ30AFLCI54","either","4","408","","","","","","","0","0","1","0.2645663874","","0.8","0.6","0.2","0.4","","","","","0.2645663874","0.3640878437","0.386657586","0.09575525052","","","","","","","","72","H","0","img/none_selected.jpg","","143","main_expt"
"","bandit","223","743837","0.0-184.0-0.0","46635588","wem/bandit_either_2","A2RCJ30AFLCI54","either","4","191","","","","","","","0","0","1","","0.2706796495","0.8","0.6","0.2","0.4","0.2928215939","0.2706796495","0.3409851627","0.07222794989","","","","","","","","","","","","74","J","1","","","144","main_expt"
"","bandit","224","745795","0.0-185.0-0.0","46635588","wem/bandit_either_2","A2RCJ30AFLCI54","either","4","439","","","","","","","0","0","1","","0.2359726437","0.8","0.6","0.2","0.4","0.3178979655","0.2359726437","0.3538709708","0.03203798906","","","","","","","","","","","","74","J","1","","","145","main_expt"
"","bandit","225","747757","0.0-186.0-0.0","46635588","wem/bandit_either_2","A2RCJ30AFLCI54","either","4","453","","","","","","","0","0","1","0.2850957273","","0.8","0.6","0.2","0.4","","","","","0.2850957273","0.2200332621","0.2745956728","0.03073079809","","","","","","","","72","H","0","img/none_selected.jpg","","146","main_expt"
"","bandit","226","749365","0.0-187.0-0.0","46635588","wem/bandit_either_2","A2RCJ30AFLCI54","either","4","104","","","","","","","0","0","1","0.2375793476","","0.8","0.6","0.2","0.4","","","","","0.2483519338","0.1957794229","0.2375793476","0.05105424151","","","","","","","","75","K","2","","","147","main_expt"
"","bandit","227","751197","0.0-188.0-0.0","46635588","wem/bandit_either_2","A2RCJ30AFLCI54","either","4","327","","","","","","","0","0","1","","0.2954602587","0.8","0.6","0.2","0.4","0.2309770791","0.1790722045","0.2954602587","0.04045355104","","","","","","","","","","","","75","K","2","","","148","main_expt"
"","bandit","228","752925","0.0-189.0-0.0","46635588","wem/bandit_either_2","A2RCJ30AFLCI54","either","4","223","","","","","","","0","0","1","","0.06416506337","0.8","0.6","0.2","0.4","0.1759049641","0.2189150546","0.3435099865","0.06416506337","","","","","","","","","","","","76","L","3","","","149","main_expt"
"","bandit","229","754861","0.0-190.0-0.0","46635588","wem/bandit_either_2","A2RCJ30AFLCI54","either","4","430","","","","","","","0","0","1","0.07819388902","","0.8","0.6","0.2","0.4","","","","","0.1910702346","0.2119229637","0.268900415","0.07819388902","","","","","","","","76","L","3","","","150","main_expt"
"","bandit","230","756589","0.0-191.0-0.0","46635588","wem/bandit_either_2","A2RCJ30AFLCI54","either","4","223","","","","","","","0","0","1","","0.2472398003","0.8","0.6","0.2","0.4","0.1799178466","0.2472398003","0.2326488896","0.1186979887","","","","","","","","","","","","74","J","1","","","151","main_expt"
"","bandit","231","758477","0.0-192.0-0.0","46635588","wem/bandit_either_2","A2RCJ30AFLCI54","either","4","383","","","","","","","0","1","0","","0.2148428051","0.8","0.6","0.2","0.4","0.1826140084","0.2148428051","0.2768057641","0.1084773402","","","","","","","","","","","","74","J","1","","","152","main_expt"
"","bandit","232","760236","0.0-193.0-0.0","46635588","wem/bandit_either_2","A2RCJ30AFLCI54","either","4","254","","","","","","","0","0","1","0.1598057249","","0.8","0.6","0.2","0.4","","","","","0.147924298","0.1598057249","0.2997660112","0.1314289417","","","","","","","","74","J","1","","","153","main_expt"
"","bandit","233","762132","0.0-194.0-0.0","46635588","wem/bandit_either_2","A2RCJ30AFLCI54","either","4","391","","","","","","","0","0","1","0.1489099923","","0.8","0.6","0.2","0.4","","","","","0.1388357139","0.1489099923","0.3196464983","0.1354051011","","","","","","","","74","J","1","","","154","main_expt"
"","bandit","234","764100","0.0-195.0-0.0","46635588","wem/bandit_either_2","A2RCJ30AFLCI54","either","4","463","","","","","","","0","0","1","0.1502541116","","0.8","0.6","0.2","0.4","","","","","0.1658398244","0.1502541116","0.3141654429","0.1085215933","","","","","","","","74","J","1","","","155","main_expt"
"","bandit","235","766117","0.0-196.0-0.0","46635588","wem/bandit_either_2","A2RCJ30AFLCI54","either","4","510","","","","","","","0","0","1","0.1104921729","","0.8","0.6","0.2","0.4","","","","","0.1104921729","0.1605084188","0.2667217688","0.1383379057","","","","","","","","72","H","0","img/none_selected.jpg","","156","main_expt"
"","bandit","236","768173","0.0-197.0-0.0","46635588","wem/bandit_either_2","A2RCJ30AFLCI54","either","4","551","","","","","","","0","0","1","0.1684101418","","0.8","0.6","0.2","0.4","","","","","0.09530810267","0.1684101418","0.2867075714","0.1428990181","","","","","","","","74","J","1","","","157","main_expt"
"","bandit","237","770158","0.0-198.0-0.0","46635588","wem/bandit_either_2","A2RCJ30AFLCI54","either","4","480","","","","","","","0","0","1","0.1807688322","","0.8","0.6","0.2","0.4","","","","","0.1211627972","0.1807688322","0.2788639118","0.07455979893","","","","","","","","74","J","1","","","158","main_expt"
"","bandit","238","772189","0.0-199.0-0.0","46635588","wem/bandit_either_2","A2RCJ30AFLCI54","either","4","525","","","","","","","0","1","0","","0.1516426412","0.8","0.6","0.2","0.4","0.1012897464","0.1516426412","0.3020710819","0.1009372764","","","","","","","","","","","","74","J","1","","","159","main_expt"
"","bandit","239","773765","0.0-200.0-0.0","46635588","wem/bandit_either_2","A2RCJ30AFLCI54","either","4","70","","","","","","","0","0","1","","0.3404227007","0.8","0.6","0.2","0.4","0.1188035868","0.1638698877","0.3404227007","0.05118862797","","","","","","","","","","","","75","K","2","","","160","main_expt"
"","bandit","240","775492","0.0-201.0-0.0","46635588","wem/bandit_either_2","A2RCJ30AFLCI54","either","4","222","","","","","","","0","0","1","","0.2876249865","0.8","0.6","0.2","0.4","0.1606836622","0.1645359983","0.2876249865","0.05265847637","","","","","","","","","","","","75","K","2","","","161","main_expt"
"","bandit","241","777053","0.0-202.0-0.0","46635588","wem/bandit_either_2","A2RCJ30AFLCI54","either","4","55","","","","","","","0","0","1","0.2509918509","","0.8","0.6","0.2","0.4","","","","","0.1859884171","0.2509918509","0.2401308511","0.07938684611","","","","","","","","74","J","1","","","162","main_expt"
"","bandit","242","778772","0.0-203.0-0.0","46635588","wem/bandit_either_2","A2RCJ30AFLCI54","either","4","213","","","","","","","0","0","1","0.0970900163","","0.8","0.6","0.2","0.4","","","","","0.2528258464","0.1883685458","0.2486605046","0.0970900163","","","","","","","","76","L","3","","","163","main_expt"
"","bandit","243","780813","0.0-204.0-0.0","46635588","wem/bandit_either_2","A2RCJ30AFLCI54","either","4","536","","","","","","","0","1","0","","0.22675384","0.8","0.6","0.2","0.4","0.2515292425","0.2179532334","0.22675384","0.07401968201","","","","","","","","","","","","75","K","2","","","164","main_expt"
"","bandit","244","782773","0.0-205.0-0.0","46635588","wem/bandit_either_2","A2RCJ30AFLCI54","either","4","454","","","","","","","0","1","0","","0.2143704678","0.8","0.6","0.2","0.4","0.2068970429","0.2143704678","0.2841151948","0.06633104104","","","","","","","","","","","","74","J","1","","","165","main_expt"
"","bandit","245","784501","0.0-206.0-0.0","46635588","wem/bandit_either_2","A2RCJ30AFLCI54","either","4","223","","","","","","","0","0","1","","0.2175899085","0.8","0.6","0.2","0.4","0.1413778631","0.2175899085","0.2842980464","0.05309652092","","","","","","","","","","","","74","J","1","","","166","main_expt"
"","bandit","246","786301","0.0-207.0-0.0","46635588","wem/bandit_either_2","A2RCJ30AFLCI54","either","4","294","","","","","","","0","1","0","","0.3007590714","0.8","0.6","0.2","0.4","0.1999497975","0.2137120923","0.3007590714","0.07357446968","","","","","","","","","","","","75","K","2","","","167","main_expt"
"","bandit","247","788397","0.0-208.0-0.0","46635588","wem/bandit_either_2","A2RCJ30AFLCI54","either","4","590","","","","","","","0","0","1","0.2331560811","","0.8","0.6","0.2","0.4","","","","","0.1696145944","0.2331560811","0.2884936601","0.1054325378","","","","","","","","74","J","1","","","168","main_expt"
"","bandit","248","791037","0.0-209.0-0.0","46635588","wem/bandit_either_2","A2RCJ30AFLCI54","either","4","1135","","","","","","","0","0","1","","0.2803439438","0.8","0.6","0.2","0.4","0.1338518967","0.2367963754","0.2803439438","0.08536867429","","","","","","","","","","","","75","K","2","","","169","main_expt"
"","bandit","249","792893","0.0-210.0-0.0","46635588","wem/bandit_either_2","A2RCJ30AFLCI54","either","4","350","","","","","","","0","0","1","0.2378050175","","0.8","0.6","0.2","0.4","","","","","0.1307598277","0.2378050175","0.3010437192","0.1083432756","","","","","","","","74","J","1","","","170","main_expt"
"","bandit","250","795188","0.0-211.0-0.0","46635588","wem/bandit_either_2","A2RCJ30AFLCI54","either","4","790","","","","","","","0","0","1","","0.3243802095","0.8","0.6","0.2","0.4","0.1200375331","0.2253696972","0.3243802095","0.09185370626","","","","","","","","","","","","75","K","2","","","171","main_expt"
"","bandit","251","797580","0.0-212.0-0.0","46635588","wem/bandit_either_2","A2RCJ30AFLCI54","either","4","886","","","","","","","0","0","1","0.2903394368","","0.8","0.6","0.2","0.4","","","","","0.07514546963","0.2903394368","0.3140094691","0.09458096772","","","","","","","","74","J","1","","","172","main_expt"
"","bandit","252","799636","0.0-213.0-0.0","46635588","wem/bandit_either_2","A2RCJ30AFLCI54","either","4","551","","","","","","","0","0","1","","0.2433770114","0.8","0.6","0.2","0.4","0.07704486673","0.2384828248","0.2433770114","0.1016296913","","","","","","","","","","","","75","K","2","","","173","main_expt"
"","bandit","253","801598","0.0-214.0-0.0","46635588","wem/bandit_either_2","A2RCJ30AFLCI54","either","4","455","","","","","","","0","0","1","0.117107939","","0.8","0.6","0.2","0.4","","","","","0.04061738922","0.2823111034","0.2080779891","0.117107939","","","","","","","","76","L","3","","","174","main_expt"
"","bandit","254","803509","0.0-215.0-0.0","46635588","wem/bandit_either_2","A2RCJ30AFLCI54","either","4","406","","","","","","","0","0","1","0.1254773658","","0.8","0.6","0.2","0.4","","","","","0.02968316822","0.292147578","0.2211365803","0.1254773658","","","","","","","","76","L","3","","","175","main_expt"
"","bandit","255","805781","0.0-216.0-0.0","46635588","wem/bandit_either_2","A2RCJ30AFLCI54","either","4","766","","","","","","","0","0","1","","0.1518856622","0.8","0.6","0.2","0.4","0.04419366322","0.2928295457","0.231280906","0.1518856622","","","","","","","","","","","","76","L","3","","","176","main_expt"
"","bandit","256","808533","0.0-217.0-0.0","46635588","wem/bandit_either_2","A2RCJ30AFLCI54","either","4","1246","","","","","","","0","0","1","","0.1689881391","0.8","0.6","0.2","0.4","0.04140429262","0.297241693","0.1689881391","0.1502483312","","","","","","","","","","","","75","K","2","","","177","main_expt"
"","bandit","257","810461","0.0-218.0-0.0","46635588","wem/bandit_either_2","A2RCJ30AFLCI54","either","4","422","","","","","","","0","0","1","","0.276241128","0.8","0.6","0.2","0.4","0.06103489621","0.276241128","0.1699404395","0.2073149786","","","","","","","","","","","","74","J","1","","","178","main_expt"
"","bandit","258","814149","0.0-219.0-0.0","46635588","wem/bandit_either_2","A2RCJ30AFLCI54","either","4","2183","","","","","","","0","0","1","0.2405339857","","0.8","0.6","0.2","0.4","","","","","0.053608248","0.2405339857","0.1571972967","0.1928578162","","","","","","","","74","J","1","","","179","main_expt"
"","bandit","259","816804","0.0-220.0-0.0","46635588","wem/bandit_either_2","A2RCJ30AFLCI54","either","4","1150","","","","","","","0","0","1","0.233428307","","0.8","0.6","0.2","0.4","","","","","0.06289379635","0.233428307","0.1567782565","0.1412953234","","","","","","","","74","J","1","","","180","main_expt"
"","bandit","260","819789","0.0-221.0-0.0","46635588","wem/bandit_either_2","A2RCJ30AFLCI54","either","4","1479","","","","","","","0","0","1","","0.07748386732","0.8","0.6","0.2","0.4","0.07748386732","0.1459310114","0.1492691696","0.1258774719","","","","","","","","","","","","72","H","0","img/none_selected.jpg","","181","main_expt"
"","bandit","261","822557","0.0-222.0-0.0","46635588","wem/bandit_either_2","A2RCJ30AFLCI54","either","4","1263","","","","","","","0","0","1","0.096714051","","0.8","0.6","0.2","0.4","","","","","0.096714051","0.1796360657","0.1609613705","0.1121960069","","","","","","","","72","H","0","img/none_selected.jpg","","182","main_expt"
"","bandit","262","824685","0.0-223.0-0.0","46635588","wem/bandit_either_2","A2RCJ30AFLCI54","either","4","623","","","","","","","0","0","1","","0.05351369794","0.8","0.6","0.2","0.4","0.05351369794","0.1907874973","0.1982891881","0.08335286121","","","","","","","","","","","","72","H","0","img/none_selected.jpg","","183","main_expt"
"","bandit","263","826221","0.0-224.0-0.0","46635588","wem/bandit_either_2","A2RCJ30AFLCI54","either","4","29","","","","","","","0","0","1","0.1451627339","","0.8","0.6","0.2","0.4","","","","","0.08854511538","0.1451627339","0.1703318442","0.1085923678","","","","","","","","74","J","1","","","184","main_expt"
"","bandit","264","827861","0.0-225.0-0.0","46635588","wem/bandit_either_2","A2RCJ30AFLCI54","either","4","134","","","","","","","0","0","1","","0.09566746086","0.8","0.6","0.2","0.4","0.136385666","0.1692531577","0.09566746086","0.1113654269","","","","","","","","","","","","75","K","2","","","185","main_expt"
"","bandit","265","830820","0.0-226.0-0.0","46635588","wem/bandit_either_2","A2RCJ30AFLCI54","either","4","1454","","","","","","","0","0","1","0.1254261761","","0.8","0.6","0.2","0.4","","","","","0.1848043888","0.1885113298","0.1254261761","0.1383531569","","","","","","","","75","K","2","","","186","main_expt"
"","bandit","266","832596","0.0-227.0-0.0","46635588","wem/bandit_either_2","A2RCJ30AFLCI54","either","4","271","","","","","","","1","0","0","0.1739713275","","0.8","0.6","0.2","0.4","","","","","0.1640989128","0.2088125345","0.1081798115","0.1739713275","","","","","","","","76","L","3","","","187","main_expt"
"","bandit","267","834612","0.0-228.0-0.0","46635588","wem/bandit_either_2","A2RCJ30AFLCI54","either","4","511","","","","","","","0","0","1","","0.1926366302","0.8","0.6","0.2","0.4","0.1301402021","0.2228369986","0.08529062399","0.1926366302","","","","","","","","","","","","76","L","3","","","188","main_expt"
"","bandit","268","836429","0.0-229.0-0.0","46635588","wem/bandit_either_2","A2RCJ30AFLCI54","either","4","311","","","","","","","1","0","0","0.2499935398","","0.8","0.6","0.2","0.4","","","","","0.1980942663","0.2567428292","0.07250281893","0.2499935398","","","","","","","","76","L","3","","","189","main_expt"
"","bandit","269","838325","0.0-230.0-0.0","46635588","wem/bandit_either_2","A2RCJ30AFLCI54","either","4","391","","","","","","","0","0","1","0.2367317824","","0.8","0.6","0.2","0.4","","","","","0.1842725295","0.3177850294","0.07895395147","0.2367317824","","","","","","","","76","L","3","","","190","main_expt"
"","bandit","270","840109","0.0-231.0-0.0","46635588","wem/bandit_either_2","A2RCJ30AFLCI54","either","4","279","","","","","","","0","0","1","","0.2515026666","0.8","0.6","0.2","0.4","0.2087081259","0.2876912335","0.06204701637","0.2515026666","","","","","","","","","","","","76","L","3","","","191","main_expt"
"","bandit","271","842253","0.0-232.0-0.0","46635588","wem/bandit_either_2","A2RCJ30AFLCI54","either","4","638","","","","","","","0","0","1","0.2451916405","","0.8","0.6","0.2","0.4","","","","","0.1800110976","0.2383873749","0.064067899","0.2451916405","","","","","","","","76","L","3","","","192","main_expt"
"","bandit","272","844453","0.0-233.0-0.0","46635588","wem/bandit_either_2","A2RCJ30AFLCI54","either","4","693","","","","","","","0","0","1","0.2353451433","","0.8","0.6","0.2","0.4","","","","","0.1519186298","0.24690957","0.1286650472","0.2353451433","","","","","","","","76","L","3","","","193","main_expt"
"","bandit","273","846268","0.0-234.0-0.0","46635588","wem/bandit_either_2","A2RCJ30AFLCI54","either","4","303","","","","","","","1","0","0","0.307075739","","0.8","0.6","0.2","0.4","","","","","0.1431656489","0.2728455101","0.1746490116","0.307075739","","","","","","","","76","L","3","","","194","main_expt"
"","bandit","274","848420","0.0-235.0-0.0","46635588","wem/bandit_either_2","A2RCJ30AFLCI54","either","4","646","","","","","","","1","0","0","0.3011001907","","0.8","0.6","0.2","0.4","","","","","0.1868251083","0.2421292151","0.129035247","0.3011001907","","","","","","","","76","L","3","","","195","main_expt"
"","bandit","275","850332","0.0-236.0-0.0","46635588","wem/bandit_either_2","A2RCJ30AFLCI54","either","4","407","","","","","","","0","1","0","","0.2861216794","0.8","0.6","0.2","0.4","0.176624335","0.2598052724","0.09052040682","0.2861216794","","","","","","","","","","","","76","L","3","","","196","main_expt"
"","bandit","276","852196","0.0-237.0-0.0","46635588","wem/bandit_either_2","A2RCJ30AFLCI54","either","4","359","","","","","","","0","0","1","","0.2121549007","0.8","0.6","0.2","0.4","0.2383323772","0.2540930088","0.08675464884","0.2121549007","","","","","","","","","","","","76","L","3","","","197","main_expt"
"","bandit","277","854173","0.0-238.0-0.0","46635588","wem/bandit_either_2","A2RCJ30AFLCI54","either","4","472","","","","","","","0","0","1","0.260340052","","0.8","0.6","0.2","0.4","","","","","0.260618614","0.2460150375","0.09429549835","0.260340052","","","","","","","","76","L","3","","","198","main_expt"
"","bandit","278","856125","0.0-239.0-0.0","46635588","wem/bandit_either_2","A2RCJ30AFLCI54","either","4","447","","","","","","","0","0","1","","0.3009562829","0.8","0.6","0.2","0.4","0.2935067364","0.2217343644","0.09303778716","0.3009562829","","","","","","","","","","","","76","L","3","","","199","main_expt"
"","bandit","279","857669","0.0-240.0-0.0","46635588","wem/bandit_either_2","A2RCJ30AFLCI54","either","4","39","","","","","","","0","0","1","","0.3430896668","0.8","0.6","0.2","0.4","0.362920627","0.2830302048","0.07354084322","0.3430896668","","","","","","","","","","","","76","L","3","","","200","main_expt"
"","bandit","280","859349","0.0-241.0-0.0","46635588","wem/bandit_either_2","A2RCJ30AFLCI54","either","4","174","","","","","","","0","0","1","0.2973668079","","0.8","0.6","0.2","0.4","","","","","0.3119044903","0.3175621279","0.08115367452","0.2973668079","","","","","","","","76","L","3","","","201","main_expt"
"","bandit","281","861101","0.0-242.0-0.0","46635588","wem/bandit_either_2","A2RCJ30AFLCI54","either","4","246","","","","","","","0","0","1","","0.3219337599","0.8","0.6","0.2","0.4","0.3095695708","0.3049471546","0.0774842685","0.3219337599","","","","","","","","","","","","76","L","3","","","202","main_expt"
"","bandit","282","862733","0.0-243.0-0.0","46635588","wem/bandit_either_2","A2RCJ30AFLCI54","either","4","126","","","","","","","0","1","0","","0.3229991028","0.8","0.6","0.2","0.4","0.3005459379","0.2975042969","0.09704724367","0.3229991028","","","","","","","","","","","","76","L","3","","","203","main_expt"
"","bandit","283","864516","0.0-244.0-0.0","46635588","wem/bandit_either_2","A2RCJ30AFLCI54","either","4","278","","","","","","","0","0","1","","0.3077995671","0.8","0.6","0.2","0.4","0.3116824409","0.2268457719","0.1224111047","0.3077995671","","","","","","","","","","","","76","L","3","","","204","main_expt"
"","bandit","284","866604","0.0-245.0-0.0","46635588","wem/bandit_either_2","A2RCJ30AFLCI54","either","4","583","","","","","","","0","0","1","","0.3070199156","0.8","0.6","0.2","0.4","0.3291635812","0.2582085449","0.1627664319","0.3070199156","","","","","","","","","","","","76","L","3","","","205","main_expt"
"","bandit","285","868485","0.0-246.0-0.0","46635588","wem/bandit_either_2","A2RCJ30AFLCI54","either","4","376","","","","","","","0","1","0","","0.3109683939","0.8","0.6","0.2","0.4","0.4008790519","0.2841247045","0.1604236747","0.3109683939","","","","","","","","","","","","76","L","3","","","206","main_expt"
"","bandit","286","870253","0.0-247.0-0.0","46635588","wem/bandit_either_2","A2RCJ30AFLCI54","either","4","262","","","","","","","0","0","1","0.2845075958","","0.8","0.6","0.2","0.4","","","","","0.4202180382","0.3333225396","0.126388554","0.2845075958","","","","","","","","76","L","3","","","207","main_expt"
"","bandit","287","872101","0.0-248.0-0.0","46635588","wem/bandit_either_2","A2RCJ30AFLCI54","either","4","342","","","","","","","0","1","0","","0.2419557814","0.8","0.6","0.2","0.4","0.4168586074","0.290219871","0.1602309633","0.2419557814","","","","","","","","","","","","76","L","3","","","208","main_expt"
"","bandit","288","874517","0.0-249.0-0.0","46635588","wem/bandit_either_2","A2RCJ30AFLCI54","either","4","910","","","","","","","0","0","1","0.2449545816","","0.8","0.6","0.2","0.4","","","","","0.3949328033","0.3426384504","0.2009997365","0.2449545816","","","","","","","","76","L","3","","","209","main_expt"
"","bandit","289","876797","0.0-250.0-0.0","46635588","wem/bandit_either_2","A2RCJ30AFLCI54","either","4","775","","","","","","","0","0","1","","0.2176860071","0.8","0.6","0.2","0.4","0.41782505","0.2932754766","0.1997114924","0.2176860071","","","","","","","","","","","","76","L","3","","","210","main_expt"
"","bandit","290","879181","0.0-251.0-0.0","46635588","wem/bandit_either_2","A2RCJ30AFLCI54","either","4","879","","","","","","","0","0","1","0.2460847292","","0.8","0.6","0.2","0.4","","","","","0.4377941382","0.2522206247","0.2631807131","0.2460847292","","","","","","","","76","L","3","","","211","main_expt"
"","bandit","291","881420","0.0-252.0-0.0","46635588","wem/bandit_either_2","A2RCJ30AFLCI54","either","4","733","","","","","","","0","0","1","0.2017704833","","0.8","0.6","0.2","0.4","","","","","0.4619006446","0.2323705111","0.2008991105","0.2017704833","","","","","","","","76","L","3","","","212","main_expt"
"","bandit","292","883764","0.0-253.0-0.0","46635588","wem/bandit_either_2","A2RCJ30AFLCI54","either","4","839","","","","","","","0","0","1","","0.1891715169","0.8","0.6","0.2","0.4","0.4508737721","0.2815580385","0.1656487101","0.1891715169","","","","","","","","","","","","76","L","3","","","213","main_expt"
"","bandit","293","887917","0.0-254.0-0.0","46635588","wem/bandit_either_2","A2RCJ30AFLCI54","either","4","2647","","","","","","","0","0","1","","0.1819308411","0.8","0.6","0.2","0.4","0.4639731149","0.2955812139","0.213788386","0.1819308411","","","","","","","","","","","","76","L","3","","","214","main_expt"
"","bandit","294","889686","0.0-255.0-0.0","46635588","wem/bandit_either_2","A2RCJ30AFLCI54","either","4","263","","","","","","","0","0","1","0.1406935411","","0.8","0.6","0.2","0.4","","","","","0.4690757113","0.2988647484","0.2206736926","0.1406935411","","","","","","","","76","L","3","","","215","main_expt"
"","bandit","295","891549","0.0-256.0-0.0","46635588","wem/bandit_either_2","A2RCJ30AFLCI54","either","4","358","","","","","","","1","0","0","0.2270120675","","0.8","0.6","0.2","0.4","","","","","0.4685680314","0.3361974059","0.2270120675","0.206739756","","","","","","","","75","K","2","","","216","main_expt"
"","bandit","296","893221","0.0-257.0-0.0","46635588","wem/bandit_either_2","A2RCJ30AFLCI54","either","4","167","","","","","","","0","0","1","","0.2561581829","0.8","0.6","0.2","0.4","0.4873952874","0.2764506131","0.2561581829","0.178624692","","","","","","","","","","","","75","K","2","","","217","main_expt"
"","bandit","297","895478","0.0-258.0-0.0","46635588","wem/bandit_either_2","A2RCJ30AFLCI54","either","4","750","","","","","","","0","0","1","","0.2785758431","0.8","0.6","0.2","0.4","0.4790671899","0.299893698","0.2785758431","0.2021641755","","","","","","","","","","","","75","K","2","","","218","main_expt"
"","bandit","298","897845","0.0-259.0-0.0","46635588","wem/bandit_either_2","A2RCJ30AFLCI54","either","4","861","","","","","","","0","0","1","0.2707863597","","0.8","0.6","0.2","0.4","","","","","0.4769795117","0.3213687962","0.2707863597","0.2076996705","","","","","","","","75","K","2","","","219","main_expt"
"","bandit","299","900205","0.0-260.0-0.0","46635588","wem/bandit_either_2","A2RCJ30AFLCI54","either","4","855","","","","","","","0","0","1","0.2262269101","","0.8","0.6","0.2","0.4","","","","","0.4746148145","0.3782095139","0.2262269101","0.2479045362","","","","","","","","75","K","2","","","220","main_expt"
"","bandit","300","902284","0.0-261.0-0.0","46635588","wem/bandit_either_2","A2RCJ30AFLCI54","either","4","573","","","","","","","0","0","1","0.251163546","","0.8","0.6","0.2","0.4","","","","","0.4789253058","0.3572699546","0.2522421151","0.251163546","","","","","","","","76","L","3","","","221","main_expt"
"","bandit","301","904012","0.0-262.0-0.0","46635588","wem/bandit_either_2","A2RCJ30AFLCI54","either","4","223","","","","","","","0","0","1","","0.332217079","0.8","0.6","0.2","0.4","0.4765400837","0.332217079","0.2323100388","0.2653622565","","","","","","","","","","","","74","J","1","","","222","main_expt"
"","bandit","302","906141","0.0-263.0-0.0","46635588","wem/bandit_either_2","A2RCJ30AFLCI54","either","4","623","","","","","","","0","0","1","0.3327789551","","0.8","0.6","0.2","0.4","","","","","0.4872993944","0.3327789551","0.2013525365","0.2034578964","","","","","","","","74","J","1","","","223","main_expt"
"","bandit","303","907941","0.0-264.0-0.0","46635588","wem/bandit_either_2","A2RCJ30AFLCI54","either","4","294","","","","","","","1","0","0","0.4864577786","","0.8","0.6","0.2","0.4","","","","","0.4864577786","0.3720138676","0.2017363432","0.1176985371","","","","","","","","72","H","0","img/none_selected.jpg","","224","main_expt"
"","bandit","304","909733","0.0-265.0-0.0","46635588","wem/bandit_either_2","A2RCJ30AFLCI54","either","4","287","","","","","","","0","0","1","0.4815865163","","0.8","0.6","0.2","0.4","","","","","0.4815865163","0.4035982493","0.1608447522","0.08531446518","","","","","","","","72","H","0","img/none_selected.jpg","","225","main_expt"
"","bandit","305","911381","0.0-266.0-0.0","46635588","wem/bandit_either_2","A2RCJ30AFLCI54","either","4","142","","","","","","","0","0","1","0.4781941344","","0.8","0.6","0.2","0.4","","","","","0.4781941344","0.3538577565","0.2023183299","0.0901010045","","","","","","","","72","H","0","img/none_selected.jpg","","226","main_expt"
"","bandit","306","913069","0.0-267.0-0.0","46635588","wem/bandit_either_2","A2RCJ30AFLCI54","either","4","182","","","","","","","0","0","1","","0.4742279627","0.8","0.6","0.2","0.4","0.4742279627","0.4205879778","0.1555458008","0.06499555022","","","","","","","","","","","","72","H","0","img/none_selected.jpg","","227","main_expt"
"","bandit","307","914853","0.0-268.0-0.0","46635588","wem/bandit_either_2","A2RCJ30AFLCI54","either","4","278","","","","","","","0","0","1","0.4597327255","","0.8","0.6","0.2","0.4","","","","","0.4597327255","0.4082381823","0.1210896773","0.06967502077","","","","","","","","72","H","0","img/none_selected.jpg","","228","main_expt"
"","bandit","308","916621","0.0-269.0-0.0","46635588","wem/bandit_either_2","A2RCJ30AFLCI54","either","4","261","","","","","","","0","0","1","0.4274963613","","0.8","0.6","0.2","0.4","","","","","0.4733003713","0.4274963613","0.1206830913","0.07642173418","","","","","","","","74","J","1","","","229","main_expt"
"","bandit","309","920196","0.0-270.0-0.0","46635588","wem/bandit_either_2","A2RCJ30AFLCI54","either","4","2071","","","","","","","0","0","1","0.4362488765","","0.8","0.6","0.2","0.4","","","","","0.4832022084","0.4362488765","0.1334008039","0.04973788902","","","","","","","","74","J","1","","","230","main_expt"
"","bandit","310","922228","0.0-271.0-0.0","46635588","wem/bandit_either_2","A2RCJ30AFLCI54","either","4","526","","","","","","","0","0","1","","0.1048467088","0.8","0.6","0.2","0.4","0.4802630573","0.4420629534","0.1048467088","0.07419495466","","","","","","","","","","","","75","K","2","","","231","main_expt"
"","bandit","311","925749","0.0-272.0-0.0","46635588","wem/bandit_either_2","A2RCJ30AFLCI54","either","4","2015","","","","","","","0","0","1","","0.1184002818","0.8","0.6","0.2","0.4","0.4739318499","0.4287414635","0.1184002818","0.08125260149","","","","","","","","","","","","75","K","2","","","232","main_expt"
"","bandit","312","927421","0.0-273.0-0.0","46635588","wem/bandit_either_2","A2RCJ30AFLCI54","either","4","167","","","","","","","0","0","1","","0.06057073796","0.8","0.6","0.2","0.4","0.4709765286","0.4395511981","0.08533064469","0.06057073796","","","","","","","","","","","","76","L","3","","","233","main_expt"
"","bandit","313","929317","0.0-274.0-0.0","46635588","wem/bandit_either_2","A2RCJ30AFLCI54","either","4","390","","","","","","","0","0","1","0.1037411708","","0.8","0.6","0.2","0.4","","","","","0.4658145356","0.4479240545","0.1190123434","0.1037411708","","","","","","","","76","L","3","","","234","main_expt"
"","bandit","314","931109","0.0-275.0-0.0","46635588","wem/bandit_either_2","A2RCJ30AFLCI54","either","4","285","","","","","","","0","0","1","0.1392024459","","0.8","0.6","0.2","0.4","","","","","0.4312508187","0.4476644646","0.1392024459","0.1267441937","","","","","","","","75","K","2","","","235","main_expt"
"","bandit","315","932876","0.0-276.0-0.0","46635588","wem/bandit_either_2","A2RCJ30AFLCI54","either","4","262","","","","","","","0","0","1","0.457106966","","0.8","0.6","0.2","0.4","","","","","0.4323277229","0.457106966","0.1076242464","0.1002206095","","","","","","","","74","J","1","","","236","main_expt"
"","bandit","316","934884","0.0-277.0-0.0","46635588","wem/bandit_either_2","A2RCJ30AFLCI54","either","4","502","","","","","","","0","0","1","","0.08353940566","0.8","0.6","0.2","0.4","0.4517679415","0.4097288684","0.1539911713","0.08353940566","","","","","","","","","","","","76","L","3","","","237","main_expt"
"","bandit","317","936925","0.0-278.0-0.0","46635588","wem/bandit_either_2","A2RCJ30AFLCI54","either","4","534","","","","","","","0","0","1","0.1833253983","","0.8","0.6","0.2","0.4","","","","","0.4476427196","0.4530646831","0.1833253983","0.07847158511","","","","","","","","75","K","2","","","238","main_expt"
"","bandit","318","938557","0.0-279.0-0.0","46635588","wem/bandit_either_2","A2RCJ30AFLCI54","either","4","125","","","","","","","1","0","0","0.4532148127","","0.8","0.6","0.2","0.4","","","","","0.4421551546","0.4532148127","0.185515968","0.1132310855","","","","","","","","74","J","1","","","239","main_expt"
"","bandit","319","940381","0.0-280.0-0.0","46635588","wem/bandit_either_2","A2RCJ30AFLCI54","either","4","317","","","","","","","0","0","1","","0.4456906816","0.8","0.6","0.2","0.4","0.4205303603","0.4456906816","0.2545144829","0.130249024","","","","","","","","","","","","74","J","1","","","240","main_expt"
"","bandit","320","941893","0.0-281.0-0.0","46635588","wem/bandit_either_2","A2RCJ30AFLCI54","either","4","6","","","","","","","0","0","1","","0.1902236802","0.8","0.6","0.2","0.4","0.4304808994","0.4515134246","0.1902236802","0.1356270161","","","","","","","","","","","","75","K","2","","","241","main_expt"
"","bandit","321","943661","0.0-282.0-0.0","46635588","wem/bandit_either_2","A2RCJ30AFLCI54","either","4","263","","","","","","","0","0","1","","0.1402569013","0.8","0.6","0.2","0.4","0.4318168925","0.4640222466","0.2196571485","0.1402569013","","","","","","","","","","","","76","L","3","","","242","main_expt"
"","bandit","322","945317","0.0-283.0-0.0","46635588","wem/bandit_either_2","A2RCJ30AFLCI54","either","4","150","","","","","","","1","0","0","0.2691755858","","0.8","0.6","0.2","0.4","","","","","0.4437639365","0.4305348251","0.2691755858","0.1851652895","","","","","","","","75","K","2","","","243","main_expt"
"","bandit","323","947117","0.0-284.0-0.0","46635588","wem/bandit_either_2","A2RCJ30AFLCI54","either","4","293","","","","","","","0","0","1","","0.2689580194","0.8","0.6","0.2","0.4","0.4444545885","0.4444417595","0.2689580194","0.1871667761","","","","","","","","","","","","75","K","2","","","244","main_expt"
"","bandit","324","948901","0.0-285.0-0.0","46635588","wem/bandit_either_2","A2RCJ30AFLCI54","either","4","278","","","","","","","1","0","0","0.4468105605","","0.8","0.6","0.2","0.4","","","","","0.445216333","0.4468105605","0.1935089033","0.1881322931","","","","","","","","74","J","1","","","245","main_expt"
"","bandit","325","951341","0.0-286.0-0.0","46635588","wem/bandit_either_2","A2RCJ30AFLCI54","either","4","933","","","","","","","0","0","1","0.4767449203","","0.8","0.6","0.2","0.4","","","","","0.4767449203","0.4453418505","0.1466547275","0.187853128","","","","","","","","72","H","0","img/none_selected.jpg","","246","main_expt"
"","bandit","326","953813","0.0-287.0-0.0","46635588","wem/bandit_either_2","A2RCJ30AFLCI54","either","4","967","","","","","","","0","0","1","0.4426138654","","0.8","0.6","0.2","0.4","","","","","0.4530054638","0.4426138654","0.1275107348","0.1952756904","","","","","","","","74","J","1","","","247","main_expt"
"","bandit","327","955668","0.0-288.0-0.0","46635588","wem/bandit_either_2","A2RCJ30AFLCI54","either","4","349","","","","","","","0","0","1","0.107785627","","0.8","0.6","0.2","0.4","","","","","0.4326938674","0.464375056","0.107785627","0.1722543521","","","","","","","","75","K","2","","","248","main_expt"
