"consent","trial_type","trial_index","time_elapsed","internal_node_id","subjID","study","MID","cond","drift","rt","responses","key_press","expt_phase","like","value","connected","gems","bombs","no_reward","GemPrChosen","BombPrChosen","GainOverPainPr_0","GainOverPainPr_1","GainOverPainPr_2","GainOverPainPr_3","LosePr_0","LosePr_1","LosePr_2","LosePr_3","WinPr_0","WinPr_1","WinPr_2","WinPr_3","Q0","Q1","Q2","gender","age","ethnicity","target","respCharCode","respKey","respChoiceNum","respChoice","practice","trial_counter","trial_label"
"INL_behavioral_consent_30min_online.html","consent","0","11333","0.0-0.0","47689911","wem/bandit_either_2","AYF8B7WJO2YQU","either","2","","","","","","","","","","","","","","","","","","","","","","","","","","","","","","","","","","","","","",""
"","survey-text","1","29290","0.0-1.0","47689911","wem/bandit_either_2","AYF8B7WJO2YQU","either","2","16944","{""Q0"":""AYF8B7WJO2YQU""}","","","","","","","","","","","","","","","","","","","","","","","","","","","","","","","","","","","",""
"","text","2","59007","0.0-2.0","47689911","wem/bandit_either_2","AYF8B7WJO2YQU","either","2","28714","","32","","","","","","","","","","","","","","","","","","","","","","","","","","","","","","","","","","",""
"","text","3","69104","0.0-3.0","47689911","wem/bandit_either_2","AYF8B7WJO2YQU","either","2","10096","","32","","","","","","","","","","","","","","","","","","","","","","","","","","","","","","","","","","",""
"","text","4","97247","0.0-4.0","47689911","wem/bandit_either_2","AYF8B7WJO2YQU","either","2","28140","","32","","","","","","","","","","","","","","","","","","","","","","","","","","","","","","","","","","",""
"","text","5","131411","0.0-5.0","47689911","wem/bandit_either_2","AYF8B7WJO2YQU","either","2","34163","","32","","","","","","","","","","","","","","","","","","","","","","","","","","","","","","","","","","",""
"","text","6","169818","0.0-6.0","47689911","wem/bandit_either_2","AYF8B7WJO2YQU","either","2","38406","","32","","","","","","","","","","","","","","","","","","","","","","","","","","","","","","","","","","",""
"","text","7","191480","0.0-7.0","47689911","wem/bandit_either_2","AYF8B7WJO2YQU","either","2","21659","","32","","","","","","","","","","","","","","","","","","","","","","","","","","","","","","","","","","",""
"","text","8","197478","0.0-8.0","47689911","wem/bandit_either_2","AYF8B7WJO2YQU","either","2","5997","","32","","","","","","","","","","","","","","","","","","","","","","","","","","","","","","","","","","",""
"","identification","9","238916","0.0-9.0-0.0","47689911","wem/bandit_either_2","AYF8B7WJO2YQU","either","2","41418","","","","5","5","5","","","","","","","","","","","","","","","","","","","","","","","","the village of Zur","","","","","","",""
"","identification","10","265135","0.0-9.0-1.0","47689911","wem/bandit_either_2","AYF8B7WJO2YQU","either","2","25193","","","","1","1","1","","","","","","","","","","","","","","","","","","","","","","","","the village of Nyx","","","","","","",""
"","text","11","289886","0.0-10.0","47689911","wem/bandit_either_2","AYF8B7WJO2YQU","either","2","23749","","32","","","","","","","","","","","","","","","","","","","","","","","","","","","","","","","","","","",""
"","text","12","295404","0.0-11.0","47689911","wem/bandit_either_2","AYF8B7WJO2YQU","either","2","5515","","32","","","","","","","","","","","","","","","","","","","","","","","","","","","","","","","","","","",""
"","text","13","299884","0.0-12.0","47689911","wem/bandit_either_2","AYF8B7WJO2YQU","either","2","4478","","32","","","","","","","","","","","","","","","","","","","","","","","","","","","","","","","","","","",""
"","text","14","307297","0.0-13.0","47689911","wem/bandit_either_2","AYF8B7WJO2YQU","either","2","7412","","32","","","","","","","","","","","","","","","","","","","","","","","","","","","","","","","","","","",""
"","bandit","15","314281","0.0-14.0-0.0","47689911","wem/bandit_either_2","AYF8B7WJO2YQU","either","2","5475","","","","","","","0","0","1","0","0","","","","","0","","","","0","","","","","","","","","","","74","J","0","img/none_selected_demo.jpg","true","0",""
"","bandit","16","317042","0.0-15.0-0.0","47689911","wem/bandit_either_2","AYF8B7WJO2YQU","either","2","1257","","","","","","","0","0","1","0","0","","","","","0","","","","0","","","","","","","","","","","75","K","0","img/none_selected_demo.jpg","true","0",""
"","text","17","340172","0.0-16.0","47689911","wem/bandit_either_2","AYF8B7WJO2YQU","either","2","23127","","32","","","","","","","","","","","","","","","","","","","","","","","","","","","","","","","","","","",""
"","text","18","359206","0.0-17.0","47689911","wem/bandit_either_2","AYF8B7WJO2YQU","either","2","19034","","32","","","","","","","","","","","","","","","","","","","","","","","","","","","","","","","","","","",""
"","text","19","375668","0.0-18.0","47689911","wem/bandit_either_2","AYF8B7WJO2YQU","either","2","16458","","32","","","","","","","","","","","","","","","","","","","","","","","","","","","","","","","","","","",""
"","text","20","383520","0.0-19.0","47689911","wem/bandit_either_2","AYF8B7WJO2YQU","either","2","7850","","32","","","","","","","","","","","","","","","","","","","","","","","","","","","","","","","","","","",""
"","bandit","21","386225","0.0-20.0-0.0","47689911","wem/bandit_either_2","AYF8B7WJO2YQU","either","2","1201","","","","","","","1","0","0","0.8","","0.5","0.5","","","","","","","0.8","0.2","","","","","","","","","","74","J","0","img/none_selected_demo.jpg","true","0","80_20_practice"
"","bandit","22","388673","0.0-20.0-1.0","47689911","wem/bandit_either_2","AYF8B7WJO2YQU","either","2","943","","","","","","","1","0","0","0.8","","0.5","0.5","","","","","","","0.8","0.2","","","","","","","","","","74","J","0","img/none_selected_demo.jpg","true","0","80_20_practice"
"","bandit","23","390628","0.0-20.0-2.0","47689911","wem/bandit_either_2","AYF8B7WJO2YQU","either","2","449","","","","","","","1","0","0","0.8","","0.5","0.5","","","","","","","0.8","0.2","","","","","","","","","","74","J","0","img/none_selected_demo.jpg","true","0","80_20_practice"
"","bandit","24","393025","0.0-20.0-3.0","47689911","wem/bandit_either_2","AYF8B7WJO2YQU","either","2","892","","","","","","","0","0","1","","0.8","0.5","0.5","","","0.8","0.2","","","","","","","","","","","","","","74","J","0","img/none_selected_demo.jpg","true","0","80_20_practice"
"","bandit","25","394941","0.0-20.0-4.0","47689911","wem/bandit_either_2","AYF8B7WJO2YQU","either","2","409","","","","","","","1","0","0","0.2","","0.5","0.5","","","","","","","0.8","0.2","","","","","","","","","","75","K","1","","true","0","80_20_practice"
"","bandit","26","396845","0.0-20.0-5.0","47689911","wem/bandit_either_2","AYF8B7WJO2YQU","either","2","396","","","","","","","0","0","1","0.2","","0.5","0.5","","","","","","","0.8","0.2","","","","","","","","","","75","K","1","","true","0","80_20_practice"
"","bandit","27","398737","0.0-20.0-6.0","47689911","wem/bandit_either_2","AYF8B7WJO2YQU","either","2","386","","","","","","","0","1","0","","0.8","0.5","0.5","","","0.8","0.2","","","","","","","","","","","","","","74","J","0","img/none_selected_demo.jpg","true","0","80_20_practice"
"","bandit","28","400694","0.0-20.0-7.0","47689911","wem/bandit_either_2","AYF8B7WJO2YQU","either","2","451","","","","","","","0","0","1","","0.8","0.5","0.5","","","0.8","0.2","","","","","","","","","","","","","","74","J","0","img/none_selected_demo.jpg","true","0","80_20_practice"
"","bandit","29","403712","0.0-20.0-8.0","47689911","wem/bandit_either_2","AYF8B7WJO2YQU","either","2","1511","","","","","","","1","0","0","0.8","","0.5","0.5","","","","","","","0.8","0.2","","","","","","","","","","74","J","0","img/none_selected_demo.jpg","true","0","80_20_practice"
"","bandit","30","405616","0.0-20.0-9.0","47689911","wem/bandit_either_2","AYF8B7WJO2YQU","either","2","398","","","","","","","0","1","0","","0.8","0.5","0.5","","","0.8","0.2","","","","","","","","","","","","","","74","J","0","img/none_selected_demo.jpg","true","0","80_20_practice"
"","bandit","31","407628","0.0-20.0-10.0","47689911","wem/bandit_either_2","AYF8B7WJO2YQU","either","2","504","","","","","","","1","0","0","0.8","","0.5","0.5","","","","","","","0.8","0.2","","","","","","","","","","74","J","0","img/none_selected_demo.jpg","true","0","80_20_practice"
"","bandit","32","409741","0.0-20.0-11.0","47689911","wem/bandit_either_2","AYF8B7WJO2YQU","either","2","607","","","","","","","0","1","0","","0.8","0.5","0.5","","","0.8","0.2","","","","","","","","","","","","","","74","J","0","img/none_selected_demo.jpg","true","0","80_20_practice"
"","bandit","33","411766","0.0-20.0-12.0","47689911","wem/bandit_either_2","AYF8B7WJO2YQU","either","2","518","","","","","","","1","0","0","0.8","","0.5","0.5","","","","","","","0.8","0.2","","","","","","","","","","74","J","0","img/none_selected_demo.jpg","true","0","80_20_practice"
"","bandit","34","413569","0.0-20.0-13.0","47689911","wem/bandit_either_2","AYF8B7WJO2YQU","either","2","294","","","","","","","0","0","1","0.8","","0.5","0.5","","","","","","","0.8","0.2","","","","","","","","","","74","J","0","img/none_selected_demo.jpg","true","0","80_20_practice"
"","bandit","35","415505","0.0-20.0-14.0","47689911","wem/bandit_either_2","AYF8B7WJO2YQU","either","2","426","","","","","","","0","1","0","","0.8","0.5","0.5","","","0.8","0.2","","","","","","","","","","","","","","74","J","0","img/none_selected_demo.jpg","true","0","80_20_practice"
"","bandit","36","417137","0.0-20.0-15.0","47689911","wem/bandit_either_2","AYF8B7WJO2YQU","either","2","119","","","","","","","0","1","0","","0.8","0.5","0.5","","","0.8","0.2","","","","","","","","","","","","","","74","J","0","img/none_selected_demo.jpg","true","0","80_20_practice"
"","bandit","37","419517","0.0-20.0-16.0","47689911","wem/bandit_either_2","AYF8B7WJO2YQU","either","2","874","","","","","","","1","0","0","0.8","","0.5","0.5","","","","","","","0.8","0.2","","","","","","","","","","74","J","0","img/none_selected_demo.jpg","true","0","80_20_practice"
"","bandit","38","422304","0.0-20.0-17.0","47689911","wem/bandit_either_2","AYF8B7WJO2YQU","either","2","1280","","","","","","","0","1","0","","0.8","0.5","0.5","","","0.8","0.2","","","","","","","","","","","","","","74","J","0","img/none_selected_demo.jpg","true","0","80_20_practice"
"","bandit","39","424562","0.0-20.0-18.0","47689911","wem/bandit_either_2","AYF8B7WJO2YQU","either","2","750","","","","","","","0","0","1","0.8","","0.5","0.5","","","","","","","0.8","0.2","","","","","","","","","","74","J","0","img/none_selected_demo.jpg","true","0","80_20_practice"
"","bandit","40","426526","0.0-20.0-19.0","47689911","wem/bandit_either_2","AYF8B7WJO2YQU","either","2","456","","","","","","","1","0","0","0.8","","0.5","0.5","","","","","","","0.8","0.2","","","","","","","","","","74","J","0","img/none_selected_demo.jpg","true","0","80_20_practice"
"","text","41","453331","0.0-21.0","47689911","wem/bandit_either_2","AYF8B7WJO2YQU","either","2","26798","","32","","","","","","","","","","","","","","","","","","","","","","","","","","","","","","","","","","",""
"","bandit","42","457438","0.0-22.0-0.0","47689911","wem/bandit_either_2","AYF8B7WJO2YQU","either","2","2601","","","","","","","1","0","0","1","0","","","","","0","1","","","1","0","","","","","","","","","","74","J","0","img/none_selected_demo.jpg","true","0",""
"","text","43","470382","0.0-23.0","47689911","wem/bandit_either_2","AYF8B7WJO2YQU","either","2","12941","","32","","","","","","","","","","","","","","","","","","","","","","","","","","","","","","","","","","",""
"","text","44","483654","0.0-24.0","47689911","wem/bandit_either_2","AYF8B7WJO2YQU","either","2","13268","","32","","","","","","","","","","","","","","","","","","","","","","","","","","","","","","","","","","",""
"","text","45","487429","0.0-25.0","47689911","wem/bandit_either_2","AYF8B7WJO2YQU","either","2","3771","","32","","","","","","","","","","","","","","","","","","","","","","","","","","","","","","","","","","",""
"","text","46","493043","0.0-26.0","47689911","wem/bandit_either_2","AYF8B7WJO2YQU","either","2","5611","","32","","","","","","","","","","","","","","","","","","","","","","","","","","","","","","","","","","",""
"","text","47","507342","0.0-27.0","47689911","wem/bandit_either_2","AYF8B7WJO2YQU","either","2","14297","","32","","","","","","","","","","","","","","","","","","","","","","","","","","","","","","","","","","",""
"","text","48","511864","0.0-28.0","47689911","wem/bandit_either_2","AYF8B7WJO2YQU","either","2","4519","","32","","","","","","","","","","","","","","","","","","","","","","","","","","","","","","","","","","",""
"","text","49","519702","0.0-29.0","47689911","wem/bandit_either_2","AYF8B7WJO2YQU","either","2","7834","","32","","","","","","","","","","","","","","","","","","","","","","","","","","","","","","","","","","",""
"","text","50","526308","0.0-30.0","47689911","wem/bandit_either_2","AYF8B7WJO2YQU","either","2","6602","","32","","","","","","","","","","","","","","","","","","","","","","","","","","","","","","","","","","",""
"","text","51","532143","0.0-31.0","47689911","wem/bandit_either_2","AYF8B7WJO2YQU","either","2","5833","","32","","","","","","","","","","","","","","","","","","","","","","","","","","","","","","","","","","",""
"","text","52","535032","0.0-32.0","47689911","wem/bandit_either_2","AYF8B7WJO2YQU","either","2","2888","","32","","","","","","","","","","","","","","","","","","","","","","","","","","","","","","","","","","",""
"","text","53","541056","0.0-33.0","47689911","wem/bandit_either_2","AYF8B7WJO2YQU","either","2","6019","","32","","","","","","","","","","","","","","","","","","","","","","","","","","","","","","","","","","",""
"","bandit","54","543872","0.0-34.0-0.0","47689911","wem/bandit_either_2","AYF8B7WJO2YQU","either","2","1308","","","","","","","0","0","1","0.8","","0.5","0.5","0.5","0.5","","","","","0.8","0.2","0.6","0.2","","","","","","","","72","H","0","img/none_selected.jpg","true","0","full_practice"
"","bandit","55","546161","0.0-34.0-1.0","47689911","wem/bandit_either_2","AYF8B7WJO2YQU","either","2","783","","","","","","","0","0","1","0.6","","0.5","0.5","0.5","0.5","","","","","0.8","0.2","0.6","0.2","","","","","","","","75","K","2","","true","0","full_practice"
"","bandit","56","548085","0.0-34.0-2.0","47689911","wem/bandit_either_2","AYF8B7WJO2YQU","either","2","419","","","","","","","0","0","1","","0.2","0.5","0.5","0.5","0.5","0.8","0.2","0.6","0.2","","","","","","","","","","","","76","L","3","","true","0","full_practice"
"","bandit","57","550107","0.0-34.0-3.0","47689911","wem/bandit_either_2","AYF8B7WJO2YQU","either","2","516","","","","","","","0","0","1","","0.2","0.5","0.5","0.5","0.5","0.8","0.2","0.6","0.2","","","","","","","","","","","","74","J","1","","true","0","full_practice"
"","bandit","58","552071","0.0-34.0-4.0","47689911","wem/bandit_either_2","AYF8B7WJO2YQU","either","2","456","","","","","","","0","0","1","","0.6","0.5","0.5","0.5","0.5","0.8","0.2","0.6","0.2","","","","","","","","","","","","75","K","2","","true","0","full_practice"
"","bandit","59","555005","0.0-34.0-5.0","47689911","wem/bandit_either_2","AYF8B7WJO2YQU","either","2","1426","","","","","","","0","1","0","","0.8","0.5","0.5","0.5","0.5","0.8","0.2","0.6","0.2","","","","","","","","","","","","72","H","0","img/none_selected.jpg","true","0","full_practice"
"","bandit","60","557483","0.0-34.0-6.0","47689911","wem/bandit_either_2","AYF8B7WJO2YQU","either","2","972","","","","","","","0","0","1","0.8","","0.5","0.5","0.5","0.5","","","","","0.8","0.2","0.6","0.2","","","","","","","","72","H","0","img/none_selected.jpg","true","0","full_practice"
"","bandit","61","559409","0.0-34.0-7.0","47689911","wem/bandit_either_2","AYF8B7WJO2YQU","either","2","417","","","","","","","0","0","1","0.2","","0.5","0.5","0.5","0.5","","","","","0.8","0.2","0.6","0.2","","","","","","","","76","L","3","","true","0","full_practice"
"","bandit","62","561281","0.0-34.0-8.0","47689911","wem/bandit_either_2","AYF8B7WJO2YQU","either","2","365","","","","","","","1","0","0","0.6","","0.5","0.5","0.5","0.5","","","","","0.8","0.2","0.6","0.2","","","","","","","","75","K","2","","true","0","full_practice"
"","bandit","63","563359","0.0-34.0-9.0","47689911","wem/bandit_either_2","AYF8B7WJO2YQU","either","2","575","","","","","","","0","0","1","0.2","","0.5","0.5","0.5","0.5","","","","","0.8","0.2","0.6","0.2","","","","","","","","74","J","1","","true","0","full_practice"
"","bandit","64","565302","0.0-34.0-10.0","47689911","wem/bandit_either_2","AYF8B7WJO2YQU","either","2","438","","","","","","","0","1","0","","0.8","0.5","0.5","0.5","0.5","0.8","0.2","0.6","0.2","","","","","","","","","","","","72","H","0","img/none_selected.jpg","true","0","full_practice"
"","bandit","65","567741","0.0-34.0-11.0","47689911","wem/bandit_either_2","AYF8B7WJO2YQU","either","2","933","","","","","","","1","0","0","0.8","","0.5","0.5","0.5","0.5","","","","","0.8","0.2","0.6","0.2","","","","","","","","72","H","0","img/none_selected.jpg","true","0","full_practice"
"","bandit","66","570018","0.0-34.0-12.0","47689911","wem/bandit_either_2","AYF8B7WJO2YQU","either","2","767","","","","","","","1","0","0","0.8","","0.5","0.5","0.5","0.5","","","","","0.8","0.2","0.6","0.2","","","","","","","","72","H","0","img/none_selected.jpg","true","0","full_practice"
"","bandit","67","572337","0.0-34.0-13.0","47689911","wem/bandit_either_2","AYF8B7WJO2YQU","either","2","811","","","","","","","1","0","0","0.8","","0.5","0.5","0.5","0.5","","","","","0.8","0.2","0.6","0.2","","","","","","","","72","H","0","img/none_selected.jpg","true","0","full_practice"
"","bandit","68","574297","0.0-34.0-14.0","47689911","wem/bandit_either_2","AYF8B7WJO2YQU","either","2","454","","","","","","","0","1","0","","0.8","0.5","0.5","0.5","0.5","0.8","0.2","0.6","0.2","","","","","","","","","","","","72","H","0","img/none_selected.jpg","true","0","full_practice"
"","bandit","69","576561","0.0-34.0-15.0","47689911","wem/bandit_either_2","AYF8B7WJO2YQU","either","2","754","","","","","","","0","0","1","","0.8","0.5","0.5","0.5","0.5","0.8","0.2","0.6","0.2","","","","","","","","","","","","72","H","0","img/none_selected.jpg","true","0","full_practice"
"","bandit","70","578705","0.0-34.0-16.0","47689911","wem/bandit_either_2","AYF8B7WJO2YQU","either","2","632","","","","","","","0","0","1","","0.6","0.5","0.5","0.5","0.5","0.8","0.2","0.6","0.2","","","","","","","","","","","","75","K","2","","true","0","full_practice"
"","bandit","71","580713","0.0-34.0-17.0","47689911","wem/bandit_either_2","AYF8B7WJO2YQU","either","2","499","","","","","","","0","1","0","","0.2","0.5","0.5","0.5","0.5","0.8","0.2","0.6","0.2","","","","","","","","","","","","74","J","1","","true","0","full_practice"
"","bandit","72","582939","0.0-34.0-18.0","47689911","wem/bandit_either_2","AYF8B7WJO2YQU","either","2","704","","","","","","","0","0","1","0.8","","0.5","0.5","0.5","0.5","","","","","0.8","0.2","0.6","0.2","","","","","","","","72","H","0","img/none_selected.jpg","true","0","full_practice"
"","bandit","73","585158","0.0-34.0-19.0","47689911","wem/bandit_either_2","AYF8B7WJO2YQU","either","2","711","","","","","","","1","0","0","0.2","","0.5","0.5","0.5","0.5","","","","","0.8","0.2","0.6","0.2","","","","","","","","74","J","1","","true","0","full_practice"
"","text","74","588488","0.0-35.0","47689911","wem/bandit_either_2","AYF8B7WJO2YQU","either","2","3321","","32","","","","","","","","","","","","","","","","","","","","","","","","","","","","","","","","","","",""
"","text","75","632221","0.0-36.0","47689911","wem/bandit_either_2","AYF8B7WJO2YQU","either","2","42730","","32","","","","","","","","","","","","","","","","","","","","","","","","","","","","","","","","","","",""
"","text","76","645603","0.0-37.0","47689911","wem/bandit_either_2","AYF8B7WJO2YQU","either","2","13378","","32","","","","","","","","","","","","","","","","","","","","","","","","","","","","","","","","","","",""
"","text","77","652341","0.0-38.0","47689911","wem/bandit_either_2","AYF8B7WJO2YQU","either","2","6734","","32","","","","","","","","","","","","","","","","","","","","","","","","","","","","","","","","","","",""
"","text","78","670764","0.0-39.0","47689911","wem/bandit_either_2","AYF8B7WJO2YQU","either","2","18418","","32","","","","","","","","","","","","","","","","","","","","","","","","","","","","","","","","","","",""
"","text","79","677970","0.0-40.0","47689911","wem/bandit_either_2","AYF8B7WJO2YQU","either","2","7203","","32","","","","","","","","","","","","","","","","","","","","","","","","","","","","","","","","","","",""
"","bandit","80","681321","0.0-41.0-0.0","47689911","wem/bandit_either_2","AYF8B7WJO2YQU","either","2","1843","","","","","","","0","0","1","0.362799796","","0.6","0.4","0.8","0.2","","","","","0.362799796","0.4781977867","0.3653736811","0.326135308","","","","","","","","72","H","0","img/none_selected.jpg","","1","main_expt"
"","bandit","81","683650","0.0-42.0-0.0","47689911","wem/bandit_either_2","AYF8B7WJO2YQU","either","2","818","","","","","","","0","1","0","","0.4765481994","0.6","0.4","0.8","0.2","0.3891507205","0.4765481994","0.3999069229","0.3564958201","","","","","","","","","","","","74","J","1","","","2","main_expt"
"","bandit","82","686165","0.0-43.0-0.0","47689911","wem/bandit_either_2","AYF8B7WJO2YQU","either","2","1006","","","","","","","1","0","0","0.4722158263","","0.6","0.4","0.8","0.2","","","","","0.3151339382","0.4722158263","0.4363582421","0.3309056029","","","","","","","","74","J","1","","","3","main_expt"
"","bandit","83","688852","0.0-44.0-0.0","47689911","wem/bandit_either_2","AYF8B7WJO2YQU","either","2","1177","","","","","","","0","0","1","","0.4609570051","0.6","0.4","0.8","0.2","0.250648122","0.4609570051","0.4300921111","0.308467875","","","","","","","","","","","","74","J","1","","","4","main_expt"
"","bandit","84","691529","0.0-45.0-0.0","47689911","wem/bandit_either_2","AYF8B7WJO2YQU","either","2","1165","","","","","","","0","1","0","","0.3863220662","0.6","0.4","0.8","0.2","0.2382585344","0.4707799186","0.3863220662","0.3349995635","","","","","","","","","","","","75","K","2","","","5","main_expt"
"","bandit","85","693603","0.0-46.0-0.0","47689911","wem/bandit_either_2","AYF8B7WJO2YQU","either","2","566","","","","","","","0","0","1","0.4192648028","","0.6","0.4","0.8","0.2","","","","","0.2088101903","0.4676743975","0.4192648028","0.3743101545","","","","","","","","75","K","2","","","6","main_expt"
"","bandit","86","695475","0.0-47.0-0.0","47689911","wem/bandit_either_2","AYF8B7WJO2YQU","either","2","364","","","","","","","0","0","1","","0.377506125","0.6","0.4","0.8","0.2","0.1884279889","0.4767364015","0.4218548145","0.377506125","","","","","","","","","","","","76","L","3","","","7","main_expt"
"","bandit","87","697342","0.0-48.0-0.0","47689911","wem/bandit_either_2","AYF8B7WJO2YQU","either","2","354","","","","","","","0","1","0","","0.4298914749","0.6","0.4","0.8","0.2","0.2297930851","0.4837409877","0.4298914749","0.3452849142","","","","","","","","","","","","75","K","2","","","8","main_expt"
"","bandit","88","699371","0.0-49.0-0.0","47689911","wem/bandit_either_2","AYF8B7WJO2YQU","either","2","516","","","","","","","0","1","0","","0.4825212187","0.6","0.4","0.8","0.2","0.2219539873","0.4825212187","0.4215440671","0.2713567333","","","","","","","","","","","","74","J","1","","","9","main_expt"
"","bandit","89","701247","0.0-50.0-0.0","47689911","wem/bandit_either_2","AYF8B7WJO2YQU","either","2","369","","","","","","","0","0","1","0.3991616263","","0.6","0.4","0.8","0.2","","","","","0.2398128751","0.4791264729","0.3991616263","0.2712708503","","","","","","","","75","K","2","","","10","main_expt"
"","bandit","90","703238","0.0-51.0-0.0","47689911","wem/bandit_either_2","AYF8B7WJO2YQU","either","2","481","","","","","","","0","0","1","0.2551733424","","0.6","0.4","0.8","0.2","","","","","0.2551733424","0.4762013833","0.4002673883","0.2635531688","","","","","","","","72","H","0","img/none_selected.jpg","","11","main_expt"
"","bandit","91","705221","0.0-52.0-0.0","47689911","wem/bandit_either_2","AYF8B7WJO2YQU","either","2","477","","","","","","","0","0","1","","0.2669056975","0.6","0.4","0.8","0.2","0.2593424883","0.4729837645","0.368629831","0.2669056975","","","","","","","","","","","","76","L","3","","","12","main_expt"
"","bandit","92","707401","0.0-53.0-0.0","47689911","wem/bandit_either_2","AYF8B7WJO2YQU","either","2","674","","","","","","","1","0","0","0.4749786695","","0.6","0.4","0.8","0.2","","","","","0.2493591627","0.4749786695","0.4189726289","0.3204456557","","","","","","","","74","J","1","","","13","main_expt"
"","bandit","93","709520","0.0-54.0-0.0","47689911","wem/bandit_either_2","AYF8B7WJO2YQU","either","2","610","","","","","","","0","1","0","","0.4810115094","0.6","0.4","0.8","0.2","0.2686446846","0.4810115094","0.4352425359","0.3466526728","","","","","","","","","","","","74","J","1","","","14","main_expt"
"","bandit","94","711676","0.0-55.0-0.0","47689911","wem/bandit_either_2","AYF8B7WJO2YQU","either","2","649","","","","","","","0","0","1","","0.4705329286","0.6","0.4","0.8","0.2","0.2690169042","0.4705329286","0.3819090161","0.3736671224","","","","","","","","","","","","74","J","1","","","15","main_expt"
"","bandit","95","713605","0.0-56.0-0.0","47689911","wem/bandit_either_2","AYF8B7WJO2YQU","either","2","422","","","","","","","0","0","1","0.4687419894","","0.6","0.4","0.8","0.2","","","","","0.2518303543","0.4687419894","0.3737760256","0.3778143907","","","","","","","","74","J","1","","","16","main_expt"
"","bandit","96","715533","0.0-57.0-0.0","47689911","wem/bandit_either_2","AYF8B7WJO2YQU","either","2","419","","","","","","","0","0","1","0.4151791473","","0.6","0.4","0.8","0.2","","","","","0.2406549936","0.4594180265","0.4151791473","0.3845750066","","","","","","","","75","K","2","","","17","main_expt"
"","bandit","97","717495","0.0-58.0-0.0","47689911","wem/bandit_either_2","AYF8B7WJO2YQU","either","2","452","","","","","","","0","0","1","","0.4137363134","0.6","0.4","0.8","0.2","0.2670149403","0.425397146","0.4137363134","0.4041286345","","","","","","","","","","","","75","K","2","","","18","main_expt"
"","bandit","98","719488","0.0-59.0-0.0","47689911","wem/bandit_either_2","AYF8B7WJO2YQU","either","2","482","","","","","","","0","1","0","","0.2658482338","0.6","0.4","0.8","0.2","0.2658482338","0.4201246927","0.4084056464","0.4127350431","","","","","","","","","","","","72","H","0","img/none_selected.jpg","","19","main_expt"
"","bandit","99","721858","0.0-60.0-0.0","47689911","wem/bandit_either_2","AYF8B7WJO2YQU","either","2","864","","","","","","","0","0","1","0.2452433766","","0.6","0.4","0.8","0.2","","","","","0.2452433766","0.3954271328","0.4129175496","0.4107359536","","","","","","","","72","H","0","img/none_selected.jpg","","20","main_expt"
"","bandit","100","723975","0.0-61.0-0.0","47689911","wem/bandit_either_2","AYF8B7WJO2YQU","either","2","610","","","","","","","0","0","1","","0.3954861765","0.6","0.4","0.8","0.2","0.2298761452","0.4196431029","0.3888488162","0.3954861765","","","","","","","","","","","","76","L","3","","","21","main_expt"
"","bandit","101","725870","0.0-62.0-0.0","47689911","wem/bandit_either_2","AYF8B7WJO2YQU","either","2","388","","","","","","","1","0","0","0.3843335182","","0.6","0.4","0.8","0.2","","","","","0.266827693","0.3843335182","0.3873149631","0.3805979297","","","","","","","","74","J","1","","","22","main_expt"
"","bandit","102","727888","0.0-63.0-0.0","47689911","wem/bandit_either_2","AYF8B7WJO2YQU","either","2","507","","","","","","","0","0","1","0.3839977458","","0.6","0.4","0.8","0.2","","","","","0.2519769849","0.3839977458","0.3659772031","0.425451992","","","","","","","","74","J","1","","","23","main_expt"
"","bandit","103","729829","0.0-64.0-0.0","47689911","wem/bandit_either_2","AYF8B7WJO2YQU","either","2","429","","","","","","","1","0","0","0.3338939571","","0.6","0.4","0.8","0.2","","","","","0.2447613107","0.3338939571","0.3594327093","0.4699447661","","","","","","","","74","J","1","","","24","main_expt"
"","bandit","104","731749","0.0-65.0-0.0","47689911","wem/bandit_either_2","AYF8B7WJO2YQU","either","2","411","","","","","","","0","0","1","","0.324486952","0.6","0.4","0.8","0.2","0.2350413847","0.324486952","0.3719143394","0.4484050393","","","","","","","","","","","","74","J","1","","","25","main_expt"
"","bandit","105","733782","0.0-66.0-0.0","47689911","wem/bandit_either_2","AYF8B7WJO2YQU","either","2","522","","","","","","","0","0","1","","0.3095710384","0.6","0.4","0.8","0.2","0.207774486","0.3095710384","0.3690014044","0.4190234423","","","","","","","","","","","","74","J","1","","","26","main_expt"
"","bandit","106","735632","0.0-67.0-0.0","47689911","wem/bandit_either_2","AYF8B7WJO2YQU","either","2","338","","","","","","","0","0","1","0.3940030818","","0.6","0.4","0.8","0.2","","","","","0.2164182795","0.3355629191","0.3940030818","0.4251478254","","","","","","","","75","K","2","","","27","main_expt"
"","bandit","107","737557","0.0-68.0-0.0","47689911","wem/bandit_either_2","AYF8B7WJO2YQU","either","2","414","","","","","","","1","0","0","0.2164031865","","0.6","0.4","0.8","0.2","","","","","0.2164031865","0.3668681485","0.4111080327","0.4287328697","","","","","","","","72","H","0","img/none_selected.jpg","","28","main_expt"
"","bandit","108","739582","0.0-69.0-0.0","47689911","wem/bandit_either_2","AYF8B7WJO2YQU","either","2","518","","","","","","","0","1","0","","0.2770000278","0.6","0.4","0.8","0.2","0.2770000278","0.343198694","0.41290056","0.4106025245","","","","","","","","","","","","72","H","0","img/none_selected.jpg","","29","main_expt"
"","bandit","109","741512","0.0-70.0-0.0","47689911","wem/bandit_either_2","AYF8B7WJO2YQU","either","2","419","","","","","","","0","0","1","0.2354797847","","0.6","0.4","0.8","0.2","","","","","0.2354797847","0.326069126","0.3937480262","0.3942494676","","","","","","","","72","H","0","img/none_selected.jpg","","30","main_expt"
"","bandit","110","743336","0.0-71.0-0.0","47689911","wem/bandit_either_2","AYF8B7WJO2YQU","either","2","312","","","","","","","0","0","1","0.2692030882","","0.6","0.4","0.8","0.2","","","","","0.2692030882","0.3390127419","0.3997016236","0.4285056211","","","","","","","","72","H","0","img/none_selected.jpg","","31","main_expt"
"","bandit","111","745147","0.0-72.0-0.0","47689911","wem/bandit_either_2","AYF8B7WJO2YQU","either","2","300","","","","","","","0","0","1","","0.2471118655","0.6","0.4","0.8","0.2","0.2471118655","0.3360649894","0.3574295763","0.4249454459","","","","","","","","","","","","72","H","0","img/none_selected.jpg","","32","main_expt"
"","bandit","112","747030","0.0-73.0-0.0","47689911","wem/bandit_either_2","AYF8B7WJO2YQU","either","2","374","","","","","","","0","0","1","","0.416417765","0.6","0.4","0.8","0.2","0.2879199001","0.3052602024","0.3877818659","0.416417765","","","","","","","","","","","","76","L","3","","","33","main_expt"
"","bandit","113","748838","0.0-74.0-0.0","47689911","wem/bandit_either_2","AYF8B7WJO2YQU","either","2","303","","","","","","","0","1","0","","0.4623714429","0.6","0.4","0.8","0.2","0.3180115212","0.3594788954","0.3799496232","0.4623714429","","","","","","","","","","","","76","L","3","","","34","main_expt"
"","bandit","114","750653","0.0-75.0-0.0","47689911","wem/bandit_either_2","AYF8B7WJO2YQU","either","2","306","","","","","","","0","1","0","","0.4591977302","0.6","0.4","0.8","0.2","0.2524306687","0.380235832","0.3577573403","0.4591977302","","","","","","","","","","","","76","L","3","","","35","main_expt"
"","bandit","115","752397","0.0-76.0-0.0","47689911","wem/bandit_either_2","AYF8B7WJO2YQU","either","2","233","","","","","","","0","1","0","","0.4686235256","0.6","0.4","0.8","0.2","0.2351869563","0.3459989602","0.3895375856","0.4686235256","","","","","","","","","","","","76","L","3","","","36","main_expt"
"","bandit","116","754326","0.0-77.0-0.0","47689911","wem/bandit_either_2","AYF8B7WJO2YQU","either","2","421","","","","","","","0","1","0","","0.4571547709","0.6","0.4","0.8","0.2","0.2629170466","0.3320905149","0.3783527007","0.4571547709","","","","","","","","","","","","76","L","3","","","37","main_expt"
"","bandit","117","756158","0.0-78.0-0.0","47689911","wem/bandit_either_2","AYF8B7WJO2YQU","either","2","324","","","","","","","0","1","0","","0.4688430709","0.6","0.4","0.8","0.2","0.3090194305","0.3471020919","0.284076782","0.4688430709","","","","","","","","","","","","76","L","3","","","38","main_expt"
"","bandit","118","758011","0.0-79.0-0.0","47689911","wem/bandit_either_2","AYF8B7WJO2YQU","either","2","342","","","","","","","0","1","0","","0.4612923778","0.6","0.4","0.8","0.2","0.2845371228","0.3401763967","0.3388972186","0.4612923778","","","","","","","","","","","","76","L","3","","","39","main_expt"
"","bandit","119","759847","0.0-80.0-0.0","47689911","wem/bandit_either_2","AYF8B7WJO2YQU","either","2","320","","","","","","","0","1","0","","0.4576194683","0.6","0.4","0.8","0.2","0.3076259244","0.3260487483","0.2663655232","0.4576194683","","","","","","","","","","","","76","L","3","","","40","main_expt"
"","bandit","120","761737","0.0-81.0-0.0","47689911","wem/bandit_either_2","AYF8B7WJO2YQU","either","2","381","","","","","","","0","0","1","","0.4473921051","0.6","0.4","0.8","0.2","0.2888769276","0.3390218734","0.2608266697","0.4473921051","","","","","","","","","","","","76","L","3","","","41","main_expt"
"","bandit","121","763565","0.0-82.0-0.0","47689911","wem/bandit_either_2","AYF8B7WJO2YQU","either","2","320","","","","","","","1","0","0","0.2287676803","","0.6","0.4","0.8","0.2","","","","","0.2639198141","0.2889680017","0.2287676803","0.425470286","","","","","","","","75","K","2","","","42","main_expt"
"","bandit","122","765594","0.0-83.0-0.0","47689911","wem/bandit_either_2","AYF8B7WJO2YQU","either","2","521","","","","","","","1","0","0","0.2043112358","","0.6","0.4","0.8","0.2","","","","","0.2255441472","0.2784828801","0.2043112358","0.4030522017","","","","","","","","75","K","2","","","43","main_expt"
"","bandit","123","767458","0.0-84.0-0.0","47689911","wem/bandit_either_2","AYF8B7WJO2YQU","either","2","356","","","","","","","0","0","1","0.1957049551","","0.6","0.4","0.8","0.2","","","","","0.2050272072","0.2805729819","0.1957049551","0.4106315797","","","","","","","","75","K","2","","","44","main_expt"
"","bandit","124","769323","0.0-85.0-0.0","47689911","wem/bandit_either_2","AYF8B7WJO2YQU","either","2","352","","","","","","","1","0","0","0.2195119073","","0.6","0.4","0.8","0.2","","","","","0.239455925","0.2195119073","0.2207366272","0.4258527362","","","","","","","","74","J","1","","","45","main_expt"
"","bandit","125","771233","0.0-86.0-0.0","47689911","wem/bandit_either_2","AYF8B7WJO2YQU","either","2","397","","","","","","","0","0","1","","0.2657932304","0.6","0.4","0.8","0.2","0.2414778298","0.2657932304","0.1727988076","0.4425966235","","","","","","","","","","","","74","J","1","","","46","main_expt"
"","bandit","126","773140","0.0-87.0-0.0","47689911","wem/bandit_either_2","AYF8B7WJO2YQU","either","2","398","","","","","","","0","0","1","0.2678398397","","0.6","0.4","0.8","0.2","","","","","0.1884211613","0.2678398397","0.1446735631","0.4428977597","","","","","","","","74","J","1","","","47","main_expt"
"","bandit","127","774885","0.0-88.0-0.0","47689911","wem/bandit_either_2","AYF8B7WJO2YQU","either","2","238","","","","","","","0","0","1","0.2866904938","","0.6","0.4","0.8","0.2","","","","","0.1755274282","0.2866904938","0.1681765936","0.4479964269","","","","","","","","74","J","1","","","48","main_expt"
"","bandit","128","776786","0.0-89.0-0.0","47689911","wem/bandit_either_2","AYF8B7WJO2YQU","either","2","391","","","","","","","0","0","1","","0.1646396384","0.6","0.4","0.8","0.2","0.1646396384","0.2803848884","0.1473883531","0.4660387519","","","","","","","","","","","","72","H","0","img/none_selected.jpg","","49","main_expt"
"","bandit","129","778513","0.0-90.0-0.0","47689911","wem/bandit_either_2","AYF8B7WJO2YQU","either","2","216","","","","","","","0","0","1","0.1378170987","","0.6","0.4","0.8","0.2","","","","","0.2024226619","0.2587411269","0.1378170987","0.4345757832","","","","","","","","75","K","2","","","50","main_expt"
"","bandit","130","780043","0.0-91.0-0.0","47689911","wem/bandit_either_2","AYF8B7WJO2YQU","either","2","21","","","","","","","0","0","1","","0.4450950844","0.6","0.4","0.8","0.2","0.1976760068","0.2212901065","0.1430360168","0.4450950844","","","","","","","","","","","","76","L","3","","","51","main_expt"
"","bandit","131","783652","0.0-92.0-0.0","47689911","wem/bandit_either_2","AYF8B7WJO2YQU","either","2","2099","","","","","","","0","0","1","0.4475354499","","0.6","0.4","0.8","0.2","","","","","0.1796352224","0.236006857","0.1731798725","0.4475354499","","","","","","","","76","L","3","","","52","main_expt"
"","bandit","132","786053","0.0-93.0-0.0","47689911","wem/bandit_either_2","AYF8B7WJO2YQU","either","2","888","","","","","","","0","0","1","0.1312409056","","0.6","0.4","0.8","0.2","","","","","0.2451732725","0.2660825342","0.1312409056","0.4627294295","","","","","","","","75","K","2","","","53","main_expt"
"","bandit","133","788509","0.0-94.0-0.0","47689911","wem/bandit_either_2","AYF8B7WJO2YQU","either","2","944","","","","","","","0","0","1","","0.2458345041","0.6","0.4","0.8","0.2","0.2621482643","0.2458345041","0.1862053218","0.44829207","","","","","","","","","","","","74","J","1","","","54","main_expt"
"","bandit","134","790668","0.0-95.0-0.0","47689911","wem/bandit_either_2","AYF8B7WJO2YQU","either","2","651","","","","","","","0","0","1","0.2441780383","","0.6","0.4","0.8","0.2","","","","","0.2441780383","0.2265690781","0.1733563037","0.4505537928","","","","","","","","72","H","0","img/none_selected.jpg","","55","main_expt"
"","bandit","135","792630","0.0-96.0-0.0","47689911","wem/bandit_either_2","AYF8B7WJO2YQU","either","2","452","","","","","","","1","0","0","0.4686400132","","0.6","0.4","0.8","0.2","","","","","0.199729785","0.2741820357","0.1728369204","0.4686400132","","","","","","","","76","L","3","","","56","main_expt"
"","bandit","136","794529","0.0-97.0-0.0","47689911","wem/bandit_either_2","AYF8B7WJO2YQU","either","2","390","","","","","","","0","0","1","0.4572679106","","0.6","0.4","0.8","0.2","","","","","0.1945085845","0.2937641054","0.09176359954","0.4572679106","","","","","","","","76","L","3","","","57","main_expt"
"","bandit","137","796467","0.0-98.0-0.0","47689911","wem/bandit_either_2","AYF8B7WJO2YQU","either","2","425","","","","","","","0","0","1","","0.4300169527","0.6","0.4","0.8","0.2","0.2614759052","0.2949827607","0.04991422033","0.4300169527","","","","","","","","","","","","76","L","3","","","58","main_expt"
"","bandit","138","798603","0.0-99.0-0.0","47689911","wem/bandit_either_2","AYF8B7WJO2YQU","either","2","622","","","","","","","0","0","1","","0.4050829606","0.6","0.4","0.8","0.2","0.2426118991","0.2710075273","0.053239915","0.4050829606","","","","","","","","","","","","76","L","3","","","59","main_expt"
"","bandit","139","800535","0.0-100.0-0.0","47689911","wem/bandit_either_2","AYF8B7WJO2YQU","either","2","418","","","","","","","0","0","1","0.06994226662","","0.6","0.4","0.8","0.2","","","","","0.2623750897","0.2766623035","0.06994226662","0.4070720156","","","","","","","","75","K","2","","","60","main_expt"
"","bandit","140","802400","0.0-101.0-0.0","47689911","wem/bandit_either_2","AYF8B7WJO2YQU","either","2","357","","","","","","","0","0","1","0.07064832373","","0.6","0.4","0.8","0.2","","","","","0.2139103784","0.2574592035","0.07064832373","0.3895400789","","","","","","","","75","K","2","","","61","main_expt"
"","bandit","141","804163","0.0-102.0-0.0","47689911","wem/bandit_either_2","AYF8B7WJO2YQU","either","2","256","","","","","","","0","0","1","","0.08925217872","0.6","0.4","0.8","0.2","0.2566580444","0.2425209234","0.08925217872","0.4050708951","","","","","","","","","","","","75","K","2","","","62","main_expt"
"","bandit","142","806180","0.0-103.0-0.0","47689911","wem/bandit_either_2","AYF8B7WJO2YQU","either","2","512","","","","","","","0","0","1","0.2294211584","","0.6","0.4","0.8","0.2","","","","","0.2393402704","0.2294211584","0.08505035955","0.3765761212","","","","","","","","74","J","1","","","63","main_expt"
"","bandit","143","808049","0.0-104.0-0.0","47689911","wem/bandit_either_2","AYF8B7WJO2YQU","either","2","362","","","","","","","0","0","1","","0.2350173232","0.6","0.4","0.8","0.2","0.300105392","0.2350173232","0.09892528285","0.3859881554","","","","","","","","","","","","74","J","1","","","64","main_expt"
"","bandit","144","809949","0.0-105.0-0.0","47689911","wem/bandit_either_2","AYF8B7WJO2YQU","either","2","389","","","","","","","0","0","1","","0.2584268813","0.6","0.4","0.8","0.2","0.2584268813","0.2775473173","0.1428545766","0.3817039273","","","","","","","","","","","","72","H","0","img/none_selected.jpg","","65","main_expt"
"","bandit","145","811802","0.0-106.0-0.0","47689911","wem/bandit_either_2","AYF8B7WJO2YQU","either","2","340","","","","","","","0","0","1","","0.2536378703","0.6","0.4","0.8","0.2","0.2536378703","0.298861572","0.120440259","0.3622232449","","","","","","","","","","","","72","H","0","img/none_selected.jpg","","66","main_expt"
"","bandit","146","813585","0.0-107.0-0.0","47689911","wem/bandit_either_2","AYF8B7WJO2YQU","either","2","269","","","","","","","0","0","1","","0.3043747659","0.6","0.4","0.8","0.2","0.2548884231","0.3043747659","0.2019700983","0.3768721334","","","","","","","","","","","","74","J","1","","","67","main_expt"
"","bandit","147","815175","0.0-108.0-0.0","47689911","wem/bandit_either_2","AYF8B7WJO2YQU","either","2","82","","","","","","","0","0","1","0.1467862533","","0.6","0.4","0.8","0.2","","","","","0.2105458193","0.2533072519","0.1467862533","0.3826604183","","","","","","","","75","K","2","","","68","main_expt"
"","bandit","148","816957","0.0-109.0-0.0","47689911","wem/bandit_either_2","AYF8B7WJO2YQU","either","2","273","","","","","","","0","0","1","","0.3981811202","0.6","0.4","0.8","0.2","0.2901666962","0.2451677402","0.09022805221","0.3981811202","","","","","","","","","","","","76","L","3","","","69","main_expt"
"","bandit","149","818567","0.0-110.0-0.0","47689911","wem/bandit_either_2","AYF8B7WJO2YQU","either","2","104","","","","","","","0","0","1","","0.3936557204","0.6","0.4","0.8","0.2","0.2973761433","0.2403061491","0.1128827508","0.3936557204","","","","","","","","","","","","76","L","3","","","70","main_expt"
"","bandit","150","820759","0.0-111.0-0.0","47689911","wem/bandit_either_2","AYF8B7WJO2YQU","either","2","679","","","","","","","0","0","1","","0.3949471057","0.6","0.4","0.8","0.2","0.2737706179","0.1917576795","0.1184182172","0.3949471057","","","","","","","","","","","","76","L","3","","","71","main_expt"
"","bandit","151","822611","0.0-112.0-0.0","47689911","wem/bandit_either_2","AYF8B7WJO2YQU","either","2","338","","","","","","","0","0","1","0.1038133506","","0.6","0.4","0.8","0.2","","","","","0.3005227265","0.1894079546","0.1038133506","0.3888869603","","","","","","","","75","K","2","","","72","main_expt"
"","bandit","152","824487","0.0-113.0-0.0","47689911","wem/bandit_either_2","AYF8B7WJO2YQU","either","2","360","","","","","","","0","0","1","","0.07830871569","0.6","0.4","0.8","0.2","0.3205676235","0.235909594","0.07830871569","0.4015056825","","","","","","","","","","","","75","K","2","","","73","main_expt"
"","bandit","153","826375","0.0-114.0-0.0","47689911","wem/bandit_either_2","AYF8B7WJO2YQU","either","2","374","","","","","","","0","0","1","0.2772030277","","0.6","0.4","0.8","0.2","","","","","0.3040473008","0.2772030277","0.09226686474","0.4200542591","","","","","","","","74","J","1","","","74","main_expt"
"","bandit","154","828269","0.0-115.0-0.0","47689911","wem/bandit_either_2","AYF8B7WJO2YQU","either","2","385","","","","","","","0","0","1","0.2237268092","","0.6","0.4","0.8","0.2","","","","","0.2686744794","0.2237268092","0.07948082514","0.4353174817","","","","","","","","74","J","1","","","75","main_expt"
"","bandit","155","830130","0.0-116.0-0.0","47689911","wem/bandit_either_2","AYF8B7WJO2YQU","either","2","347","","","","","","","0","0","1","0.1279570505","","0.6","0.4","0.8","0.2","","","","","0.258707356","0.1739375455","0.1279570505","0.4196821318","","","","","","","","75","K","2","","","76","main_expt"
"","bandit","156","831978","0.0-117.0-0.0","47689911","wem/bandit_either_2","AYF8B7WJO2YQU","either","2","338","","","","","","","1","0","0","0.3010070056","","0.6","0.4","0.8","0.2","","","","","0.3010070056","0.1648796623","0.1202820049","0.3787369199","","","","","","","","72","H","0","img/none_selected.jpg","","77","main_expt"
"","bandit","157","833844","0.0-118.0-0.0","47689911","wem/bandit_either_2","AYF8B7WJO2YQU","either","2","359","","","","","","","0","1","0","","0.2648586626","0.6","0.4","0.8","0.2","0.2648586626","0.1637798684","0.1054071572","0.4314930014","","","","","","","","","","","","72","H","0","img/none_selected.jpg","","78","main_expt"
"","bandit","158","835704","0.0-119.0-0.0","47689911","wem/bandit_either_2","AYF8B7WJO2YQU","either","2","347","","","","","","","0","0","1","0.1984114041","","0.6","0.4","0.8","0.2","","","","","0.1984114041","0.1490076182","0.1403095361","0.4155078174","","","","","","","","72","H","0","img/none_selected.jpg","","79","main_expt"
"","bandit","159","837587","0.0-120.0-0.0","47689911","wem/bandit_either_2","AYF8B7WJO2YQU","either","2","373","","","","","","","0","0","1","","0.180325551","0.6","0.4","0.8","0.2","0.180325551","0.1093198388","0.1891235553","0.4226243671","","","","","","","","","","","","72","H","0","img/none_selected.jpg","","80","main_expt"
"","bandit","160","839347","0.0-121.0-0.0","47689911","wem/bandit_either_2","AYF8B7WJO2YQU","either","2","252","","","","","","","1","0","0","0.224531153","","0.6","0.4","0.8","0.2","","","","","0.224531153","0.08868186825","0.1858030354","0.4474166549","","","","","","","","72","H","0","img/none_selected.jpg","","81","main_expt"
"","bandit","161","841191","0.0-122.0-0.0","47689911","wem/bandit_either_2","AYF8B7WJO2YQU","either","2","328","","","","","","","0","0","1","","0.221125015","0.6","0.4","0.8","0.2","0.221125015","0.1073880826","0.2476542501","0.4636297045","","","","","","","","","","","","72","H","0","img/none_selected.jpg","","82","main_expt"
"","bandit","162","843136","0.0-123.0-0.0","47689911","wem/bandit_either_2","AYF8B7WJO2YQU","either","2","436","","","","","","","1","0","0","0.2143237207","","0.6","0.4","0.8","0.2","","","","","0.2143237207","0.1022587498","0.2188241074","0.467509749","","","","","","","","72","H","0","img/none_selected.jpg","","83","main_expt"
"","bandit","163","845030","0.0-124.0-0.0","47689911","wem/bandit_either_2","AYF8B7WJO2YQU","either","2","378","","","","","","","0","0","1","0.2097367537","","0.6","0.4","0.8","0.2","","","","","0.2097367537","0.1085807699","0.2754771977","0.4551111531","","","","","","","","72","H","0","img/none_selected.jpg","","84","main_expt"
"","bandit","164","846855","0.0-125.0-0.0","47689911","wem/bandit_either_2","AYF8B7WJO2YQU","either","2","310","","","","","","","1","0","0","0.1661536269","","0.6","0.4","0.8","0.2","","","","","0.1661536269","0.1263918358","0.2965575968","0.4621419017","","","","","","","","72","H","0","img/none_selected.jpg","","85","main_expt"
"","bandit","165","848719","0.0-126.0-0.0","47689911","wem/bandit_either_2","AYF8B7WJO2YQU","either","2","351","","","","","","","0","0","1","","0.1364458955","0.6","0.4","0.8","0.2","0.1364458955","0.1481941301","0.257129161","0.4612050897","","","","","","","","","","","","72","H","0","img/none_selected.jpg","","86","main_expt"
"","bandit","166","850607","0.0-127.0-0.0","47689911","wem/bandit_either_2","AYF8B7WJO2YQU","either","2","380","","","","","","","0","0","1","0.08235553135","","0.6","0.4","0.8","0.2","","","","","0.08235553135","0.1447872846","0.2338967043","0.4334675206","","","","","","","","72","H","0","img/none_selected.jpg","","87","main_expt"
"","bandit","167","852363","0.0-128.0-0.0","47689911","wem/bandit_either_2","AYF8B7WJO2YQU","either","2","239","","","","","","","0","0","1","0.0754832669","","0.6","0.4","0.8","0.2","","","","","0.0754832669","0.1391637727","0.2161535794","0.4397617206","","","","","","","","72","H","0","img/none_selected.jpg","","88","main_expt"
"","bandit","168","854347","0.0-129.0-0.0","47689911","wem/bandit_either_2","AYF8B7WJO2YQU","either","2","466","","","","","","","0","1","0","","0.1476089376","0.6","0.4","0.8","0.2","0.109361408","0.1476089376","0.2043146745","0.4635478967","","","","","","","","","","","","74","J","1","","","89","main_expt"
"","bandit","169","856216","0.0-130.0-0.0","47689911","wem/bandit_either_2","AYF8B7WJO2YQU","either","2","357","","","","","","","0","0","1","","0.2081489191","0.6","0.4","0.8","0.2","0.07391079866","0.2081489191","0.2346009907","0.4234969579","","","","","","","","","","","","74","J","1","","","90","main_expt"
"","bandit","170","858024","0.0-131.0-0.0","47689911","wem/bandit_either_2","AYF8B7WJO2YQU","either","2","300","","","","","","","0","0","1","0.1834039029","","0.6","0.4","0.8","0.2","","","","","0.1164594673","0.1834039029","0.2333967219","0.4267507071","","","","","","","","74","J","1","","","91","main_expt"
"","bandit","171","860412","0.0-132.0-0.0","47689911","wem/bandit_either_2","AYF8B7WJO2YQU","either","2","878","","","","","","","0","0","1","","0.2027314649","0.6","0.4","0.8","0.2","0.113043345","0.2027314649","0.2150480475","0.4089505196","","","","","","","","","","","","74","J","1","","","92","main_expt"
"","bandit","172","862489","0.0-133.0-0.0","47689911","wem/bandit_either_2","AYF8B7WJO2YQU","either","2","568","","","","","","","0","0","1","0.2588080464","","0.6","0.4","0.8","0.2","","","","","0.1714352716","0.1738894496","0.2588080464","0.4112501448","","","","","","","","75","K","2","","","93","main_expt"
"","bandit","173","864586","0.0-134.0-0.0","47689911","wem/bandit_either_2","AYF8B7WJO2YQU","either","2","580","","","","","","","1","0","0","0.2748849181","","0.6","0.4","0.8","0.2","","","","","0.1253024032","0.2484708832","0.2748849181","0.452415855","","","","","","","","75","K","2","","","94","main_expt"
"","bandit","174","866651","0.0-135.0-0.0","47689911","wem/bandit_either_2","AYF8B7WJO2YQU","either","2","555","","","","","","","1","0","0","0.2791739054","","0.6","0.4","0.8","0.2","","","","","0.1401284447","0.2914685715","0.2791739054","0.4589197587","","","","","","","","75","K","2","","","95","main_expt"
"","bandit","175","869003","0.0-136.0-0.0","47689911","wem/bandit_either_2","AYF8B7WJO2YQU","either","2","842","","","","","","","1","0","0","0.3149564315","","0.6","0.4","0.8","0.2","","","","","0.1320491369","0.2417524935","0.3149564315","0.4481870348","","","","","","","","75","K","2","","","96","main_expt"
"","bandit","176","871018","0.0-137.0-0.0","47689911","wem/bandit_either_2","AYF8B7WJO2YQU","either","2","500","","","","","","","0","1","0","","0.372564007","0.6","0.4","0.8","0.2","0.1518453759","0.2492821404","0.372564007","0.4597072186","","","","","","","","","","","","75","K","2","","","97","main_expt"
"","bandit","177","872931","0.0-138.0-0.0","47689911","wem/bandit_either_2","AYF8B7WJO2YQU","either","2","402","","","","","","","1","0","0","0.393328365","","0.6","0.4","0.8","0.2","","","","","0.2173959583","0.3002958449","0.393328365","0.4705619112","","","","","","","","75","K","2","","","98","main_expt"
"","bandit","178","874755","0.0-139.0-0.0","47689911","wem/bandit_either_2","AYF8B7WJO2YQU","either","2","316","","","","","","","0","0","1","0.421239771","","0.6","0.4","0.8","0.2","","","","","0.2618725657","0.3544832656","0.421239771","0.4800968761","","","","","","","","75","K","2","","","99","main_expt"
"","bandit","179","876777","0.0-140.0-0.0","47689911","wem/bandit_either_2","AYF8B7WJO2YQU","either","2","511","","","","","","","0","1","0","","0.4130759476","0.6","0.4","0.8","0.2","0.2487788848","0.3810954338","0.4130759476","0.4780143146","","","","","","","","","","","","75","K","2","","","100","main_expt"
"","bandit","180","878599","0.0-141.0-0.0","47689911","wem/bandit_either_2","AYF8B7WJO2YQU","either","2","309","","","","","","","0","0","1","0.4089462913","","0.6","0.4","0.8","0.2","","","","","0.2890792313","0.4042362267","0.4089462913","0.4849002763","","","","","","","","75","K","2","","","101","main_expt"
"","bandit","181","880455","0.0-142.0-0.0","47689911","wem/bandit_either_2","AYF8B7WJO2YQU","either","2","346","","","","","","","0","0","1","0.370330464","","0.6","0.4","0.8","0.2","","","","","0.3136369757","0.4594696392","0.370330464","0.4886078379","","","","","","","","75","K","2","","","102","main_expt"
"","bandit","182","882379","0.0-143.0-0.0","47689911","wem/bandit_either_2","AYF8B7WJO2YQU","either","2","409","","","","","","","0","0","1","0.47121906","","0.6","0.4","0.8","0.2","","","","","0.2364671533","0.4588766667","0.3306315663","0.47121906","","","","","","","","76","L","3","","","103","main_expt"
"","bandit","183","884333","0.0-144.0-0.0","47689911","wem/bandit_either_2","AYF8B7WJO2YQU","either","2","443","","","","","","","0","0","1","","0.4760763377","0.6","0.4","0.8","0.2","0.2202486688","0.4372785745","0.354634178","0.4760763377","","","","","","","","","","","","76","L","3","","","104","main_expt"
"","bandit","184","886223","0.0-145.0-0.0","47689911","wem/bandit_either_2","AYF8B7WJO2YQU","either","2","381","","","","","","","0","0","1","","0.4701389446","0.6","0.4","0.8","0.2","0.1854418088","0.4063887309","0.3896605338","0.4701389446","","","","","","","","","","","","76","L","3","","","105","main_expt"
"","bandit","185","888223","0.0-146.0-0.0","47689911","wem/bandit_either_2","AYF8B7WJO2YQU","either","2","491","","","","","","","1","0","0","0.414339711","","0.6","0.4","0.8","0.2","","","","","0.1596754559","0.3778019321","0.414339711","0.471324938","","","","","","","","75","K","2","","","106","main_expt"
"","bandit","186","890121","0.0-147.0-0.0","47689911","wem/bandit_either_2","AYF8B7WJO2YQU","either","2","381","","","","","","","0","0","1","","0.4164239898","0.6","0.4","0.8","0.2","0.137099288","0.3614143111","0.4164239898","0.4786694594","","","","","","","","","","","","75","K","2","","","107","main_expt"
"","bandit","187","892068","0.0-148.0-0.0","47689911","wem/bandit_either_2","AYF8B7WJO2YQU","either","2","432","","","","","","","0","0","1","0.3836571442","","0.6","0.4","0.8","0.2","","","","","0.1443984823","0.3681250399","0.3836571442","0.4810065258","","","","","","","","75","K","2","","","108","main_expt"
"","bandit","188","894097","0.0-149.0-0.0","47689911","wem/bandit_either_2","AYF8B7WJO2YQU","either","2","511","","","","","","","0","0","1","0.3881214568","","0.6","0.4","0.8","0.2","","","","","0.1409511773","0.3446081275","0.3881214568","0.4816764674","","","","","","","","75","K","2","","","109","main_expt"
"","bandit","189","896050","0.0-150.0-0.0","47689911","wem/bandit_either_2","AYF8B7WJO2YQU","either","2","434","","","","","","","0","0","1","0.3681270965","","0.6","0.4","0.8","0.2","","","","","0.1787750665","0.3681270965","0.4266873791","0.4882082215","","","","","","","","74","J","1","","","110","main_expt"
"","bandit","190","898022","0.0-151.0-0.0","47689911","wem/bandit_either_2","AYF8B7WJO2YQU","either","2","454","","","","","","","0","0","1","0.391379093","","0.6","0.4","0.8","0.2","","","","","0.1862786225","0.391379093","0.4475699482","0.478642168","","","","","","","","74","J","1","","","111","main_expt"
"","bandit","191","899825","0.0-152.0-0.0","47689911","wem/bandit_either_2","AYF8B7WJO2YQU","either","2","290","","","","","","","0","0","1","","0.4131544452","0.6","0.4","0.8","0.2","0.1654620982","0.4131544452","0.4190314983","0.4841415165","","","","","","","","","","","","74","J","1","","","112","main_expt"
"","bandit","192","901679","0.0-153.0-0.0","47689911","wem/bandit_either_2","AYF8B7WJO2YQU","either","2","337","","","","","","","0","0","1","","0.1582981878","0.6","0.4","0.8","0.2","0.1582981878","0.3963985948","0.3666128881","0.4883212127","","","","","","","","","","","","72","H","0","img/none_selected.jpg","","113","main_expt"
"","bandit","193","903520","0.0-154.0-0.0","47689911","wem/bandit_either_2","AYF8B7WJO2YQU","either","2","325","","","","","","","0","1","0","","0.1922757069","0.6","0.4","0.8","0.2","0.1922757069","0.4117985871","0.3866259854","0.4883790739","","","","","","","","","","","","72","H","0","img/none_selected.jpg","","114","main_expt"
"","bandit","194","905364","0.0-155.0-0.0","47689911","wem/bandit_either_2","AYF8B7WJO2YQU","either","2","327","","","","","","","1","0","0","0.185618385","","0.6","0.4","0.8","0.2","","","","","0.185618385","0.394381103","0.354161152","0.4902011966","","","","","","","","72","H","0","img/none_selected.jpg","","115","main_expt"
"","bandit","195","907182","0.0-156.0-0.0","47689911","wem/bandit_either_2","AYF8B7WJO2YQU","either","2","307","","","","","","","0","0","1","","0.2057277395","0.6","0.4","0.8","0.2","0.2057277395","0.3762408663","0.3170745426","0.4844723045","","","","","","","","","","","","72","H","0","img/none_selected.jpg","","116","main_expt"
"","bandit","196","909052","0.0-157.0-0.0","47689911","wem/bandit_either_2","AYF8B7WJO2YQU","either","2","362","","","","","","","0","0","1","","0.2288411079","0.6","0.4","0.8","0.2","0.2288411079","0.3823674378","0.304536318","0.4895589844","","","","","","","","","","","","72","H","0","img/none_selected.jpg","","117","main_expt"
"","bandit","197","910741","0.0-158.0-0.0","47689911","wem/bandit_either_2","AYF8B7WJO2YQU","either","2","178","","","","","","","0","1","0","","0.2207517482","0.6","0.4","0.8","0.2","0.2207517482","0.4050195855","0.3411026949","0.4899729034","","","","","","","","","","","","72","H","0","img/none_selected.jpg","","118","main_expt"
"","bandit","198","912715","0.0-159.0-0.0","47689911","wem/bandit_either_2","AYF8B7WJO2YQU","either","2","464","","","","","","","0","0","1","0.1955286499","","0.6","0.4","0.8","0.2","","","","","0.1955286499","0.4227562767","0.3447942488","0.4947041593","","","","","","","","72","H","0","img/none_selected.jpg","","119","main_expt"
"","bandit","199","914796","0.0-160.0-0.0","47689911","wem/bandit_either_2","AYF8B7WJO2YQU","either","2","562","","","","","","","0","0","1","","0.4163810796","0.6","0.4","0.8","0.2","0.2427950695","0.4163810796","0.3686185352","0.4916865355","","","","","","","","","","","","74","J","1","","","120","main_expt"
"","bandit","200","916679","0.0-161.0-0.0","47689911","wem/bandit_either_2","AYF8B7WJO2YQU","either","2","367","","","","","","","0","0","1","","0.406821829","0.6","0.4","0.8","0.2","0.2479682904","0.406821829","0.3547669752","0.4860386064","","","","","","","","","","","","74","J","1","","","121","main_expt"
"","bandit","201","918604","0.0-162.0-0.0","47689911","wem/bandit_either_2","AYF8B7WJO2YQU","either","2","407","","","","","","","0","0","1","0.365994073","","0.6","0.4","0.8","0.2","","","","","0.3081985406","0.3999449125","0.365994073","0.483083859","","","","","","","","75","K","2","","","122","main_expt"
"","bandit","202","920470","0.0-163.0-0.0","47689911","wem/bandit_either_2","AYF8B7WJO2YQU","either","2","346","","","","","","","0","0","1","0.3089359708","","0.6","0.4","0.8","0.2","","","","","0.3089359708","0.366626489","0.3120596142","0.4791491275","","","","","","","","72","H","0","img/none_selected.jpg","","123","main_expt"
"","bandit","203","922343","0.0-164.0-0.0","47689911","wem/bandit_either_2","AYF8B7WJO2YQU","either","2","355","","","","","","","0","0","1","0.302161917","","0.6","0.4","0.8","0.2","","","","","0.3298338218","0.3706278578","0.302161917","0.4776777384","","","","","","","","75","K","2","","","124","main_expt"
"","bandit","204","924196","0.0-165.0-0.0","47689911","wem/bandit_either_2","AYF8B7WJO2YQU","either","2","343","","","","","","","0","1","0","","0.478983255","0.6","0.4","0.8","0.2","0.2795250441","0.3545504723","0.2794370347","0.478983255","","","","","","","","","","","","76","L","3","","","125","main_expt"
"","bandit","205","926161","0.0-166.0-0.0","47689911","wem/bandit_either_2","AYF8B7WJO2YQU","either","2","456","","","","","","","0","1","0","","0.4724726719","0.6","0.4","0.8","0.2","0.2184127205","0.3106298006","0.2466154908","0.4724726719","","","","","","","","","","","","76","L","3","","","126","main_expt"
"","bandit","206","928051","0.0-167.0-0.0","47689911","wem/bandit_either_2","AYF8B7WJO2YQU","either","2","380","","","","","","","0","1","0","","0.4796244369","0.6","0.4","0.8","0.2","0.2488858907","0.3351405197","0.2712823261","0.4796244369","","","","","","","","","","","","76","L","3","","","127","main_expt"
"","bandit","207","929936","0.0-168.0-0.0","47689911","wem/bandit_either_2","AYF8B7WJO2YQU","either","2","365","","","","","","","0","0","1","","0.4825212971","0.6","0.4","0.8","0.2","0.2850827173","0.2984422464","0.2095517986","0.4825212971","","","","","","","","","","","","76","L","3","","","128","main_expt"
"","bandit","208","931891","0.0-169.0-0.0","47689911","wem/bandit_either_2","AYF8B7WJO2YQU","either","2","441","","","","","","","0","0","1","0.1986866195","","0.6","0.4","0.8","0.2","","","","","0.2867242009","0.2027892291","0.1986866195","0.4877535013","","","","","","","","75","K","2","","","129","main_expt"
"","bandit","209","933508","0.0-170.0-0.0","47689911","wem/bandit_either_2","AYF8B7WJO2YQU","either","2","101","","","","","","","0","0","1","","0.13768179","0.6","0.4","0.8","0.2","0.2509552002","0.13768179","0.172959111","0.4833646461","","","","","","","","","","","","74","J","1","","","130","main_expt"
"","bandit","210","935518","0.0-171.0-0.0","47689911","wem/bandit_either_2","AYF8B7WJO2YQU","either","2","498","","","","","","","0","0","1","","0.2172434631","0.6","0.4","0.8","0.2","0.2172434631","0.1352832961","0.163172462","0.4790990265","","","","","","","","","","","","72","H","0","img/none_selected.jpg","","131","main_expt"
"","bandit","211","937443","0.0-172.0-0.0","47689911","wem/bandit_either_2","AYF8B7WJO2YQU","either","2","407","","","","","","","0","0","1","0.158295755","","0.6","0.4","0.8","0.2","","","","","0.158295755","0.08660982753","0.161148659","0.4882311922","","","","","","","","72","H","0","img/none_selected.jpg","","132","main_expt"
"","bandit","212","939268","0.0-173.0-0.0","47689911","wem/bandit_either_2","AYF8B7WJO2YQU","either","2","313","","","","","","","1","0","0","0.4889625365","","0.6","0.4","0.8","0.2","","","","","0.185310911","0.1020907376","0.1735641072","0.4889625365","","","","","","","","76","L","3","","","133","main_expt"
"","bandit","213","941191","0.0-174.0-0.0","47689911","wem/bandit_either_2","AYF8B7WJO2YQU","either","2","404","","","","","","","0","0","1","0.4916783795","","0.6","0.4","0.8","0.2","","","","","0.1966535246","0.1231499397","0.1597390633","0.4916783795","","","","","","","","76","L","3","","","134","main_expt"
"","bandit","214","943191","0.0-175.0-0.0","47689911","wem/bandit_either_2","AYF8B7WJO2YQU","either","2","488","","","","","","","0","1","0","","0.4904315354","0.6","0.4","0.8","0.2","0.2290191974","0.1524236556","0.1460070414","0.4904315354","","","","","","","","","","","","76","L","3","","","135","main_expt"
"","bandit","215","945036","0.0-176.0-0.0","47689911","wem/bandit_either_2","AYF8B7WJO2YQU","either","2","333","","","","","","","0","1","0","","0.491666595","0.6","0.4","0.8","0.2","0.2929229053","0.1954247664","0.105474526","0.491666595","","","","","","","","","","","","76","L","3","","","136","main_expt"
"","bandit","216","947091","0.0-177.0-0.0","47689911","wem/bandit_either_2","AYF8B7WJO2YQU","either","2","540","","","","","","","0","1","0","","0.4917142499","0.6","0.4","0.8","0.2","0.2780805385","0.1833989084","0.08835118593","0.4917142499","","","","","","","","","","","","76","L","3","","","137","main_expt"
"","bandit","217","948928","0.0-178.0-0.0","47689911","wem/bandit_either_2","AYF8B7WJO2YQU","either","2","320","","","","","","","0","1","0","","0.4870170403","0.6","0.4","0.8","0.2","0.217224157","0.1490533902","0.06418360449","0.4870170403","","","","","","","","","","","","76","L","3","","","138","main_expt"
"","bandit","218","950846","0.0-179.0-0.0","47689911","wem/bandit_either_2","AYF8B7WJO2YQU","either","2","407","","","","","","","0","0","1","","0.4834992155","0.6","0.4","0.8","0.2","0.2323391466","0.1318817547","0.03554325754","0.4834992155","","","","","","","","","","","","76","L","3","","","139","main_expt"
"","bandit","219","952762","0.0-180.0-0.0","47689911","wem/bandit_either_2","AYF8B7WJO2YQU","either","2","396","","","","","","","0","0","1","","0.4927392517","0.6","0.4","0.8","0.2","0.244475209","0.1877412345","0.04477370895","0.4927392517","","","","","","","","","","","","76","L","3","","","140","main_expt"
"","bandit","220","954584","0.0-181.0-0.0","47689911","wem/bandit_either_2","AYF8B7WJO2YQU","either","2","307","","","","","","","0","0","1","","0.4872377518","0.6","0.4","0.8","0.2","0.232604034","0.2363671377","0.03780119019","0.4872377518","","","","","","","","","","","","76","L","3","","","141","main_expt"
"","bandit","221","956440","0.0-182.0-0.0","47689911","wem/bandit_either_2","AYF8B7WJO2YQU","either","2","335","","","","","","","0","0","1","","0.03149913875","0.6","0.4","0.8","0.2","0.2447345556","0.2546402356","0.03149913875","0.4846254936","","","","","","","","","","","","75","K","2","","","142","main_expt"
"","bandit","222","958284","0.0-183.0-0.0","47689911","wem/bandit_either_2","AYF8B7WJO2YQU","either","2","326","","","","","","","0","0","1","0.04191513266","","0.6","0.4","0.8","0.2","","","","","0.26413271","0.2825544685","0.04191513266","0.4815328815","","","","","","","","75","K","2","","","143","main_expt"
"","bandit","223","960418","0.0-184.0-0.0","47689911","wem/bandit_either_2","AYF8B7WJO2YQU","either","2","620","","","","","","","0","0","1","","0.05613120157","0.6","0.4","0.8","0.2","0.1988203511","0.2731230023","0.05613120157","0.4854048375","","","","","","","","","","","","75","K","2","","","144","main_expt"
"","bandit","224","962358","0.0-185.0-0.0","47689911","wem/bandit_either_2","AYF8B7WJO2YQU","either","2","428","","","","","","","0","1","0","","0.2943814715","0.6","0.4","0.8","0.2","0.217822638","0.2943814715","0.03827589539","0.4813029389","","","","","","","","","","","","74","J","1","","","145","main_expt"
"","bandit","225","964202","0.0-186.0-0.0","47689911","wem/bandit_either_2","AYF8B7WJO2YQU","either","2","325","","","","","","","0","1","0","","0.328634005","0.6","0.4","0.8","0.2","0.2009042904","0.328634005","0.02861175853","0.4884824202","","","","","","","","","","","","74","J","1","","","146","main_expt"
"","bandit","226","966080","0.0-187.0-0.0","47689911","wem/bandit_either_2","AYF8B7WJO2YQU","either","2","368","","","","","","","0","1","0","","0.3511209141","0.6","0.4","0.8","0.2","0.2080446297","0.3511209141","0.02140640811","0.4835291327","","","","","","","","","","","","74","J","1","","","147","main_expt"
"","bandit","227","967925","0.0-188.0-0.0","47689911","wem/bandit_either_2","AYF8B7WJO2YQU","either","2","334","","","","","","","0","0","1","0.3874996206","","0.6","0.4","0.8","0.2","","","","","0.1536700415","0.3874996206","0.0202041473","0.4716003481","","","","","","","","74","J","1","","","148","main_expt"
"","bandit","228","969820","0.0-189.0-0.0","47689911","wem/bandit_either_2","AYF8B7WJO2YQU","either","2","373","","","","","","","1","0","0","0.1593661633","","0.6","0.4","0.8","0.2","","","","","0.1593661633","0.3476646045","0.01154190459","0.4341886607","","","","","","","","72","H","0","img/none_selected.jpg","","149","main_expt"
"","bandit","229","971724","0.0-190.0-0.0","47689911","wem/bandit_either_2","AYF8B7WJO2YQU","either","2","392","","","","","","","0","0","1","","0.144955896","0.6","0.4","0.8","0.2","0.144955896","0.3323010919","0.01291237021","0.4014438172","","","","","","","","","","","","72","H","0","img/none_selected.jpg","","150","main_expt"
"","bandit","230","973807","0.0-191.0-0.0","47689911","wem/bandit_either_2","AYF8B7WJO2YQU","either","2","565","","","","","","","1","0","0","0.3954477196","","0.6","0.4","0.8","0.2","","","","","0.2123564028","0.3954477196","0.0137789916","0.3980713407","","","","","","","","74","J","1","","","151","main_expt"
"","bandit","231","975729","0.0-192.0-0.0","47689911","wem/bandit_either_2","AYF8B7WJO2YQU","either","2","410","","","","","","","0","0","1","","0.4186327087","0.6","0.4","0.8","0.2","0.2301890466","0.4186327087","0.01985271471","0.4002357887","","","","","","","","","","","","74","J","1","","","152","main_expt"
"","bandit","232","977543","0.0-193.0-0.0","47689911","wem/bandit_either_2","AYF8B7WJO2YQU","either","2","298","","","","","","","0","0","1","0.2295153641","","0.6","0.4","0.8","0.2","","","","","0.2295153641","0.4029566754","0.02951100453","0.388677987","","","","","","","","72","H","0","img/none_selected.jpg","","153","main_expt"
"","bandit","233","979388","0.0-194.0-0.0","47689911","wem/bandit_either_2","AYF8B7WJO2YQU","either","2","333","","","","","","","0","0","1","","0.2163321136","0.6","0.4","0.8","0.2","0.2163321136","0.4037751878","0.02325572033","0.3817747688","","","","","","","","","","","","72","H","0","img/none_selected.jpg","","154","main_expt"
"","bandit","234","981222","0.0-195.0-0.0","47689911","wem/bandit_either_2","AYF8B7WJO2YQU","either","2","313","","","","","","","0","0","1","","0.03925092562","0.6","0.4","0.8","0.2","0.2257858177","0.4078727314","0.03925092562","0.327727533","","","","","","","","","","","","75","K","2","","","155","main_expt"
"","bandit","235","982892","0.0-196.0-0.0","47689911","wem/bandit_either_2","AYF8B7WJO2YQU","either","2","151","","","","","","","0","1","0","","0.2821504166","0.6","0.4","0.8","0.2","0.2077891775","0.3941681487","0.05532081832","0.2821504166","","","","","","","","","","","","76","L","3","","","156","main_expt"
"","bandit","236","984791","0.0-197.0-0.0","47689911","wem/bandit_either_2","AYF8B7WJO2YQU","either","2","379","","","","","","","0","1","0","","0.2784527126","0.6","0.4","0.8","0.2","0.1742908387","0.3417147062","0.05983660039","0.2784527126","","","","","","","","","","","","76","L","3","","","157","main_expt"
"","bandit","237","986661","0.0-198.0-0.0","47689911","wem/bandit_either_2","AYF8B7WJO2YQU","either","2","353","","","","","","","0","0","1","","0.2857058734","0.6","0.4","0.8","0.2","0.162057643","0.2963220618","0.09347744845","0.2857058734","","","","","","","","","","","","76","L","3","","","158","main_expt"
"","bandit","238","988753","0.0-199.0-0.0","47689911","wem/bandit_either_2","AYF8B7WJO2YQU","either","2","574","","","","","","","0","0","1","","0.09649648717","0.6","0.4","0.8","0.2","0.1805514511","0.2961528309","0.09649648717","0.2349295223","","","","","","","","","","","","75","K","2","","","159","main_expt"
"","bandit","239","990819","0.0-200.0-0.0","47689911","wem/bandit_either_2","AYF8B7WJO2YQU","either","2","553","","","","","","","0","1","0","","0.2842772575","0.6","0.4","0.8","0.2","0.1724629995","0.2842772575","0.08382429791","0.2275717407","","","","","","","","","","","","74","J","1","","","160","main_expt"
"","bandit","240","992809","0.0-201.0-0.0","47689911","wem/bandit_either_2","AYF8B7WJO2YQU","either","2","479","","","","","","","0","0","1","0.2747674873","","0.6","0.4","0.8","0.2","","","","","0.1660992999","0.2747674873","0.1466352983","0.2559884592","","","","","","","","74","J","1","","","161","main_expt"
"","bandit","241","994684","0.0-202.0-0.0","47689911","wem/bandit_either_2","AYF8B7WJO2YQU","either","2","362","","","","","","","0","0","1","0.2993190406","","0.6","0.4","0.8","0.2","","","","","0.2281832109","0.2993190406","0.1569467617","0.2670526618","","","","","","","","74","J","1","","","162","main_expt"
"","bandit","242","996648","0.0-203.0-0.0","47689911","wem/bandit_either_2","AYF8B7WJO2YQU","either","2","444","","","","","","","0","0","1","","0.2144285545","0.6","0.4","0.8","0.2","0.2144285545","0.3102408377","0.1437935099","0.2618894379","","","","","","","","","","","","72","H","0","img/none_selected.jpg","","163","main_expt"
"","bandit","243","998413","0.0-204.0-0.0","47689911","wem/bandit_either_2","AYF8B7WJO2YQU","either","2","248","","","","","","","0","0","1","","0.2131293933","0.6","0.4","0.8","0.2","0.2131293933","0.2607878409","0.1503677763","0.2977476978","","","","","","","","","","","","72","H","0","img/none_selected.jpg","","164","main_expt"
"","bandit","244","1000277","0.0-205.0-0.0","47689911","wem/bandit_either_2","AYF8B7WJO2YQU","either","2","355","","","","","","","0","0","1","","0.3138636066","0.6","0.4","0.8","0.2","0.251698227","0.2470054868","0.1574825995","0.3138636066","","","","","","","","","","","","76","L","3","","","165","main_expt"
"","bandit","245","1002327","0.0-206.0-0.0","47689911","wem/bandit_either_2","AYF8B7WJO2YQU","either","2","536","","","","","","","0","1","0","","0.3204338644","0.6","0.4","0.8","0.2","0.2831539445","0.2629624785","0.1500633275","0.3204338644","","","","","","","","","","","","76","L","3","","","166","main_expt"
"","bandit","246","1004066","0.0-207.0-0.0","47689911","wem/bandit_either_2","AYF8B7WJO2YQU","either","2","214","","","","","","","0","1","0","","0.3600517585","0.6","0.4","0.8","0.2","0.2496169508","0.2745713682","0.1137242654","0.3600517585","","","","","","","","","","","","76","L","3","","","167","main_expt"
"","bandit","247","1006175","0.0-208.0-0.0","47689911","wem/bandit_either_2","AYF8B7WJO2YQU","either","2","588","","","","","","","0","0","1","","0.3678373827","0.6","0.4","0.8","0.2","0.2315540067","0.2557249153","0.145192941","0.3678373827","","","","","","","","","","","","76","L","3","","","168","main_expt"
"","bandit","248","1009145","0.0-209.0-0.0","47689911","wem/bandit_either_2","AYF8B7WJO2YQU","either","2","1461","","","","","","","0","1","0","","0.3421512568","0.6","0.4","0.8","0.2","0.1825517174","0.2016321063","0.1863479632","0.3421512568","","","","","","","","","","","","76","L","3","","","169","main_expt"
"","bandit","249","1013066","0.0-210.0-0.0","47689911","wem/bandit_either_2","AYF8B7WJO2YQU","either","2","2409","","","","","","","0","0","1","0.142304713","","0.6","0.4","0.8","0.2","","","","","0.2535959064","0.2210696627","0.142304713","0.3917895485","","","","","","","","75","K","2","","","170","main_expt"
"","bandit","250","1020516","0.0-211.0-0.0","47689911","wem/bandit_either_2","AYF8B7WJO2YQU","either","2","5931","","","","","","","0","0","1","0.3004284576","","0.6","0.4","0.8","0.2","","","","","0.3004284576","0.1627904758","0.1739768979","0.3206692194","","","","","","","","72","H","0","img/none_selected.jpg","","171","main_expt"
"","bandit","251","1022082","0.0-212.0-0.0","47689911","wem/bandit_either_2","AYF8B7WJO2YQU","either","2","56","","","","","","","0","0","1","0.1421076649","","0.6","0.4","0.8","0.2","","","","","0.2716191145","0.1421076649","0.2172659048","0.3198600846","","","","","","","","74","J","1","","","172","main_expt"
"","bandit","252","1024368","0.0-213.0-0.0","47689911","wem/bandit_either_2","AYF8B7WJO2YQU","either","2","774","","","","","","","0","0","1","","0.2419731025","0.6","0.4","0.8","0.2","0.3253138029","0.165050165","0.2419731025","0.2641483633","","","","","","","","","","","","75","K","2","","","173","main_expt"
"","bandit","253","1026394","0.0-214.0-0.0","47689911","wem/bandit_either_2","AYF8B7WJO2YQU","either","2","510","","","","","","","0","0","1","","0.2248062597","0.6","0.4","0.8","0.2","0.3419591401","0.1406738207","0.2239571331","0.2248062597","","","","","","","","","","","","76","L","3","","","174","main_expt"
"","bandit","254","1028338","0.0-215.0-0.0","47689911","wem/bandit_either_2","AYF8B7WJO2YQU","either","2","424","","","","","","","0","0","1","","0.2370379408","0.6","0.4","0.8","0.2","0.3442692367","0.138310495","0.2311410243","0.2370379408","","","","","","","","","","","","76","L","3","","","175","main_expt"
"","bandit","255","1030207","0.0-216.0-0.0","47689911","wem/bandit_either_2","AYF8B7WJO2YQU","either","2","348","","","","","","","1","0","0","0.2610077479","","0.6","0.4","0.8","0.2","","","","","0.3397266539","0.1675243642","0.2610077479","0.2157433706","","","","","","","","75","K","2","","","176","main_expt"
"","bandit","256","1032141","0.0-217.0-0.0","47689911","wem/bandit_either_2","AYF8B7WJO2YQU","either","2","413","","","","","","","0","0","1","0.2780938204","","0.6","0.4","0.8","0.2","","","","","0.2997078274","0.1919885971","0.2780938204","0.2014791824","","","","","","","","75","K","2","","","177","main_expt"
"","bandit","257","1034035","0.0-218.0-0.0","47689911","wem/bandit_either_2","AYF8B7WJO2YQU","either","2","379","","","","","","","0","0","1","0.3151752793","","0.6","0.4","0.8","0.2","","","","","0.3064007527","0.2365392944","0.3151752793","0.1913564418","","","","","","","","75","K","2","","","178","main_expt"
"","bandit","258","1035938","0.0-219.0-0.0","47689911","wem/bandit_either_2","AYF8B7WJO2YQU","either","2","392","","","","","","","0","0","1","0.2799621139","","0.6","0.4","0.8","0.2","","","","","0.3533432679","0.2509455726","0.2799621139","0.1980728016","","","","","","","","75","K","2","","","179","main_expt"
"","bandit","259","1037856","0.0-220.0-0.0","47689911","wem/bandit_either_2","AYF8B7WJO2YQU","either","2","396","","","","","","","1","0","0","0.3170936092","","0.6","0.4","0.8","0.2","","","","","0.3652522579","0.2767223981","0.3170936092","0.1833491223","","","","","","","","75","K","2","","","180","main_expt"
"","bandit","260","1039689","0.0-221.0-0.0","47689911","wem/bandit_either_2","AYF8B7WJO2YQU","either","2","311","","","","","","","0","0","1","","0.28101752","0.6","0.4","0.8","0.2","0.3383156657","0.314600373","0.28101752","0.1342686697","","","","","","","","","","","","75","K","2","","","181","main_expt"
"","bandit","261","1041534","0.0-222.0-0.0","47689911","wem/bandit_either_2","AYF8B7WJO2YQU","either","2","324","","","","","","","0","0","1","0.3043342224","","0.6","0.4","0.8","0.2","","","","","0.2902116232","0.3943610609","0.3043342224","0.1636660304","","","","","","","","75","K","2","","","182","main_expt"
"","bandit","262","1043384","0.0-223.0-0.0","47689911","wem/bandit_either_2","AYF8B7WJO2YQU","either","2","339","","","","","","","0","0","1","0.3586422101","","0.6","0.4","0.8","0.2","","","","","0.3026157476","0.3586422101","0.3192524042","0.136761637","","","","","","","","74","J","1","","","183","main_expt"
"","bandit","263","1045267","0.0-224.0-0.0","47689911","wem/bandit_either_2","AYF8B7WJO2YQU","either","2","361","","","","","","","0","0","1","","0.3879999062","0.6","0.4","0.8","0.2","0.3360229169","0.3879999062","0.3332516821","0.1685989701","","","","","","","","","","","","74","J","1","","","184","main_expt"
"","bandit","264","1047393","0.0-225.0-0.0","47689911","wem/bandit_either_2","AYF8B7WJO2YQU","either","2","615","","","","","","","0","0","1","0.3336456265","","0.6","0.4","0.8","0.2","","","","","0.3336456265","0.3831340227","0.3228184693","0.1663529744","","","","","","","","72","H","0","img/none_selected.jpg","","185","main_expt"
"","bandit","265","1049343","0.0-226.0-0.0","47689911","wem/bandit_either_2","AYF8B7WJO2YQU","either","2","428","","","","","","","0","1","0","","0.3308881938","0.6","0.4","0.8","0.2","0.3308881938","0.3999004662","0.3111703144","0.1916836285","","","","","","","","","","","","72","H","0","img/none_selected.jpg","","186","main_expt"
"","bandit","266","1051257","0.0-227.0-0.0","47689911","wem/bandit_either_2","AYF8B7WJO2YQU","either","2","393","","","","","","","1","0","0","0.325530054","","0.6","0.4","0.8","0.2","","","","","0.325530054","0.3875363153","0.3353611299","0.1686829448","","","","","","","","72","H","0","img/none_selected.jpg","","187","main_expt"
"","bandit","267","1053097","0.0-228.0-0.0","47689911","wem/bandit_either_2","AYF8B7WJO2YQU","either","2","316","","","","","","","0","0","1","0.3055482451","","0.6","0.4","0.8","0.2","","","","","0.3055482451","0.3875691392","0.3646937268","0.1461675531","","","","","","","","72","H","0","img/none_selected.jpg","","188","main_expt"
"","bandit","268","1054937","0.0-229.0-0.0","47689911","wem/bandit_either_2","AYF8B7WJO2YQU","either","2","326","","","","","","","0","0","1","0.3002345065","","0.6","0.4","0.8","0.2","","","","","0.3002345065","0.4166866882","0.3891323825","0.1382971047","","","","","","","","72","H","0","img/none_selected.jpg","","189","main_expt"
"","bandit","269","1056881","0.0-230.0-0.0","47689911","wem/bandit_either_2","AYF8B7WJO2YQU","either","2","431","","","","","","","0","0","1","0.1898135375","","0.6","0.4","0.8","0.2","","","","","0.2693931213","0.4124474499","0.3860741766","0.1898135375","","","","","","","","76","L","3","","","190","main_expt"
"","bandit","270","1058749","0.0-231.0-0.0","47689911","wem/bandit_either_2","AYF8B7WJO2YQU","either","2","348","","","","","","","0","0","1","","0.1264917812","0.6","0.4","0.8","0.2","0.3009284261","0.3638199534","0.3864243721","0.1264917812","","","","","","","","","","","","76","L","3","","","191","main_expt"
"","bandit","271","1060724","0.0-232.0-0.0","47689911","wem/bandit_either_2","AYF8B7WJO2YQU","either","2","459","","","","","","","0","0","1","0.3157917784","","0.6","0.4","0.8","0.2","","","","","0.3157917784","0.3711146034","0.400448014","0.1185409567","","","","","","","","72","H","0","img/none_selected.jpg","","192","main_expt"
"","bandit","272","1062597","0.0-233.0-0.0","47689911","wem/bandit_either_2","AYF8B7WJO2YQU","either","2","353","","","","","","","0","0","1","","0.09837948322","0.6","0.4","0.8","0.2","0.2999212614","0.3654165885","0.3895367297","0.09837948322","","","","","","","","","","","","76","L","3","","","193","main_expt"
"","bandit","273","1064342","0.0-234.0-0.0","47689911","wem/bandit_either_2","AYF8B7WJO2YQU","either","2","226","","","","","","","1","0","0","0.3537818584","","0.6","0.4","0.8","0.2","","","","","0.3287494418","0.3537818584","0.4032313792","0.137690802","","","","","","","","74","J","1","","","194","main_expt"
"","bandit","274","1066232","0.0-235.0-0.0","47689911","wem/bandit_either_2","AYF8B7WJO2YQU","either","2","368","","","","","","","0","0","1","","0.3597494918","0.6","0.4","0.8","0.2","0.3031978913","0.3597494918","0.337234763","0.1683354775","","","","","","","","","","","","74","J","1","","","195","main_expt"
"","bandit","275","1068226","0.0-236.0-0.0","47689911","wem/bandit_either_2","AYF8B7WJO2YQU","either","2","472","","","","","","","0","0","1","","0.3479121901","0.6","0.4","0.8","0.2","0.2901303692","0.3479121901","0.3950764453","0.1561951964","","","","","","","","","","","","74","J","1","","","196","main_expt"
"","bandit","276","1070221","0.0-237.0-0.0","47689911","wem/bandit_either_2","AYF8B7WJO2YQU","either","2","484","","","","","","","1","0","0","0.3596292454","","0.6","0.4","0.8","0.2","","","","","0.2444781728","0.3596292454","0.4193743727","0.1329868482","","","","","","","","74","J","1","","","197","main_expt"
"","bandit","277","1072336","0.0-238.0-0.0","47689911","wem/bandit_either_2","AYF8B7WJO2YQU","either","2","604","","","","","","","0","0","1","","0.3555371828","0.6","0.4","0.8","0.2","0.2140047665","0.3555371828","0.4375347816","0.1730826789","","","","","","","","","","","","74","J","1","","","198","main_expt"
"","bandit","278","1074306","0.0-239.0-0.0","47689911","wem/bandit_either_2","AYF8B7WJO2YQU","either","2","448","","","","","","","0","1","0","","0.4016486285","0.6","0.4","0.8","0.2","0.2077842613","0.4016486285","0.4315030007","0.1385649096","","","","","","","","","","","","74","J","1","","","199","main_expt"
"","bandit","279","1076105","0.0-240.0-0.0","47689911","wem/bandit_either_2","AYF8B7WJO2YQU","either","2","287","","","","","","","0","0","1","","0.3871107612","0.6","0.4","0.8","0.2","0.180488049","0.3871107612","0.4340108373","0.1941139053","","","","","","","","","","","","74","J","1","","","200","main_expt"
"","bandit","280","1078125","0.0-241.0-0.0","47689911","wem/bandit_either_2","AYF8B7WJO2YQU","either","2","496","","","","","","","1","0","0","0.3856539452","","0.6","0.4","0.8","0.2","","","","","0.2084987087","0.3856539452","0.441078118","0.1825013029","","","","","","","","74","J","1","","","201","main_expt"
"","bandit","281","1079974","0.0-242.0-0.0","47689911","wem/bandit_either_2","AYF8B7WJO2YQU","either","2","328","","","","","","","0","0","1","0.358588673","","0.6","0.4","0.8","0.2","","","","","0.1869669721","0.358588673","0.4143682719","0.162440572","","","","","","","","74","J","1","","","202","main_expt"
"","bandit","282","1082077","0.0-243.0-0.0","47689911","wem/bandit_either_2","AYF8B7WJO2YQU","either","2","583","","","","","","","0","0","1","","0.3460881607","0.6","0.4","0.8","0.2","0.1383076553","0.3460881607","0.4280720422","0.1914238456","","","","","","","","","","","","74","J","1","","","203","main_expt"
"","bandit","283","1084153","0.0-244.0-0.0","47689911","wem/bandit_either_2","AYF8B7WJO2YQU","either","2","562","","","","","","","0","0","1","0.4113524858","","0.6","0.4","0.8","0.2","","","","","0.1656187697","0.3091432968","0.4113524858","0.1849793247","","","","","","","","75","K","2","","","204","main_expt"
"","bandit","284","1085999","0.0-245.0-0.0","47689911","wem/bandit_either_2","AYF8B7WJO2YQU","either","2","331","","","","","","","0","1","0","","0.4151465815","0.6","0.4","0.8","0.2","0.1699285253","0.3016396897","0.4151465815","0.1722293799","","","","","","","","","","","","75","K","2","","","205","main_expt"
"","bandit","285","1088009","0.0-246.0-0.0","47689911","wem/bandit_either_2","AYF8B7WJO2YQU","either","2","487","","","","","","","0","1","0","","0.4002359997","0.6","0.4","0.8","0.2","0.161732949","0.3300702997","0.4002359997","0.1625694713","","","","","","","","","","","","75","K","2","","","206","main_expt"
"","bandit","286","1089903","0.0-247.0-0.0","47689911","wem/bandit_either_2","AYF8B7WJO2YQU","either","2","372","","","","","","","0","0","1","0.3692387261","","0.6","0.4","0.8","0.2","","","","","0.1699017951","0.2648848683","0.3692387261","0.1079769143","","","","","","","","75","K","2","","","207","main_expt"
"","bandit","287","1091777","0.0-248.0-0.0","47689911","wem/bandit_either_2","AYF8B7WJO2YQU","either","2","350","","","","","","","0","0","1","0.3283471685","","0.6","0.4","0.8","0.2","","","","","0.1592107695","0.2502792914","0.3283471685","0.1380178959","","","","","","","","75","K","2","","","208","main_expt"
"","bandit","288","1093817","0.0-249.0-0.0","47689911","wem/bandit_either_2","AYF8B7WJO2YQU","either","2","520","","","","","","","1","0","0","0.1659907122","","0.6","0.4","0.8","0.2","","","","","0.1659907122","0.2770073026","0.2924758898","0.1538506734","","","","","","","","72","H","0","img/none_selected.jpg","","209","main_expt"
"","bandit","289","1095687","0.0-250.0-0.0","47689911","wem/bandit_either_2","AYF8B7WJO2YQU","either","2","357","","","","","","","0","1","0","","0.229525517","0.6","0.4","0.8","0.2","0.229525517","0.3451435735","0.2279470939","0.1406222791","","","","","","","","","","","","72","H","0","img/none_selected.jpg","","210","main_expt"
"","bandit","290","1097546","0.0-251.0-0.0","47689911","wem/bandit_either_2","AYF8B7WJO2YQU","either","2","347","","","","","","","0","0","1","0.2434605193","","0.6","0.4","0.8","0.2","","","","","0.2434605193","0.3514478275","0.2131844406","0.08987887408","","","","","","","","72","H","0","img/none_selected.jpg","","211","main_expt"
"","bandit","291","1099496","0.0-252.0-0.0","47689911","wem/bandit_either_2","AYF8B7WJO2YQU","either","2","426","","","","","","","0","0","1","0.1633214123","","0.6","0.4","0.8","0.2","","","","","0.1633214123","0.3579324364","0.1601793481","0.1277875359","","","","","","","","72","H","0","img/none_selected.jpg","","212","main_expt"
"","bandit","292","1101435","0.0-253.0-0.0","47689911","wem/bandit_either_2","AYF8B7WJO2YQU","either","2","419","","","","","","","0","0","1","","0.134271297","0.6","0.4","0.8","0.2","0.1014835246","0.3231243524","0.1354109392","0.134271297","","","","","","","","","","","","76","L","3","","","213","main_expt"
"","bandit","293","1103074","0.0-254.0-0.0","47689911","wem/bandit_either_2","AYF8B7WJO2YQU","either","2","116","","","","","","","0","1","0","","0.1385204111","0.6","0.4","0.8","0.2","0.09587264096","0.2798540136","0.1142105534","0.1385204111","","","","","","","","","","","","76","L","3","","","214","main_expt"
"","bandit","294","1105039","0.0-255.0-0.0","47689911","wem/bandit_either_2","AYF8B7WJO2YQU","either","2","439","","","","","","","0","0","1","0.1089132689","","0.6","0.4","0.8","0.2","","","","","0.08342689115","0.2469391402","0.1031311673","0.1089132689","","","","","","","","76","L","3","","","215","main_expt"
"","bandit","295","1106924","0.0-256.0-0.0","47689911","wem/bandit_either_2","AYF8B7WJO2YQU","either","2","361","","","","","","","0","0","1","","0.1299508563","0.6","0.4","0.8","0.2","0.05361264496","0.3211823944","0.1031732366","0.1299508563","","","","","","","","","","","","76","L","3","","","216","main_expt"
"","bandit","296","1108952","0.0-257.0-0.0","47689911","wem/bandit_either_2","AYF8B7WJO2YQU","either","2","506","","","","","","","0","0","1","0.1188097379","","0.6","0.4","0.8","0.2","","","","","0.09912420903","0.3545519007","0.1188097379","0.131109262","","","","","","","","75","K","2","","","217","main_expt"
"","bandit","297","1110816","0.0-258.0-0.0","47689911","wem/bandit_either_2","AYF8B7WJO2YQU","either","2","352","","","","","","","0","0","1","","0.3781539282","0.6","0.4","0.8","0.2","0.1021137889","0.3781539282","0.1096623481","0.1039495344","","","","","","","","","","","","74","J","1","","","218","main_expt"
"","bandit","298","1112797","0.0-259.0-0.0","47689911","wem/bandit_either_2","AYF8B7WJO2YQU","either","2","458","","","","","","","0","0","1","","0.1025207236","0.6","0.4","0.8","0.2","0.1025207236","0.3674409598","0.08679630722","0.09488552944","","","","","","","","","","","","72","H","0","img/none_selected.jpg","","219","main_expt"
"","bandit","299","1114776","0.0-260.0-0.0","47689911","wem/bandit_either_2","AYF8B7WJO2YQU","either","2","455","","","","","","","0","0","1","","0.1049734862","0.6","0.4","0.8","0.2","0.1049734862","0.315237632","0.1482089448","0.1311925698","","","","","","","","","","","","72","H","0","img/none_selected.jpg","","220","main_expt"
"","bandit","300","1116685","0.0-261.0-0.0","47689911","wem/bandit_either_2","AYF8B7WJO2YQU","either","2","385","","","","","","","0","0","1","0.3572442142","","0.6","0.4","0.8","0.2","","","","","0.08244295151","0.3572442142","0.217172314","0.08224132258","","","","","","","","74","J","1","","","221","main_expt"
"","bandit","301","1118383","0.0-262.0-0.0","47689911","wem/bandit_either_2","AYF8B7WJO2YQU","either","2","175","","","","","","","0","0","1","0.2227738938","","0.6","0.4","0.8","0.2","","","","","0.09815111748","0.2796125419","0.2227738938","0.06870998364","","","","","","","","75","K","2","","","222","main_expt"
"","bandit","302","1120147","0.0-263.0-0.0","47689911","wem/bandit_either_2","AYF8B7WJO2YQU","either","2","243","","","","","","","0","0","1","","0.111762886","0.6","0.4","0.8","0.2","0.09925351505","0.2265565182","0.2768694491","0.111762886","","","","","","","","","","","","76","L","3","","","223","main_expt"
"","bandit","303","1122932","0.0-264.0-0.0","47689911","wem/bandit_either_2","AYF8B7WJO2YQU","either","2","1274","","","","","","","0","0","1","","0.09652303785","0.6","0.4","0.8","0.2","0.07842644678","0.1727872262","0.2895694018","0.09652303785","","","","","","","","","","","","76","L","3","","","224","main_expt"
"","bandit","304","1124864","0.0-265.0-0.0","47689911","wem/bandit_either_2","AYF8B7WJO2YQU","either","2","421","","","","","","","0","0","1","0.3515154126","","0.6","0.4","0.8","0.2","","","","","0.05284632075","0.1580797834","0.3515154126","0.09424892582","","","","","","","","75","K","2","","","225","main_expt"
"","bandit","305","1126773","0.0-266.0-0.0","47689911","wem/bandit_either_2","AYF8B7WJO2YQU","either","2","396","","","","","","","0","0","1","","0.1206031336","0.6","0.4","0.8","0.2","0.06788221328","0.1206031336","0.3960872924","0.1094697254","","","","","","","","","","","","74","J","1","","","226","main_expt"
"","bandit","306","1128729","0.0-267.0-0.0","47689911","wem/bandit_either_2","AYF8B7WJO2YQU","either","2","428","","","","","","","0","0","1","","0.04226868229","0.6","0.4","0.8","0.2","0.04226868229","0.1218099769","0.3301105445","0.1055794081","","","","","","","","","","","","72","H","0","img/none_selected.jpg","","227","main_expt"
"","bandit","307","1130603","0.0-268.0-0.0","47689911","wem/bandit_either_2","AYF8B7WJO2YQU","either","2","350","","","","","","","0","0","1","0.06174471126","","0.6","0.4","0.8","0.2","","","","","0.06174471126","0.08458740206","0.3679650562","0.1210232629","","","","","","","","72","H","0","img/none_selected.jpg","","228","main_expt"
"","bandit","308","1132482","0.0-269.0-0.0","47689911","wem/bandit_either_2","AYF8B7WJO2YQU","either","2","354","","","","","","","0","0","1","","0.06122033102","0.6","0.4","0.8","0.2","0.06122033102","0.06311990622","0.3413725311","0.1249199002","","","","","","","","","","","","72","H","0","img/none_selected.jpg","","229","main_expt"
"","bandit","309","1134205","0.0-270.0-0.0","47689911","wem/bandit_either_2","AYF8B7WJO2YQU","either","2","199","","","","","","","0","0","1","","0.04674316758","0.6","0.4","0.8","0.2","0.09369367087","0.04674316758","0.3652503211","0.1423167866","","","","","","","","","","","","74","J","1","","","230","main_expt"
"","bandit","310","1136166","0.0-271.0-0.0","47689911","wem/bandit_either_2","AYF8B7WJO2YQU","either","2","448","","","","","","","0","0","1","","0.06697327866","0.6","0.4","0.8","0.2","0.1378364932","0.06697327866","0.3774172636","0.1441411413","","","","","","","","","","","","74","J","1","","","231","main_expt"
"","bandit","311","1138071","0.0-272.0-0.0","47689911","wem/bandit_either_2","AYF8B7WJO2YQU","either","2","379","","","","","","","0","0","1","","0.08617656909","0.6","0.4","0.8","0.2","0.1138343256","0.08617656909","0.3507397895","0.1132866493","","","","","","","","","","","","74","J","1","","","232","main_expt"
"","bandit","312","1140175","0.0-273.0-0.0","47689911","wem/bandit_either_2","AYF8B7WJO2YQU","either","2","587","","","","","","","0","0","1","","0.07587191469","0.6","0.4","0.8","0.2","0.1602674987","0.08388286328","0.3228668676","0.07587191469","","","","","","","","","","","","76","L","3","","","233","main_expt"
"","bandit","313","1142122","0.0-274.0-0.0","47689911","wem/bandit_either_2","AYF8B7WJO2YQU","either","2","429","","","","","","","0","0","1","","0.08330376307","0.6","0.4","0.8","0.2","0.1399599793","0.08303297831","0.3219168209","0.08330376307","","","","","","","","","","","","76","L","3","","","234","main_expt"
"","bandit","314","1143920","0.0-275.0-0.0","47689911","wem/bandit_either_2","AYF8B7WJO2YQU","either","2","273","","","","","","","0","0","1","","0.07960395758","0.6","0.4","0.8","0.2","0.1577883936","0.08228619446","0.2907257894","0.07960395758","","","","","","","","","","","","76","L","3","","","235","main_expt"
"","bandit","315","1145746","0.0-276.0-0.0","47689911","wem/bandit_either_2","AYF8B7WJO2YQU","either","2","315","","","","","","","1","0","0","0.2879125653","","0.6","0.4","0.8","0.2","","","","","0.1206463377","0.07856112713","0.2879125653","0.06703487678","","","","","","","","75","K","2","","","236","main_expt"
"","bandit","316","1147578","0.0-277.0-0.0","47689911","wem/bandit_either_2","AYF8B7WJO2YQU","either","2","318","","","","","","","1","0","0","0.3055933028","","0.6","0.4","0.8","0.2","","","","","0.1224948263","0.09394336493","0.3055933028","0.07970276757","","","","","","","","75","K","2","","","237","main_expt"
"","bandit","317","1149662","0.0-278.0-0.0","47689911","wem/bandit_either_2","AYF8B7WJO2YQU","either","2","565","","","","","","","0","0","1","0.3197806133","","0.6","0.4","0.8","0.2","","","","","0.1163601633","0.1044036833","0.3197806133","0.05589422377","","","","","","","","75","K","2","","","238","main_expt"
"","bandit","318","1151677","0.0-279.0-0.0","47689911","wem/bandit_either_2","AYF8B7WJO2YQU","either","2","487","","","","","","","0","0","1","","0.2699970134","0.6","0.4","0.8","0.2","0.09302868556","0.1010835707","0.2699970134","0.07304711058","","","","","","","","","","","","75","K","2","","","239","main_expt"
"","bandit","319","1153556","0.0-280.0-0.0","47689911","wem/bandit_either_2","AYF8B7WJO2YQU","either","2","353","","","","","","","1","0","0","0.2594796501","","0.6","0.4","0.8","0.2","","","","","0.1142909623","0.1196592177","0.2594796501","0.05193691484","","","","","","","","75","K","2","","","240","main_expt"
"","bandit","320","1155388","0.0-281.0-0.0","47689911","wem/bandit_either_2","AYF8B7WJO2YQU","either","2","302","","","","","","","1","0","0","0.252227353","","0.6","0.4","0.8","0.2","","","","","0.1694552561","0.127320561","0.252227353","0.06844812817","","","","","","","","75","K","2","","","241","main_expt"
"","bandit","321","1157283","0.0-282.0-0.0","47689911","wem/bandit_either_2","AYF8B7WJO2YQU","either","2","368","","","","","","","0","0","1","0.301231011","","0.6","0.4","0.8","0.2","","","","","0.1828807391","0.10641745","0.301231011","0.07869989264","","","","","","","","75","K","2","","","242","main_expt"
"","bandit","322","1159161","0.0-283.0-0.0","47689911","wem/bandit_either_2","AYF8B7WJO2YQU","either","2","352","","","","","","","1","0","0","0.2903867436","","0.6","0.4","0.8","0.2","","","","","0.1236361748","0.131785075","0.2903867436","0.06084245892","","","","","","","","75","K","2","","","243","main_expt"
"","bandit","323","1161119","0.0-284.0-0.0","47689911","wem/bandit_either_2","AYF8B7WJO2YQU","either","2","444","","","","","","","0","0","1","0.2659167858","","0.6","0.4","0.8","0.2","","","","","0.1131162958","0.1150513838","0.2659167858","0.04982625113","","","","","","","","75","K","2","","","244","main_expt"
"","bandit","324","1163018","0.0-285.0-0.0","47689911","wem/bandit_either_2","AYF8B7WJO2YQU","either","2","384","","","","","","","0","0","1","0.254087564","","0.6","0.4","0.8","0.2","","","","","0.08611006768","0.1651966394","0.254087564","0.04708965441","","","","","","","","75","K","2","","","245","main_expt"
"","bandit","325","1164888","0.0-286.0-0.0","47689911","wem/bandit_either_2","AYF8B7WJO2YQU","either","2","345","","","","","","","1","0","0","0.2551799517","","0.6","0.4","0.8","0.2","","","","","0.1123216353","0.1555796254","0.2551799517","0.0280961865","","","","","","","","75","K","2","","","246","main_expt"
"","bandit","326","1166799","0.0-287.0-0.0","47689911","wem/bandit_either_2","AYF8B7WJO2YQU","either","2","397","","","","","","","0","0","1","0.2629335529","","0.6","0.4","0.8","0.2","","","","","0.09475638668","0.1703980626","0.2629335529","0.04499456282","","","","","","","","75","K","2","","","247","main_expt"
"","bandit","327","1168651","0.0-288.0-0.0","47689911","wem/bandit_either_2","AYF8B7WJO2YQU","either","2","328","","","","","","","0","0","1","0.2393496224","","0.6","0.4","0.8","0.2","","","","","0.08309477664","0.1502680902","0.2393496224","0.03910304398","","","","","","","","75","K","2","","","248","main_expt"
