"consent","trial_type","trial_index","time_elapsed","internal_node_id","subjID","study","MID","cond","drift","rt","responses","key_press","expt_phase","like","value","connected","gems","bombs","no_reward","GemPrChosen","BombPrChosen","GainOverPainPr_0","GainOverPainPr_1","GainOverPainPr_2","GainOverPainPr_3","LosePr_0","LosePr_1","LosePr_2","LosePr_3","WinPr_0","WinPr_1","WinPr_2","WinPr_3","Q0","Q1","Q2","gender","age","ethnicity","target","respCharCode","respKey","respChoiceNum","respChoice","practice","trial_counter","trial_label"
"INL_behavioral_consent_30min_online.html","consent","0","7224","0.0-0.0","48448271","wem/bandit_either_2","A3GK9LWMSDH4P9","either","8","","","","","","","","","","","","","","","","","","","","","","","","","","","","","","","","","","","","","",""
"","survey-text","1","13101","0.0-1.0","48448271","wem/bandit_either_2","A3GK9LWMSDH4P9","either","8","4867","{""Q0"":""A3GK9LWMSDH4P9""}","","","","","","","","","","","","","","","","","","","","","","","","","","","","","","","","","","","",""
"","text","2","31137","0.0-2.0","48448271","wem/bandit_either_2","A3GK9LWMSDH4P9","either","8","17032","","32","","","","","","","","","","","","","","","","","","","","","","","","","","","","","","","","","","",""
"","text","3","36188","0.0-3.0","48448271","wem/bandit_either_2","A3GK9LWMSDH4P9","either","8","5049","","32","","","","","","","","","","","","","","","","","","","","","","","","","","","","","","","","","","",""
"","text","4","48860","0.0-4.0","48448271","wem/bandit_either_2","A3GK9LWMSDH4P9","either","8","12671","","32","","","","","","","","","","","","","","","","","","","","","","","","","","","","","","","","","","",""
"","text","5","58350","0.0-5.0","48448271","wem/bandit_either_2","A3GK9LWMSDH4P9","either","8","9488","","32","","","","","","","","","","","","","","","","","","","","","","","","","","","","","","","","","","",""
"","text","6","80316","0.0-6.0","48448271","wem/bandit_either_2","A3GK9LWMSDH4P9","either","8","21964","","32","","","","","","","","","","","","","","","","","","","","","","","","","","","","","","","","","","",""
"","text","7","85272","0.0-7.0","48448271","wem/bandit_either_2","A3GK9LWMSDH4P9","either","8","4955","","32","","","","","","","","","","","","","","","","","","","","","","","","","","","","","","","","","","",""
"","text","8","89162","0.0-8.0","48448271","wem/bandit_either_2","A3GK9LWMSDH4P9","either","8","3888","","32","","","","","","","","","","","","","","","","","","","","","","","","","","","","","","","","","","",""
"","identification","9","98425","0.0-9.0-0.0","48448271","wem/bandit_either_2","A3GK9LWMSDH4P9","either","8","9247","","","","4","5","4","","","","","","","","","","","","","","","","","","","","","","","","the village of Zur","","","","","","",""
"","identification","10","107477","0.0-9.0-1.0","48448271","wem/bandit_either_2","A3GK9LWMSDH4P9","either","8","8041","","","","3","3","1","","","","","","","","","","","","","","","","","","","","","","","","the village of Nyx","","","","","","",""
"","text","11","112545","0.0-10.0","48448271","wem/bandit_either_2","A3GK9LWMSDH4P9","either","8","4062","","32","","","","","","","","","","","","","","","","","","","","","","","","","","","","","","","","","","",""
"","text","12","116967","0.0-11.0","48448271","wem/bandit_either_2","A3GK9LWMSDH4P9","either","8","4421","","32","","","","","","","","","","","","","","","","","","","","","","","","","","","","","","","","","","",""
"","text","13","119163","0.0-12.0","48448271","wem/bandit_either_2","A3GK9LWMSDH4P9","either","8","2194","","32","","","","","","","","","","","","","","","","","","","","","","","","","","","","","","","","","","",""
"","text","14","123099","0.0-13.0","48448271","wem/bandit_either_2","A3GK9LWMSDH4P9","either","8","3934","","32","","","","","","","","","","","","","","","","","","","","","","","","","","","","","","","","","","",""
"","bandit","15","126046","0.0-14.0-0.0","48448271","wem/bandit_either_2","A3GK9LWMSDH4P9","either","8","1434","","","","","","","0","0","1","0","0","","","","","0","","","","0","","","","","","","","","","","74","J","0","img/none_selected_demo.jpg","true","0",""
"","bandit","16","128322","0.0-15.0-0.0","48448271","wem/bandit_either_2","A3GK9LWMSDH4P9","either","8","768","","","","","","","0","0","1","0","0","","","","","0","","","","0","","","","","","","","","","","75","K","0","img/none_selected_demo.jpg","true","0",""
"","text","17","135877","0.0-16.0","48448271","wem/bandit_either_2","A3GK9LWMSDH4P9","either","8","7554","","32","","","","","","","","","","","","","","","","","","","","","","","","","","","","","","","","","","",""
"","text","18","144305","0.0-17.0","48448271","wem/bandit_either_2","A3GK9LWMSDH4P9","either","8","8428","","32","","","","","","","","","","","","","","","","","","","","","","","","","","","","","","","","","","",""
"","text","19","152652","0.0-18.0","48448271","wem/bandit_either_2","A3GK9LWMSDH4P9","either","8","8345","","32","","","","","","","","","","","","","","","","","","","","","","","","","","","","","","","","","","",""
"","text","20","154786","0.0-19.0","48448271","wem/bandit_either_2","A3GK9LWMSDH4P9","either","8","2132","","32","","","","","","","","","","","","","","","","","","","","","","","","","","","","","","","","","","",""
"","bandit","21","157053","0.0-20.0-0.0","48448271","wem/bandit_either_2","A3GK9LWMSDH4P9","either","8","757","","","","","","","1","0","0","0.8","","0.5","0.5","","","","","","","0.8","0.2","","","","","","","","","","74","J","0","img/none_selected_demo.jpg","true","0","80_20_practice"
"","bandit","22","158956","0.0-20.0-1.0","48448271","wem/bandit_either_2","A3GK9LWMSDH4P9","either","8","392","","","","","","","1","0","0","0.8","","0.5","0.5","","","","","","","0.8","0.2","","","","","","","","","","74","J","0","img/none_selected_demo.jpg","true","0","80_20_practice"
"","bandit","23","160872","0.0-20.0-2.0","48448271","wem/bandit_either_2","A3GK9LWMSDH4P9","either","8","404","","","","","","","0","1","0","","0.8","0.5","0.5","","","0.8","0.2","","","","","","","","","","","","","","74","J","0","img/none_selected_demo.jpg","true","0","80_20_practice"
"","bandit","24","162744","0.0-20.0-3.0","48448271","wem/bandit_either_2","A3GK9LWMSDH4P9","either","8","367","","","","","","","1","0","0","0.8","","0.5","0.5","","","","","","","0.8","0.2","","","","","","","","","","74","J","0","img/none_selected_demo.jpg","true","0","80_20_practice"
"","bandit","25","164674","0.0-20.0-4.0","48448271","wem/bandit_either_2","A3GK9LWMSDH4P9","either","8","419","","","","","","","0","0","1","","0.8","0.5","0.5","","","0.8","0.2","","","","","","","","","","","","","","74","J","0","img/none_selected_demo.jpg","true","0","80_20_practice"
"","bandit","26","166748","0.0-20.0-5.0","48448271","wem/bandit_either_2","A3GK9LWMSDH4P9","either","8","560","","","","","","","0","0","1","0.8","","0.5","0.5","","","","","","","0.8","0.2","","","","","","","","","","74","J","0","img/none_selected_demo.jpg","true","0","80_20_practice"
"","bandit","27","168628","0.0-20.0-6.0","48448271","wem/bandit_either_2","A3GK9LWMSDH4P9","either","8","370","","","","","","","0","1","0","","0.8","0.5","0.5","","","0.8","0.2","","","","","","","","","","","","","","74","J","0","img/none_selected_demo.jpg","true","0","80_20_practice"
"","bandit","28","170473","0.0-20.0-7.0","48448271","wem/bandit_either_2","A3GK9LWMSDH4P9","either","8","336","","","","","","","0","1","0","","0.8","0.5","0.5","","","0.8","0.2","","","","","","","","","","","","","","74","J","0","img/none_selected_demo.jpg","true","0","80_20_practice"
"","bandit","29","172308","0.0-20.0-8.0","48448271","wem/bandit_either_2","A3GK9LWMSDH4P9","either","8","325","","","","","","","1","0","0","0.8","","0.5","0.5","","","","","","","0.8","0.2","","","","","","","","","","74","J","0","img/none_selected_demo.jpg","true","0","80_20_practice"
"","bandit","30","174160","0.0-20.0-9.0","48448271","wem/bandit_either_2","A3GK9LWMSDH4P9","either","8","341","","","","","","","1","0","0","0.8","","0.5","0.5","","","","","","","0.8","0.2","","","","","","","","","","74","J","0","img/none_selected_demo.jpg","true","0","80_20_practice"
"","bandit","31","175965","0.0-20.0-10.0","48448271","wem/bandit_either_2","A3GK9LWMSDH4P9","either","8","298","","","","","","","1","0","0","0.8","","0.5","0.5","","","","","","","0.8","0.2","","","","","","","","","","74","J","0","img/none_selected_demo.jpg","true","0","80_20_practice"
"","bandit","32","177829","0.0-20.0-11.0","48448271","wem/bandit_either_2","A3GK9LWMSDH4P9","either","8","353","","","","","","","1","0","0","0.8","","0.5","0.5","","","","","","","0.8","0.2","","","","","","","","","","74","J","0","img/none_selected_demo.jpg","true","0","80_20_practice"
"","bandit","33","179715","0.0-20.0-12.0","48448271","wem/bandit_either_2","A3GK9LWMSDH4P9","either","8","379","","","","","","","0","0","1","0.8","","0.5","0.5","","","","","","","0.8","0.2","","","","","","","","","","74","J","0","img/none_selected_demo.jpg","true","0","80_20_practice"
"","bandit","34","181509","0.0-20.0-13.0","48448271","wem/bandit_either_2","A3GK9LWMSDH4P9","either","8","286","","","","","","","1","0","0","0.8","","0.5","0.5","","","","","","","0.8","0.2","","","","","","","","","","74","J","0","img/none_selected_demo.jpg","true","0","80_20_practice"
"","bandit","35","183402","0.0-20.0-14.0","48448271","wem/bandit_either_2","A3GK9LWMSDH4P9","either","8","383","","","","","","","1","0","0","0.8","","0.5","0.5","","","","","","","0.8","0.2","","","","","","","","","","74","J","0","img/none_selected_demo.jpg","true","0","80_20_practice"
"","bandit","36","185271","0.0-20.0-15.0","48448271","wem/bandit_either_2","A3GK9LWMSDH4P9","either","8","358","","","","","","","0","1","0","","0.8","0.5","0.5","","","0.8","0.2","","","","","","","","","","","","","","74","J","0","img/none_selected_demo.jpg","true","0","80_20_practice"
"","bandit","37","187308","0.0-20.0-16.0","48448271","wem/bandit_either_2","A3GK9LWMSDH4P9","either","8","529","","","","","","","1","0","0","0.8","","0.5","0.5","","","","","","","0.8","0.2","","","","","","","","","","74","J","0","img/none_selected_demo.jpg","true","0","80_20_practice"
"","bandit","38","189230","0.0-20.0-17.0","48448271","wem/bandit_either_2","A3GK9LWMSDH4P9","either","8","413","","","","","","","1","0","0","0.8","","0.5","0.5","","","","","","","0.8","0.2","","","","","","","","","","74","J","0","img/none_selected_demo.jpg","true","0","80_20_practice"
"","bandit","39","191103","0.0-20.0-18.0","48448271","wem/bandit_either_2","A3GK9LWMSDH4P9","either","8","366","","","","","","","0","1","0","","0.8","0.5","0.5","","","0.8","0.2","","","","","","","","","","","","","","74","J","0","img/none_selected_demo.jpg","true","0","80_20_practice"
"","bandit","40","192934","0.0-20.0-19.0","48448271","wem/bandit_either_2","A3GK9LWMSDH4P9","either","8","324","","","","","","","1","0","0","0.8","","0.5","0.5","","","","","","","0.8","0.2","","","","","","","","","","74","J","0","img/none_selected_demo.jpg","true","0","80_20_practice"
"","text","41","195908","0.0-21.0","48448271","wem/bandit_either_2","A3GK9LWMSDH4P9","either","8","2973","","32","","","","","","","","","","","","","","","","","","","","","","","","","","","","","","","","","","",""
"","bandit","42","198281","0.0-22.0-0.0","48448271","wem/bandit_either_2","A3GK9LWMSDH4P9","either","8","861","","","","","","","1","0","0","1","0","","","","","0","1","","","1","0","","","","","","","","","","74","J","0","img/none_selected_demo.jpg","true","0",""
"","text","43","203518","0.0-23.0","48448271","wem/bandit_either_2","A3GK9LWMSDH4P9","either","8","5235","","32","","","","","","","","","","","","","","","","","","","","","","","","","","","","","","","","","","",""
"","text","44","206634","0.0-24.0","48448271","wem/bandit_either_2","A3GK9LWMSDH4P9","either","8","3114","","32","","","","","","","","","","","","","","","","","","","","","","","","","","","","","","","","","","",""
"","text","45","209643","0.0-25.0","48448271","wem/bandit_either_2","A3GK9LWMSDH4P9","either","8","3008","","32","","","","","","","","","","","","","","","","","","","","","","","","","","","","","","","","","","",""
"","text","46","212225","0.0-26.0","48448271","wem/bandit_either_2","A3GK9LWMSDH4P9","either","8","2580","","32","","","","","","","","","","","","","","","","","","","","","","","","","","","","","","","","","","",""
"","text","47","228734","0.0-27.0","48448271","wem/bandit_either_2","A3GK9LWMSDH4P9","either","8","16507","","32","","","","","","","","","","","","","","","","","","","","","","","","","","","","","","","","","","",""
"","text","48","231401","0.0-28.0","48448271","wem/bandit_either_2","A3GK9LWMSDH4P9","either","8","2665","","32","","","","","","","","","","","","","","","","","","","","","","","","","","","","","","","","","","",""
"","text","49","236852","0.0-29.0","48448271","wem/bandit_either_2","A3GK9LWMSDH4P9","either","8","5450","","32","","","","","","","","","","","","","","","","","","","","","","","","","","","","","","","","","","",""
"","text","50","239629","0.0-30.0","48448271","wem/bandit_either_2","A3GK9LWMSDH4P9","either","8","2775","","32","","","","","","","","","","","","","","","","","","","","","","","","","","","","","","","","","","",""
"","text","51","242932","0.0-31.0","48448271","wem/bandit_either_2","A3GK9LWMSDH4P9","either","8","3301","","32","","","","","","","","","","","","","","","","","","","","","","","","","","","","","","","","","","",""
"","text","52","244197","0.0-32.0","48448271","wem/bandit_either_2","A3GK9LWMSDH4P9","either","8","1263","","32","","","","","","","","","","","","","","","","","","","","","","","","","","","","","","","","","","",""
"","text","53","247261","0.0-33.0","48448271","wem/bandit_either_2","A3GK9LWMSDH4P9","either","8","3061","","32","","","","","","","","","","","","","","","","","","","","","","","","","","","","","","","","","","",""
"","bandit","54","250328","0.0-34.0-0.0","48448271","wem/bandit_either_2","A3GK9LWMSDH4P9","either","8","1560","","","","","","","0","0","1","0.2","","0.5","0.5","0.5","0.5","","","","","0.8","0.2","0.6","0.2","","","","","","","","76","L","3","","true","0","full_practice"
"","bandit","55","254638","0.0-34.0-1.0","48448271","wem/bandit_either_2","A3GK9LWMSDH4P9","either","8","2801","","","","","","","0","1","0","","0.6","0.5","0.5","0.5","0.5","0.8","0.2","0.6","0.2","","","","","","","","","","","","75","K","2","","true","0","full_practice"
"","bandit","56","256519","0.0-34.0-2.0","48448271","wem/bandit_either_2","A3GK9LWMSDH4P9","either","8","371","","","","","","","1","0","0","0.6","","0.5","0.5","0.5","0.5","","","","","0.8","0.2","0.6","0.2","","","","","","","","75","K","2","","true","0","full_practice"
"","bandit","57","258411","0.0-34.0-3.0","48448271","wem/bandit_either_2","A3GK9LWMSDH4P9","either","8","380","","","","","","","0","0","1","0.2","","0.5","0.5","0.5","0.5","","","","","0.8","0.2","0.6","0.2","","","","","","","","74","J","1","","true","0","full_practice"
"","bandit","58","260199","0.0-34.0-4.0","48448271","wem/bandit_either_2","A3GK9LWMSDH4P9","either","8","280","","","","","","","0","0","1","0.2","","0.5","0.5","0.5","0.5","","","","","0.8","0.2","0.6","0.2","","","","","","","","74","J","1","","true","0","full_practice"
"","bandit","59","262098","0.0-34.0-5.0","48448271","wem/bandit_either_2","A3GK9LWMSDH4P9","either","8","389","","","","","","","0","1","0","","0.8","0.5","0.5","0.5","0.5","0.8","0.2","0.6","0.2","","","","","","","","","","","","72","H","0","img/none_selected.jpg","true","0","full_practice"
"","bandit","60","263973","0.0-34.0-6.0","48448271","wem/bandit_either_2","A3GK9LWMSDH4P9","either","8","366","","","","","","","1","0","0","0.8","","0.5","0.5","0.5","0.5","","","","","0.8","0.2","0.6","0.2","","","","","","","","72","H","0","img/none_selected.jpg","true","0","full_practice"
"","bandit","61","265836","0.0-34.0-7.0","48448271","wem/bandit_either_2","A3GK9LWMSDH4P9","either","8","356","","","","","","","0","0","1","","0.8","0.5","0.5","0.5","0.5","0.8","0.2","0.6","0.2","","","","","","","","","","","","72","H","0","img/none_selected.jpg","true","0","full_practice"
"","bandit","62","267700","0.0-34.0-8.0","48448271","wem/bandit_either_2","A3GK9LWMSDH4P9","either","8","351","","","","","","","0","1","0","","0.2","0.5","0.5","0.5","0.5","0.8","0.2","0.6","0.2","","","","","","","","","","","","76","L","3","","true","0","full_practice"
"","bandit","63","269540","0.0-34.0-9.0","48448271","wem/bandit_either_2","A3GK9LWMSDH4P9","either","8","327","","","","","","","0","0","1","0.2","","0.5","0.5","0.5","0.5","","","","","0.8","0.2","0.6","0.2","","","","","","","","76","L","3","","true","0","full_practice"
"","bandit","64","271421","0.0-34.0-10.0","48448271","wem/bandit_either_2","A3GK9LWMSDH4P9","either","8","372","","","","","","","0","0","1","","0.2","0.5","0.5","0.5","0.5","0.8","0.2","0.6","0.2","","","","","","","","","","","","76","L","3","","true","0","full_practice"
"","bandit","65","273284","0.0-34.0-11.0","48448271","wem/bandit_either_2","A3GK9LWMSDH4P9","either","8","354","","","","","","","1","0","0","0.6","","0.5","0.5","0.5","0.5","","","","","0.8","0.2","0.6","0.2","","","","","","","","75","K","2","","true","0","full_practice"
"","bandit","66","275119","0.0-34.0-12.0","48448271","wem/bandit_either_2","A3GK9LWMSDH4P9","either","8","325","","","","","","","0","1","0","","0.6","0.5","0.5","0.5","0.5","0.8","0.2","0.6","0.2","","","","","","","","","","","","75","K","2","","true","0","full_practice"
"","bandit","67","276994","0.0-34.0-13.0","48448271","wem/bandit_either_2","A3GK9LWMSDH4P9","either","8","365","","","","","","","0","0","1","","0.6","0.5","0.5","0.5","0.5","0.8","0.2","0.6","0.2","","","","","","","","","","","","75","K","2","","true","0","full_practice"
"","bandit","68","278758","0.0-34.0-14.0","48448271","wem/bandit_either_2","A3GK9LWMSDH4P9","either","8","256","","","","","","","0","1","0","","0.6","0.5","0.5","0.5","0.5","0.8","0.2","0.6","0.2","","","","","","","","","","","","75","K","2","","true","0","full_practice"
"","bandit","69","280569","0.0-34.0-15.0","48448271","wem/bandit_either_2","A3GK9LWMSDH4P9","either","8","302","","","","","","","0","0","1","","0.6","0.5","0.5","0.5","0.5","0.8","0.2","0.6","0.2","","","","","","","","","","","","75","K","2","","true","0","full_practice"
"","bandit","70","282422","0.0-34.0-16.0","48448271","wem/bandit_either_2","A3GK9LWMSDH4P9","either","8","341","","","","","","","0","0","1","0.8","","0.5","0.5","0.5","0.5","","","","","0.8","0.2","0.6","0.2","","","","","","","","72","H","0","img/none_selected.jpg","true","0","full_practice"
"","bandit","71","283994","0.0-34.0-17.0","48448271","wem/bandit_either_2","A3GK9LWMSDH4P9","either","8","63","","","","","","","0","1","0","","0.8","0.5","0.5","0.5","0.5","0.8","0.2","0.6","0.2","","","","","","","","","","","","72","H","0","img/none_selected.jpg","true","0","full_practice"
"","bandit","72","285748","0.0-34.0-18.0","48448271","wem/bandit_either_2","A3GK9LWMSDH4P9","either","8","245","","","","","","","0","1","0","","0.8","0.5","0.5","0.5","0.5","0.8","0.2","0.6","0.2","","","","","","","","","","","","72","H","0","img/none_selected.jpg","true","0","full_practice"
"","bandit","73","287627","0.0-34.0-19.0","48448271","wem/bandit_either_2","A3GK9LWMSDH4P9","either","8","370","","","","","","","0","0","1","","0.8","0.5","0.5","0.5","0.5","0.8","0.2","0.6","0.2","","","","","","","","","","","","72","H","0","img/none_selected.jpg","true","0","full_practice"
"","text","74","290412","0.0-35.0","48448271","wem/bandit_either_2","A3GK9LWMSDH4P9","either","8","2781","","32","","","","","","","","","","","","","","","","","","","","","","","","","","","","","","","","","","",""
"","text","75","302234","0.0-36.0","48448271","wem/bandit_either_2","A3GK9LWMSDH4P9","either","8","10817","","32","","","","","","","","","","","","","","","","","","","","","","","","","","","","","","","","","","",""
"","text","76","311194","0.0-37.0","48448271","wem/bandit_either_2","A3GK9LWMSDH4P9","either","8","8959","","32","","","","","","","","","","","","","","","","","","","","","","","","","","","","","","","","","","",""
"","text","77","317677","0.0-38.0","48448271","wem/bandit_either_2","A3GK9LWMSDH4P9","either","8","6480","","32","","","","","","","","","","","","","","","","","","","","","","","","","","","","","","","","","","",""
"","text","78","323387","0.0-39.0","48448271","wem/bandit_either_2","A3GK9LWMSDH4P9","either","8","5708","","32","","","","","","","","","","","","","","","","","","","","","","","","","","","","","","","","","","",""
"","text","79","327385","0.0-40.0","48448271","wem/bandit_either_2","A3GK9LWMSDH4P9","either","8","3995","","32","","","","","","","","","","","","","","","","","","","","","","","","","","","","","","","","","","",""
"","bandit","80","329730","0.0-41.0-0.0","48448271","wem/bandit_either_2","A3GK9LWMSDH4P9","either","8","833","","","","","","","1","0","0","0.1351790469","","0.8","0.2","0.6","0.4","","","","","0.2637293772","0.3540548627","0.1351790469","0.2928194041","","","","","","","","75","K","2","","","1","main_expt"
"","bandit","81","331621","0.0-42.0-0.0","48448271","wem/bandit_either_2","A3GK9LWMSDH4P9","either","8","380","","","","","","","0","0","1","","0.125602744","0.8","0.2","0.6","0.4","0.2760013096","0.3812516843","0.125602744","0.3040419902","","","","","","","","","","","","75","K","2","","","2","main_expt"
"","bandit","82","333572","0.0-43.0-0.0","48448271","wem/bandit_either_2","A3GK9LWMSDH4P9","either","8","442","","","","","","","0","0","1","0.09574082279","","0.8","0.2","0.6","0.4","","","","","0.3240499928","0.3901316494","0.09574082279","0.2875251023","","","","","","","","75","K","2","","","3","main_expt"
"","bandit","83","335545","0.0-44.0-0.0","48448271","wem/bandit_either_2","A3GK9LWMSDH4P9","either","8","464","","","","","","","0","1","0","","0.3945399471","0.8","0.2","0.6","0.4","0.3510822359","0.3945399471","0.0913382225","0.2965567903","","","","","","","","","","","","74","J","1","","","4","main_expt"
"","bandit","84","337362","0.0-45.0-0.0","48448271","wem/bandit_either_2","A3GK9LWMSDH4P9","either","8","306","","","","","","","1","0","0","0.3997977613","","0.8","0.2","0.6","0.4","","","","","0.3522827721","0.3997977613","0.106177601","0.2681113314","","","","","","","","74","J","1","","","5","main_expt"
"","bandit","85","339226","0.0-46.0-0.0","48448271","wem/bandit_either_2","A3GK9LWMSDH4P9","either","8","352","","","","","","","0","1","0","","0.390783501","0.8","0.2","0.6","0.4","0.382674005","0.390783501","0.08998955495","0.2330443498","","","","","","","","","","","","74","J","1","","","6","main_expt"
"","bandit","86","341234","0.0-47.0-0.0","48448271","wem/bandit_either_2","A3GK9LWMSDH4P9","either","8","496","","","","","","","0","0","1","","0.3305693427","0.8","0.2","0.6","0.4","0.3998463606","0.3305693427","0.1077526668","0.1630509172","","","","","","","","","","","","74","J","1","","","7","main_expt"
"","bandit","87","343103","0.0-48.0-0.0","48448271","wem/bandit_either_2","A3GK9LWMSDH4P9","either","8","358","","","","","","","0","0","1","","0.3056545716","0.8","0.2","0.6","0.4","0.3832029687","0.3056545716","0.1243697388","0.2002468685","","","","","","","","","","","","74","J","1","","","8","main_expt"
"","bandit","88","345014","0.0-49.0-0.0","48448271","wem/bandit_either_2","A3GK9LWMSDH4P9","either","8","396","","","","","","","0","0","1","","0.3278889804","0.8","0.2","0.6","0.4","0.3796681134","0.3278889804","0.1698108096","0.1835034381","","","","","","","","","","","","74","J","1","","","9","main_expt"
"","bandit","89","346895","0.0-50.0-0.0","48448271","wem/bandit_either_2","A3GK9LWMSDH4P9","either","8","371","","","","","","","0","0","1","0.3614311416","","0.8","0.2","0.6","0.4","","","","","0.3614311416","0.3137855556","0.221757114","0.1939723001","","","","","","","","72","H","0","img/none_selected.jpg","","10","main_expt"
"","bandit","90","348764","0.0-51.0-0.0","48448271","wem/bandit_either_2","A3GK9LWMSDH4P9","either","8","356","","","","","","","0","0","1","0.3938737051","","0.8","0.2","0.6","0.4","","","","","0.3938737051","0.3253079181","0.1961062924","0.1949806013","","","","","","","","72","H","0","img/none_selected.jpg","","11","main_expt"
"","bandit","91","350639","0.0-52.0-0.0","48448271","wem/bandit_either_2","A3GK9LWMSDH4P9","either","8","362","","","","","","","0","0","1","","0.1907056259","0.8","0.2","0.6","0.4","0.3810544723","0.3298150516","0.1907056259","0.2587943474","","","","","","","","","","","","75","K","2","","","12","main_expt"
"","bandit","92","352509","0.0-53.0-0.0","48448271","wem/bandit_either_2","A3GK9LWMSDH4P9","either","8","359","","","","","","","0","0","1","0.2162865666","","0.8","0.2","0.6","0.4","","","","","0.3707046684","0.3673307406","0.2162865666","0.3085985727","","","","","","","","75","K","2","","","13","main_expt"
"","bandit","93","354418","0.0-54.0-0.0","48448271","wem/bandit_either_2","A3GK9LWMSDH4P9","either","8","401","","","","","","","0","0","1","0.2464992766","","0.8","0.2","0.6","0.4","","","","","0.3486531997","0.3679224674","0.2399362825","0.2464992766","","","","","","","","76","L","3","","","14","main_expt"
"","bandit","94","356229","0.0-55.0-0.0","48448271","wem/bandit_either_2","A3GK9LWMSDH4P9","either","8","298","","","","","","","0","0","1","0.2474611475","","0.8","0.2","0.6","0.4","","","","","0.3263578384","0.3062507314","0.1986859052","0.2474611475","","","","","","","","76","L","3","","","15","main_expt"
"","bandit","95","358279","0.0-56.0-0.0","48448271","wem/bandit_either_2","A3GK9LWMSDH4P9","either","8","536","","","","","","","0","0","1","","0.2892976033","0.8","0.2","0.6","0.4","0.3514189979","0.2892976033","0.1865641621","0.2835538477","","","","","","","","","","","","74","J","1","","","16","main_expt"
"","bandit","96","360131","0.0-57.0-0.0","48448271","wem/bandit_either_2","A3GK9LWMSDH4P9","either","8","341","","","","","","","0","0","1","0.2861796528","","0.8","0.2","0.6","0.4","","","","","0.3532592314","0.2861796528","0.2035525071","0.3256112075","","","","","","","","74","J","1","","","17","main_expt"
"","bandit","97","362012","0.0-58.0-0.0","48448271","wem/bandit_either_2","A3GK9LWMSDH4P9","either","8","368","","","","","","","0","0","1","","0.2039336531","0.8","0.2","0.6","0.4","0.3858608091","0.2958570682","0.2039336531","0.3802227677","","","","","","","","","","","","75","K","2","","","18","main_expt"
"","bandit","98","363875","0.0-59.0-0.0","48448271","wem/bandit_either_2","A3GK9LWMSDH4P9","either","8","353","","","","","","","0","0","1","","0.1598579642","0.8","0.2","0.6","0.4","0.3837638756","0.3353028819","0.1598579642","0.360566968","","","","","","","","","","","","75","K","2","","","19","main_expt"
"","bandit","99","365872","0.0-60.0-0.0","48448271","wem/bandit_either_2","A3GK9LWMSDH4P9","either","8","488","","","","","","","0","0","1","","0.1437622327","0.8","0.2","0.6","0.4","0.2872100501","0.3139704528","0.1437622327","0.3696799013","","","","","","","","","","","","75","K","2","","","20","main_expt"
"","bandit","100","367771","0.0-61.0-0.0","48448271","wem/bandit_either_2","A3GK9LWMSDH4P9","either","8","392","","","","","","","0","0","1","","0.2975414498","0.8","0.2","0.6","0.4","0.2975414498","0.2524707143","0.07974703335","0.4006907501","","","","","","","","","","","","72","H","0","img/none_selected.jpg","","21","main_expt"
"","bandit","101","369657","0.0-62.0-0.0","48448271","wem/bandit_either_2","A3GK9LWMSDH4P9","either","8","374","","","","","","","1","0","0","0.2741965999","","0.8","0.2","0.6","0.4","","","","","0.2741965999","0.248326021","0.1361132429","0.4081217326","","","","","","","","72","H","0","img/none_selected.jpg","","22","main_expt"
"","bandit","102","371642","0.0-63.0-0.0","48448271","wem/bandit_either_2","A3GK9LWMSDH4P9","either","8","474","","","","","","","0","0","1","0.2379064449","","0.8","0.2","0.6","0.4","","","","","0.2379064449","0.2937153481","0.1705973249","0.3740207531","","","","","","","","72","H","0","img/none_selected.jpg","","23","main_expt"
"","bandit","103","373552","0.0-64.0-0.0","48448271","wem/bandit_either_2","A3GK9LWMSDH4P9","either","8","398","","","","","","","1","0","0","0.2078598572","","0.8","0.2","0.6","0.4","","","","","0.2078598572","0.2625315469","0.1392759225","0.3913756451","","","","","","","","72","H","0","img/none_selected.jpg","","24","main_expt"
"","bandit","104","375737","0.0-65.0-0.0","48448271","wem/bandit_either_2","A3GK9LWMSDH4P9","either","8","671","","","","","","","1","0","0","0.2764850733","","0.8","0.2","0.6","0.4","","","","","0.2764850733","0.2405651368","0.1800538527","0.4100905738","","","","","","","","72","H","0","img/none_selected.jpg","","25","main_expt"
"","bandit","105","377796","0.0-66.0-0.0","48448271","wem/bandit_either_2","A3GK9LWMSDH4P9","either","8","546","","","","","","","1","0","0","0.3080191348","","0.8","0.2","0.6","0.4","","","","","0.3080191348","0.2503350336","0.2146400533","0.3600668969","","","","","","","","72","H","0","img/none_selected.jpg","","26","main_expt"
"","bandit","106","379793","0.0-67.0-0.0","48448271","wem/bandit_either_2","A3GK9LWMSDH4P9","either","8","489","","","","","","","0","0","1","0.3606197488","","0.8","0.2","0.6","0.4","","","","","0.3606197488","0.354091838","0.1948367851","0.3703096079","","","","","","","","72","H","0","img/none_selected.jpg","","27","main_expt"
"","bandit","107","381744","0.0-68.0-0.0","48448271","wem/bandit_either_2","A3GK9LWMSDH4P9","either","8","442","","","","","","","0","0","1","","0.3696097963","0.8","0.2","0.6","0.4","0.3696097963","0.3419366675","0.2282666016","0.3527269899","","","","","","","","","","","","72","H","0","img/none_selected.jpg","","28","main_expt"
"","bandit","108","383835","0.0-69.0-0.0","48448271","wem/bandit_either_2","A3GK9LWMSDH4P9","either","8","577","","","","","","","0","1","0","","0.3434444954","0.8","0.2","0.6","0.4","0.3434444954","0.361896517","0.1842618798","0.2854860911","","","","","","","","","","","","72","H","0","img/none_selected.jpg","","29","main_expt"
"","bandit","109","386012","0.0-70.0-0.0","48448271","wem/bandit_either_2","A3GK9LWMSDH4P9","either","8","667","","","","","","","0","0","1","","0.3528183973","0.8","0.2","0.6","0.4","0.3528183973","0.3701160785","0.1930267653","0.2971434158","","","","","","","","","","","","72","H","0","img/none_selected.jpg","","30","main_expt"
"","bandit","110","388072","0.0-71.0-0.0","48448271","wem/bandit_either_2","A3GK9LWMSDH4P9","either","8","548","","","","","","","0","0","1","","0.3436926249","0.8","0.2","0.6","0.4","0.3436926249","0.3602312343","0.2279264959","0.3192935598","","","","","","","","","","","","72","H","0","img/none_selected.jpg","","31","main_expt"
"","bandit","111","390206","0.0-72.0-0.0","48448271","wem/bandit_either_2","A3GK9LWMSDH4P9","either","8","620","","","","","","","0","0","1","0.2910845839","","0.8","0.2","0.6","0.4","","","","","0.3392376576","0.3550043818","0.1922668126","0.2910845839","","","","","","","","76","L","3","","","32","main_expt"
"","bandit","112","392228","0.0-73.0-0.0","48448271","wem/bandit_either_2","A3GK9LWMSDH4P9","either","8","512","","","","","","","0","0","1","","0.2956883229","0.8","0.2","0.6","0.4","0.2524106513","0.3927862597","0.1503247695","0.2956883229","","","","","","","","","","","","76","L","3","","","33","main_expt"
"","bandit","113","394313","0.0-74.0-0.0","48448271","wem/bandit_either_2","A3GK9LWMSDH4P9","either","8","570","","","","","","","0","0","1","0.1875072744","","0.8","0.2","0.6","0.4","","","","","0.2378308988","0.4185963197","0.1875072744","0.2918182698","","","","","","","","75","K","2","","","34","main_expt"
"","bandit","114","396426","0.0-75.0-0.0","48448271","wem/bandit_either_2","A3GK9LWMSDH4P9","either","8","601","","","","","","","0","0","1","","0.2135507624","0.8","0.2","0.6","0.4","0.2683654211","0.441983755","0.2135507624","0.3063909307","","","","","","","","","","","","75","K","2","","","35","main_expt"
"","bandit","115","398567","0.0-76.0-0.0","48448271","wem/bandit_either_2","A3GK9LWMSDH4P9","either","8","629","","","","","","","0","0","1","0.4352827683","","0.8","0.2","0.6","0.4","","","","","0.2645223933","0.4352827683","0.2042402853","0.2820805085","","","","","","","","74","J","1","","","36","main_expt"
"","bandit","116","400560","0.0-77.0-0.0","48448271","wem/bandit_either_2","A3GK9LWMSDH4P9","either","8","483","","","","","","","0","0","1","","0.450520142","0.8","0.2","0.6","0.4","0.2360561858","0.450520142","0.2024605481","0.2610370824","","","","","","","","","","","","74","J","1","","","37","main_expt"
"","bandit","117","402940","0.0-78.0-0.0","48448271","wem/bandit_either_2","A3GK9LWMSDH4P9","either","8","865","","","","","","","0","0","1","","0.1677713785","0.8","0.2","0.6","0.4","0.2001865083","0.4681224698","0.1677713785","0.1896233007","","","","","","","","","","","","75","K","2","","","38","main_expt"
"","bandit","118","404837","0.0-79.0-0.0","48448271","wem/bandit_either_2","A3GK9LWMSDH4P9","either","8","388","","","","","","","0","0","1","","0.1687915361","0.8","0.2","0.6","0.4","0.1687915361","0.4711022053","0.221779122","0.168851025","","","","","","","","","","","","72","H","0","img/none_selected.jpg","","39","main_expt"
"","bandit","119","406729","0.0-80.0-0.0","48448271","wem/bandit_either_2","A3GK9LWMSDH4P9","either","8","379","","","","","","","0","0","1","0.1503151413","","0.8","0.2","0.6","0.4","","","","","0.1503151413","0.4559447699","0.2722397218","0.1615787635","","","","","","","","72","H","0","img/none_selected.jpg","","40","main_expt"
"","bandit","120","408657","0.0-81.0-0.0","48448271","wem/bandit_either_2","A3GK9LWMSDH4P9","either","8","417","","","","","","","0","0","1","0.08168262283","","0.8","0.2","0.6","0.4","","","","","0.08168262283","0.4412687596","0.3298230943","0.1472326003","","","","","","","","72","H","0","img/none_selected.jpg","","41","main_expt"
"","bandit","121","410642","0.0-82.0-0.0","48448271","wem/bandit_either_2","A3GK9LWMSDH4P9","either","8","472","","","","","","","0","1","0","","0.07668629145","0.8","0.2","0.6","0.4","0.07668629145","0.4457751761","0.3104885444","0.1533480506","","","","","","","","","","","","72","H","0","img/none_selected.jpg","","42","main_expt"
"","bandit","122","412668","0.0-83.0-0.0","48448271","wem/bandit_either_2","A3GK9LWMSDH4P9","either","8","516","","","","","","","0","0","1","0.07394587158","","0.8","0.2","0.6","0.4","","","","","0.07394587158","0.4298378352","0.3005355489","0.1414351437","","","","","","","","72","H","0","img/none_selected.jpg","","43","main_expt"
"","bandit","123","414659","0.0-84.0-0.0","48448271","wem/bandit_either_2","A3GK9LWMSDH4P9","either","8","478","","","","","","","0","0","1","0.1192337685","","0.8","0.2","0.6","0.4","","","","","0.1192337685","0.4416915379","0.2456242138","0.1067646429","","","","","","","","72","H","0","img/none_selected.jpg","","44","main_expt"
"","bandit","124","416780","0.0-85.0-0.0","48448271","wem/bandit_either_2","A3GK9LWMSDH4P9","either","8","609","","","","","","","1","0","0","0.1285724119","","0.8","0.2","0.6","0.4","","","","","0.1285724119","0.3915522423","0.2839901561","0.1250796286","","","","","","","","72","H","0","img/none_selected.jpg","","45","main_expt"
"","bandit","125","419032","0.0-86.0-0.0","48448271","wem/bandit_either_2","A3GK9LWMSDH4P9","either","8","740","","","","","","","1","0","0","0.1112684106","","0.8","0.2","0.6","0.4","","","","","0.1112684106","0.4318427431","0.2353621531","0.1927264636","","","","","","","","72","H","0","img/none_selected.jpg","","46","main_expt"
"","bandit","126","421050","0.0-87.0-0.0","48448271","wem/bandit_either_2","A3GK9LWMSDH4P9","either","8","507","","","","","","","1","0","0","0.1207340475","","0.8","0.2","0.6","0.4","","","","","0.1207340475","0.4395998441","0.2405257196","0.1804488412","","","","","","","","72","H","0","img/none_selected.jpg","","47","main_expt"
"","bandit","127","423036","0.0-88.0-0.0","48448271","wem/bandit_either_2","A3GK9LWMSDH4P9","either","8","477","","","","","","","0","0","1","0.1182533935","","0.8","0.2","0.6","0.4","","","","","0.1182533935","0.4630443269","0.2629408555","0.168268176","","","","","","","","72","H","0","img/none_selected.jpg","","48","main_expt"
"","bandit","128","424987","0.0-89.0-0.0","48448271","wem/bandit_either_2","A3GK9LWMSDH4P9","either","8","438","","","","","","","0","0","1","0.1460801474","","0.8","0.2","0.6","0.4","","","","","0.1460801474","0.4794982466","0.2902453213","0.1466838001","","","","","","","","72","H","0","img/none_selected.jpg","","49","main_expt"
"","bandit","129","426972","0.0-90.0-0.0","48448271","wem/bandit_either_2","A3GK9LWMSDH4P9","either","8","473","","","","","","","0","0","1","0.1765155983","","0.8","0.2","0.6","0.4","","","","","0.1765155983","0.4562783041","0.3033715012","0.1336340117","","","","","","","","72","H","0","img/none_selected.jpg","","50","main_expt"
"","bandit","130","429029","0.0-91.0-0.0","48448271","wem/bandit_either_2","A3GK9LWMSDH4P9","either","8","542","","","","","","","0","0","1","0.1614266163","","0.8","0.2","0.6","0.4","","","","","0.1614266163","0.4515646323","0.3536831403","0.1067821754","","","","","","","","72","H","0","img/none_selected.jpg","","51","main_expt"
"","bandit","131","431053","0.0-92.0-0.0","48448271","wem/bandit_either_2","A3GK9LWMSDH4P9","either","8","513","","","","","","","1","0","0","0.3058792917","","0.8","0.2","0.6","0.4","","","","","0.1938643747","0.4344137529","0.3058792917","0.07294577227","","","","","","","","75","K","2","","","52","main_expt"
"","bandit","132","432926","0.0-93.0-0.0","48448271","wem/bandit_either_2","A3GK9LWMSDH4P9","either","8","363","","","","","","","1","0","0","0.3466820038","","0.8","0.2","0.6","0.4","","","","","0.1721886996","0.4421766306","0.3466820038","0.07676454597","","","","","","","","75","K","2","","","53","main_expt"
"","bandit","133","435040","0.0-94.0-0.0","48448271","wem/bandit_either_2","A3GK9LWMSDH4P9","either","8","602","","","","","","","0","0","1","","0.3159173384","0.8","0.2","0.6","0.4","0.1542880765","0.4591875032","0.3159173384","0.07707135067","","","","","","","","","","","","75","K","2","","","54","main_expt"
"","bandit","134","437121","0.0-95.0-0.0","48448271","wem/bandit_either_2","A3GK9LWMSDH4P9","either","8","568","","","","","","","0","0","1","0.3205246683","","0.8","0.2","0.6","0.4","","","","","0.2155598061","0.4455250987","0.3205246683","0.08227932488","","","","","","","","75","K","2","","","55","main_expt"
"","bandit","135","439262","0.0-96.0-0.0","48448271","wem/bandit_either_2","A3GK9LWMSDH4P9","either","8","627","","","","","","","0","0","1","","0.3067659888","0.8","0.2","0.6","0.4","0.199350645","0.4200701886","0.3067659888","0.09013031375","","","","","","","","","","","","75","K","2","","","56","main_expt"
"","bandit","136","441300","0.0-97.0-0.0","48448271","wem/bandit_either_2","A3GK9LWMSDH4P9","either","8","527","","","","","","","0","0","1","","0.106866739","0.8","0.2","0.6","0.4","0.1991981904","0.3635567377","0.3786279545","0.106866739","","","","","","","","","","","","76","L","3","","","57","main_expt"
"","bandit","137","443226","0.0-98.0-0.0","48448271","wem/bandit_either_2","A3GK9LWMSDH4P9","either","8","414","","","","","","","0","0","1","","0.0915584437","0.8","0.2","0.6","0.4","0.1307276253","0.3647217687","0.3796022377","0.0915584437","","","","","","","","","","","","76","L","3","","","58","main_expt"
"","bandit","138","445312","0.0-99.0-0.0","48448271","wem/bandit_either_2","A3GK9LWMSDH4P9","either","8","574","","","","","","","1","0","0","0.1036540812","","0.8","0.2","0.6","0.4","","","","","0.1540949786","0.3975499765","0.3570845549","0.1036540812","","","","","","","","76","L","3","","","59","main_expt"
"","bandit","139","447279","0.0-100.0-0.0","48448271","wem/bandit_either_2","A3GK9LWMSDH4P9","either","8","459","","","","","","","0","0","1","0.07948280662","","0.8","0.2","0.6","0.4","","","","","0.1187181044","0.376383165","0.398525789","0.07948280662","","","","","","","","76","L","3","","","60","main_expt"
"","bandit","140","449313","0.0-101.0-0.0","48448271","wem/bandit_either_2","A3GK9LWMSDH4P9","either","8","522","","","","","","","0","0","1","","0.0685056185","0.8","0.2","0.6","0.4","0.1734870435","0.3384437455","0.380986593","0.0685056185","","","","","","","","","","","","76","L","3","","","61","main_expt"
"","bandit","141","451453","0.0-102.0-0.0","48448271","wem/bandit_either_2","A3GK9LWMSDH4P9","either","8","627","","","","","","","0","0","1","","0.3086389155","0.8","0.2","0.6","0.4","0.2056999461","0.3086389155","0.3928002855","0.04196312691","","","","","","","","","","","","74","J","1","","","62","main_expt"
"","bandit","142","453461","0.0-103.0-0.0","48448271","wem/bandit_either_2","A3GK9LWMSDH4P9","either","8","495","","","","","","","0","0","1","","0.3098998428","0.8","0.2","0.6","0.4","0.2421495796","0.3098998428","0.4097838671","0.06524357318","","","","","","","","","","","","74","J","1","","","63","main_expt"
"","bandit","143","455592","0.0-104.0-0.0","48448271","wem/bandit_either_2","A3GK9LWMSDH4P9","either","8","615","","","","","","","0","1","0","","0.3942475769","0.8","0.2","0.6","0.4","0.2678986655","0.2859800092","0.3942475769","0.04599317762","","","","","","","","","","","","75","K","2","","","64","main_expt"
"","bandit","144","457637","0.0-105.0-0.0","48448271","wem/bandit_either_2","A3GK9LWMSDH4P9","either","8","529","","","","","","","0","1","0","","0.3756823908","0.8","0.2","0.6","0.4","0.2780805564","0.2780623804","0.3756823908","0.04738713632","","","","","","","","","","","","75","K","2","","","65","main_expt"
"","bandit","145","459801","0.0-106.0-0.0","48448271","wem/bandit_either_2","A3GK9LWMSDH4P9","either","8","649","","","","","","","0","1","0","","0.3780323226","0.8","0.2","0.6","0.4","0.2923516192","0.2740889186","0.3780323226","0.02873144913","","","","","","","","","","","","75","K","2","","","66","main_expt"
"","bandit","146","461944","0.0-107.0-0.0","48448271","wem/bandit_either_2","A3GK9LWMSDH4P9","either","8","630","","","","","","","0","0","1","","0.382091886","0.8","0.2","0.6","0.4","0.3481747094","0.3122756929","0.382091886","0.0355516853","","","","","","","","","","","","75","K","2","","","67","main_expt"
"","bandit","147","464004","0.0-108.0-0.0","48448271","wem/bandit_either_2","A3GK9LWMSDH4P9","either","8","546","","","","","","","0","0","1","","0.4080562953","0.8","0.2","0.6","0.4","0.3540590834","0.3004294993","0.4080562953","0.04483006882","","","","","","","","","","","","75","K","2","","","68","main_expt"
"","bandit","148","466083","0.0-109.0-0.0","48448271","wem/bandit_either_2","A3GK9LWMSDH4P9","either","8","567","","","","","","","0","0","1","","0.419826639","0.8","0.2","0.6","0.4","0.3348318208","0.3312842332","0.419826639","0.04300650393","","","","","","","","","","","","75","K","2","","","69","main_expt"
"","bandit","149","467940","0.0-110.0-0.0","48448271","wem/bandit_either_2","A3GK9LWMSDH4P9","either","8","344","","","","","","","0","0","1","","0.3889643965","0.8","0.2","0.6","0.4","0.3844983113","0.2362018798","0.3889643965","0.03960880855","","","","","","","","","","","","75","K","2","","","70","main_expt"
"","bandit","150","469856","0.0-111.0-0.0","48448271","wem/bandit_either_2","A3GK9LWMSDH4P9","either","8","402","","","","","","","0","0","1","0.3753843975","","0.8","0.2","0.6","0.4","","","","","0.3753843975","0.1838323472","0.3492343966","0.02401392238","","","","","","","","72","H","0","img/none_selected.jpg","","71","main_expt"
"","bandit","151","471765","0.0-112.0-0.0","48448271","wem/bandit_either_2","A3GK9LWMSDH4P9","either","8","399","","","","","","","0","0","1","0.3861429343","","0.8","0.2","0.6","0.4","","","","","0.3861429343","0.1749810972","0.3502155883","0.008756159955","","","","","","","","72","H","0","img/none_selected.jpg","","72","main_expt"
"","bandit","152","473704","0.0-113.0-0.0","48448271","wem/bandit_either_2","A3GK9LWMSDH4P9","either","8","431","","","","","","","0","0","1","0.3978436086","","0.8","0.2","0.6","0.4","","","","","0.3978436086","0.1664097112","0.3568691787","0.006257651783","","","","","","","","72","H","0","img/none_selected.jpg","","73","main_expt"
"","bandit","153","475661","0.0-114.0-0.0","48448271","wem/bandit_either_2","A3GK9LWMSDH4P9","either","8","446","","","","","","","0","0","1","0.2001176207","","0.8","0.2","0.6","0.4","","","","","0.3847979518","0.2001176207","0.3303653739","0.004732084297","","","","","","","","74","J","1","","","74","main_expt"
"","bandit","154","477559","0.0-115.0-0.0","48448271","wem/bandit_either_2","A3GK9LWMSDH4P9","either","8","385","","","","","","","0","0","1","","0.1848717924","0.8","0.2","0.6","0.4","0.3974319157","0.1848717924","0.3353283381","0.006967558871","","","","","","","","","","","","74","J","1","","","75","main_expt"
"","bandit","155","479645","0.0-116.0-0.0","48448271","wem/bandit_either_2","A3GK9LWMSDH4P9","either","8","575","","","","","","","0","0","1","","0.1510178238","0.8","0.2","0.6","0.4","0.3987985884","0.1510178238","0.3009524994","0.004525860487","","","","","","","","","","","","74","J","1","","","76","main_expt"
"","bandit","156","481949","0.0-117.0-0.0","48448271","wem/bandit_either_2","A3GK9LWMSDH4P9","either","8","789","","","","","","","0","0","1","0.3316028908","","0.8","0.2","0.6","0.4","","","","","0.4127312768","0.2089633591","0.3316028908","0.007245535115","","","","","","","","75","K","2","","","77","main_expt"
"","bandit","157","483800","0.0-118.0-0.0","48448271","wem/bandit_either_2","A3GK9LWMSDH4P9","either","8","338","","","","","","","0","0","1","","0.3571024926","0.8","0.2","0.6","0.4","0.4257675477","0.2285147345","0.3571024926","0.00483057751","","","","","","","","","","","","75","K","2","","","78","main_expt"
"","bandit","158","485707","0.0-119.0-0.0","48448271","wem/bandit_either_2","A3GK9LWMSDH4P9","either","8","398","","","","","","","0","0","1","","0.3542776451","0.8","0.2","0.6","0.4","0.4331167668","0.2246975601","0.3542776451","0.005956317848","","","","","","","","","","","","75","K","2","","","79","main_expt"
"","bandit","159","487573","0.0-120.0-0.0","48448271","wem/bandit_either_2","A3GK9LWMSDH4P9","either","8","357","","","","","","","0","0","1","0.0076590047","","0.8","0.2","0.6","0.4","","","","","0.4294395537","0.1878766281","0.3201174307","0.0076590047","","","","","","","","76","L","3","","","80","main_expt"
"","bandit","160","489462","0.0-121.0-0.0","48448271","wem/bandit_either_2","A3GK9LWMSDH4P9","either","8","382","","","","","","","0","0","1","","0.009115568074","0.8","0.2","0.6","0.4","0.4234249918","0.2436254364","0.3503003334","0.009115568074","","","","","","","","","","","","76","L","3","","","81","main_expt"
"","bandit","161","491318","0.0-122.0-0.0","48448271","wem/bandit_either_2","A3GK9LWMSDH4P9","either","8","344","","","","","","","0","0","1","0.01382977225","","0.8","0.2","0.6","0.4","","","","","0.3956977209","0.2627531714","0.3509066846","0.01382977225","","","","","","","","76","L","3","","","82","main_expt"
"","bandit","162","493314","0.0-123.0-0.0","48448271","wem/bandit_either_2","A3GK9LWMSDH4P9","either","8","487","","","","","","","0","0","1","0.4248650233","","0.8","0.2","0.6","0.4","","","","","0.4248650233","0.2672212524","0.3951868033","0.01500629599","","","","","","","","72","H","0","img/none_selected.jpg","","83","main_expt"
"","bandit","163","495178","0.0-124.0-0.0","48448271","wem/bandit_either_2","A3GK9LWMSDH4P9","either","8","349","","","","","","","0","0","1","0.4196907627","","0.8","0.2","0.6","0.4","","","","","0.4196907627","0.2817484998","0.4131477378","0.02310127573","","","","","","","","72","H","0","img/none_selected.jpg","","84","main_expt"
"","bandit","164","497172","0.0-125.0-0.0","48448271","wem/bandit_either_2","A3GK9LWMSDH4P9","either","8","484","","","","","","","0","0","1","0.435633498","","0.8","0.2","0.6","0.4","","","","","0.435633498","0.3074775227","0.3889697292","0.02639065846","","","","","","","","72","H","0","img/none_selected.jpg","","85","main_expt"
"","bandit","165","499113","0.0-126.0-0.0","48448271","wem/bandit_either_2","A3GK9LWMSDH4P9","either","8","427","","","","","","","1","0","0","0.4322222521","","0.8","0.2","0.6","0.4","","","","","0.4322222521","0.2717847629","0.3885636443","0.01746441632","","","","","","","","72","H","0","img/none_selected.jpg","","86","main_expt"
"","bandit","166","500995","0.0-127.0-0.0","48448271","wem/bandit_either_2","A3GK9LWMSDH4P9","either","8","371","","","","","","","0","0","1","0.4476119451","","0.8","0.2","0.6","0.4","","","","","0.4476119451","0.2183858348","0.4028282504","0.01256144444","","","","","","","","72","H","0","img/none_selected.jpg","","87","main_expt"
"","bandit","167","502900","0.0-128.0-0.0","48448271","wem/bandit_either_2","A3GK9LWMSDH4P9","either","8","391","","","","","","","1","0","0","0.4306890759","","0.8","0.2","0.6","0.4","","","","","0.4073123198","0.2054961256","0.4306890759","0.01178158386","","","","","","","","75","K","2","","","88","main_expt"
"","bandit","168","504809","0.0-129.0-0.0","48448271","wem/bandit_either_2","A3GK9LWMSDH4P9","either","8","396","","","","","","","0","0","1","","0.4103738654","0.8","0.2","0.6","0.4","0.3862301724","0.1452714398","0.4103738654","0.008722555822","","","","","","","","","","","","75","K","2","","","89","main_expt"
"","bandit","169","506871","0.0-130.0-0.0","48448271","wem/bandit_either_2","A3GK9LWMSDH4P9","either","8","551","","","","","","","0","0","1","","0.3980827974","0.8","0.2","0.6","0.4","0.3596745144","0.1077779513","0.3980827974","0.008232471735","","","","","","","","","","","","75","K","2","","","90","main_expt"
"","bandit","170","508727","0.0-131.0-0.0","48448271","wem/bandit_either_2","A3GK9LWMSDH4P9","either","8","347","","","","","","","0","0","1","0.4040531024","","0.8","0.2","0.6","0.4","","","","","0.3082854458","0.1308407065","0.4040531024","0.01249180717","","","","","","","","75","K","2","","","91","main_expt"
"","bandit","171","510614","0.0-132.0-0.0","48448271","wem/bandit_either_2","A3GK9LWMSDH4P9","either","8","374","","","","","","","0","1","0","","0.3462944796","0.8","0.2","0.6","0.4","0.312225492","0.1652322036","0.3462944796","0.01470986316","","","","","","","","","","","","75","K","2","","","92","main_expt"
"","bandit","172","512524","0.0-133.0-0.0","48448271","wem/bandit_either_2","A3GK9LWMSDH4P9","either","8","397","","","","","","","0","1","0","","0.3411451966","0.8","0.2","0.6","0.4","0.3671658277","0.1344678182","0.3411451966","0.02655281846","","","","","","","","","","","","75","K","2","","","93","main_expt"
"","bandit","173","514482","0.0-134.0-0.0","48448271","wem/bandit_either_2","A3GK9LWMSDH4P9","either","8","448","","","","","","","0","1","0","","0.3384154489","0.8","0.2","0.6","0.4","0.3401731108","0.1301314301","0.3384154489","0.02575246025","","","","","","","","","","","","75","K","2","","","94","main_expt"
"","bandit","174","516501","0.0-135.0-0.0","48448271","wem/bandit_either_2","A3GK9LWMSDH4P9","either","8","509","","","","","","","0","0","1","0.3126988266","","0.8","0.2","0.6","0.4","","","","","0.3413923724","0.1746055711","0.3126988266","0.02262355665","","","","","","","","75","K","2","","","95","main_expt"
"","bandit","175","518410","0.0-136.0-0.0","48448271","wem/bandit_either_2","A3GK9LWMSDH4P9","either","8","399","","","","","","","1","0","0","0.3800019137","","0.8","0.2","0.6","0.4","","","","","0.3570420485","0.1994244555","0.3800019137","0.02047181149","","","","","","","","75","K","2","","","96","main_expt"
"","bandit","176","520384","0.0-137.0-0.0","48448271","wem/bandit_either_2","A3GK9LWMSDH4P9","either","8","463","","","","","","","0","0","1","0.3328121005","","0.8","0.2","0.6","0.4","","","","","0.3435474977","0.1834602947","0.3328121005","0.0207754381","","","","","","","","75","K","2","","","97","main_expt"
"","bandit","177","522300","0.0-138.0-0.0","48448271","wem/bandit_either_2","A3GK9LWMSDH4P9","either","8","405","","","","","","","0","0","1","","0.332228596","0.8","0.2","0.6","0.4","0.3614714926","0.1719221531","0.332228596","0.02955834597","","","","","","","","","","","","75","K","2","","","98","main_expt"
"","bandit","178","524368","0.0-139.0-0.0","48448271","wem/bandit_either_2","A3GK9LWMSDH4P9","either","8","555","","","","","","","0","1","0","","0.2843854285","0.8","0.2","0.6","0.4","0.3176405447","0.1183399241","0.2843854285","0.0383131093","","","","","","","","","","","","75","K","2","","","99","main_expt"
"","bandit","179","526331","0.0-140.0-0.0","48448271","wem/bandit_either_2","A3GK9LWMSDH4P9","either","8","452","","","","","","","0","0","1","","0.309751149","0.8","0.2","0.6","0.4","0.3586553183","0.1558635017","0.309751149","0.03580757471","","","","","","","","","","","","75","K","2","","","100","main_expt"
"","bandit","180","528268","0.0-141.0-0.0","48448271","wem/bandit_either_2","A3GK9LWMSDH4P9","either","8","423","","","","","","","0","0","1","","0.2993195944","0.8","0.2","0.6","0.4","0.2951503345","0.1389665978","0.2993195944","0.04899620691","","","","","","","","","","","","75","K","2","","","101","main_expt"
"","bandit","181","530195","0.0-142.0-0.0","48448271","wem/bandit_either_2","A3GK9LWMSDH4P9","either","8","415","","","","","","","0","1","0","","0.3551890872","0.8","0.2","0.6","0.4","0.2998391809","0.1377203561","0.3551890872","0.08055650644","","","","","","","","","","","","75","K","2","","","102","main_expt"
"","bandit","182","532111","0.0-143.0-0.0","48448271","wem/bandit_either_2","A3GK9LWMSDH4P9","either","8","403","","","","","","","0","0","1","0.3148404956","","0.8","0.2","0.6","0.4","","","","","0.2791823827","0.1285548106","0.3148404956","0.1040447627","","","","","","","","75","K","2","","","103","main_expt"
"","bandit","183","533998","0.0-144.0-0.0","48448271","wem/bandit_either_2","A3GK9LWMSDH4P9","either","8","377","","","","","","","0","0","1","0.3286912191","","0.8","0.2","0.6","0.4","","","","","0.3382769334","0.1555523735","0.3286912191","0.1143547335","","","","","","","","75","K","2","","","104","main_expt"
"","bandit","184","535925","0.0-145.0-0.0","48448271","wem/bandit_either_2","A3GK9LWMSDH4P9","either","8","413","","","","","","","0","1","0","","0.298340497","0.8","0.2","0.6","0.4","0.3339697125","0.1775592141","0.298340497","0.1487676438","","","","","","","","","","","","75","K","2","","","105","main_expt"
"","bandit","185","537870","0.0-146.0-0.0","48448271","wem/bandit_either_2","A3GK9LWMSDH4P9","either","8","431","","","","","","","0","0","1","0.3504464386","","0.8","0.2","0.6","0.4","","","","","0.3124129253","0.2263451353","0.3504464386","0.152088545","","","","","","","","75","K","2","","","106","main_expt"
"","bandit","186","539791","0.0-147.0-0.0","48448271","wem/bandit_either_2","A3GK9LWMSDH4P9","either","8","412","","","","","","","0","0","1","0.3510410077","","0.8","0.2","0.6","0.4","","","","","0.3400683723","0.1679769802","0.3510410077","0.2406734145","","","","","","","","75","K","2","","","107","main_expt"
"","bandit","187","541724","0.0-148.0-0.0","48448271","wem/bandit_either_2","A3GK9LWMSDH4P9","either","8","419","","","","","","","0","0","1","","0.3282766846","0.8","0.2","0.6","0.4","0.3557340834","0.1999870147","0.3282766846","0.3048040024","","","","","","","","","","","","75","K","2","","","108","main_expt"
"","bandit","188","543738","0.0-149.0-0.0","48448271","wem/bandit_either_2","A3GK9LWMSDH4P9","either","8","502","","","","","","","0","0","1","","0.208992856","0.8","0.2","0.6","0.4","0.3846418901","0.208992856","0.3561186451","0.3418503096","","","","","","","","","","","","74","J","1","","","109","main_expt"
"","bandit","189","545591","0.0-150.0-0.0","48448271","wem/bandit_either_2","A3GK9LWMSDH4P9","either","8","342","","","","","","","0","0","1","","0.1716040471","0.8","0.2","0.6","0.4","0.4057962062","0.1716040471","0.3576445865","0.3198501315","","","","","","","","","","","","74","J","1","","","110","main_expt"
"","bandit","190","547501","0.0-151.0-0.0","48448271","wem/bandit_either_2","A3GK9LWMSDH4P9","either","8","401","","","","","","","0","0","1","0.3692451483","","0.8","0.2","0.6","0.4","","","","","0.3692451483","0.08984071331","0.3377543854","0.3681534847","","","","","","","","72","H","0","img/none_selected.jpg","","111","main_expt"
"","bandit","191","549405","0.0-152.0-0.0","48448271","wem/bandit_either_2","A3GK9LWMSDH4P9","either","8","390","","","","","","","0","0","1","0.3577317973","","0.8","0.2","0.6","0.4","","","","","0.3577317973","0.1243463141","0.286234052","0.3757830796","","","","","","","","72","H","0","img/none_selected.jpg","","112","main_expt"
"","bandit","192","551390","0.0-153.0-0.0","48448271","wem/bandit_either_2","A3GK9LWMSDH4P9","either","8","473","","","","","","","0","1","0","","0.3328808086","0.8","0.2","0.6","0.4","0.3328808086","0.1433440675","0.1932674395","0.3838999828","","","","","","","","","","","","72","H","0","img/none_selected.jpg","","113","main_expt"
"","bandit","193","553286","0.0-154.0-0.0","48448271","wem/bandit_either_2","A3GK9LWMSDH4P9","either","8","382","","","","","","","1","0","0","0.3416979579","","0.8","0.2","0.6","0.4","","","","","0.3416979579","0.1510662198","0.2403040534","0.4157938717","","","","","","","","72","H","0","img/none_selected.jpg","","114","main_expt"
"","bandit","194","555327","0.0-155.0-0.0","48448271","wem/bandit_either_2","A3GK9LWMSDH4P9","either","8","527","","","","","","","1","0","0","0.3377137281","","0.8","0.2","0.6","0.4","","","","","0.3377137281","0.09845245139","0.254937398","0.4055870595","","","","","","","","72","H","0","img/none_selected.jpg","","115","main_expt"
"","bandit","195","557388","0.0-156.0-0.0","48448271","wem/bandit_either_2","A3GK9LWMSDH4P9","either","8","546","","","","","","","0","0","1","0.3039448029","","0.8","0.2","0.6","0.4","","","","","0.3039448029","0.107393795","0.2605063941","0.4161015278","","","","","","","","72","H","0","img/none_selected.jpg","","116","main_expt"
"","bandit","196","559308","0.0-157.0-0.0","48448271","wem/bandit_either_2","A3GK9LWMSDH4P9","either","8","406","","","","","","","0","0","1","0.2974336912","","0.8","0.2","0.6","0.4","","","","","0.2974336912","0.07879800556","0.2161328783","0.414877819","","","","","","","","72","H","0","img/none_selected.jpg","","117","main_expt"
"","bandit","197","561309","0.0-158.0-0.0","48448271","wem/bandit_either_2","A3GK9LWMSDH4P9","either","8","491","","","","","","","1","0","0","0.2651867246","","0.8","0.2","0.6","0.4","","","","","0.2651867246","0.08383735875","0.1931197841","0.3968259953","","","","","","","","72","H","0","img/none_selected.jpg","","118","main_expt"
"","bandit","198","563285","0.0-159.0-0.0","48448271","wem/bandit_either_2","A3GK9LWMSDH4P9","either","8","464","","","","","","","0","0","1","0.3131666206","","0.8","0.2","0.6","0.4","","","","","0.3131666206","0.1392474383","0.1638183597","0.4198241006","","","","","","","","72","H","0","img/none_selected.jpg","","119","main_expt"
"","bandit","199","565213","0.0-160.0-0.0","48448271","wem/bandit_either_2","A3GK9LWMSDH4P9","either","8","421","","","","","","","1","0","0","0.358829095","","0.8","0.2","0.6","0.4","","","","","0.358829095","0.1649404926","0.1893282748","0.4286088018","","","","","","","","72","H","0","img/none_selected.jpg","","120","main_expt"
"","bandit","200","567134","0.0-161.0-0.0","48448271","wem/bandit_either_2","A3GK9LWMSDH4P9","either","8","407","","","","","","","1","0","0","0.3189860171","","0.8","0.2","0.6","0.4","","","","","0.3189860171","0.1764152442","0.2290368179","0.4253829576","","","","","","","","72","H","0","img/none_selected.jpg","","121","main_expt"
"","bandit","201","569079","0.0-162.0-0.0","48448271","wem/bandit_either_2","A3GK9LWMSDH4P9","either","8","434","","","","","","","0","0","1","0.3011672979","","0.8","0.2","0.6","0.4","","","","","0.3011672979","0.2092397698","0.2445441383","0.4235175979","","","","","","","","72","H","0","img/none_selected.jpg","","122","main_expt"
"","bandit","202","570983","0.0-163.0-0.0","48448271","wem/bandit_either_2","A3GK9LWMSDH4P9","either","8","395","","","","","","","0","0","1","0.3037948063","","0.8","0.2","0.6","0.4","","","","","0.3037948063","0.1884058447","0.2091075756","0.4182090072","","","","","","","","72","H","0","img/none_selected.jpg","","123","main_expt"
"","bandit","203","572876","0.0-164.0-0.0","48448271","wem/bandit_either_2","A3GK9LWMSDH4P9","either","8","378","","","","","","","0","0","1","0.2446200253","","0.8","0.2","0.6","0.4","","","","","0.2446200253","0.1876417206","0.2216111921","0.4356016004","","","","","","","","72","H","0","img/none_selected.jpg","","124","main_expt"
"","bandit","204","574733","0.0-165.0-0.0","48448271","wem/bandit_either_2","A3GK9LWMSDH4P9","either","8","342","","","","","","","0","0","1","0.2464628806","","0.8","0.2","0.6","0.4","","","","","0.2464628806","0.1890564589","0.1622020501","0.403953628","","","","","","","","72","H","0","img/none_selected.jpg","","125","main_expt"
"","bandit","205","576625","0.0-166.0-0.0","48448271","wem/bandit_either_2","A3GK9LWMSDH4P9","either","8","383","","","","","","","0","0","1","0.281169445","","0.8","0.2","0.6","0.4","","","","","0.281169445","0.1659850756","0.173533554","0.4020675328","","","","","","","","72","H","0","img/none_selected.jpg","","126","main_expt"
"","bandit","206","578576","0.0-167.0-0.0","48448271","wem/bandit_either_2","A3GK9LWMSDH4P9","either","8","439","","","","","","","0","1","0","","0.2006343121","0.8","0.2","0.6","0.4","0.290080064","0.2006343121","0.189829559","0.338443572","","","","","","","","","","","","74","J","1","","","127","main_expt"
"","bandit","207","580463","0.0-168.0-0.0","48448271","wem/bandit_either_2","A3GK9LWMSDH4P9","either","8","374","","","","","","","0","1","0","","0.2637444583","0.8","0.2","0.6","0.4","0.3280989756","0.2637444583","0.1764696366","0.323123489","","","","","","","","","","","","74","J","1","","","128","main_expt"
"","bandit","208","582460","0.0-169.0-0.0","48448271","wem/bandit_either_2","A3GK9LWMSDH4P9","either","8","486","","","","","","","0","0","1","","0.2783394686","0.8","0.2","0.6","0.4","0.3052704822","0.2783394686","0.172709194","0.3615310162","","","","","","","","","","","","74","J","1","","","129","main_expt"
"","bandit","209","584416","0.0-170.0-0.0","48448271","wem/bandit_either_2","A3GK9LWMSDH4P9","either","8","447","","","","","","","0","0","1","","0.2674474002","0.8","0.2","0.6","0.4","0.314718742","0.2674474002","0.1407460215","0.3667448715","","","","","","","","","","","","74","J","1","","","130","main_expt"
"","bandit","210","586355","0.0-171.0-0.0","48448271","wem/bandit_either_2","A3GK9LWMSDH4P9","either","8","426","","","","","","","0","0","1","","0.2122920843","0.8","0.2","0.6","0.4","0.2492347367","0.2122920843","0.143826562","0.341745941","","","","","","","","","","","","74","J","1","","","131","main_expt"
"","bandit","211","588317","0.0-172.0-0.0","48448271","wem/bandit_either_2","A3GK9LWMSDH4P9","either","8","445","","","","","","","0","0","1","","0.1969346152","0.8","0.2","0.6","0.4","0.2495736985","0.1969346152","0.1862992663","0.2615325727","","","","","","","","","","","","74","J","1","","","132","main_expt"
"","bandit","212","590198","0.0-173.0-0.0","48448271","wem/bandit_either_2","A3GK9LWMSDH4P9","either","8","365","","","","","","","0","0","1","","0.185648564","0.8","0.2","0.6","0.4","0.2487120015","0.1390835973","0.185648564","0.27905624","","","","","","","","","","","","75","K","2","","","133","main_expt"
"","bandit","213","591911","0.0-174.0-0.0","48448271","wem/bandit_either_2","A3GK9LWMSDH4P9","either","8","201","","","","","","","0","0","1","","0.1437640715","0.8","0.2","0.6","0.4","0.3239420422","0.1437640715","0.2002276213","0.2751163123","","","","","","","","","","","","74","J","1","","","134","main_expt"
"","bandit","214","593687","0.0-175.0-0.0","48448271","wem/bandit_either_2","A3GK9LWMSDH4P9","either","8","265","","","","","","","1","0","0","0.3903525049","","0.8","0.2","0.6","0.4","","","","","0.3903525049","0.1175999949","0.2474552851","0.2586507773","","","","","","","","72","H","0","img/none_selected.jpg","","135","main_expt"
"","bandit","215","595522","0.0-176.0-0.0","48448271","wem/bandit_either_2","A3GK9LWMSDH4P9","either","8","319","","","","","","","0","0","1","0.3703049055","","0.8","0.2","0.6","0.4","","","","","0.3703049055","0.1108499649","0.2454982057","0.2385277364","","","","","","","","72","H","0","img/none_selected.jpg","","136","main_expt"
"","bandit","216","597402","0.0-177.0-0.0","48448271","wem/bandit_either_2","A3GK9LWMSDH4P9","either","8","372","","","","","","","0","1","0","","0.1935782534","0.8","0.2","0.6","0.4","0.3657944308","0.1208727618","0.2708690816","0.1935782534","","","","","","","","","","","","76","L","3","","","137","main_expt"
"","bandit","217","599376","0.0-178.0-0.0","48448271","wem/bandit_either_2","A3GK9LWMSDH4P9","either","8","461","","","","","","","0","0","1","","0.14087624","0.8","0.2","0.6","0.4","0.3452946514","0.1098805161","0.2219039101","0.14087624","","","","","","","","","","","","76","L","3","","","138","main_expt"
"","bandit","218","601286","0.0-179.0-0.0","48448271","wem/bandit_either_2","A3GK9LWMSDH4P9","either","8","396","","","","","","","0","0","1","","0.1340930794","0.8","0.2","0.6","0.4","0.3225052804","0.1359731218","0.2485571535","0.1340930794","","","","","","","","","","","","76","L","3","","","139","main_expt"
"","bandit","219","603091","0.0-180.0-0.0","48448271","wem/bandit_either_2","A3GK9LWMSDH4P9","either","8","294","","","","","","","0","0","1","","0.2997250911","0.8","0.2","0.6","0.4","0.2997250911","0.1419248406","0.2605640439","0.1170750994","","","","","","","","","","","","72","H","0","img/none_selected.jpg","","140","main_expt"
"","bandit","220","605152","0.0-181.0-0.0","48448271","wem/bandit_either_2","A3GK9LWMSDH4P9","either","8","550","","","","","","","0","0","1","","0.1269577117","0.8","0.2","0.6","0.4","0.311933389","0.1269577117","0.2260680923","0.1316830279","","","","","","","","","","","","74","J","1","","","141","main_expt"
"","bandit","221","606857","0.0-182.0-0.0","48448271","wem/bandit_either_2","A3GK9LWMSDH4P9","either","8","195","","","","","","","1","0","0","0.2354846983","","0.8","0.2","0.6","0.4","","","","","0.3442568425","0.1073819056","0.2354846983","0.09490366034","","","","","","","","75","K","2","","","142","main_expt"
"","bandit","222","608804","0.0-183.0-0.0","48448271","wem/bandit_either_2","A3GK9LWMSDH4P9","either","8","435","","","","","","","0","0","1","0.2089358464","","0.8","0.2","0.6","0.4","","","","","0.3117203045","0.1152767294","0.2089358464","0.1246024154","","","","","","","","75","K","2","","","143","main_expt"
"","bandit","223","610720","0.0-184.0-0.0","48448271","wem/bandit_either_2","A3GK9LWMSDH4P9","either","8","404","","","","","","","0","0","1","","0.1844607625","0.8","0.2","0.6","0.4","0.3080771123","0.1317444946","0.1844607625","0.1179874238","","","","","","","","","","","","75","K","2","","","144","main_expt"
"","bandit","224","612751","0.0-185.0-0.0","48448271","wem/bandit_either_2","A3GK9LWMSDH4P9","either","8","517","","","","","","","0","0","1","0.1211842963","","0.8","0.2","0.6","0.4","","","","","0.3146876691","0.1058600218","0.1940384654","0.1211842963","","","","","","","","76","L","3","","","145","main_expt"
"","bandit","225","614619","0.0-186.0-0.0","48448271","wem/bandit_either_2","A3GK9LWMSDH4P9","either","8","355","","","","","","","0","0","1","0.1862633901","","0.8","0.2","0.6","0.4","","","","","0.3526806189","0.1862633901","0.2532022814","0.06212451067","","","","","","","","74","J","1","","","146","main_expt"
"","bandit","226","616490","0.0-187.0-0.0","48448271","wem/bandit_either_2","A3GK9LWMSDH4P9","either","8","358","","","","","","","0","0","1","","0.1944793183","0.8","0.2","0.6","0.4","0.3859334927","0.1944793183","0.272856749","0.05826033827","","","","","","","","","","","","74","J","1","","","147","main_expt"
"","bandit","227","618400","0.0-188.0-0.0","48448271","wem/bandit_either_2","A3GK9LWMSDH4P9","either","8","400","","","","","","","0","0","1","","0.1572605535","0.8","0.2","0.6","0.4","0.4089873985","0.1572605535","0.2441255329","0.04847575149","","","","","","","","","","","","74","J","1","","","148","main_expt"
"","bandit","228","620443","0.0-189.0-0.0","48448271","wem/bandit_either_2","A3GK9LWMSDH4P9","either","8","529","","","","","","","0","0","1","0.2304797635","","0.8","0.2","0.6","0.4","","","","","0.3317076441","0.1632070519","0.2304797635","0.07397138717","","","","","","","","75","K","2","","","149","main_expt"
"","bandit","229","622197","0.0-190.0-0.0","48448271","wem/bandit_either_2","A3GK9LWMSDH4P9","either","8","240","","","","","","","0","0","1","0.2514439341","","0.8","0.2","0.6","0.4","","","","","0.2514439341","0.2162169298","0.2645424191","0.1178437277","","","","","","","","72","H","0","img/none_selected.jpg","","150","main_expt"
"","bandit","230","624083","0.0-191.0-0.0","48448271","wem/bandit_either_2","A3GK9LWMSDH4P9","either","8","372","","","","","","","0","0","1","","0.2209696772","0.8","0.2","0.6","0.4","0.2209696772","0.2806681102","0.2919476008","0.1116740648","","","","","","","","","","","","72","H","0","img/none_selected.jpg","","151","main_expt"
"","bandit","231","626034","0.0-192.0-0.0","48448271","wem/bandit_either_2","A3GK9LWMSDH4P9","either","8","437","","","","","","","0","0","1","","0.3004198658","0.8","0.2","0.6","0.4","0.2004300668","0.25223767","0.3004198658","0.09681320826","","","","","","","","","","","","75","K","2","","","152","main_expt"
"","bandit","232","627677","0.0-193.0-0.0","48448271","wem/bandit_either_2","A3GK9LWMSDH4P9","either","8","132","","","","","","","0","0","1","0.2910243242","","0.8","0.2","0.6","0.4","","","","","0.1803159607","0.2259503681","0.2910243242","0.1162344283","","","","","","","","75","K","2","","","153","main_expt"
"","bandit","233","629574","0.0-194.0-0.0","48448271","wem/bandit_either_2","A3GK9LWMSDH4P9","either","8","384","","","","","","","0","0","1","0.2858680692","","0.8","0.2","0.6","0.4","","","","","0.1793353988","0.2520515582","0.2858680692","0.1441765144","","","","","","","","75","K","2","","","154","main_expt"
"","bandit","234","631473","0.0-195.0-0.0","48448271","wem/bandit_either_2","A3GK9LWMSDH4P9","either","8","384","","","","","","","0","0","1","0.1506434262","","0.8","0.2","0.6","0.4","","","","","0.175125938","0.246895917","0.276906037","0.1506434262","","","","","","","","76","L","3","","","155","main_expt"
"","bandit","235","633284","0.0-196.0-0.0","48448271","wem/bandit_either_2","A3GK9LWMSDH4P9","either","8","303","","","","","","","0","0","1","0.1691825384","","0.8","0.2","0.6","0.4","","","","","0.19004546","0.2067462234","0.3087514371","0.1691825384","","","","","","","","76","L","3","","","156","main_expt"
"","bandit","236","635183","0.0-197.0-0.0","48448271","wem/bandit_either_2","A3GK9LWMSDH4P9","either","8","384","","","","","","","0","1","0","","0.1465267651","0.8","0.2","0.6","0.4","0.1538528063","0.1736677602","0.3400763937","0.1465267651","","","","","","","","","","","","76","L","3","","","157","main_expt"
"","bandit","237","637058","0.0-198.0-0.0","48448271","wem/bandit_either_2","A3GK9LWMSDH4P9","either","8","364","","","","","","","0","1","0","","0.1517260174","0.8","0.2","0.6","0.4","0.1624419901","0.2437422656","0.3388441277","0.1517260174","","","","","","","","","","","","76","L","3","","","158","main_expt"
"","bandit","238","639085","0.0-199.0-0.0","48448271","wem/bandit_either_2","A3GK9LWMSDH4P9","either","8","514","","","","","","","0","0","1","","0.143579764","0.8","0.2","0.6","0.4","0.1749682205","0.2627628197","0.3496437485","0.143579764","","","","","","","","","","","","76","L","3","","","159","main_expt"
"","bandit","239","640930","0.0-200.0-0.0","48448271","wem/bandit_either_2","A3GK9LWMSDH4P9","either","8","329","","","","","","","0","0","1","","0.1701049762","0.8","0.2","0.6","0.4","0.2227833177","0.2532756584","0.3347491532","0.1701049762","","","","","","","","","","","","76","L","3","","","160","main_expt"
"","bandit","240","642793","0.0-201.0-0.0","48448271","wem/bandit_either_2","A3GK9LWMSDH4P9","either","8","348","","","","","","","1","0","0","0.1596038406","","0.8","0.2","0.6","0.4","","","","","0.1616195486","0.2846030245","0.3036625801","0.1596038406","","","","","","","","76","L","3","","","161","main_expt"
"","bandit","241","644692","0.0-202.0-0.0","48448271","wem/bandit_either_2","A3GK9LWMSDH4P9","either","8","383","","","","","","","0","0","1","","0.1186271452","0.8","0.2","0.6","0.4","0.1440802068","0.2480450928","0.2735804545","0.1186271452","","","","","","","","","","","","76","L","3","","","162","main_expt"
"","bandit","242","646584","0.0-203.0-0.0","48448271","wem/bandit_either_2","A3GK9LWMSDH4P9","either","8","377","","","","","","","0","0","1","","0.1460830151","0.8","0.2","0.6","0.4","0.1349250059","0.3217860246","0.2219233964","0.1460830151","","","","","","","","","","","","76","L","3","","","163","main_expt"
"","bandit","243","648401","0.0-204.0-0.0","48448271","wem/bandit_either_2","A3GK9LWMSDH4P9","either","8","307","","","","","","","0","0","1","0.1924179555","","0.8","0.2","0.6","0.4","","","","","0.1482528248","0.3528623486","0.2489701673","0.1924179555","","","","","","","","76","L","3","","","164","main_expt"
"","bandit","244","650358","0.0-205.0-0.0","48448271","wem/bandit_either_2","A3GK9LWMSDH4P9","either","8","444","","","","","","","0","0","1","0.1909643941","","0.8","0.2","0.6","0.4","","","","","0.1444116863","0.3113737792","0.2424219606","0.1909643941","","","","","","","","76","L","3","","","165","main_expt"
"","bandit","245","652320","0.0-206.0-0.0","48448271","wem/bandit_either_2","A3GK9LWMSDH4P9","either","8","447","","","","","","","0","0","1","","0.2820045276","0.8","0.2","0.6","0.4","0.1621449425","0.2820045276","0.1899742571","0.1917506842","","","","","","","","","","","","74","J","1","","","166","main_expt"
"","bandit","246","654120","0.0-207.0-0.0","48448271","wem/bandit_either_2","A3GK9LWMSDH4P9","either","8","288","","","","","","","0","0","1","","0.2539690707","0.8","0.2","0.6","0.4","0.1695256229","0.2539690707","0.2298880826","0.2238056512","","","","","","","","","","","","74","J","1","","","167","main_expt"
"","bandit","247","656053","0.0-208.0-0.0","48448271","wem/bandit_either_2","A3GK9LWMSDH4P9","either","8","420","","","","","","","0","0","1","","0.2177565821","0.8","0.2","0.6","0.4","0.1712445676","0.2177565821","0.241220494","0.2132240521","","","","","","","","","","","","74","J","1","","","168","main_expt"
"","bandit","248","657980","0.0-209.0-0.0","48448271","wem/bandit_either_2","A3GK9LWMSDH4P9","either","8","414","","","","","","","0","0","1","0.2113351254","","0.8","0.2","0.6","0.4","","","","","0.191079104","0.183214586","0.2113351254","0.1363713625","","","","","","","","75","K","2","","","169","main_expt"
"","bandit","249","659855","0.0-210.0-0.0","48448271","wem/bandit_either_2","A3GK9LWMSDH4P9","either","8","361","","","","","","","0","0","1","0.2224744884","","0.8","0.2","0.6","0.4","","","","","0.2227666825","0.1757282231","0.2224744884","0.2007690262","","","","","","","","75","K","2","","","170","main_expt"
"","bandit","250","661753","0.0-211.0-0.0","48448271","wem/bandit_either_2","A3GK9LWMSDH4P9","either","8","385","","","","","","","0","0","1","","0.262177911","0.8","0.2","0.6","0.4","0.2719914804","0.1679331046","0.262177911","0.1238998316","","","","","","","","","","","","75","K","2","","","171","main_expt"
"","bandit","251","663563","0.0-212.0-0.0","48448271","wem/bandit_either_2","A3GK9LWMSDH4P9","either","8","301","","","","","","","0","0","1","","0.2330128459","0.8","0.2","0.6","0.4","0.2330128459","0.14560319","0.2822992514","0.09746419185","","","","","","","","","","","","72","H","0","img/none_selected.jpg","","172","main_expt"
"","bandit","252","665416","0.0-213.0-0.0","48448271","wem/bandit_either_2","A3GK9LWMSDH4P9","either","8","337","","","","","","","1","0","0","0.2840251313","","0.8","0.2","0.6","0.4","","","","","0.2840251313","0.1341549344","0.2545762091","0.1018164217","","","","","","","","72","H","0","img/none_selected.jpg","","173","main_expt"
"","bandit","253","667344","0.0-214.0-0.0","48448271","wem/bandit_either_2","A3GK9LWMSDH4P9","either","8","413","","","","","","","0","0","1","0.2739042306","","0.8","0.2","0.6","0.4","","","","","0.2739042306","0.1471305278","0.2838184637","0.1401689619","","","","","","","","72","H","0","img/none_selected.jpg","","174","main_expt"
"","bandit","254","669215","0.0-215.0-0.0","48448271","wem/bandit_either_2","A3GK9LWMSDH4P9","either","8","361","","","","","","","1","0","0","0.3444735506","","0.8","0.2","0.6","0.4","","","","","0.3444735506","0.173963405","0.3002790513","0.1697524679","","","","","","","","72","H","0","img/none_selected.jpg","","175","main_expt"
"","bandit","255","671111","0.0-216.0-0.0","48448271","wem/bandit_either_2","A3GK9LWMSDH4P9","either","8","387","","","","","","","0","0","1","0.3223017316","","0.8","0.2","0.6","0.4","","","","","0.3223017316","0.1821857965","0.3771690292","0.1896898672","","","","","","","","72","H","0","img/none_selected.jpg","","176","main_expt"
"","bandit","256","672992","0.0-217.0-0.0","48448271","wem/bandit_either_2","A3GK9LWMSDH4P9","either","8","368","","","","","","","0","0","1","0.2964924158","","0.8","0.2","0.6","0.4","","","","","0.2964924158","0.1444884472","0.4047809956","0.2441254625","","","","","","","","72","H","0","img/none_selected.jpg","","177","main_expt"
"","bandit","257","674844","0.0-218.0-0.0","48448271","wem/bandit_either_2","A3GK9LWMSDH4P9","either","8","337","","","","","","","0","0","1","0.2780576925","","0.8","0.2","0.6","0.4","","","","","0.2780576925","0.1207783293","0.4344960837","0.2427722412","","","","","","","","72","H","0","img/none_selected.jpg","","178","main_expt"
"","bandit","258","676713","0.0-219.0-0.0","48448271","wem/bandit_either_2","A3GK9LWMSDH4P9","either","8","355","","","","","","","0","0","1","0.2859751729","","0.8","0.2","0.6","0.4","","","","","0.2859751729","0.111585665","0.4287912686","0.2284650367","","","","","","","","72","H","0","img/none_selected.jpg","","179","main_expt"
"","bandit","259","678658","0.0-220.0-0.0","48448271","wem/bandit_either_2","A3GK9LWMSDH4P9","either","8","434","","","","","","","0","1","0","","0.2694081366","0.8","0.2","0.6","0.4","0.283533164","0.06891525065","0.4294180747","0.2694081366","","","","","","","","","","","","76","L","3","","","180","main_expt"
"","bandit","260","680493","0.0-221.0-0.0","48448271","wem/bandit_either_2","A3GK9LWMSDH4P9","either","8","320","","","","","","","0","0","1","0.2471628034","","0.8","0.2","0.6","0.4","","","","","0.2430023428","0.07407739619","0.3887332701","0.2471628034","","","","","","","","76","L","3","","","181","main_expt"
"","bandit","261","682331","0.0-222.0-0.0","48448271","wem/bandit_either_2","A3GK9LWMSDH4P9","either","8","326","","","","","","","0","0","1","","0.275372354","0.8","0.2","0.6","0.4","0.223254837","0.07501704201","0.3910635387","0.275372354","","","","","","","","","","","","76","L","3","","","182","main_expt"
"","bandit","262","684162","0.0-223.0-0.0","48448271","wem/bandit_either_2","A3GK9LWMSDH4P9","either","8","317","","","","","","","1","0","0","0.2378950907","","0.8","0.2","0.6","0.4","","","","","0.2274286797","0.09354103142","0.3957792538","0.2378950907","","","","","","","","76","L","3","","","183","main_expt"
"","bandit","263","686025","0.0-224.0-0.0","48448271","wem/bandit_either_2","A3GK9LWMSDH4P9","either","8","348","","","","","","","0","0","1","0.2611999536","","0.8","0.2","0.6","0.4","","","","","0.2485964068","0.06673830493","0.3777829694","0.2611999536","","","","","","","","76","L","3","","","184","main_expt"
"","bandit","264","688045","0.0-225.0-0.0","48448271","wem/bandit_either_2","A3GK9LWMSDH4P9","either","8","507","","","","","","","0","0","1","0.2799245071","","0.8","0.2","0.6","0.4","","","","","0.2080173303","0.08617836821","0.4130939835","0.2799245071","","","","","","","","76","L","3","","","185","main_expt"
"","bandit","265","689967","0.0-226.0-0.0","48448271","wem/bandit_either_2","A3GK9LWMSDH4P9","either","8","408","","","","","","","0","1","0","","0.2275386122","0.8","0.2","0.6","0.4","0.2538883687","0.05054014018","0.376930599","0.2275386122","","","","","","","","","","","","76","L","3","","","186","main_expt"
"","bandit","266","691871","0.0-227.0-0.0","48448271","wem/bandit_either_2","A3GK9LWMSDH4P9","either","8","388","","","","","","","0","0","1","","0.2558518805","0.8","0.2","0.6","0.4","0.2267652077","0.1101456656","0.3934592684","0.2558518805","","","","","","","","","","","","76","L","3","","","187","main_expt"
"","bandit","267","693732","0.0-228.0-0.0","48448271","wem/bandit_either_2","A3GK9LWMSDH4P9","either","8","352","","","","","","","1","0","0","0.2757393749","","0.8","0.2","0.6","0.4","","","","","0.2583789709","0.1076418148","0.4086060551","0.2757393749","","","","","","","","76","L","3","","","188","main_expt"
"","bandit","268","695604","0.0-229.0-0.0","48448271","wem/bandit_either_2","A3GK9LWMSDH4P9","either","8","360","","","","","","","0","0","1","0.3326758055","","0.8","0.2","0.6","0.4","","","","","0.2329768584","0.1230456027","0.447145564","0.3326758055","","","","","","","","76","L","3","","","189","main_expt"
"","bandit","269","697492","0.0-230.0-0.0","48448271","wem/bandit_either_2","A3GK9LWMSDH4P9","either","8","376","","","","","","","0","0","1","0.332927569","","0.8","0.2","0.6","0.4","","","","","0.2002510669","0.1872873117","0.386091063","0.332927569","","","","","","","","76","L","3","","","190","main_expt"
"","bandit","270","699400","0.0-231.0-0.0","48448271","wem/bandit_either_2","A3GK9LWMSDH4P9","either","8","394","","","","","","","0","0","1","0.3859199101","","0.8","0.2","0.6","0.4","","","","","0.2182600554","0.1413073252","0.4221145333","0.3859199101","","","","","","","","76","L","3","","","191","main_expt"
"","bandit","271","701328","0.0-232.0-0.0","48448271","wem/bandit_either_2","A3GK9LWMSDH4P9","either","8","410","","","","","","","0","1","0","","0.392668484","0.8","0.2","0.6","0.4","0.2681613901","0.1868627967","0.3913199708","0.392668484","","","","","","","","","","","","76","L","3","","","192","main_expt"
"","bandit","272","703254","0.0-233.0-0.0","48448271","wem/bandit_either_2","A3GK9LWMSDH4P9","either","8","413","","","","","","","1","0","0","0.3789843676","","0.8","0.2","0.6","0.4","","","","","0.3035027483","0.2312719224","0.4013624592","0.3789843676","","","","","","","","76","L","3","","","193","main_expt"
"","bandit","273","705177","0.0-234.0-0.0","48448271","wem/bandit_either_2","A3GK9LWMSDH4P9","either","8","410","","","","","","","0","1","0","","0.3689216281","0.8","0.2","0.6","0.4","0.275531754","0.2585201677","0.3668237699","0.3689216281","","","","","","","","","","","","76","L","3","","","194","main_expt"
"","bandit","274","706924","0.0-235.0-0.0","48448271","wem/bandit_either_2","A3GK9LWMSDH4P9","either","8","233","","","","","","","0","0","1","","0.4136905162","0.8","0.2","0.6","0.4","0.2716401532","0.2786104129","0.3856266791","0.4136905162","","","","","","","","","","","","76","L","3","","","195","main_expt"
"","bandit","275","708764","0.0-236.0-0.0","48448271","wem/bandit_either_2","A3GK9LWMSDH4P9","either","8","329","","","","","","","0","0","1","","0.4258575101","0.8","0.2","0.6","0.4","0.2814611543","0.2407834285","0.3702439493","0.4258575101","","","","","","","","","","","","76","L","3","","","196","main_expt"
"","bandit","276","710634","0.0-237.0-0.0","48448271","wem/bandit_either_2","A3GK9LWMSDH4P9","either","8","354","","","","","","","0","0","1","","0.3976178043","0.8","0.2","0.6","0.4","0.2588010394","0.2550568011","0.3665926528","0.3976178043","","","","","","","","","","","","76","L","3","","","197","main_expt"
"","bandit","277","712485","0.0-238.0-0.0","48448271","wem/bandit_either_2","A3GK9LWMSDH4P9","either","8","340","","","","","","","0","0","1","","0.3802378075","0.8","0.2","0.6","0.4","0.3094610495","0.3094863904","0.3432124584","0.3802378075","","","","","","","","","","","","76","L","3","","","198","main_expt"
"","bandit","278","714459","0.0-239.0-0.0","48448271","wem/bandit_either_2","A3GK9LWMSDH4P9","either","8","458","","","","","","","0","0","1","0.4096574544","","0.8","0.2","0.6","0.4","","","","","0.3139278769","0.3012985694","0.4096574544","0.3926800246","","","","","","","","75","K","2","","","199","main_expt"
"","bandit","279","716341","0.0-240.0-0.0","48448271","wem/bandit_either_2","A3GK9LWMSDH4P9","either","8","367","","","","","","","0","0","1","0.3799023259","","0.8","0.2","0.6","0.4","","","","","0.3459706187","0.3149132519","0.3799023259","0.3814844917","","","","","","","","75","K","2","","","200","main_expt"
"","bandit","280","718238","0.0-241.0-0.0","48448271","wem/bandit_either_2","A3GK9LWMSDH4P9","either","8","384","","","","","","","0","0","1","","0.3236307962","0.8","0.2","0.6","0.4","0.3038365479","0.3236307962","0.3513783521","0.3831630738","","","","","","","","","","","","74","J","1","","","201","main_expt"
"","bandit","281","720015","0.0-242.0-0.0","48448271","wem/bandit_either_2","A3GK9LWMSDH4P9","either","8","263","","","","","","","0","0","1","","0.3163717903","0.8","0.2","0.6","0.4","0.2964599608","0.3163717903","0.3439351057","0.3957430938","","","","","","","","","","","","74","J","1","","","202","main_expt"
"","bandit","282","721884","0.0-243.0-0.0","48448271","wem/bandit_either_2","A3GK9LWMSDH4P9","either","8","356","","","","","","","1","0","0","0.280336616","","0.8","0.2","0.6","0.4","","","","","0.280336616","0.3165936227","0.2615327891","0.4175506619","","","","","","","","72","H","0","img/none_selected.jpg","","203","main_expt"
"","bandit","283","723811","0.0-244.0-0.0","48448271","wem/bandit_either_2","A3GK9LWMSDH4P9","either","8","414","","","","","","","0","0","1","0.262900641","","0.8","0.2","0.6","0.4","","","","","0.262900641","0.3166231072","0.2211517471","0.4356800279","","","","","","","","72","H","0","img/none_selected.jpg","","204","main_expt"
"","bandit","284","725808","0.0-245.0-0.0","48448271","wem/bandit_either_2","A3GK9LWMSDH4P9","either","8","485","","","","","","","1","0","0","0.3403150927","","0.8","0.2","0.6","0.4","","","","","0.3403150927","0.2983153058","0.1955747294","0.4342993254","","","","","","","","72","H","0","img/none_selected.jpg","","205","main_expt"
"","bandit","285","728241","0.0-246.0-0.0","48448271","wem/bandit_either_2","A3GK9LWMSDH4P9","either","8","920","","","","","","","0","0","1","","0.3407188883","0.8","0.2","0.6","0.4","0.3407188883","0.255573156","0.3137251184","0.4515967499","","","","","","","","","","","","72","H","0","img/none_selected.jpg","","206","main_expt"
"","bandit","286","730174","0.0-247.0-0.0","48448271","wem/bandit_either_2","A3GK9LWMSDH4P9","either","8","421","","","","","","","0","0","1","0.2955601217","","0.8","0.2","0.6","0.4","","","","","0.2955601217","0.2816724171","0.2982459604","0.4559700358","","","","","","","","72","H","0","img/none_selected.jpg","","207","main_expt"
"","bandit","287","732032","0.0-248.0-0.0","48448271","wem/bandit_either_2","A3GK9LWMSDH4P9","either","8","343","","","","","","","0","0","1","","0.2832193826","0.8","0.2","0.6","0.4","0.2832193826","0.2462622089","0.2359404152","0.4711787588","","","","","","","","","","","","72","H","0","img/none_selected.jpg","","208","main_expt"
"","bandit","288","733930","0.0-249.0-0.0","48448271","wem/bandit_either_2","A3GK9LWMSDH4P9","either","8","383","","","","","","","0","0","1","","0.25637755","0.8","0.2","0.6","0.4","0.25637755","0.2608633631","0.2396635106","0.4859779177","","","","","","","","","","","","72","H","0","img/none_selected.jpg","","209","main_expt"
"","bandit","289","735741","0.0-250.0-0.0","48448271","wem/bandit_either_2","A3GK9LWMSDH4P9","either","8","296","","","","","","","0","0","1","0.2500912527","","0.8","0.2","0.6","0.4","","","","","0.2500912527","0.2649708152","0.2320506775","0.4798195452","","","","","","","","72","H","0","img/none_selected.jpg","","210","main_expt"
"","bandit","290","737653","0.0-251.0-0.0","48448271","wem/bandit_either_2","A3GK9LWMSDH4P9","either","8","398","","","","","","","0","0","1","","0.2658594566","0.8","0.2","0.6","0.4","0.2481129288","0.2658594566","0.1894847828","0.4754072522","","","","","","","","","","","","74","J","1","","","211","main_expt"
"","bandit","291","739451","0.0-252.0-0.0","48448271","wem/bandit_either_2","A3GK9LWMSDH4P9","either","8","288","","","","","","","0","0","1","","0.2330804604","0.8","0.2","0.6","0.4","0.3192168596","0.2648449814","0.2330804604","0.4780703898","","","","","","","","","","","","75","K","2","","","212","main_expt"
"","bandit","292","741291","0.0-253.0-0.0","48448271","wem/bandit_either_2","A3GK9LWMSDH4P9","either","8","329","","","","","","","1","0","0","0.4883488692","","0.8","0.2","0.6","0.4","","","","","0.2361953268","0.286492297","0.2484053244","0.4883488692","","","","","","","","76","L","3","","","213","main_expt"
"","bandit","293","743130","0.0-254.0-0.0","48448271","wem/bandit_either_2","A3GK9LWMSDH4P9","either","8","328","","","","","","","0","1","0","","0.4872562331","0.8","0.2","0.6","0.4","0.2308921763","0.2540339129","0.2182548364","0.4872562331","","","","","","","","","","","","76","L","3","","","214","main_expt"
"","bandit","294","745036","0.0-255.0-0.0","48448271","wem/bandit_either_2","A3GK9LWMSDH4P9","either","8","394","","","","","","","1","0","0","0.4749609167","","0.8","0.2","0.6","0.4","","","","","0.2161033537","0.254651127","0.1824073789","0.4749609167","","","","","","","","76","L","3","","","215","main_expt"
"","bandit","295","746907","0.0-256.0-0.0","48448271","wem/bandit_either_2","A3GK9LWMSDH4P9","either","8","357","","","","","","","0","0","1","","0.4798413464","0.8","0.2","0.6","0.4","0.1896756427","0.3140517816","0.1923730387","0.4798413464","","","","","","","","","","","","76","L","3","","","216","main_expt"
"","bandit","296","748751","0.0-257.0-0.0","48448271","wem/bandit_either_2","A3GK9LWMSDH4P9","either","8","329","","","","","","","0","0","1","","0.4865144435","0.8","0.2","0.6","0.4","0.1724286307","0.3338676317","0.2266612446","0.4865144435","","","","","","","","","","","","76","L","3","","","217","main_expt"
"","bandit","297","750636","0.0-258.0-0.0","48448271","wem/bandit_either_2","A3GK9LWMSDH4P9","either","8","370","","","","","","","1","0","0","0.4789145001","","0.8","0.2","0.6","0.4","","","","","0.161168334","0.3397001125","0.1702705737","0.4789145001","","","","","","","","76","L","3","","","218","main_expt"
"","bandit","298","752460","0.0-259.0-0.0","48448271","wem/bandit_either_2","A3GK9LWMSDH4P9","either","8","317","","","","","","","0","0","1","","0.4834748692","0.8","0.2","0.6","0.4","0.2021763003","0.2982528089","0.1159766116","0.4834748692","","","","","","","","","","","","76","L","3","","","219","main_expt"
"","bandit","299","754283","0.0-260.0-0.0","48448271","wem/bandit_either_2","A3GK9LWMSDH4P9","either","8","310","","","","","","","0","1","0","","0.4722371777","0.8","0.2","0.6","0.4","0.2142164272","0.2770934022","0.09529473055","0.4722371777","","","","","","","","","","","","76","L","3","","","220","main_expt"
"","bandit","300","756162","0.0-261.0-0.0","48448271","wem/bandit_either_2","A3GK9LWMSDH4P9","either","8","365","","","","","","","0","0","1","0.4654689219","","0.8","0.2","0.6","0.4","","","","","0.189068297","0.2696770889","0.09060922323","0.4654689219","","","","","","","","76","L","3","","","221","main_expt"
"","bandit","301","758132","0.0-262.0-0.0","48448271","wem/bandit_either_2","A3GK9LWMSDH4P9","either","8","458","","","","","","","0","1","0","","0.4533789701","0.8","0.2","0.6","0.4","0.2120997892","0.3103502417","0.1250772464","0.4533789701","","","","","","","","","","","","76","L","3","","","222","main_expt"
"","bandit","302","760179","0.0-263.0-0.0","48448271","wem/bandit_either_2","A3GK9LWMSDH4P9","either","8","533","","","","","","","0","0","1","0.4473019993","","0.8","0.2","0.6","0.4","","","","","0.1937664477","0.3477728299","0.1177235221","0.4473019993","","","","","","","","76","L","3","","","223","main_expt"
"","bandit","303","762102","0.0-264.0-0.0","48448271","wem/bandit_either_2","A3GK9LWMSDH4P9","either","8","410","","","","","","","0","0","1","","0.4651086175","0.8","0.2","0.6","0.4","0.2195846313","0.3230244909","0.1589673504","0.4651086175","","","","","","","","","","","","76","L","3","","","224","main_expt"
"","bandit","304","764013","0.0-265.0-0.0","48448271","wem/bandit_either_2","A3GK9LWMSDH4P9","either","8","396","","","","","","","0","1","0","","0.4704934375","0.8","0.2","0.6","0.4","0.1973587738","0.3641913847","0.1582937281","0.4704934375","","","","","","","","","","","","76","L","3","","","225","main_expt"
"","bandit","305","765962","0.0-266.0-0.0","48448271","wem/bandit_either_2","A3GK9LWMSDH4P9","either","8","438","","","","","","","1","0","0","0.4545632724","","0.8","0.2","0.6","0.4","","","","","0.2029059012","0.3211822138","0.1585786296","0.4545632724","","","","","","","","76","L","3","","","226","main_expt"
"","bandit","306","768036","0.0-267.0-0.0","48448271","wem/bandit_either_2","A3GK9LWMSDH4P9","either","8","556","","","","","","","0","1","0","","0.4313330006","0.8","0.2","0.6","0.4","0.1677618241","0.3318596792","0.1614007709","0.4313330006","","","","","","","","","","","","76","L","3","","","227","main_expt"
"","bandit","307","770607","0.0-268.0-0.0","48448271","wem/bandit_either_2","A3GK9LWMSDH4P9","either","8","1056","","","","","","","0","1","0","","0.4253897179","0.8","0.2","0.6","0.4","0.2079318551","0.3715738924","0.1160982884","0.4253897179","","","","","","","","","","","","76","L","3","","","228","main_expt"
"","bandit","308","772610","0.0-269.0-0.0","48448271","wem/bandit_either_2","A3GK9LWMSDH4P9","either","8","492","","","","","","","1","0","0","0.4416009531","","0.8","0.2","0.6","0.4","","","","","0.1860779256","0.3571583743","0.1327168588","0.4416009531","","","","","","","","76","L","3","","","229","main_expt"
"","bandit","309","774678","0.0-270.0-0.0","48448271","wem/bandit_either_2","A3GK9LWMSDH4P9","either","8","553","","","","","","","0","0","1","","0.4612445757","0.8","0.2","0.6","0.4","0.1294985144","0.3455313741","0.1751239199","0.4612445757","","","","","","","","","","","","76","L","3","","","230","main_expt"
"","bandit","310","776569","0.0-271.0-0.0","48448271","wem/bandit_either_2","A3GK9LWMSDH4P9","either","8","375","","","","","","","1","0","0","0.4455927364","","0.8","0.2","0.6","0.4","","","","","0.1424139305","0.3114256563","0.2080149414","0.4455927364","","","","","","","","76","L","3","","","231","main_expt"
"","bandit","311","778404","0.0-272.0-0.0","48448271","wem/bandit_either_2","A3GK9LWMSDH4P9","either","8","318","","","","","","","0","0","1","0.4449483857","","0.8","0.2","0.6","0.4","","","","","0.1777617008","0.3127001645","0.2305008548","0.4449483857","","","","","","","","76","L","3","","","232","main_expt"
"","bandit","312","780244","0.0-273.0-0.0","48448271","wem/bandit_either_2","A3GK9LWMSDH4P9","either","8","326","","","","","","","0","0","1","","0.4570404202","0.8","0.2","0.6","0.4","0.1408291819","0.2953609795","0.2331895239","0.4570404202","","","","","","","","","","","","76","L","3","","","233","main_expt"
"","bandit","313","782194","0.0-274.0-0.0","48448271","wem/bandit_either_2","A3GK9LWMSDH4P9","either","8","436","","","","","","","0","0","1","0.4785018613","","0.8","0.2","0.6","0.4","","","","","0.09563300426","0.2743769666","0.2007149185","0.4785018613","","","","","","","","76","L","3","","","234","main_expt"
"","bandit","314","784026","0.0-275.0-0.0","48448271","wem/bandit_either_2","A3GK9LWMSDH4P9","either","8","319","","","","","","","0","1","0","","0.4708517218","0.8","0.2","0.6","0.4","0.06508254785","0.2842570603","0.1428876463","0.4708517218","","","","","","","","","","","","76","L","3","","","235","main_expt"
"","bandit","315","785968","0.0-276.0-0.0","48448271","wem/bandit_either_2","A3GK9LWMSDH4P9","either","8","431","","","","","","","0","1","0","","0.4721911582","0.8","0.2","0.6","0.4","0.05272484418","0.3536106974","0.1327756685","0.4721911582","","","","","","","","","","","","76","L","3","","","236","main_expt"
"","bandit","316","787879","0.0-277.0-0.0","48448271","wem/bandit_either_2","A3GK9LWMSDH4P9","either","8","394","","","","","","","0","0","1","","0.4567984566","0.8","0.2","0.6","0.4","0.05000735717","0.3777879982","0.1969646424","0.4567984566","","","","","","","","","","","","76","L","3","","","237","main_expt"
"","bandit","317","789959","0.0-278.0-0.0","48448271","wem/bandit_either_2","A3GK9LWMSDH4P9","either","8","566","","","","","","","0","0","1","0.4601910044","","0.8","0.2","0.6","0.4","","","","","0.03409798278","0.3819628943","0.2040955009","0.4601910044","","","","","","","","76","L","3","","","238","main_expt"
"","bandit","318","792054","0.0-279.0-0.0","48448271","wem/bandit_either_2","A3GK9LWMSDH4P9","either","8","576","","","","","","","0","0","1","","0.4663275819","0.8","0.2","0.6","0.4","0.03555143528","0.3590612953","0.1885012088","0.4663275819","","","","","","","","","","","","76","L","3","","","239","main_expt"
"","bandit","319","794106","0.0-280.0-0.0","48448271","wem/bandit_either_2","A3GK9LWMSDH4P9","either","8","536","","","","","","","0","0","1","","0.4781926851","0.8","0.2","0.6","0.4","0.06633834621","0.3943681209","0.1779850251","0.4781926851","","","","","","","","","","","","76","L","3","","","240","main_expt"
"","bandit","320","796164","0.0-281.0-0.0","48448271","wem/bandit_either_2","A3GK9LWMSDH4P9","either","8","545","","","","","","","0","1","0","","0.4813407325","0.8","0.2","0.6","0.4","0.0332650027","0.4178476804","0.2132761508","0.4813407325","","","","","","","","","","","","76","L","3","","","241","main_expt"
"","bandit","321","798253","0.0-282.0-0.0","48448271","wem/bandit_either_2","A3GK9LWMSDH4P9","either","8","571","","","","","","","0","0","1","0.4758201438","","0.8","0.2","0.6","0.4","","","","","0.03674005559","0.4083523659","0.2181708985","0.4758201438","","","","","","","","76","L","3","","","242","main_expt"
"","bandit","322","800150","0.0-283.0-0.0","48448271","wem/bandit_either_2","A3GK9LWMSDH4P9","either","8","385","","","","","","","0","1","0","","0.4739127226","0.8","0.2","0.6","0.4","0.02732183546","0.4107673147","0.1880751836","0.4739127226","","","","","","","","","","","","76","L","3","","","243","main_expt"
"","bandit","323","802066","0.0-284.0-0.0","48448271","wem/bandit_either_2","A3GK9LWMSDH4P9","either","8","402","","","","","","","0","1","0","","0.4467527753","0.8","0.2","0.6","0.4","0.02742276317","0.3914084711","0.2693527465","0.4467527753","","","","","","","","","","","","76","L","3","","","244","main_expt"
"","bandit","324","803918","0.0-285.0-0.0","48448271","wem/bandit_either_2","A3GK9LWMSDH4P9","either","8","335","","","","","","","0","0","1","0.4492118003","","0.8","0.2","0.6","0.4","","","","","0.03322496416","0.4117032301","0.2474629182","0.4492118003","","","","","","","","76","L","3","","","245","main_expt"
"","bandit","325","805758","0.0-286.0-0.0","48448271","wem/bandit_either_2","A3GK9LWMSDH4P9","either","8","326","","","","","","","0","1","0","","0.4702058379","0.8","0.2","0.6","0.4","0.0538648904","0.4225436654","0.3019125269","0.4702058379","","","","","","","","","","","","76","L","3","","","246","main_expt"
