"consent","trial_type","trial_index","time_elapsed","internal_node_id","subjID","study","MID","cond","drift","rt","responses","key_press","expt_phase","like","value","connected","gems","bombs","no_reward","GemPrChosen","BombPrChosen","GainOverPainPr_0","GainOverPainPr_1","GainOverPainPr_2","GainOverPainPr_3","LosePr_0","LosePr_1","LosePr_2","LosePr_3","WinPr_0","WinPr_1","WinPr_2","WinPr_3","Q0","Q1","Q2","gender","age","ethnicity","target","respCharCode","respKey","respChoiceNum","respChoice","practice","trial_counter","trial_label"
"INL_behavioral_consent_30min_online.html","consent","0","24459","0.0-0.0","48563759","wem/bandit_either_2","A1JV64BL3WCK0G","either","7","","","","","","","","","","","","","","","","","","","","","","","","","","","","","","","","","","","","","",""
"","survey-text","1","30631","0.0-1.0","48563759","wem/bandit_either_2","A1JV64BL3WCK0G","either","7","5163","{""Q0"":""A1JV64BL3WCK0G""}","","","","","","","","","","","","","","","","","","","","","","","","","","","","","","","","","","","",""
"","text","2","51369","0.0-2.0","48563759","wem/bandit_either_2","A1JV64BL3WCK0G","either","7","19736","","32","","","","","","","","","","","","","","","","","","","","","","","","","","","","","","","","","","",""
"","text","3","61665","0.0-3.0","48563759","wem/bandit_either_2","A1JV64BL3WCK0G","either","7","10293","","32","","","","","","","","","","","","","","","","","","","","","","","","","","","","","","","","","","",""
"","text","4","85825","0.0-4.0","48563759","wem/bandit_either_2","A1JV64BL3WCK0G","either","7","24157","","32","","","","","","","","","","","","","","","","","","","","","","","","","","","","","","","","","","",""
"","text","5","103987","0.0-5.0","48563759","wem/bandit_either_2","A1JV64BL3WCK0G","either","7","18160","","32","","","","","","","","","","","","","","","","","","","","","","","","","","","","","","","","","","",""
"","text","6","119456","0.0-6.0","48563759","wem/bandit_either_2","A1JV64BL3WCK0G","either","7","15468","","32","","","","","","","","","","","","","","","","","","","","","","","","","","","","","","","","","","",""
"","text","7","128522","0.0-7.0","48563759","wem/bandit_either_2","A1JV64BL3WCK0G","either","7","9064","","32","","","","","","","","","","","","","","","","","","","","","","","","","","","","","","","","","","",""
"","text","8","135043","0.0-8.0","48563759","wem/bandit_either_2","A1JV64BL3WCK0G","either","7","6518","","32","","","","","","","","","","","","","","","","","","","","","","","","","","","","","","","","","","",""
"","identification","9","153203","0.0-9.0-0.0","48563759","wem/bandit_either_2","A1JV64BL3WCK0G","either","7","18135","","","","5","5","5","","","","","","","","","","","","","","","","","","","","","","","","the village of Zur","","","","","","",""
"","identification","10","162229","0.0-9.0-1.0","48563759","wem/bandit_either_2","A1JV64BL3WCK0G","either","7","8012","","","","1","1","0","","","","","","","","","","","","","","","","","","","","","","","","the village of Nyx","","","","","","",""
"","text","11","171019","0.0-10.0","48563759","wem/bandit_either_2","A1JV64BL3WCK0G","either","7","7787","","32","","","","","","","","","","","","","","","","","","","","","","","","","","","","","","","","","","",""
"","text","12","173473","0.0-11.0","48563759","wem/bandit_either_2","A1JV64BL3WCK0G","either","7","2452","","32","","","","","","","","","","","","","","","","","","","","","","","","","","","","","","","","","","",""
"","text","13","177313","0.0-12.0","48563759","wem/bandit_either_2","A1JV64BL3WCK0G","either","7","3839","","32","","","","","","","","","","","","","","","","","","","","","","","","","","","","","","","","","","",""
"","text","14","185835","0.0-13.0","48563759","wem/bandit_either_2","A1JV64BL3WCK0G","either","7","8521","","32","","","","","","","","","","","","","","","","","","","","","","","","","","","","","","","","","","",""
"","bandit","15","192014","0.0-14.0-0.0","48563759","wem/bandit_either_2","A1JV64BL3WCK0G","either","7","4667","","","","","","","0","0","1","0","0","","","","","0","","","","0","","","","","","","","","","","74","J","0","img/none_selected_demo.jpg","true","0",""
"","bandit","16","196777","0.0-15.0-0.0","48563759","wem/bandit_either_2","A1JV64BL3WCK0G","either","7","3255","","","","","","","0","0","1","0","0","","","","","0","","","","0","","","","","","","","","","","75","K","0","img/none_selected_demo.jpg","true","0",""
"","text","17","210528","0.0-16.0","48563759","wem/bandit_either_2","A1JV64BL3WCK0G","either","7","13749","","32","","","","","","","","","","","","","","","","","","","","","","","","","","","","","","","","","","",""
"","text","18","222529","0.0-17.0","48563759","wem/bandit_either_2","A1JV64BL3WCK0G","either","7","11997","","32","","","","","","","","","","","","","","","","","","","","","","","","","","","","","","","","","","",""
"","text","19","233449","0.0-18.0","48563759","wem/bandit_either_2","A1JV64BL3WCK0G","either","7","10916","","32","","","","","","","","","","","","","","","","","","","","","","","","","","","","","","","","","","",""
"","text","20","242680","0.0-19.0","48563759","wem/bandit_either_2","A1JV64BL3WCK0G","either","7","9228","","32","","","","","","","","","","","","","","","","","","","","","","","","","","","","","","","","","","",""
"","bandit","21","246507","0.0-20.0-0.0","48563759","wem/bandit_either_2","A1JV64BL3WCK0G","either","7","2312","","","","","","","1","0","0","0.8","","0.5","0.5","","","","","","","0.8","0.2","","","","","","","","","","74","J","0","img/none_selected_demo.jpg","true","0","80_20_practice"
"","bandit","22","248696","0.0-20.0-1.0","48563759","wem/bandit_either_2","A1JV64BL3WCK0G","either","7","680","","","","","","","0","1","0","","0.8","0.5","0.5","","","0.8","0.2","","","","","","","","","","","","","","74","J","0","img/none_selected_demo.jpg","true","0","80_20_practice"
"","bandit","23","250548","0.0-20.0-2.0","48563759","wem/bandit_either_2","A1JV64BL3WCK0G","either","7","342","","","","","","","0","0","1","","0.8","0.5","0.5","","","0.8","0.2","","","","","","","","","","","","","","74","J","0","img/none_selected_demo.jpg","true","0","80_20_practice"
"","bandit","24","252768","0.0-20.0-3.0","48563759","wem/bandit_either_2","A1JV64BL3WCK0G","either","7","710","","","","","","","0","1","0","","0.8","0.5","0.5","","","0.8","0.2","","","","","","","","","","","","","","74","J","0","img/none_selected_demo.jpg","true","0","80_20_practice"
"","bandit","25","254953","0.0-20.0-4.0","48563759","wem/bandit_either_2","A1JV64BL3WCK0G","either","7","679","","","","","","","0","0","1","0.2","","0.5","0.5","","","","","","","0.8","0.2","","","","","","","","","","75","K","1","","true","0","80_20_practice"
"","bandit","26","256873","0.0-20.0-5.0","48563759","wem/bandit_either_2","A1JV64BL3WCK0G","either","7","412","","","","","","","0","0","1","","0.2","0.5","0.5","","","0.8","0.2","","","","","","","","","","","","","","75","K","1","","true","0","80_20_practice"
"","bandit","27","258748","0.0-20.0-6.0","48563759","wem/bandit_either_2","A1JV64BL3WCK0G","either","7","360","","","","","","","0","0","1","","0.2","0.5","0.5","","","0.8","0.2","","","","","","","","","","","","","","75","K","1","","true","0","80_20_practice"
"","bandit","28","260627","0.0-20.0-7.0","48563759","wem/bandit_either_2","A1JV64BL3WCK0G","either","7","368","","","","","","","1","0","0","0.8","","0.5","0.5","","","","","","","0.8","0.2","","","","","","","","","","74","J","0","img/none_selected_demo.jpg","true","0","80_20_practice"
"","bandit","29","262594","0.0-20.0-8.0","48563759","wem/bandit_either_2","A1JV64BL3WCK0G","either","7","449","","","","","","","0","1","0","","0.8","0.5","0.5","","","0.8","0.2","","","","","","","","","","","","","","74","J","0","img/none_selected_demo.jpg","true","0","80_20_practice"
"","bandit","30","264477","0.0-20.0-9.0","48563759","wem/bandit_either_2","A1JV64BL3WCK0G","either","7","356","","","","","","","1","0","0","0.8","","0.5","0.5","","","","","","","0.8","0.2","","","","","","","","","","74","J","0","img/none_selected_demo.jpg","true","0","80_20_practice"
"","bandit","31","266461","0.0-20.0-10.0","48563759","wem/bandit_either_2","A1JV64BL3WCK0G","either","7","462","","","","","","","0","0","1","0.2","","0.5","0.5","","","","","","","0.8","0.2","","","","","","","","","","75","K","1","","true","0","80_20_practice"
"","bandit","32","268397","0.0-20.0-11.0","48563759","wem/bandit_either_2","A1JV64BL3WCK0G","either","7","412","","","","","","","0","0","1","","0.8","0.5","0.5","","","0.8","0.2","","","","","","","","","","","","","","74","J","0","img/none_selected_demo.jpg","true","0","80_20_practice"
"","bandit","33","270562","0.0-20.0-12.0","48563759","wem/bandit_either_2","A1JV64BL3WCK0G","either","7","648","","","","","","","0","0","1","","0.8","0.5","0.5","","","0.8","0.2","","","","","","","","","","","","","","74","J","0","img/none_selected_demo.jpg","true","0","80_20_practice"
"","bandit","34","272616","0.0-20.0-13.0","48563759","wem/bandit_either_2","A1JV64BL3WCK0G","either","7","538","","","","","","","0","0","1","0.2","","0.5","0.5","","","","","","","0.8","0.2","","","","","","","","","","75","K","1","","true","0","80_20_practice"
"","bandit","35","274504","0.0-20.0-14.0","48563759","wem/bandit_either_2","A1JV64BL3WCK0G","either","7","366","","","","","","","0","1","0","","0.8","0.5","0.5","","","0.8","0.2","","","","","","","","","","","","","","74","J","0","img/none_selected_demo.jpg","true","0","80_20_practice"
"","bandit","36","276962","0.0-20.0-15.0","48563759","wem/bandit_either_2","A1JV64BL3WCK0G","either","7","950","","","","","","","1","0","0","0.8","","0.5","0.5","","","","","","","0.8","0.2","","","","","","","","","","74","J","0","img/none_selected_demo.jpg","true","0","80_20_practice"
"","bandit","37","279760","0.0-20.0-16.0","48563759","wem/bandit_either_2","A1JV64BL3WCK0G","either","7","1292","","","","","","","0","1","0","","0.8","0.5","0.5","","","0.8","0.2","","","","","","","","","","","","","","74","J","0","img/none_selected_demo.jpg","true","0","80_20_practice"
"","bandit","38","283130","0.0-20.0-17.0","48563759","wem/bandit_either_2","A1JV64BL3WCK0G","either","7","1857","","","","","","","0","1","0","","0.8","0.5","0.5","","","0.8","0.2","","","","","","","","","","","","","","74","J","0","img/none_selected_demo.jpg","true","0","80_20_practice"
"","bandit","39","285127","0.0-20.0-18.0","48563759","wem/bandit_either_2","A1JV64BL3WCK0G","either","7","492","","","","","","","0","0","1","0.8","","0.5","0.5","","","","","","","0.8","0.2","","","","","","","","","","74","J","0","img/none_selected_demo.jpg","true","0","80_20_practice"
"","bandit","40","287177","0.0-20.0-19.0","48563759","wem/bandit_either_2","A1JV64BL3WCK0G","either","7","544","","","","","","","1","0","0","0.8","","0.5","0.5","","","","","","","0.8","0.2","","","","","","","","","","74","J","0","img/none_selected_demo.jpg","true","0","80_20_practice"
"","text","41","292468","0.0-21.0","48563759","wem/bandit_either_2","A1JV64BL3WCK0G","either","7","5288","","32","","","","","","","","","","","","","","","","","","","","","","","","","","","","","","","","","","",""
"","bandit","42","295209","0.0-22.0-0.0","48563759","wem/bandit_either_2","A1JV64BL3WCK0G","either","7","1232","","","","","","","1","0","0","1","0","","","","","0","1","","","1","0","","","","","","","","","","74","J","0","img/none_selected_demo.jpg","true","0",""
"","text","43","301937","0.0-23.0","48563759","wem/bandit_either_2","A1JV64BL3WCK0G","either","7","6722","","32","","","","","","","","","","","","","","","","","","","","","","","","","","","","","","","","","","",""
"","text","44","305684","0.0-24.0","48563759","wem/bandit_either_2","A1JV64BL3WCK0G","either","7","3746","","32","","","","","","","","","","","","","","","","","","","","","","","","","","","","","","","","","","",""
"","text","45","311427","0.0-25.0","48563759","wem/bandit_either_2","A1JV64BL3WCK0G","either","7","5739","","32","","","","","","","","","","","","","","","","","","","","","","","","","","","","","","","","","","",""
"","text","46","316463","0.0-26.0","48563759","wem/bandit_either_2","A1JV64BL3WCK0G","either","7","5032","","32","","","","","","","","","","","","","","","","","","","","","","","","","","","","","","","","","","",""
"","text","47","327890","0.0-27.0","48563759","wem/bandit_either_2","A1JV64BL3WCK0G","either","7","11422","","32","","","","","","","","","","","","","","","","","","","","","","","","","","","","","","","","","","",""
"","text","48","332011","0.0-28.0","48563759","wem/bandit_either_2","A1JV64BL3WCK0G","either","7","4118","","32","","","","","","","","","","","","","","","","","","","","","","","","","","","","","","","","","","",""
"","text","49","337910","0.0-29.0","48563759","wem/bandit_either_2","A1JV64BL3WCK0G","either","7","5894","","32","","","","","","","","","","","","","","","","","","","","","","","","","","","","","","","","","","",""
"","text","50","343112","0.0-30.0","48563759","wem/bandit_either_2","A1JV64BL3WCK0G","either","7","5199","","32","","","","","","","","","","","","","","","","","","","","","","","","","","","","","","","","","","",""
"","text","51","349266","0.0-31.0","48563759","wem/bandit_either_2","A1JV64BL3WCK0G","either","7","6152","","32","","","","","","","","","","","","","","","","","","","","","","","","","","","","","","","","","","",""
"","text","52","353627","0.0-32.0","48563759","wem/bandit_either_2","A1JV64BL3WCK0G","either","7","4358","","32","","","","","","","","","","","","","","","","","","","","","","","","","","","","","","","","","","",""
"","text","53","359248","0.0-33.0","48563759","wem/bandit_either_2","A1JV64BL3WCK0G","either","7","5613","","32","","","","","","","","","","","","","","","","","","","","","","","","","","","","","","","","","","",""
"","bandit","54","361276","0.0-34.0-0.0","48563759","wem/bandit_either_2","A1JV64BL3WCK0G","either","7","521","","","","","","","1","0","0","0.8","","0.5","0.5","0.5","0.5","","","","","0.8","0.2","0.6","0.2","","","","","","","","72","H","0","img/none_selected.jpg","true","0","full_practice"
"","bandit","55","363130","0.0-34.0-1.0","48563759","wem/bandit_either_2","A1JV64BL3WCK0G","either","7","347","","","","","","","1","0","0","0.8","","0.5","0.5","0.5","0.5","","","","","0.8","0.2","0.6","0.2","","","","","","","","72","H","0","img/none_selected.jpg","true","0","full_practice"
"","bandit","56","365016","0.0-34.0-2.0","48563759","wem/bandit_either_2","A1JV64BL3WCK0G","either","7","372","","","","","","","1","0","0","0.8","","0.5","0.5","0.5","0.5","","","","","0.8","0.2","0.6","0.2","","","","","","","","72","H","0","img/none_selected.jpg","true","0","full_practice"
"","bandit","57","366937","0.0-34.0-3.0","48563759","wem/bandit_either_2","A1JV64BL3WCK0G","either","7","403","","","","","","","0","1","0","","0.8","0.5","0.5","0.5","0.5","0.8","0.2","0.6","0.2","","","","","","","","","","","","72","H","0","img/none_selected.jpg","true","0","full_practice"
"","bandit","58","368832","0.0-34.0-4.0","48563759","wem/bandit_either_2","A1JV64BL3WCK0G","either","7","390","","","","","","","0","1","0","","0.8","0.5","0.5","0.5","0.5","0.8","0.2","0.6","0.2","","","","","","","","","","","","72","H","0","img/none_selected.jpg","true","0","full_practice"
"","bandit","59","370661","0.0-34.0-5.0","48563759","wem/bandit_either_2","A1JV64BL3WCK0G","either","7","316","","","","","","","1","0","0","0.8","","0.5","0.5","0.5","0.5","","","","","0.8","0.2","0.6","0.2","","","","","","","","72","H","0","img/none_selected.jpg","true","0","full_practice"
"","bandit","60","372729","0.0-34.0-6.0","48563759","wem/bandit_either_2","A1JV64BL3WCK0G","either","7","561","","","","","","","0","0","1","","0.8","0.5","0.5","0.5","0.5","0.8","0.2","0.6","0.2","","","","","","","","","","","","72","H","0","img/none_selected.jpg","true","0","full_practice"
"","bandit","61","374812","0.0-34.0-7.0","48563759","wem/bandit_either_2","A1JV64BL3WCK0G","either","7","570","","","","","","","1","0","0","0.2","","0.5","0.5","0.5","0.5","","","","","0.8","0.2","0.6","0.2","","","","","","","","74","J","1","","true","0","full_practice"
"","bandit","62","376665","0.0-34.0-8.0","48563759","wem/bandit_either_2","A1JV64BL3WCK0G","either","7","338","","","","","","","1","0","0","0.2","","0.5","0.5","0.5","0.5","","","","","0.8","0.2","0.6","0.2","","","","","","","","74","J","1","","true","0","full_practice"
"","bandit","63","378544","0.0-34.0-9.0","48563759","wem/bandit_either_2","A1JV64BL3WCK0G","either","7","364","","","","","","","0","0","1","","0.2","0.5","0.5","0.5","0.5","0.8","0.2","0.6","0.2","","","","","","","","","","","","74","J","1","","true","0","full_practice"
"","bandit","64","380639","0.0-34.0-10.0","48563759","wem/bandit_either_2","A1JV64BL3WCK0G","either","7","559","","","","","","","0","0","1","0.2","","0.5","0.5","0.5","0.5","","","","","0.8","0.2","0.6","0.2","","","","","","","","74","J","1","","true","0","full_practice"
"","bandit","65","382365","0.0-34.0-11.0","48563759","wem/bandit_either_2","A1JV64BL3WCK0G","either","7","213","","","","","","","1","0","0","0.6","","0.5","0.5","0.5","0.5","","","","","0.8","0.2","0.6","0.2","","","","","","","","75","K","2","","true","0","full_practice"
"","bandit","66","384328","0.0-34.0-12.0","48563759","wem/bandit_either_2","A1JV64BL3WCK0G","either","7","436","","","","","","","1","0","0","0.6","","0.5","0.5","0.5","0.5","","","","","0.8","0.2","0.6","0.2","","","","","","","","75","K","2","","true","0","full_practice"
"","bandit","67","386186","0.0-34.0-13.0","48563759","wem/bandit_either_2","A1JV64BL3WCK0G","either","7","343","","","","","","","0","0","1","","0.6","0.5","0.5","0.5","0.5","0.8","0.2","0.6","0.2","","","","","","","","","","","","75","K","2","","true","0","full_practice"
"","bandit","68","388151","0.0-34.0-14.0","48563759","wem/bandit_either_2","A1JV64BL3WCK0G","either","7","459","","","","","","","1","0","0","0.6","","0.5","0.5","0.5","0.5","","","","","0.8","0.2","0.6","0.2","","","","","","","","75","K","2","","true","0","full_practice"
"","bandit","69","390265","0.0-34.0-15.0","48563759","wem/bandit_either_2","A1JV64BL3WCK0G","either","7","608","","","","","","","0","0","1","0.6","","0.5","0.5","0.5","0.5","","","","","0.8","0.2","0.6","0.2","","","","","","","","75","K","2","","true","0","full_practice"
"","bandit","70","391952","0.0-34.0-16.0","48563759","wem/bandit_either_2","A1JV64BL3WCK0G","either","7","178","","","","","","","0","1","0","","0.6","0.5","0.5","0.5","0.5","0.8","0.2","0.6","0.2","","","","","","","","","","","","75","K","2","","true","0","full_practice"
"","bandit","71","393931","0.0-34.0-17.0","48563759","wem/bandit_either_2","A1JV64BL3WCK0G","either","7","464","","","","","","","0","0","1","","0.2","0.5","0.5","0.5","0.5","0.8","0.2","0.6","0.2","","","","","","","","","","","","76","L","3","","true","0","full_practice"
"","bandit","72","395778","0.0-34.0-18.0","48563759","wem/bandit_either_2","A1JV64BL3WCK0G","either","7","325","","","","","","","1","0","0","0.6","","0.5","0.5","0.5","0.5","","","","","0.8","0.2","0.6","0.2","","","","","","","","75","K","2","","true","0","full_practice"
"","bandit","73","397577","0.0-34.0-19.0","48563759","wem/bandit_either_2","A1JV64BL3WCK0G","either","7","276","","","","","","","0","1","0","","0.6","0.5","0.5","0.5","0.5","0.8","0.2","0.6","0.2","","","","","","","","","","","","75","K","2","","true","0","full_practice"
"","text","74","400826","0.0-35.0","48563759","wem/bandit_either_2","A1JV64BL3WCK0G","either","7","3244","","32","","","","","","","","","","","","","","","","","","","","","","","","","","","","","","","","","","",""
"","text","75","415776","0.0-36.0","48563759","wem/bandit_either_2","A1JV64BL3WCK0G","either","7","13939","","32","","","","","","","","","","","","","","","","","","","","","","","","","","","","","","","","","","",""
"","text","76","428171","0.0-37.0","48563759","wem/bandit_either_2","A1JV64BL3WCK0G","either","7","12389","","32","","","","","","","","","","","","","","","","","","","","","","","","","","","","","","","","","","",""
"","text","77","442615","0.0-38.0","48563759","wem/bandit_either_2","A1JV64BL3WCK0G","either","7","14442","","32","","","","","","","","","","","","","","","","","","","","","","","","","","","","","","","","","","",""
"","text","78","450103","0.0-39.0","48563759","wem/bandit_either_2","A1JV64BL3WCK0G","either","7","7482","","32","","","","","","","","","","","","","","","","","","","","","","","","","","","","","","","","","","",""
"","text","79","458154","0.0-40.0","48563759","wem/bandit_either_2","A1JV64BL3WCK0G","either","7","8048","","32","","","","","","","","","","","","","","","","","","","","","","","","","","","","","","","","","","",""
"","bandit","80","460783","0.0-41.0-0.0","48563759","wem/bandit_either_2","A1JV64BL3WCK0G","either","7","1105","","","","","","","0","0","1","0.1952616071","","0.6","0.4","0.2","0.8","","","","","0.1952616071","0.01738065524","0.1480066451","0.06530018083","","","","","","","","72","H","0","img/none_selected.jpg","","1","main_expt"
"","bandit","81","462619","0.0-42.0-0.0","48563759","wem/bandit_either_2","A1JV64BL3WCK0G","either","7","311","","","","","","","0","0","1","0.0196943787","","0.6","0.4","0.2","0.8","","","","","0.1652234336","0.0196943787","0.1053714073","0.1011701763","","","","","","","","74","J","1","","","2","main_expt"
"","bandit","82","464624","0.0-43.0-0.0","48563759","wem/bandit_either_2","A1JV64BL3WCK0G","either","7","474","","","","","","","1","0","0","0.1460078221","","0.6","0.4","0.2","0.8","","","","","0.1347382479","0.01678573497","0.1460078221","0.09486719381","","","","","","","","75","K","2","","","3","main_expt"
"","bandit","83","466457","0.0-44.0-0.0","48563759","wem/bandit_either_2","A1JV64BL3WCK0G","either","7","311","","","","","","","0","0","1","","0.1866138214","0.6","0.4","0.2","0.8","0.1684625442","0.02981965743","0.1866138214","0.06705802814","","","","","","","","","","","","75","K","2","","","4","main_expt"
"","bandit","84","468334","0.0-45.0-0.0","48563759","wem/bandit_either_2","A1JV64BL3WCK0G","either","7","352","","","","","","","0","0","1","","0.2445348717","0.6","0.4","0.2","0.8","0.1792029032","0.02600208211","0.2445348717","0.0822298525","","","","","","","","","","","","75","K","2","","","5","main_expt"
"","bandit","85","470006","0.0-46.0-0.0","48563759","wem/bandit_either_2","A1JV64BL3WCK0G","either","7","160","","","","","","","0","0","1","","0.09162209411","0.6","0.4","0.2","0.8","0.2153873139","0.02332436933","0.2546962146","0.09162209411","","","","","","","","","","","","76","L","3","","","6","main_expt"
"","bandit","86","471847","0.0-47.0-0.0","48563759","wem/bandit_either_2","A1JV64BL3WCK0G","either","7","335","","","","","","","1","0","0","0.1028820098","","0.6","0.4","0.2","0.8","","","","","0.1757762721","0.02864040813","0.2344841702","0.1028820098","","","","","","","","76","L","3","","","7","main_expt"
"","bandit","87","473699","0.0-48.0-0.0","48563759","wem/bandit_either_2","A1JV64BL3WCK0G","either","7","334","","","","","","","0","0","1","0.1532270122","","0.6","0.4","0.2","0.8","","","","","0.2241229746","0.02951264166","0.2473344203","0.1532270122","","","","","","","","76","L","3","","","8","main_expt"
"","bandit","88","475662","0.0-49.0-0.0","48563759","wem/bandit_either_2","A1JV64BL3WCK0G","either","7","448","","","","","","","0","0","1","","0.2199426203","0.6","0.4","0.2","0.8","0.2199426203","0.02997011939","0.2642160399","0.2131450397","","","","","","","","","","","","72","H","0","img/none_selected.jpg","","9","main_expt"
"","bandit","89","477435","0.0-50.0-0.0","48563759","wem/bandit_either_2","A1JV64BL3WCK0G","either","7","247","","","","","","","0","0","1","0.1520686932","","0.6","0.4","0.2","0.8","","","","","0.1520686932","0.02489651457","0.2104627424","0.2985754635","","","","","","","","72","H","0","img/none_selected.jpg","","10","main_expt"
"","bandit","90","479196","0.0-51.0-0.0","48563759","wem/bandit_either_2","A1JV64BL3WCK0G","either","7","243","","","","","","","0","0","1","0.01651058827","","0.6","0.4","0.2","0.8","","","","","0.2013349999","0.01651058827","0.219372878","0.2924640086","","","","","","","","74","J","1","","","11","main_expt"
"","bandit","91","480903","0.0-52.0-0.0","48563759","wem/bandit_either_2","A1JV64BL3WCK0G","either","7","197","","","","","","","0","0","1","0.02341729431","","0.6","0.4","0.2","0.8","","","","","0.2156800105","0.02341729431","0.2105839871","0.3264291113","","","","","","","","74","J","1","","","12","main_expt"
"","bandit","92","483055","0.0-53.0-0.0","48563759","wem/bandit_either_2","A1JV64BL3WCK0G","either","7","641","","","","","","","1","0","0","0.2511698571","","0.6","0.4","0.2","0.8","","","","","0.1833947696","0.0257410372","0.2511698571","0.3254913314","","","","","","","","75","K","2","","","13","main_expt"
"","bandit","93","485025","0.0-54.0-0.0","48563759","wem/bandit_either_2","A1JV64BL3WCK0G","either","7","459","","","","","","","0","0","1","","0.2158977649","0.6","0.4","0.2","0.8","0.243643366","0.02570014082","0.2158977649","0.3428504842","","","","","","","","","","","","75","K","2","","","14","main_expt"
"","bandit","94","486871","0.0-55.0-0.0","48563759","wem/bandit_either_2","A1JV64BL3WCK0G","either","7","339","","","","","","","0","0","1","","0.2762480727","0.6","0.4","0.2","0.8","0.2265365198","0.04268316416","0.2762480727","0.3244047679","","","","","","","","","","","","75","K","2","","","15","main_expt"
"","bandit","95","488777","0.0-56.0-0.0","48563759","wem/bandit_either_2","A1JV64BL3WCK0G","either","7","397","","","","","","","0","0","1","","0.3025313629","0.6","0.4","0.2","0.8","0.2484951132","0.04667408308","0.3202890724","0.3025313629","","","","","","","","","","","","76","L","3","","","16","main_expt"
"","bandit","96","490672","0.0-57.0-0.0","48563759","wem/bandit_either_2","A1JV64BL3WCK0G","either","7","372","","","","","","","0","0","1","0.3291216938","","0.6","0.4","0.2","0.8","","","","","0.2570267238","0.0506688767","0.3680552247","0.3291216938","","","","","","","","76","L","3","","","17","main_expt"
"","bandit","97","492531","0.0-58.0-0.0","48563759","wem/bandit_either_2","A1JV64BL3WCK0G","either","7","337","","","","","","","0","0","1","0.3968593921","","0.6","0.4","0.2","0.8","","","","","0.287418789","0.02988526167","0.3968593921","0.2987881532","","","","","","","","75","K","2","","","18","main_expt"
"","bandit","98","494425","0.0-59.0-0.0","48563759","wem/bandit_either_2","A1JV64BL3WCK0G","either","7","373","","","","","","","0","0","1","","0.03476350355","0.6","0.4","0.2","0.8","0.2338710899","0.03476350355","0.4192996399","0.281207523","","","","","","","","","","","","74","J","1","","","19","main_expt"
"","bandit","99","496406","0.0-60.0-0.0","48563759","wem/bandit_either_2","A1JV64BL3WCK0G","either","7","452","","","","","","","0","0","1","0.4362768361","","0.6","0.4","0.2","0.8","","","","","0.2335293464","0.0233687216","0.4362768361","0.291129981","","","","","","","","75","K","2","","","20","main_expt"
"","bandit","100","498262","0.0-61.0-0.0","48563759","wem/bandit_either_2","A1JV64BL3WCK0G","either","7","344","","","","","","","0","1","0","","0.2434826965","0.6","0.4","0.2","0.8","0.2434826965","0.01272547494","0.4599691003","0.2729578326","","","","","","","","","","","","72","H","0","img/none_selected.jpg","","21","main_expt"
"","bandit","101","500272","0.0-62.0-0.0","48563759","wem/bandit_either_2","A1JV64BL3WCK0G","either","7","496","","","","","","","0","0","1","0.2702300591","","0.6","0.4","0.2","0.8","","","","","0.2702300591","0.01739491555","0.44353765","0.2805141014","","","","","","","","72","H","0","img/none_selected.jpg","","22","main_expt"
"","bandit","102","502070","0.0-63.0-0.0","48563759","wem/bandit_either_2","A1JV64BL3WCK0G","either","7","292","","","","","","","0","0","1","0.2424740502","","0.6","0.4","0.2","0.8","","","","","0.2424740502","0.006692102231","0.4105594395","0.3016389313","","","","","","","","72","H","0","img/none_selected.jpg","","23","main_expt"
"","bandit","103","503958","0.0-64.0-0.0","48563759","wem/bandit_either_2","A1JV64BL3WCK0G","either","7","371","","","","","","","0","0","1","","0.1754503809","0.6","0.4","0.2","0.8","0.1754503809","0.01209419849","0.4243351486","0.2475621169","","","","","","","","","","","","72","H","0","img/none_selected.jpg","","24","main_expt"
"","bandit","104","506106","0.0-65.0-0.0","48563759","wem/bandit_either_2","A1JV64BL3WCK0G","either","7","630","","","","","","","0","1","0","","0.2023019753","0.6","0.4","0.2","0.8","0.2023019753","0.009734580702","0.4172780312","0.2607476102","","","","","","","","","","","","72","H","0","img/none_selected.jpg","","25","main_expt"
"","bandit","105","508113","0.0-66.0-0.0","48563759","wem/bandit_either_2","A1JV64BL3WCK0G","either","7","488","","","","","","","1","0","0","0.1887270612","","0.6","0.4","0.2","0.8","","","","","0.1887270612","0.008596148908","0.3981062588","0.292589008","","","","","","","","72","H","0","img/none_selected.jpg","","26","main_expt"
"","bandit","106","509974","0.0-67.0-0.0","48563759","wem/bandit_either_2","A1JV64BL3WCK0G","either","7","351","","","","","","","0","0","1","","0.2526986378","0.6","0.4","0.2","0.8","0.2526986378","0.01380650739","0.3889188119","0.2978950393","","","","","","","","","","","","72","H","0","img/none_selected.jpg","","27","main_expt"
"","bandit","107","511967","0.0-68.0-0.0","48563759","wem/bandit_either_2","A1JV64BL3WCK0G","either","7","486","","","","","","","0","0","1","0.2536033627","","0.6","0.4","0.2","0.8","","","","","0.2536033627","0.01160852189","0.3699095679","0.337392419","","","","","","","","72","H","0","img/none_selected.jpg","","28","main_expt"
"","bandit","108","513822","0.0-69.0-0.0","48563759","wem/bandit_either_2","A1JV64BL3WCK0G","either","7","349","","","","","","","0","0","1","","0.02858314752","0.6","0.4","0.2","0.8","0.258258936","0.02858314752","0.4087832773","0.3830759015","","","","","","","","","","","","74","J","1","","","29","main_expt"
"","bandit","109","515628","0.0-70.0-0.0","48563759","wem/bandit_either_2","A1JV64BL3WCK0G","either","7","282","","","","","","","0","0","1","","0.3152574144","0.6","0.4","0.2","0.8","0.3152574144","0.0265596094","0.4162513677","0.3778881599","","","","","","","","","","","","72","H","0","img/none_selected.jpg","","30","main_expt"
"","bandit","110","517463","0.0-71.0-0.0","48563759","wem/bandit_either_2","A1JV64BL3WCK0G","either","7","326","","","","","","","0","0","1","","0.43337534","0.6","0.4","0.2","0.8","0.3508579725","0.02828816112","0.43337534","0.3585458117","","","","","","","","","","","","75","K","2","","","31","main_expt"
"","bandit","111","519398","0.0-72.0-0.0","48563759","wem/bandit_either_2","A1JV64BL3WCK0G","either","7","413","","","","","","","1","0","0","0.3511664436","","0.6","0.4","0.2","0.8","","","","","0.3902021543","0.03857304495","0.4399105216","0.3511664436","","","","","","","","76","L","3","","","32","main_expt"
"","bandit","112","521366","0.0-73.0-0.0","48563759","wem/bandit_either_2","A1JV64BL3WCK0G","either","7","460","","","","","","","0","0","1","0.3924960189","","0.6","0.4","0.2","0.8","","","","","0.4112626521","0.02642959278","0.3859623535","0.3924960189","","","","","","","","76","L","3","","","33","main_expt"
"","bandit","113","523255","0.0-74.0-0.0","48563759","wem/bandit_either_2","A1JV64BL3WCK0G","either","7","374","","","","","","","0","0","1","0.3713907517","","0.6","0.4","0.2","0.8","","","","","0.3912589523","0.06800028167","0.4231921331","0.3713907517","","","","","","","","76","L","3","","","34","main_expt"
"","bandit","114","525047","0.0-75.0-0.0","48563759","wem/bandit_either_2","A1JV64BL3WCK0G","either","7","286","","","","","","","0","0","1","0.3929004689","","0.6","0.4","0.2","0.8","","","","","0.3663646496","0.05710280771","0.3950458867","0.3929004689","","","","","","","","76","L","3","","","35","main_expt"
"","bandit","115","526847","0.0-76.0-0.0","48563759","wem/bandit_either_2","A1JV64BL3WCK0G","either","7","291","","","","","","","0","0","1","0.3820467604","","0.6","0.4","0.2","0.8","","","","","0.3045225128","0.07756943076","0.4005306787","0.3820467604","","","","","","","","76","L","3","","","36","main_expt"
"","bandit","116","528734","0.0-77.0-0.0","48563759","wem/bandit_either_2","A1JV64BL3WCK0G","either","7","370","","","","","","","0","0","1","","0.3972735937","0.6","0.4","0.2","0.8","0.2806474599","0.06074629621","0.3972735937","0.3948022939","","","","","","","","","","","","75","K","2","","","37","main_expt"
"","bandit","117","530597","0.0-78.0-0.0","48563759","wem/bandit_either_2","A1JV64BL3WCK0G","either","7","351","","","","","","","0","0","1","","0.07063042774","0.6","0.4","0.2","0.8","0.3558759705","0.07063042774","0.38339591","0.3769579019","","","","","","","","","","","","74","J","1","","","38","main_expt"
"","bandit","118","532192","0.0-79.0-0.0","48563759","wem/bandit_either_2","A1JV64BL3WCK0G","either","7","85","","","","","","","1","0","0","0.3194138052","","0.6","0.4","0.2","0.8","","","","","0.3194138052","0.06209293178","0.3906354184","0.4030344636","","","","","","","","72","H","0","img/none_selected.jpg","","39","main_expt"
"","bandit","119","534155","0.0-80.0-0.0","48563759","wem/bandit_either_2","A1JV64BL3WCK0G","either","7","441","","","","","","","0","1","0","","0.3549086085","0.6","0.4","0.2","0.8","0.3549086085","0.06952578958","0.3623676206","0.3622335218","","","","","","","","","","","","72","H","0","img/none_selected.jpg","","40","main_expt"
"","bandit","120","536087","0.0-81.0-0.0","48563759","wem/bandit_either_2","A1JV64BL3WCK0G","either","7","416","","","","","","","0","1","0","","0.3452113815","0.6","0.4","0.2","0.8","0.3452113815","0.1291245709","0.3873704927","0.3911596719","","","","","","","","","","","","72","H","0","img/none_selected.jpg","","41","main_expt"
"","bandit","121","537911","0.0-82.0-0.0","48563759","wem/bandit_either_2","A1JV64BL3WCK0G","either","7","314","","","","","","","0","0","1","0.3522960267","","0.6","0.4","0.2","0.8","","","","","0.3522960267","0.1174523948","0.359823116","0.3921858285","","","","","","","","72","H","0","img/none_selected.jpg","","42","main_expt"
"","bandit","122","539761","0.0-83.0-0.0","48563759","wem/bandit_either_2","A1JV64BL3WCK0G","either","7","338","","","","","","","0","1","0","","0.3093122096","0.6","0.4","0.2","0.8","0.3093122096","0.1201484523","0.3710191411","0.3831213528","","","","","","","","","","","","72","H","0","img/none_selected.jpg","","43","main_expt"
"","bandit","123","541766","0.0-84.0-0.0","48563759","wem/bandit_either_2","A1JV64BL3WCK0G","either","7","472","","","","","","","0","0","1","0.3026159556","","0.6","0.4","0.2","0.8","","","","","0.3026159556","0.09958360536","0.3874065465","0.3518708159","","","","","","","","72","H","0","img/none_selected.jpg","","44","main_expt"
"","bandit","124","543700","0.0-85.0-0.0","48563759","wem/bandit_either_2","A1JV64BL3WCK0G","either","7","405","","","","","","","1","0","0","0.3336294247","","0.6","0.4","0.2","0.8","","","","","0.3336294247","0.05173655998","0.3851533971","0.3122870636","","","","","","","","72","H","0","img/none_selected.jpg","","45","main_expt"
"","bandit","125","545599","0.0-86.0-0.0","48563759","wem/bandit_either_2","A1JV64BL3WCK0G","either","7","374","","","","","","","0","0","1","0.3400222736","","0.6","0.4","0.2","0.8","","","","","0.3400222736","0.05945041096","0.4055883719","0.2635721956","","","","","","","","72","H","0","img/none_selected.jpg","","46","main_expt"
"","bandit","126","548363","0.0-87.0-0.0","48563759","wem/bandit_either_2","A1JV64BL3WCK0G","either","7","1247","","","","","","","0","0","1","0.328707825","","0.6","0.4","0.2","0.8","","","","","0.328707825","0.04375763727","0.3671593179","0.2856785865","","","","","","","","72","H","0","img/none_selected.jpg","","47","main_expt"
"","bandit","127","550507","0.0-88.0-0.0","48563759","wem/bandit_either_2","A1JV64BL3WCK0G","either","7","625","","","","","","","0","0","1","","0.3307690822","0.6","0.4","0.2","0.8","0.3307690822","0.0666370861","0.3198203038","0.2649087478","","","","","","","","","","","","72","H","0","img/none_selected.jpg","","48","main_expt"
"","bandit","128","552716","0.0-89.0-0.0","48563759","wem/bandit_either_2","A1JV64BL3WCK0G","either","7","697","","","","","","","0","0","1","","0.3438067684","0.6","0.4","0.2","0.8","0.3438067684","0.08266213623","0.3111357295","0.2462979357","","","","","","","","","","","","72","H","0","img/none_selected.jpg","","49","main_expt"
"","bandit","129","554646","0.0-90.0-0.0","48563759","wem/bandit_either_2","A1JV64BL3WCK0G","either","7","394","","","","","","","0","0","1","","0.3196682981","0.6","0.4","0.2","0.8","0.4037002216","0.08795051988","0.3196682981","0.2490076798","","","","","","","","","","","","75","K","2","","","50","main_expt"
"","bandit","130","556531","0.0-91.0-0.0","48563759","wem/bandit_either_2","A1JV64BL3WCK0G","either","7","363","","","","","","","0","0","1","","0.07533366945","0.6","0.4","0.2","0.8","0.3557518394","0.07533366945","0.3088596379","0.305209751","","","","","","","","","","","","74","J","1","","","51","main_expt"
"","bandit","131","558747","0.0-92.0-0.0","48563759","wem/bandit_either_2","A1JV64BL3WCK0G","either","7","697","","","","","","","0","0","1","0.3087204988","","0.6","0.4","0.2","0.8","","","","","0.3254324358","0.06506638851","0.3060924957","0.3087204988","","","","","","","","76","L","3","","","52","main_expt"
"","bandit","132","560881","0.0-93.0-0.0","48563759","wem/bandit_either_2","A1JV64BL3WCK0G","either","7","611","","","","","","","0","0","1","","0.3229319808","0.6","0.4","0.2","0.8","0.2952150256","0.06562792832","0.3229319808","0.2984188648","","","","","","","","","","","","75","K","2","","","53","main_expt"
"","bandit","133","562681","0.0-94.0-0.0","48563759","wem/bandit_either_2","A1JV64BL3WCK0G","either","7","278","","","","","","","0","0","1","0.300320608","","0.6","0.4","0.2","0.8","","","","","0.300320608","0.04630081711","0.3280138586","0.3353917468","","","","","","","","72","H","0","img/none_selected.jpg","","54","main_expt"
"","bandit","134","564605","0.0-95.0-0.0","48563759","wem/bandit_either_2","A1JV64BL3WCK0G","either","7","393","","","","","","","0","0","1","0.2985084879","","0.6","0.4","0.2","0.8","","","","","0.2985084879","0.03868373719","0.2777260571","0.3259144651","","","","","","","","72","H","0","img/none_selected.jpg","","55","main_expt"
"","bandit","135","566647","0.0-96.0-0.0","48563759","wem/bandit_either_2","A1JV64BL3WCK0G","either","7","509","","","","","","","0","0","1","","0.06235362297","0.6","0.4","0.2","0.8","0.2607009345","0.06235362297","0.1791004868","0.3259049121","","","","","","","","","","","","74","J","1","","","56","main_expt"
"","bandit","136","568450","0.0-97.0-0.0","48563759","wem/bandit_either_2","A1JV64BL3WCK0G","either","7","268","","","","","","","0","0","1","0.2182265394","","0.6","0.4","0.2","0.8","","","","","0.2565854794","0.04639461243","0.2182265394","0.3687904078","","","","","","","","75","K","2","","","57","main_expt"
"","bandit","137","570126","0.0-98.0-0.0","48563759","wem/bandit_either_2","A1JV64BL3WCK0G","either","7","166","","","","","","","1","0","0","0.3422038875","","0.6","0.4","0.2","0.8","","","","","0.319121847","0.08954448139","0.2970860181","0.3422038875","","","","","","","","76","L","3","","","58","main_expt"
"","bandit","138","572019","0.0-99.0-0.0","48563759","wem/bandit_either_2","A1JV64BL3WCK0G","either","7","376","","","","","","","0","1","0","","0.3771421139","0.6","0.4","0.2","0.8","0.3269923399","0.07390342289","0.3249685468","0.3771421139","","","","","","","","","","","","76","L","3","","","59","main_expt"
"","bandit","139","573891","0.0-100.0-0.0","48563759","wem/bandit_either_2","A1JV64BL3WCK0G","either","7","354","","","","","","","1","0","0","0.3620124399","","0.6","0.4","0.2","0.8","","","","","0.3150968823","0.05801548519","0.2931470039","0.3620124399","","","","","","","","76","L","3","","","60","main_expt"
"","bandit","140","575685","0.0-101.0-0.0","48563759","wem/bandit_either_2","A1JV64BL3WCK0G","either","7","281","","","","","","","1","0","0","0.3958116198","","0.6","0.4","0.2","0.8","","","","","0.324539239","0.07333263924","0.2646536279","0.3958116198","","","","","","","","76","L","3","","","61","main_expt"
"","bandit","141","577785","0.0-102.0-0.0","48563759","wem/bandit_either_2","A1JV64BL3WCK0G","either","7","562","","","","","","","0","0","1","0.3615218546","","0.6","0.4","0.2","0.8","","","","","0.3066306166","0.07563430262","0.242461968","0.3615218546","","","","","","","","76","L","3","","","62","main_expt"
"","bandit","142","579744","0.0-103.0-0.0","48563759","wem/bandit_either_2","A1JV64BL3WCK0G","either","7","438","","","","","","","0","0","1","0.3574266064","","0.6","0.4","0.2","0.8","","","","","0.3068900116","0.06826526778","0.2206683029","0.3574266064","","","","","","","","76","L","3","","","63","main_expt"
"","bandit","143","581822","0.0-104.0-0.0","48563759","wem/bandit_either_2","A1JV64BL3WCK0G","either","7","553","","","","","","","0","0","1","0.3541915859","","0.6","0.4","0.2","0.8","","","","","0.2936494982","0.1175271989","0.2288959862","0.3541915859","","","","","","","","76","L","3","","","64","main_expt"
"","bandit","144","583874","0.0-105.0-0.0","48563759","wem/bandit_either_2","A1JV64BL3WCK0G","either","7","542","","","","","","","0","0","1","0.290236101","","0.6","0.4","0.2","0.8","","","","","0.290236101","0.1273865191","0.2346523549","0.3339820985","","","","","","","","72","H","0","img/none_selected.jpg","","65","main_expt"
"","bandit","145","585945","0.0-106.0-0.0","48563759","wem/bandit_either_2","A1JV64BL3WCK0G","either","7","546","","","","","","","0","0","1","0.2512036594","","0.6","0.4","0.2","0.8","","","","","0.2512036594","0.09075088943","0.1881688105","0.3195467083","","","","","","","","72","H","0","img/none_selected.jpg","","66","main_expt"
"","bandit","146","588097","0.0-107.0-0.0","48563759","wem/bandit_either_2","A1JV64BL3WCK0G","either","7","641","","","","","","","0","0","1","","0.08077075725","0.6","0.4","0.2","0.8","0.263747572","0.08077075725","0.231043846","0.3477383846","","","","","","","","","","","","74","J","1","","","67","main_expt"
"","bandit","147","590051","0.0-108.0-0.0","48563759","wem/bandit_either_2","A1JV64BL3WCK0G","either","7","442","","","","","","","0","1","0","","0.2576664243","0.6","0.4","0.2","0.8","0.2892519303","0.08810311296","0.2576664243","0.3365352069","","","","","","","","","","","","75","K","2","","","68","main_expt"
"","bandit","148","592030","0.0-109.0-0.0","48563759","wem/bandit_either_2","A1JV64BL3WCK0G","either","7","464","","","","","","","1","0","0","0.2183283259","","0.6","0.4","0.2","0.8","","","","","0.2383664846","0.1260156682","0.2183283259","0.3148812039","","","","","","","","75","K","2","","","69","main_expt"
"","bandit","149","594114","0.0-110.0-0.0","48563759","wem/bandit_either_2","A1JV64BL3WCK0G","either","7","565","","","","","","","0","0","1","","0.2260484764","0.6","0.4","0.2","0.8","0.2497111545","0.08773951932","0.2260484764","0.3154014692","","","","","","","","","","","","75","K","2","","","70","main_expt"
"","bandit","150","596494","0.0-111.0-0.0","48563759","wem/bandit_either_2","A1JV64BL3WCK0G","either","7","846","","","","","","","0","0","1","","0.3196469567","0.6","0.4","0.2","0.8","0.2095843002","0.1154304285","0.3196469567","0.219815459","","","","","","","","","","","","75","K","2","","","71","main_expt"
"","bandit","151","598889","0.0-112.0-0.0","48563759","wem/bandit_either_2","A1JV64BL3WCK0G","either","7","875","","","","","","","0","0","1","","0.3644141189","0.6","0.4","0.2","0.8","0.1972488467","0.10097247","0.3644141189","0.2623730272","","","","","","","","","","","","75","K","2","","","72","main_expt"
"","bandit","152","600581","0.0-113.0-0.0","48563759","wem/bandit_either_2","A1JV64BL3WCK0G","either","7","148","","","","","","","1","0","0","0.2639805735","","0.6","0.4","0.2","0.8","","","","","0.15494396","0.0746930591","0.4081842109","0.2639805735","","","","","","","","76","L","3","","","73","main_expt"
"","bandit","153","602728","0.0-114.0-0.0","48563759","wem/bandit_either_2","A1JV64BL3WCK0G","either","7","635","","","","","","","0","0","1","","0.2770925356","0.6","0.4","0.2","0.8","0.1324790415","0.1124392477","0.4506698749","0.2770925356","","","","","","","","","","","","76","L","3","","","74","main_expt"
"","bandit","154","604689","0.0-115.0-0.0","48563759","wem/bandit_either_2","A1JV64BL3WCK0G","either","7","452","","","","","","","1","0","0","0.2796652475","","0.6","0.4","0.2","0.8","","","","","0.179195356","0.113494578","0.454520075","0.2796652475","","","","","","","","76","L","3","","","75","main_expt"
"","bandit","155","606775","0.0-116.0-0.0","48563759","wem/bandit_either_2","A1JV64BL3WCK0G","either","7","565","","","","","","","0","0","1","0.3153427244","","0.6","0.4","0.2","0.8","","","","","0.215808919","0.1469344428","0.466199952","0.3153427244","","","","","","","","76","L","3","","","76","main_expt"
"","bandit","156","608873","0.0-117.0-0.0","48563759","wem/bandit_either_2","A1JV64BL3WCK0G","either","7","584","","","","","","","0","0","1","0.3676911864","","0.6","0.4","0.2","0.8","","","","","0.2312347408","0.2152215887","0.4402141775","0.3676911864","","","","","","","","76","L","3","","","77","main_expt"
"","bandit","157","611041","0.0-118.0-0.0","48563759","wem/bandit_either_2","A1JV64BL3WCK0G","either","7","651","","","","","","","0","1","0","","0.4525957793","0.6","0.4","0.2","0.8","0.2197025874","0.2055177618","0.4525957793","0.3434277392","","","","","","","","","","","","75","K","2","","","78","main_expt"
"","bandit","158","613490","0.0-119.0-0.0","48563759","wem/bandit_either_2","A1JV64BL3WCK0G","either","7","905","","","","","","","0","1","0","","0.4630799716","0.6","0.4","0.2","0.8","0.2227420924","0.222262525","0.4630799716","0.3758616161","","","","","","","","","","","","75","K","2","","","79","main_expt"
"","bandit","159","615490","0.0-120.0-0.0","48563759","wem/bandit_either_2","A1JV64BL3WCK0G","either","7","479","","","","","","","0","1","0","","0.423693353","0.6","0.4","0.2","0.8","0.2283057493","0.2700860438","0.423693353","0.3862393514","","","","","","","","","","","","75","K","2","","","80","main_expt"
"","bandit","160","617476","0.0-121.0-0.0","48563759","wem/bandit_either_2","A1JV64BL3WCK0G","either","7","447","","","","","","","0","0","1","0.4319112677","","0.6","0.4","0.2","0.8","","","","","0.2721525977","0.2642688004","0.4319112677","0.3593770893","","","","","","","","75","K","2","","","81","main_expt"
"","bandit","161","619368","0.0-122.0-0.0","48563759","wem/bandit_either_2","A1JV64BL3WCK0G","either","7","374","","","","","","","0","0","1","","0.4035110645","0.6","0.4","0.2","0.8","0.2850237184","0.2824164754","0.441827487","0.4035110645","","","","","","","","","","","","76","L","3","","","82","main_expt"
"","bandit","162","621403","0.0-123.0-0.0","48563759","wem/bandit_either_2","A1JV64BL3WCK0G","either","7","514","","","","","","","0","1","0","","0.4288861504","0.6","0.4","0.2","0.8","0.3236436683","0.2819095575","0.4288861504","0.3719627038","","","","","","","","","","","","75","K","2","","","83","main_expt"
"","bandit","163","623830","0.0-124.0-0.0","48563759","wem/bandit_either_2","A1JV64BL3WCK0G","either","7","906","","","","","","","0","0","1","","0.4350385517","0.6","0.4","0.2","0.8","0.3339638593","0.2589745902","0.4350385517","0.3349288927","","","","","","","","","","","","75","K","2","","","84","main_expt"
"","bandit","164","626080","0.0-125.0-0.0","48563759","wem/bandit_either_2","A1JV64BL3WCK0G","either","7","742","","","","","","","0","1","0","","0.4255505645","0.6","0.4","0.2","0.8","0.3795022601","0.3626504113","0.4255505645","0.3247899262","","","","","","","","","","","","75","K","2","","","85","main_expt"
"","bandit","165","628961","0.0-126.0-0.0","48563759","wem/bandit_either_2","A1JV64BL3WCK0G","either","7","1372","","","","","","","0","0","1","","0.4330938692","0.6","0.4","0.2","0.8","0.3835523064","0.3598915268","0.4330938692","0.3443557019","","","","","","","","","","","","75","K","2","","","86","main_expt"
"","bandit","166","630634","0.0-127.0-0.0","48563759","wem/bandit_either_2","A1JV64BL3WCK0G","either","7","136","","","","","","","0","0","1","0.3648776167","","0.6","0.4","0.2","0.8","","","","","0.3772514457","0.3433052933","0.4548398529","0.3648776167","","","","","","","","76","L","3","","","87","main_expt"
"","bandit","167","632688","0.0-128.0-0.0","48563759","wem/bandit_either_2","A1JV64BL3WCK0G","either","7","533","","","","","","","0","0","1","","0.4493124031","0.6","0.4","0.2","0.8","0.3766830519","0.4022938878","0.4493124031","0.3609631839","","","","","","","","","","","","75","K","2","","","88","main_expt"
"","bandit","168","634763","0.0-129.0-0.0","48563759","wem/bandit_either_2","A1JV64BL3WCK0G","either","7","551","","","","","","","0","0","1","0.3636167192","","0.6","0.4","0.2","0.8","","","","","0.3537755119","0.4141493151","0.4161110063","0.3636167192","","","","","","","","76","L","3","","","89","main_expt"
"","bandit","169","636668","0.0-130.0-0.0","48563759","wem/bandit_either_2","A1JV64BL3WCK0G","either","7","383","","","","","","","0","0","1","","0.405260856","0.6","0.4","0.2","0.8","0.3014761449","0.4136124289","0.405260856","0.3563441379","","","","","","","","","","","","75","K","2","","","90","main_expt"
"","bandit","170","638653","0.0-131.0-0.0","48563759","wem/bandit_either_2","A1JV64BL3WCK0G","either","7","446","","","","","","","0","1","0","","0.3827048226","0.6","0.4","0.2","0.8","0.2694038268","0.4184852842","0.3827048226","0.3389138503","","","","","","","","","","","","75","K","2","","","91","main_expt"
"","bandit","171","641383","0.0-132.0-0.0","48563759","wem/bandit_either_2","A1JV64BL3WCK0G","either","7","1181","","","","","","","0","0","1","","0.3552182969","0.6","0.4","0.2","0.8","0.2651536323","0.4456808576","0.3552182969","0.3263360165","","","","","","","","","","","","75","K","2","","","92","main_expt"
"","bandit","172","644617","0.0-133.0-0.0","48563759","wem/bandit_either_2","A1JV64BL3WCK0G","either","7","1714","","","","","","","0","1","0","","0.2844131911","0.6","0.4","0.2","0.8","0.1997208586","0.4355219805","0.3286897504","0.2844131911","","","","","","","","","","","","76","L","3","","","93","main_expt"
"","bandit","173","647689","0.0-134.0-0.0","48563759","wem/bandit_either_2","A1JV64BL3WCK0G","either","7","1562","","","","","","","0","0","1","0.2978465223","","0.6","0.4","0.2","0.8","","","","","0.2442555344","0.4609821192","0.3422490236","0.2978465223","","","","","","","","76","L","3","","","94","main_expt"
"","bandit","174","651143","0.0-135.0-0.0","48563759","wem/bandit_either_2","A1JV64BL3WCK0G","either","7","1943","","","","","","","0","1","0","","0.3160161054","0.6","0.4","0.2","0.8","0.2638839348","0.4419374505","0.3160161054","0.2638723705","","","","","","","","","","","","75","K","2","","","95","main_expt"
"","bandit","175","654577","0.0-136.0-0.0","48563759","wem/bandit_either_2","A1JV64BL3WCK0G","either","7","1911","","","","","","","0","0","1","","0.2945538732","0.6","0.4","0.2","0.8","0.2265245807","0.39438674","0.2945538732","0.2276010735","","","","","","","","","","","","75","K","2","","","96","main_expt"
"","bandit","176","658083","0.0-137.0-0.0","48563759","wem/bandit_either_2","A1JV64BL3WCK0G","either","7","1979","","","","","","","0","0","1","","0.393563827","0.6","0.4","0.2","0.8","0.1969189177","0.3617668419","0.393563827","0.2045446072","","","","","","","","","","","","75","K","2","","","97","main_expt"
"","bandit","177","660693","0.0-138.0-0.0","48563759","wem/bandit_either_2","A1JV64BL3WCK0G","either","7","1079","","","","","","","0","0","1","0.2436418828","","0.6","0.4","0.2","0.8","","","","","0.1761144245","0.3737913853","0.4046254927","0.2436418828","","","","","","","","76","L","3","","","98","main_expt"
"","bandit","178","663008","0.0-139.0-0.0","48563759","wem/bandit_either_2","A1JV64BL3WCK0G","either","7","800","","","","","","","0","0","1","0.3659012549","","0.6","0.4","0.2","0.8","","","","","0.1211630765","0.4221129479","0.3659012549","0.2473144087","","","","","","","","75","K","2","","","99","main_expt"
"","bandit","179","665601","0.0-140.0-0.0","48563759","wem/bandit_either_2","A1JV64BL3WCK0G","either","7","1076","","","","","","","0","0","1","","0.400368336","0.6","0.4","0.2","0.8","0.1257326749","0.3857893684","0.400368336","0.2707360286","","","","","","","","","","","","75","K","2","","","100","main_expt"
"","bandit","180","667798","0.0-141.0-0.0","48563759","wem/bandit_either_2","A1JV64BL3WCK0G","either","7","668","","","","","","","0","0","1","","0.4367931528","0.6","0.4","0.2","0.8","0.09975532208","0.3635527264","0.4367931528","0.3250409822","","","","","","","","","","","","75","K","2","","","101","main_expt"
"","bandit","181","669845","0.0-142.0-0.0","48563759","wem/bandit_either_2","A1JV64BL3WCK0G","either","7","528","","","","","","","0","0","1","0.3088580598","","0.6","0.4","0.2","0.8","","","","","0.1127414424","0.3738375489","0.4371155326","0.3088580598","","","","","","","","76","L","3","","","102","main_expt"
"","bandit","182","672248","0.0-143.0-0.0","48563759","wem/bandit_either_2","A1JV64BL3WCK0G","either","7","896","","","","","","","1","0","0","0.3860163181","","0.6","0.4","0.2","0.8","","","","","0.1232600734","0.3860163181","0.388648264","0.2901001995","","","","","","","","74","J","1","","","103","main_expt"
"","bandit","183","674137","0.0-144.0-0.0","48563759","wem/bandit_either_2","A1JV64BL3WCK0G","either","7","373","","","","","","","0","1","0","","0.390692362","0.6","0.4","0.2","0.8","0.08156843846","0.390692362","0.3718469433","0.309645936","","","","","","","","","","","","74","J","1","","","104","main_expt"
"","bandit","184","676102","0.0-145.0-0.0","48563759","wem/bandit_either_2","A1JV64BL3WCK0G","either","7","449","","","","","","","0","0","1","","0.4139082553","0.6","0.4","0.2","0.8","0.08245659199","0.4139082553","0.3920304628","0.3386062745","","","","","","","","","","","","74","J","1","","","105","main_expt"
"","bandit","185","678483","0.0-146.0-0.0","48563759","wem/bandit_either_2","A1JV64BL3WCK0G","either","7","860","","","","","","","1","0","0","0.3295275825","","0.6","0.4","0.2","0.8","","","","","0.1276639339","0.3295275825","0.3733497125","0.3827539061","","","","","","","","74","J","1","","","106","main_expt"
"","bandit","186","680804","0.0-147.0-0.0","48563759","wem/bandit_either_2","A1JV64BL3WCK0G","either","7","797","","","","","","","1","0","0","0.3499712774","","0.6","0.4","0.2","0.8","","","","","0.1812689745","0.3499712774","0.3878439861","0.3401355396","","","","","","","","74","J","1","","","107","main_expt"
"","bandit","187","682840","0.0-148.0-0.0","48563759","wem/bandit_either_2","A1JV64BL3WCK0G","either","7","528","","","","","","","0","0","1","0.2666891207","","0.6","0.4","0.2","0.8","","","","","0.2187982558","0.2666891207","0.3529013302","0.3258039352","","","","","","","","74","J","1","","","108","main_expt"
"","bandit","188","684906","0.0-149.0-0.0","48563759","wem/bandit_either_2","A1JV64BL3WCK0G","either","7","545","","","","","","","0","0","1","","0.2575067634","0.6","0.4","0.2","0.8","0.2201216928","0.2575067634","0.3457683734","0.374919859","","","","","","","","","","","","74","J","1","","","109","main_expt"
"","bandit","189","686855","0.0-150.0-0.0","48563759","wem/bandit_either_2","A1JV64BL3WCK0G","either","7","430","","","","","","","0","0","1","0.2664913793","","0.6","0.4","0.2","0.8","","","","","0.1789817232","0.2664913793","0.3316873257","0.3656186065","","","","","","","","74","J","1","","","110","main_expt"
"","bandit","190","688506","0.0-151.0-0.0","48563759","wem/bandit_either_2","A1JV64BL3WCK0G","either","7","110","","","","","","","0","0","1","0.3434945318","","0.6","0.4","0.2","0.8","","","","","0.2404947452","0.2233446911","0.3434945318","0.3649701027","","","","","","","","75","K","2","","","111","main_expt"
"","bandit","191","690119","0.0-152.0-0.0","48563759","wem/bandit_either_2","A1JV64BL3WCK0G","either","7","90","","","","","","","0","0","1","0.2959558532","","0.6","0.4","0.2","0.8","","","","","0.2959558532","0.2170082082","0.2729480053","0.3371716456","","","","","","","","72","H","0","img/none_selected.jpg","","112","main_expt"
"","bandit","192","691822","0.0-153.0-0.0","48563759","wem/bandit_either_2","A1JV64BL3WCK0G","either","7","189","","","","","","","0","1","0","","0.2587224119","0.6","0.4","0.2","0.8","0.2966985553","0.1912277411","0.2579672073","0.2587224119","","","","","","","","","","","","76","L","3","","","113","main_expt"
"","bandit","193","693984","0.0-154.0-0.0","48563759","wem/bandit_either_2","A1JV64BL3WCK0G","either","7","649","","","","","","","0","0","1","","0.2384324947","0.6","0.4","0.2","0.8","0.3289730608","0.1691995451","0.24654084","0.2384324947","","","","","","","","","","","","76","L","3","","","114","main_expt"
"","bandit","194","696137","0.0-155.0-0.0","48563759","wem/bandit_either_2","A1JV64BL3WCK0G","either","7","643","","","","","","","0","1","0","","0.2705755989","0.6","0.4","0.2","0.8","0.2783705844","0.1263730162","0.246649757","0.2705755989","","","","","","","","","","","","76","L","3","","","115","main_expt"
"","bandit","195","698382","0.0-156.0-0.0","48563759","wem/bandit_either_2","A1JV64BL3WCK0G","either","7","728","","","","","","","0","0","1","0.2666822","","0.6","0.4","0.2","0.8","","","","","0.2990421824","0.1130092975","0.2190482835","0.2666822","","","","","","","","76","L","3","","","116","main_expt"
"","bandit","196","701816","0.0-157.0-0.0","48563759","wem/bandit_either_2","A1JV64BL3WCK0G","either","7","1924","","","","","","","0","0","1","","0.1317362661","0.6","0.4","0.2","0.8","0.3214730448","0.1317362661","0.1860086181","0.2664749026","","","","","","","","","","","","74","J","1","","","117","main_expt"
"","bandit","197","703544","0.0-158.0-0.0","48563759","wem/bandit_either_2","A1JV64BL3WCK0G","either","7","196","","","","","","","0","0","1","0.285497096","","0.6","0.4","0.2","0.8","","","","","0.3996160597","0.08460291254","0.1765749983","0.285497096","","","","","","","","76","L","3","","","118","main_expt"
"","bandit","198","705465","0.0-159.0-0.0","48563759","wem/bandit_either_2","A1JV64BL3WCK0G","either","7","390","","","","","","","0","0","1","","0.1840588368","0.6","0.4","0.2","0.8","0.4143362638","0.09168363065","0.1840588368","0.3004427434","","","","","","","","","","","","75","K","2","","","119","main_expt"
"","bandit","199","707472","0.0-160.0-0.0","48563759","wem/bandit_either_2","A1JV64BL3WCK0G","either","7","481","","","","","","","0","0","1","","0.06729372802","0.6","0.4","0.2","0.8","0.372340151","0.06729372802","0.1988357929","0.2419855731","","","","","","","","","","","","74","J","1","","","120","main_expt"
"","bandit","200","709311","0.0-161.0-0.0","48563759","wem/bandit_either_2","A1JV64BL3WCK0G","either","7","313","","","","","","","0","0","1","0.3910424524","","0.6","0.4","0.2","0.8","","","","","0.3910424524","0.08346408207","0.2315674","0.3054132847","","","","","","","","72","H","0","img/none_selected.jpg","","121","main_expt"
"","bandit","201","711223","0.0-162.0-0.0","48563759","wem/bandit_either_2","A1JV64BL3WCK0G","either","7","389","","","","","","","1","0","0","0.2473202095","","0.6","0.4","0.2","0.8","","","","","0.3813410711","0.05632743158","0.2041322171","0.2473202095","","","","","","","","76","L","3","","","122","main_expt"
"","bandit","202","713272","0.0-163.0-0.0","48563759","wem/bandit_either_2","A1JV64BL3WCK0G","either","7","538","","","","","","","0","0","1","0.2909195989","","0.6","0.4","0.2","0.8","","","","","0.4247291795","0.05516745574","0.1945268209","0.2909195989","","","","","","","","76","L","3","","","123","main_expt"
"","bandit","203","715248","0.0-164.0-0.0","48563759","wem/bandit_either_2","A1JV64BL3WCK0G","either","7","467","","","","","","","0","1","0","","0.3493750294","0.6","0.4","0.2","0.8","0.4311179713","0.05528311039","0.2206749142","0.3493750294","","","","","","","","","","","","76","L","3","","","124","main_expt"
"","bandit","204","717532","0.0-165.0-0.0","48563759","wem/bandit_either_2","A1JV64BL3WCK0G","either","7","758","","","","","","","1","0","0","0.3883668019","","0.6","0.4","0.2","0.8","","","","","0.4085782939","0.07149807259","0.212012295","0.3883668019","","","","","","","","76","L","3","","","125","main_expt"
"","bandit","205","719930","0.0-166.0-0.0","48563759","wem/bandit_either_2","A1JV64BL3WCK0G","either","7","872","","","","","","","1","0","0","0.3888129637","","0.6","0.4","0.2","0.8","","","","","0.4110861309","0.1137803622","0.1656684785","0.3888129637","","","","","","","","76","L","3","","","126","main_expt"
"","bandit","206","722097","0.0-167.0-0.0","48563759","wem/bandit_either_2","A1JV64BL3WCK0G","either","7","655","","","","","","","1","0","0","0.3659195129","","0.6","0.4","0.2","0.8","","","","","0.4214671818","0.1003054442","0.1685301808","0.3659195129","","","","","","","","76","L","3","","","127","main_expt"
"","bandit","207","724247","0.0-168.0-0.0","48563759","wem/bandit_either_2","A1JV64BL3WCK0G","either","7","640","","","","","","","0","1","0","","0.3689954399","0.6","0.4","0.2","0.8","0.36889317","0.1378169536","0.1703551811","0.3689954399","","","","","","","","","","","","76","L","3","","","128","main_expt"
"","bandit","208","726812","0.0-169.0-0.0","48563759","wem/bandit_either_2","A1JV64BL3WCK0G","either","7","1049","","","","","","","0","0","1","0.3600340942","","0.6","0.4","0.2","0.8","","","","","0.3840267129","0.1333081235","0.1624753709","0.3600340942","","","","","","","","76","L","3","","","129","main_expt"
"","bandit","209","728745","0.0-170.0-0.0","48563759","wem/bandit_either_2","A1JV64BL3WCK0G","either","7","409","","","","","","","1","0","0","0.3580797835","","0.6","0.4","0.2","0.8","","","","","0.3809677701","0.1682212827","0.2335662737","0.3580797835","","","","","","","","76","L","3","","","130","main_expt"
"","bandit","210","731088","0.0-171.0-0.0","48563759","wem/bandit_either_2","A1JV64BL3WCK0G","either","7","832","","","","","","","0","0","1","0.3785893338","","0.6","0.4","0.2","0.8","","","","","0.3681933818","0.2193829955","0.240441026","0.3785893338","","","","","","","","76","L","3","","","131","main_expt"
"","bandit","211","733189","0.0-172.0-0.0","48563759","wem/bandit_either_2","A1JV64BL3WCK0G","either","7","590","","","","","","","1","0","0","0.3764735404","","0.6","0.4","0.2","0.8","","","","","0.3664045944","0.2693349046","0.2266699971","0.3764735404","","","","","","","","76","L","3","","","132","main_expt"
"","bandit","212","735547","0.0-173.0-0.0","48563759","wem/bandit_either_2","A1JV64BL3WCK0G","either","7","833","","","","","","","0","0","1","0.3433534211","","0.6","0.4","0.2","0.8","","","","","0.4046437197","0.2576546077","0.1994193025","0.3433534211","","","","","","","","76","L","3","","","133","main_expt"
"","bandit","213","737777","0.0-174.0-0.0","48563759","wem/bandit_either_2","A1JV64BL3WCK0G","either","7","708","","","","","","","0","0","1","","0.3606247271","0.6","0.4","0.2","0.8","0.364490756","0.2412372273","0.1891464922","0.3606247271","","","","","","","","","","","","76","L","3","","","134","main_expt"
"","bandit","214","740202","0.0-175.0-0.0","48563759","wem/bandit_either_2","A1JV64BL3WCK0G","either","7","905","","","","","","","0","1","0","","0.3268624306","0.6","0.4","0.2","0.8","0.311914316","0.2198641054","0.1614798668","0.3268624306","","","","","","","","","","","","76","L","3","","","135","main_expt"
"","bandit","215","742457","0.0-176.0-0.0","48563759","wem/bandit_either_2","A1JV64BL3WCK0G","either","7","707","","","","","","","0","0","1","","0.2854606769","0.6","0.4","0.2","0.8","0.2653901568","0.2504132697","0.1880386222","0.2854606769","","","","","","","","","","","","76","L","3","","","136","main_expt"
"","bandit","216","744527","0.0-177.0-0.0","48563759","wem/bandit_either_2","A1JV64BL3WCK0G","either","7","530","","","","","","","0","0","1","","0.3311747399","0.6","0.4","0.2","0.8","0.2413295316","0.1912230989","0.1961818793","0.3311747399","","","","","","","","","","","","76","L","3","","","137","main_expt"
"","bandit","217","746898","0.0-178.0-0.0","48563759","wem/bandit_either_2","A1JV64BL3WCK0G","either","7","838","","","","","","","0","0","1","0.2570785188","","0.6","0.4","0.2","0.8","","","","","0.2060295423","0.1576256809","0.2857678963","0.2570785188","","","","","","","","76","L","3","","","138","main_expt"
"","bandit","218","749565","0.0-179.0-0.0","48563759","wem/bandit_either_2","A1JV64BL3WCK0G","either","7","1125","","","","","","","1","0","0","0.2858060749","","0.6","0.4","0.2","0.8","","","","","0.1809645164","0.1019788138","0.3449131854","0.2858060749","","","","","","","","76","L","3","","","139","main_expt"
"","bandit","219","753033","0.0-180.0-0.0","48563759","wem/bandit_either_2","A1JV64BL3WCK0G","either","7","1937","","","","","","","0","0","1","0.2975559752","","0.6","0.4","0.2","0.8","","","","","0.1843216893","0.07754087054","0.2537716732","0.2975559752","","","","","","","","76","L","3","","","140","main_expt"
"","bandit","220","755556","0.0-181.0-0.0","48563759","wem/bandit_either_2","A1JV64BL3WCK0G","either","7","983","","","","","","","0","1","0","","0.09489610577","0.6","0.4","0.2","0.8","0.1651876155","0.09489610577","0.2858111263","0.2802168405","","","","","","","","","","","","74","J","1","","","141","main_expt"
"","bandit","221","758041","0.0-182.0-0.0","48563759","wem/bandit_either_2","A1JV64BL3WCK0G","either","7","949","","","","","","","0","0","1","","0.09601428546","0.6","0.4","0.2","0.8","0.1536427928","0.09601428546","0.303049367","0.2231986748","","","","","","","","","","","","74","J","1","","","142","main_expt"
"","bandit","222","759918","0.0-183.0-0.0","48563759","wem/bandit_either_2","A1JV64BL3WCK0G","either","7","365","","","","","","","0","0","1","0.2032880393","","0.6","0.4","0.2","0.8","","","","","0.1546140226","0.08301142993","0.2969419413","0.2032880393","","","","","","","","76","L","3","","","143","main_expt"
"","bandit","223","761887","0.0-184.0-0.0","48563759","wem/bandit_either_2","A1JV64BL3WCK0G","either","7","459","","","","","","","0","0","1","0.3128690494","","0.6","0.4","0.2","0.8","","","","","0.1746031107","0.09599686985","0.3128690494","0.1967741464","","","","","","","","75","K","2","","","144","main_expt"
"","bandit","224","763966","0.0-185.0-0.0","48563759","wem/bandit_either_2","A1JV64BL3WCK0G","either","7","566","","","","","","","0","0","1","","0.2021387556","0.6","0.4","0.2","0.8","0.2021387556","0.07499383622","0.2991796355","0.2283154954","","","","","","","","","","","","72","H","0","img/none_selected.jpg","","145","main_expt"
"","bandit","225","765570","0.0-186.0-0.0","48563759","wem/bandit_either_2","A1JV64BL3WCK0G","either","7","86","","","","","","","0","0","1","0.09566861","","0.6","0.4","0.2","0.8","","","","","0.2504344391","0.09566861","0.3163763193","0.2118700154","","","","","","","","74","J","1","","","146","main_expt"
"","bandit","226","767314","0.0-187.0-0.0","48563759","wem/bandit_either_2","A1JV64BL3WCK0G","either","7","218","","","","","","","1","0","0","0.210437557","","0.6","0.4","0.2","0.8","","","","","0.2437718569","0.08578591382","0.3198025905","0.210437557","","","","","","","","76","L","3","","","147","main_expt"
"","bandit","227","769436","0.0-188.0-0.0","48563759","wem/bandit_either_2","A1JV64BL3WCK0G","either","7","607","","","","","","","0","0","1","0.2370661354","","0.6","0.4","0.2","0.8","","","","","0.2446677265","0.1147887709","0.2588245921","0.2370661354","","","","","","","","76","L","3","","","148","main_expt"
"","bandit","228","772209","0.0-189.0-0.0","48563759","wem/bandit_either_2","A1JV64BL3WCK0G","either","7","1252","","","","","","","1","0","0","0.2430363771","","0.6","0.4","0.2","0.8","","","","","0.2911002833","0.1378203382","0.248712437","0.2430363771","","","","","","","","76","L","3","","","149","main_expt"
"","bandit","229","774579","0.0-190.0-0.0","48563759","wem/bandit_either_2","A1JV64BL3WCK0G","either","7","823","","","","","","","0","0","1","","0.2242182381","0.6","0.4","0.2","0.8","0.3529655025","0.1414499273","0.179144869","0.2242182381","","","","","","","","","","","","76","L","3","","","150","main_expt"
"","bandit","230","776919","0.0-191.0-0.0","48563759","wem/bandit_either_2","A1JV64BL3WCK0G","either","7","795","","","","","","","0","0","1","0.1997145133","","0.6","0.4","0.2","0.8","","","","","0.3885741111","0.07852348772","0.1545669956","0.1997145133","","","","","","","","76","L","3","","","151","main_expt"
"","bandit","231","778583","0.0-192.0-0.0","48563759","wem/bandit_either_2","A1JV64BL3WCK0G","either","7","136","","","","","","","0","0","1","","0.08485793113","0.6","0.4","0.2","0.8","0.3690499696","0.08485793113","0.1651714415","0.2195927633","","","","","","","","","","","","74","J","1","","","152","main_expt"
"","bandit","232","780200","0.0-193.0-0.0","48563759","wem/bandit_either_2","A1JV64BL3WCK0G","either","7","84","","","","","","","0","0","1","","0.2396245514","0.6","0.4","0.2","0.8","0.3710492515","0.1083789561","0.2396245514","0.2121816628","","","","","","","","","","","","75","K","2","","","153","main_expt"
"","bandit","233","782193","0.0-194.0-0.0","48563759","wem/bandit_either_2","A1JV64BL3WCK0G","either","7","475","","","","","","","0","0","1","","0.3483335413","0.6","0.4","0.2","0.8","0.3483335413","0.109098481","0.2085838567","0.1830588608","","","","","","","","","","","","72","H","0","img/none_selected.jpg","","154","main_expt"
"","bandit","234","783822","0.0-195.0-0.0","48563759","wem/bandit_either_2","A1JV64BL3WCK0G","either","7","112","","","","","","","0","0","1","0.2031423662","","0.6","0.4","0.2","0.8","","","","","0.3343760247","0.1758262092","0.1864274254","0.2031423662","","","","","","","","76","L","3","","","155","main_expt"
"","bandit","235","785366","0.0-196.0-0.0","48563759","wem/bandit_either_2","A1JV64BL3WCK0G","either","7","29","","","","","","","0","0","1","","0.2046597001","0.6","0.4","0.2","0.8","0.3742013553","0.2046597001","0.1750870897","0.2022731065","","","","","","","","","","","","74","J","1","","","156","main_expt"
"","bandit","236","787280","0.0-197.0-0.0","48563759","wem/bandit_either_2","A1JV64BL3WCK0G","either","7","390","","","","","","","0","0","1","0.1826661219","","0.6","0.4","0.2","0.8","","","","","0.3620366094","0.1774751899","0.1321985386","0.1826661219","","","","","","","","76","L","3","","","157","main_expt"
"","bandit","237","789072","0.0-198.0-0.0","48563759","wem/bandit_either_2","A1JV64BL3WCK0G","either","7","280","","","","","","","0","1","0","","0.1612033886","0.6","0.4","0.2","0.8","0.3671714071","0.1612033886","0.1341899746","0.1658993888","","","","","","","","","","","","74","J","1","","","158","main_expt"
"","bandit","238","791002","0.0-199.0-0.0","48563759","wem/bandit_either_2","A1JV64BL3WCK0G","either","7","416","","","","","","","0","0","1","0.1586838935","","0.6","0.4","0.2","0.8","","","","","0.4015988616","0.1586838935","0.1567784951","0.1620079643","","","","","","","","74","J","1","","","159","main_expt"
"","bandit","239","792684","0.0-200.0-0.0","48563759","wem/bandit_either_2","A1JV64BL3WCK0G","either","7","127","","","","","","","0","0","1","","0.2453635642","0.6","0.4","0.2","0.8","0.4004877553","0.2159944071","0.1615549635","0.2453635642","","","","","","","","","","","","76","L","3","","","160","main_expt"
"","bandit","240","794347","0.0-201.0-0.0","48563759","wem/bandit_either_2","A1JV64BL3WCK0G","either","7","136","","","","","","","0","0","1","","0.2105769377","0.6","0.4","0.2","0.8","0.4095849454","0.2105769377","0.1854631015","0.2456373749","","","","","","","","","","","","74","J","1","","","161","main_expt"
"","bandit","241","796015","0.0-202.0-0.0","48563759","wem/bandit_either_2","A1JV64BL3WCK0G","either","7","153","","","","","","","0","0","1","0.2460125232","","0.6","0.4","0.2","0.8","","","","","0.3978002783","0.2006925765","0.21229469","0.2460125232","","","","","","","","76","L","3","","","162","main_expt"
"","bandit","242","797602","0.0-203.0-0.0","48563759","wem/bandit_either_2","A1JV64BL3WCK0G","either","7","61","","","","","","","0","1","0","","0.2365124807","0.6","0.4","0.2","0.8","0.4180552148","0.2365124807","0.162194177","0.2013568893","","","","","","","","","","","","74","J","1","","","163","main_expt"
"","bandit","243","799747","0.0-204.0-0.0","48563759","wem/bandit_either_2","A1JV64BL3WCK0G","either","7","605","","","","","","","0","1","0","","0.2157370886","0.6","0.4","0.2","0.8","0.4407560021","0.2157370886","0.1535707797","0.1933595846","","","","","","","","","","","","74","J","1","","","164","main_expt"
"","bandit","244","801749","0.0-205.0-0.0","48563759","wem/bandit_either_2","A1JV64BL3WCK0G","either","7","467","","","","","","","0","0","1","","0.2166787898","0.6","0.4","0.2","0.8","0.4582960521","0.2166787898","0.2315934193","0.167552211","","","","","","","","","","","","74","J","1","","","165","main_expt"
"","bandit","245","803504","0.0-206.0-0.0","48563759","wem/bandit_either_2","A1JV64BL3WCK0G","either","7","221","","","","","","","0","0","1","0.1311237951","","0.6","0.4","0.2","0.8","","","","","0.4337500892","0.1846262972","0.2579087381","0.1311237951","","","","","","","","76","L","3","","","166","main_expt"
"","bandit","246","805486","0.0-207.0-0.0","48563759","wem/bandit_either_2","A1JV64BL3WCK0G","either","7","454","","","","","","","0","0","1","","0.2496457694","0.6","0.4","0.2","0.8","0.4537582576","0.1888750078","0.2496457694","0.1714029316","","","","","","","","","","","","75","K","2","","","167","main_expt"
"","bandit","247","807351","0.0-208.0-0.0","48563759","wem/bandit_either_2","A1JV64BL3WCK0G","either","7","354","","","","","","","0","0","1","","0.2315683769","0.6","0.4","0.2","0.8","0.4473485534","0.2315683769","0.234558796","0.1494402723","","","","","","","","","","","","74","J","1","","","168","main_expt"
"","bandit","248","809472","0.0-209.0-0.0","48563759","wem/bandit_either_2","A1JV64BL3WCK0G","either","7","592","","","","","","","0","0","1","","0.4471591033","0.6","0.4","0.2","0.8","0.4471591033","0.2018123945","0.2458600006","0.1819888556","","","","","","","","","","","","72","H","0","img/none_selected.jpg","","169","main_expt"
"","bandit","249","811084","0.0-210.0-0.0","48563759","wem/bandit_either_2","A1JV64BL3WCK0G","either","7","82","","","","","","","0","1","0","","0.2329206984","0.6","0.4","0.2","0.8","0.4581839475","0.139238222","0.2214583157","0.2329206984","","","","","","","","","","","","76","L","3","","","170","main_expt"
"","bandit","250","813145","0.0-211.0-0.0","48563759","wem/bandit_either_2","A1JV64BL3WCK0G","either","7","542","","","","","","","0","0","1","0.2000607923","","0.6","0.4","0.2","0.8","","","","","0.4674995421","0.1466511374","0.296208115","0.2000607923","","","","","","","","76","L","3","","","171","main_expt"
"","bandit","251","815213","0.0-212.0-0.0","48563759","wem/bandit_either_2","A1JV64BL3WCK0G","either","7","542","","","","","","","1","0","0","0.2342957318","","0.6","0.4","0.2","0.8","","","","","0.4455620345","0.1348290388","0.3062379281","0.2342957318","","","","","","","","76","L","3","","","172","main_expt"
"","bandit","252","817198","0.0-213.0-0.0","48563759","wem/bandit_either_2","A1JV64BL3WCK0G","either","7","469","","","","","","","0","1","0","","0.2189308077","0.6","0.4","0.2","0.8","0.4471610379","0.1521691919","0.2498067723","0.2189308077","","","","","","","","","","","","76","L","3","","","173","main_expt"
"","bandit","253","819273","0.0-214.0-0.0","48563759","wem/bandit_either_2","A1JV64BL3WCK0G","either","7","558","","","","","","","1","0","0","0.2373932689","","0.6","0.4","0.2","0.8","","","","","0.4496576915","0.2191935525","0.1803522277","0.2373932689","","","","","","","","76","L","3","","","174","main_expt"
"","bandit","254","820998","0.0-215.0-0.0","48563759","wem/bandit_either_2","A1JV64BL3WCK0G","either","7","215","","","","","","","1","0","0","0.2160264752","","0.6","0.4","0.2","0.8","","","","","0.4715297358","0.219961305","0.2014319342","0.2160264752","","","","","","","","76","L","3","","","175","main_expt"
"","bandit","255","822681","0.0-216.0-0.0","48563759","wem/bandit_either_2","A1JV64BL3WCK0G","either","7","168","","","","","","","0","0","1","","0.1990604306","0.6","0.4","0.2","0.8","0.477956151","0.1882485239","0.2122003168","0.1990604306","","","","","","","","","","","","76","L","3","","","176","main_expt"
"","bandit","256","824660","0.0-217.0-0.0","48563759","wem/bandit_either_2","A1JV64BL3WCK0G","either","7","440","","","","","","","0","0","1","0.1729978196","","0.6","0.4","0.2","0.8","","","","","0.4563721206","0.1644902553","0.2629069455","0.1729978196","","","","","","","","76","L","3","","","177","main_expt"
"","bandit","257","826663","0.0-218.0-0.0","48563759","wem/bandit_either_2","A1JV64BL3WCK0G","either","7","472","","","","","","","0","0","1","0.1633080779","","0.6","0.4","0.2","0.8","","","","","0.4409869931","0.1713669852","0.2336104206","0.1633080779","","","","","","","","76","L","3","","","178","main_expt"
"","bandit","258","828270","0.0-219.0-0.0","48563759","wem/bandit_either_2","A1JV64BL3WCK0G","either","7","79","","","","","","","0","0","1","0.2263400462","","0.6","0.4","0.2","0.8","","","","","0.4243126063","0.2263400462","0.1887504226","0.1243251356","","","","","","","","74","J","1","","","179","main_expt"
"","bandit","259","830222","0.0-220.0-0.0","48563759","wem/bandit_either_2","A1JV64BL3WCK0G","either","7","443","","","","","","","0","0","1","","0.138376641","0.6","0.4","0.2","0.8","0.4312830743","0.2036870175","0.138376641","0.1150149055","","","","","","","","","","","","75","K","2","","","180","main_expt"
"","bandit","260","832083","0.0-221.0-0.0","48563759","wem/bandit_either_2","A1JV64BL3WCK0G","either","7","347","","","","","","","0","0","1","","0.1407924877","0.6","0.4","0.2","0.8","0.4433127893","0.1934599198","0.1883992559","0.1407924877","","","","","","","","","","","","76","L","3","","","181","main_expt"
"","bandit","261","834158","0.0-222.0-0.0","48563759","wem/bandit_either_2","A1JV64BL3WCK0G","either","7","561","","","","","","","0","1","0","","0.440136403","0.6","0.4","0.2","0.8","0.440136403","0.2424515525","0.128889003","0.09672650852","","","","","","","","","","","","72","H","0","img/none_selected.jpg","","182","main_expt"
"","bandit","262","836159","0.0-223.0-0.0","48563759","wem/bandit_either_2","A1JV64BL3WCK0G","either","7","488","","","","","","","0","0","1","0.4347693449","","0.6","0.4","0.2","0.8","","","","","0.4347693449","0.1961777535","0.1748769843","0.09888002855","","","","","","","","72","H","0","img/none_selected.jpg","","183","main_expt"
"","bandit","263","838262","0.0-224.0-0.0","48563759","wem/bandit_either_2","A1JV64BL3WCK0G","either","7","584","","","","","","","0","0","1","0.4277130926","","0.6","0.4","0.2","0.8","","","","","0.4277130926","0.1489283113","0.1945994373","0.07200145298","","","","","","","","72","H","0","img/none_selected.jpg","","184","main_expt"
"","bandit","264","840357","0.0-225.0-0.0","48563759","wem/bandit_either_2","A1JV64BL3WCK0G","either","7","578","","","","","","","0","0","1","0.3956248437","","0.6","0.4","0.2","0.8","","","","","0.3956248437","0.1499965078","0.1644748654","0.09476413333","","","","","","","","72","H","0","img/none_selected.jpg","","185","main_expt"
"","bandit","265","842564","0.0-226.0-0.0","48563759","wem/bandit_either_2","A1JV64BL3WCK0G","either","7","677","","","","","","","0","0","1","0.06556422103","","0.6","0.4","0.2","0.8","","","","","0.3748928266","0.2169832988","0.1504635592","0.06556422103","","","","","","","","76","L","3","","","186","main_expt"
"","bandit","266","844764","0.0-227.0-0.0","48563759","wem/bandit_either_2","A1JV64BL3WCK0G","either","7","648","","","","","","","0","0","1","0.1760039214","","0.6","0.4","0.2","0.8","","","","","0.3848139325","0.2655186329","0.1760039214","0.08901149072","","","","","","","","75","K","2","","","187","main_expt"
"","bandit","267","846587","0.0-228.0-0.0","48563759","wem/bandit_either_2","A1JV64BL3WCK0G","either","7","268","","","","","","","0","0","1","","0.2738785118","0.6","0.4","0.2","0.8","0.3990176401","0.2738785118","0.1203267588","0.09471428588","","","","","","","","","","","","74","J","1","","","188","main_expt"
"","bandit","268","848770","0.0-229.0-0.0","48563759","wem/bandit_either_2","A1JV64BL3WCK0G","either","7","652","","","","","","","0","0","1","0.3581396838","","0.6","0.4","0.2","0.8","","","","","0.3581396838","0.3041874674","0.1171540391","0.05118235823","","","","","","","","72","H","0","img/none_selected.jpg","","189","main_expt"
"","bandit","269","850716","0.0-230.0-0.0","48563759","wem/bandit_either_2","A1JV64BL3WCK0G","either","7","433","","","","","","","0","0","1","0.05788318751","","0.6","0.4","0.2","0.8","","","","","0.2882972244","0.3229453735","0.1535230761","0.05788318751","","","","","","","","76","L","3","","","190","main_expt"
"","bandit","270","852597","0.0-231.0-0.0","48563759","wem/bandit_either_2","A1JV64BL3WCK0G","either","7","343","","","","","","","0","0","1","","0.1372750947","0.6","0.4","0.2","0.8","0.3145326233","0.3818249757","0.1372750947","0.08736915481","","","","","","","","","","","","75","K","2","","","191","main_expt"
"","bandit","271","854919","0.0-232.0-0.0","48563759","wem/bandit_either_2","A1JV64BL3WCK0G","either","7","792","","","","","","","1","0","0","0.4157726243","","0.6","0.4","0.2","0.8","","","","","0.3270603702","0.4157726243","0.1047771501","0.08251019118","","","","","","","","74","J","1","","","192","main_expt"
"","bandit","272","856959","0.0-233.0-0.0","48563759","wem/bandit_either_2","A1JV64BL3WCK0G","either","7","527","","","","","","","0","0","1","0.4611608212","","0.6","0.4","0.2","0.8","","","","","0.3604030797","0.4611608212","0.1100845432","0.06897628064","","","","","","","","74","J","1","","","193","main_expt"
"","bandit","273","859168","0.0-234.0-0.0","48563759","wem/bandit_either_2","A1JV64BL3WCK0G","either","7","682","","","","","","","0","1","0","","0.4508818777","0.6","0.4","0.2","0.8","0.357423186","0.4508818777","0.1468163818","0.06801266305","","","","","","","","","","","","74","J","1","","","194","main_expt"
"","bandit","274","861531","0.0-235.0-0.0","48563759","wem/bandit_either_2","A1JV64BL3WCK0G","either","7","824","","","","","","","0","1","0","","0.4278921451","0.6","0.4","0.2","0.8","0.3697779856","0.4278921451","0.1495594621","0.09923709358","","","","","","","","","","","","74","J","1","","","195","main_expt"
"","bandit","275","863775","0.0-236.0-0.0","48563759","wem/bandit_either_2","A1JV64BL3WCK0G","either","7","735","","","","","","","0","1","0","","0.4256293003","0.6","0.4","0.2","0.8","0.3617177512","0.4256293003","0.2263220537","0.1103063831","","","","","","","","","","","","74","J","1","","","196","main_expt"
"","bandit","276","866211","0.0-237.0-0.0","48563759","wem/bandit_either_2","A1JV64BL3WCK0G","either","7","919","","","","","","","0","0","1","0.4476975038","","0.6","0.4","0.2","0.8","","","","","0.3775990084","0.4476975038","0.2204718804","0.07377144043","","","","","","","","74","J","1","","","197","main_expt"
"","bandit","277","869062","0.0-238.0-0.0","48563759","wem/bandit_either_2","A1JV64BL3WCK0G","either","7","1318","","","","","","","0","1","0","","0.4434357272","0.6","0.4","0.2","0.8","0.4144042571","0.4434357272","0.2401118457","0.08863448313","","","","","","","","","","","","74","J","1","","","198","main_expt"
"","bandit","278","872795","0.0-239.0-0.0","48563759","wem/bandit_either_2","A1JV64BL3WCK0G","either","7","2216","","","","","","","0","0","1","","0.4245114622","0.6","0.4","0.2","0.8","0.4081775392","0.4245114622","0.2673724497","0.1082179128","","","","","","","","","","","","74","J","1","","","199","main_expt"
"","bandit","279","875327","0.0-240.0-0.0","48563759","wem/bandit_either_2","A1JV64BL3WCK0G","either","7","1000","","","","","","","0","0","1","0.4087100315","","0.6","0.4","0.2","0.8","","","","","0.4166156547","0.4087100315","0.3125307902","0.09350688576","","","","","","","","74","J","1","","","200","main_expt"
"","bandit","280","877319","0.0-241.0-0.0","48563759","wem/bandit_either_2","A1JV64BL3WCK0G","either","7","481","","","","","","","0","0","1","0.1036625099","","0.6","0.4","0.2","0.8","","","","","0.4306537176","0.4361521275","0.2914574258","0.1036625099","","","","","","","","76","L","3","","","201","main_expt"
"","bandit","281","879184","0.0-242.0-0.0","48563759","wem/bandit_either_2","A1JV64BL3WCK0G","either","7","339","","","","","","","0","0","1","","0.3332596158","0.6","0.4","0.2","0.8","0.449382563","0.3332596158","0.2550600684","0.1216733889","","","","","","","","","","","","74","J","1","","","202","main_expt"
"","bandit","282","881033","0.0-243.0-0.0","48563759","wem/bandit_either_2","A1JV64BL3WCK0G","either","7","335","","","","","","","0","0","1","","0.2769745997","0.6","0.4","0.2","0.8","0.4506576586","0.3581848779","0.2769745997","0.120655788","","","","","","","","","","","","75","K","2","","","203","main_expt"
"","bandit","283","882851","0.0-244.0-0.0","48563759","wem/bandit_either_2","A1JV64BL3WCK0G","either","7","307","","","","","","","0","0","1","0.1082970726","","0.6","0.4","0.2","0.8","","","","","0.454839243","0.3597133043","0.2752990059","0.1082970726","","","","","","","","76","L","3","","","204","main_expt"
"","bandit","284","884733","0.0-245.0-0.0","48563759","wem/bandit_either_2","A1JV64BL3WCK0G","either","7","365","","","","","","","0","0","1","0.4512889682","","0.6","0.4","0.2","0.8","","","","","0.4512889682","0.3630183988","0.2901512169","0.09143681274","","","","","","","","72","H","0","img/none_selected.jpg","","205","main_expt"
"","bandit","285","886323","0.0-246.0-0.0","48563759","wem/bandit_either_2","A1JV64BL3WCK0G","either","7","64","","","","","","","0","1","0","","0.3737494834","0.6","0.4","0.2","0.8","0.4591490044","0.3737494834","0.2823763913","0.08377413986","","","","","","","","","","","","74","J","1","","","206","main_expt"
"","bandit","286","888801","0.0-247.0-0.0","48563759","wem/bandit_either_2","A1JV64BL3WCK0G","either","7","942","","","","","","","0","1","0","","0.3668784438","0.6","0.4","0.2","0.8","0.4650593633","0.3668784438","0.2708062506","0.1585073664","","","","","","","","","","","","74","J","1","","","207","main_expt"
"","bandit","287","891185","0.0-248.0-0.0","48563759","wem/bandit_either_2","A1JV64BL3WCK0G","either","7","868","","","","","","","0","0","1","","0.4045351895","0.6","0.4","0.2","0.8","0.4641513068","0.4045351895","0.2641553663","0.162299901","","","","","","","","","","","","74","J","1","","","208","main_expt"
"","bandit","288","893033","0.0-249.0-0.0","48563759","wem/bandit_either_2","A1JV64BL3WCK0G","either","7","332","","","","","","","0","0","1","","0.2704675845","0.6","0.4","0.2","0.8","0.4567807332","0.4402386934","0.2704675845","0.1542266077","","","","","","","","","","","","75","K","2","","","209","main_expt"
"","bandit","289","894968","0.0-250.0-0.0","48563759","wem/bandit_either_2","A1JV64BL3WCK0G","either","7","399","","","","","","","0","0","1","0.1890415559","","0.6","0.4","0.2","0.8","","","","","0.428253188","0.4483623408","0.3420868926","0.1890415559","","","","","","","","76","L","3","","","210","main_expt"
"","bandit","290","896722","0.0-251.0-0.0","48563759","wem/bandit_either_2","A1JV64BL3WCK0G","either","7","241","","","","","","","0","1","0","","0.4471415093","0.6","0.4","0.2","0.8","0.410271385","0.4471415093","0.3069688952","0.1818133019","","","","","","","","","","","","74","J","1","","","211","main_expt"
"","bandit","291","899989","0.0-252.0-0.0","48563759","wem/bandit_either_2","A1JV64BL3WCK0G","either","7","1742","","","","","","","0","0","1","","0.4374655127","0.6","0.4","0.2","0.8","0.4065587724","0.4374655127","0.3005379093","0.1782747956","","","","","","","","","","","","74","J","1","","","212","main_expt"
"","bandit","292","901694","0.0-253.0-0.0","48563759","wem/bandit_either_2","A1JV64BL3WCK0G","either","7","168","","","","","","","0","0","1","0.1935195711","","0.6","0.4","0.2","0.8","","","","","0.4007116542","0.4381457257","0.213882915","0.1935195711","","","","","","","","76","L","3","","","213","main_expt"
"","bandit","293","903602","0.0-254.0-0.0","48563759","wem/bandit_either_2","A1JV64BL3WCK0G","either","7","373","","","","","","","0","1","0","","0.2138557204","0.6","0.4","0.2","0.8","0.4246209323","0.4643769008","0.2138557204","0.2421176173","","","","","","","","","","","","75","K","2","","","214","main_expt"
"","bandit","294","905562","0.0-255.0-0.0","48563759","wem/bandit_either_2","A1JV64BL3WCK0G","either","7","425","","","","","","","0","1","0","","0.2142566612","0.6","0.4","0.2","0.8","0.3993057066","0.4328812357","0.2142566612","0.2629876012","","","","","","","","","","","","75","K","2","","","215","main_expt"
"","bandit","295","907688","0.0-256.0-0.0","48563759","wem/bandit_either_2","A1JV64BL3WCK0G","either","7","580","","","","","","","0","0","1","","0.1900351118","0.6","0.4","0.2","0.8","0.3987772474","0.4064507999","0.1900351118","0.2977714141","","","","","","","","","","","","75","K","2","","","216","main_expt"
"","bandit","296","909629","0.0-257.0-0.0","48563759","wem/bandit_either_2","A1JV64BL3WCK0G","either","7","409","","","","","","","0","0","1","0.3017601552","","0.6","0.4","0.2","0.8","","","","","0.4101433534","0.4197961641","0.2185169477","0.3017601552","","","","","","","","76","L","3","","","217","main_expt"
"","bandit","297","911569","0.0-258.0-0.0","48563759","wem/bandit_either_2","A1JV64BL3WCK0G","either","7","412","","","","","","","0","0","1","0.2888566207","","0.6","0.4","0.2","0.8","","","","","0.4448029092","0.4167397569","0.2240895604","0.2888566207","","","","","","","","76","L","3","","","218","main_expt"
"","bandit","298","913129","0.0-259.0-0.0","48563759","wem/bandit_either_2","A1JV64BL3WCK0G","either","7","25","","","","","","","0","0","1","0.4250944588","","0.6","0.4","0.2","0.8","","","","","0.4454766299","0.4250944588","0.1990808675","0.2844008008","","","","","","","","74","J","1","","","219","main_expt"
"","bandit","299","914919","0.0-260.0-0.0","48563759","wem/bandit_either_2","A1JV64BL3WCK0G","either","7","251","","","","","","","0","0","1","0.2225062479","","0.6","0.4","0.2","0.8","","","","","0.4610997771","0.4173336587","0.266602996","0.2225062479","","","","","","","","76","L","3","","","220","main_expt"
"","bandit","300","916568","0.0-261.0-0.0","48563759","wem/bandit_either_2","A1JV64BL3WCK0G","either","7","111","","","","","","","0","1","0","","0.2443661227","0.6","0.4","0.2","0.8","0.4642289789","0.3944711005","0.2443661227","0.2409900116","","","","","","","","","","","","75","K","2","","","221","main_expt"
"","bandit","301","918479","0.0-262.0-0.0","48563759","wem/bandit_either_2","A1JV64BL3WCK0G","either","7","369","","","","","","","0","1","0","","0.2205922116","0.6","0.4","0.2","0.8","0.4641270597","0.3619306912","0.2205922116","0.1989678636","","","","","","","","","","","","75","K","2","","","222","main_expt"
"","bandit","302","920581","0.0-263.0-0.0","48563759","wem/bandit_either_2","A1JV64BL3WCK0G","either","7","568","","","","","","","0","0","1","","0.1861223506","0.6","0.4","0.2","0.8","0.4697433819","0.4117842179","0.1861223506","0.1902867071","","","","","","","","","","","","75","K","2","","","223","main_expt"
"","bandit","303","922414","0.0-264.0-0.0","48563759","wem/bandit_either_2","A1JV64BL3WCK0G","either","7","307","","","","","","","0","0","1","","0.1668884863","0.6","0.4","0.2","0.8","0.460898083","0.3965092367","0.1668884863","0.2076415522","","","","","","","","","","","","75","K","2","","","224","main_expt"
"","bandit","304","923970","0.0-265.0-0.0","48563759","wem/bandit_either_2","A1JV64BL3WCK0G","either","7","41","","","","","","","0","0","1","","0.4084477862","0.6","0.4","0.2","0.8","0.4394890665","0.4084477862","0.1481472712","0.2393469174","","","","","","","","","","","","74","J","1","","","225","main_expt"
"","bandit","305","925511","0.0-266.0-0.0","48563759","wem/bandit_either_2","A1JV64BL3WCK0G","either","7","5","","","","","","","0","0","1","0.2425440376","","0.6","0.4","0.2","0.8","","","","","0.4520955237","0.4104601526","0.1140846591","0.2425440376","","","","","","","","76","L","3","","","226","main_expt"
"","bandit","306","927230","0.0-267.0-0.0","48563759","wem/bandit_either_2","A1JV64BL3WCK0G","either","7","189","","","","","","","0","0","1","0.4324220164","","0.6","0.4","0.2","0.8","","","","","0.4324220164","0.3899733519","0.1074218354","0.2365603363","","","","","","","","72","H","0","img/none_selected.jpg","","227","main_expt"
"","bandit","307","928903","0.0-268.0-0.0","48563759","wem/bandit_either_2","A1JV64BL3WCK0G","either","7","163","","","","","","","0","1","0","","0.3796730737","0.6","0.4","0.2","0.8","0.4220482421","0.3796730737","0.08065165665","0.2127958296","","","","","","","","","","","","74","J","1","","","228","main_expt"
"","bandit","308","930888","0.0-269.0-0.0","48563759","wem/bandit_either_2","A1JV64BL3WCK0G","either","7","463","","","","","","","0","0","1","","0.4046866514","0.6","0.4","0.2","0.8","0.3885749154","0.4046866514","0.07774059362","0.2207861463","","","","","","","","","","","","74","J","1","","","229","main_expt"
"","bandit","309","933033","0.0-270.0-0.0","48563759","wem/bandit_either_2","A1JV64BL3WCK0G","either","7","633","","","","","","","0","1","0","","0.3988793555","0.6","0.4","0.2","0.8","0.4023755806","0.3988793555","0.1109483114","0.2589226453","","","","","","","","","","","","74","J","1","","","230","main_expt"
"","bandit","310","934991","0.0-271.0-0.0","48563759","wem/bandit_either_2","A1JV64BL3WCK0G","either","7","423","","","","","","","0","0","1","0.3981898202","","0.6","0.4","0.2","0.8","","","","","0.3768725222","0.3981898202","0.05902300203","0.2956158432","","","","","","","","74","J","1","","","231","main_expt"
"","bandit","311","936756","0.0-272.0-0.0","48563759","wem/bandit_either_2","A1JV64BL3WCK0G","either","7","236","","","","","","","0","0","1","","0.4411941832","0.6","0.4","0.2","0.8","0.3619917427","0.4411941832","0.06675855664","0.3202484073","","","","","","","","","","","","74","J","1","","","232","main_expt"
"","bandit","312","939136","0.0-273.0-0.0","48563759","wem/bandit_either_2","A1JV64BL3WCK0G","either","7","864","","","","","","","0","1","0","","0.42967461","0.6","0.4","0.2","0.8","0.3833578816","0.42967461","0.06703699679","0.2933644042","","","","","","","","","","","","74","J","1","","","233","main_expt"
"","bandit","313","941118","0.0-274.0-0.0","48563759","wem/bandit_either_2","A1JV64BL3WCK0G","either","7","470","","","","","","","0","0","1","0.4242798354","","0.6","0.4","0.2","0.8","","","","","0.3552131768","0.4242798354","0.05331023031","0.3106154811","","","","","","","","74","J","1","","","234","main_expt"
"","bandit","314","943215","0.0-275.0-0.0","48563759","wem/bandit_either_2","A1JV64BL3WCK0G","either","7","566","","","","","","","0","1","0","","0.4617388459","0.6","0.4","0.2","0.8","0.3135084543","0.4617388459","0.05187545802","0.3158990995","","","","","","","","","","","","74","J","1","","","235","main_expt"
"","bandit","315","945604","0.0-276.0-0.0","48563759","wem/bandit_either_2","A1JV64BL3WCK0G","either","7","856","","","","","","","0","0","1","","0.4619510484","0.6","0.4","0.2","0.8","0.244945467","0.4619510484","0.06939909985","0.3036927748","","","","","","","","","","","","74","J","1","","","236","main_expt"
"","bandit","316","947635","0.0-277.0-0.0","48563759","wem/bandit_either_2","A1JV64BL3WCK0G","either","7","477","","","","","","","0","1","0","","0.4482398789","0.6","0.4","0.2","0.8","0.1823839079","0.4482398789","0.1210409879","0.3491021326","","","","","","","","","","","","74","J","1","","","237","main_expt"
"","bandit","317","950034","0.0-278.0-0.0","48563759","wem/bandit_either_2","A1JV64BL3WCK0G","either","7","867","","","","","","","0","0","1","","0.4193969143","0.6","0.4","0.2","0.8","0.1685050226","0.4193969143","0.1147840357","0.3939254097","","","","","","","","","","","","74","J","1","","","238","main_expt"
"","bandit","318","952240","0.0-279.0-0.0","48563759","wem/bandit_either_2","A1JV64BL3WCK0G","either","7","679","","","","","","","0","0","1","","0.4203848948","0.6","0.4","0.2","0.8","0.1606472637","0.4203848948","0.1006463842","0.379108978","","","","","","","","","","","","74","J","1","","","239","main_expt"
"","bandit","319","954570","0.0-280.0-0.0","48563759","wem/bandit_either_2","A1JV64BL3WCK0G","either","7","811","","","","","","","0","1","0","","0.4489383263","0.6","0.4","0.2","0.8","0.1512795466","0.4489383263","0.1008771133","0.3876209848","","","","","","","","","","","","74","J","1","","","240","main_expt"
"","bandit","320","957001","0.0-281.0-0.0","48563759","wem/bandit_either_2","A1JV64BL3WCK0G","either","7","911","","","","","","","0","0","1","","0.4636195567","0.6","0.4","0.2","0.8","0.1916219391","0.4636195567","0.09981833296","0.3839625774","","","","","","","","","","","","74","J","1","","","241","main_expt"
"","bandit","321","959772","0.0-282.0-0.0","48563759","wem/bandit_either_2","A1JV64BL3WCK0G","either","7","1243","","","","","","","0","1","0","","0.4575307695","0.6","0.4","0.2","0.8","0.1641013935","0.4575307695","0.1171772993","0.3477958629","","","","","","","","","","","","74","J","1","","","242","main_expt"
"","bandit","322","962199","0.0-283.0-0.0","48563759","wem/bandit_either_2","A1JV64BL3WCK0G","either","7","916","","","","","","","0","0","1","0.4449554393","","0.6","0.4","0.2","0.8","","","","","0.2064320789","0.4449554393","0.1239984651","0.3500658948","","","","","","","","74","J","1","","","243","main_expt"
"","bandit","323","963782","0.0-284.0-0.0","48563759","wem/bandit_either_2","A1JV64BL3WCK0G","either","7","73","","","","","","","0","1","0","","0.4525763452","0.6","0.4","0.2","0.8","0.2205496082","0.4525763452","0.1126152289","0.3452717574","","","","","","","","","","","","74","J","1","","","244","main_expt"
"","bandit","324","965997","0.0-285.0-0.0","48563759","wem/bandit_either_2","A1JV64BL3WCK0G","either","7","705","","","","","","","1","0","0","0.4753838692","","0.6","0.4","0.2","0.8","","","","","0.214276823","0.4753838692","0.1524829061","0.3162288444","","","","","","","","74","J","1","","","245","main_expt"
"","bandit","325","968061","0.0-286.0-0.0","48563759","wem/bandit_either_2","A1JV64BL3WCK0G","either","7","555","","","","","","","0","1","0","","0.4623654582","0.6","0.4","0.2","0.8","0.2084567316","0.4623654582","0.1921750243","0.2894596967","","","","","","","","","","","","74","J","1","","","246","main_expt"
"","bandit","326","970138","0.0-287.0-0.0","48563759","wem/bandit_either_2","A1JV64BL3WCK0G","either","7","566","","","","","","","0","1","0","","0.4331165165","0.6","0.4","0.2","0.8","0.2232303491","0.4331165165","0.1931065189","0.2642296388","","","","","","","","","","","","74","J","1","","","247","main_expt"
"","bandit","327","972484","0.0-288.0-0.0","48563759","wem/bandit_either_2","A1JV64BL3WCK0G","either","7","804","","","","","","","0","0","1","","0.4401602984","0.6","0.4","0.2","0.8","0.2541796534","0.4401602984","0.2189994516","0.2534255255","","","","","","","","","","","","74","J","1","","","248","main_expt"
"","bandit","328","974934","0.0-289.0-0.0","48563759","wem/bandit_either_2","A1JV64BL3WCK0G","either","7","939","","","","","","","0","0","1","","0.430892824","0.6","0.4","0.2","0.8","0.232462199","0.430892824","0.1989243371","0.2252980971","","","","","","","","","","","","74","J","1","","","249","main_expt"
