"consent","trial_type","trial_index","time_elapsed","internal_node_id","subjID","study","MID","cond","drift","rt","responses","key_press","expt_phase","like","value","connected","gems","bombs","no_reward","GemPrChosen","BombPrChosen","GainOverPainPr_0","GainOverPainPr_1","GainOverPainPr_2","GainOverPainPr_3","LosePr_0","LosePr_1","LosePr_2","LosePr_3","WinPr_0","WinPr_1","WinPr_2","WinPr_3","Q0","Q1","Q2","gender","age","ethnicity","target","respCharCode","respKey","respChoiceNum","respChoice","practice","trial_counter","trial_label"
"INL_behavioral_consent_30min_online.html","consent","0","17503","0.0-0.0","49348775","wem/bandit_either_2","A29374NDYXSCWB","either","5","","","","","","","","","","","","","","","","","","","","","","","","","","","","","","","","","","","","","",""
"","survey-text","1","21367","0.0-1.0","49348775","wem/bandit_either_2","A29374NDYXSCWB","either","5","2850","{""Q0"":""A29374NDYXSCWB""}","","","","","","","","","","","","","","","","","","","","","","","","","","","","","","","","","","","",""
"","text","2","42642","0.0-2.0","49348775","wem/bandit_either_2","A29374NDYXSCWB","either","5","20271","","32","","","","","","","","","","","","","","","","","","","","","","","","","","","","","","","","","","",""
"","text","3","73815","0.0-3.0","49348775","wem/bandit_either_2","A29374NDYXSCWB","either","5","31171","","32","","","","","","","","","","","","","","","","","","","","","","","","","","","","","","","","","","",""
"","text","4","134249","0.0-4.0","49348775","wem/bandit_either_2","A29374NDYXSCWB","either","5","60431","","32","","","","","","","","","","","","","","","","","","","","","","","","","","","","","","","","","","",""
"","text","5","247756","0.0-5.0","49348775","wem/bandit_either_2","A29374NDYXSCWB","either","5","113505","","32","","","","","","","","","","","","","","","","","","","","","","","","","","","","","","","","","","",""
"","text","6","276665","0.0-6.0","49348775","wem/bandit_either_2","A29374NDYXSCWB","either","5","28908","","32","","","","","","","","","","","","","","","","","","","","","","","","","","","","","","","","","","",""
"","text","7","290009","0.0-7.0","49348775","wem/bandit_either_2","A29374NDYXSCWB","either","5","13342","","32","","","","","","","","","","","","","","","","","","","","","","","","","","","","","","","","","","",""
"","text","8","437098","0.0-8.0","49348775","wem/bandit_either_2","A29374NDYXSCWB","either","5","147087","","32","","","","","","","","","","","","","","","","","","","","","","","","","","","","","","","","","","",""
"","identification","9","451585","0.0-9.0-0.0","49348775","wem/bandit_either_2","A29374NDYXSCWB","either","5","14455","","","","3","2","2","","","","","","","","","","","","","","","","","","","","","","","","the village of Zur","","","","","","",""
"","identification","10","457968","0.0-9.0-1.0","49348775","wem/bandit_either_2","A29374NDYXSCWB","either","5","5355","","","","3","2","2","","","","","","","","","","","","","","","","","","","","","","","","the village of Nyx","","","","","","",""
"","text","11","467223","0.0-10.0","49348775","wem/bandit_either_2","A29374NDYXSCWB","either","5","8251","","32","","","","","","","","","","","","","","","","","","","","","","","","","","","","","","","","","","",""
"","text","12","471141","0.0-11.0","49348775","wem/bandit_either_2","A29374NDYXSCWB","either","5","3916","","32","","","","","","","","","","","","","","","","","","","","","","","","","","","","","","","","","","",""
"","text","13","474292","0.0-12.0","49348775","wem/bandit_either_2","A29374NDYXSCWB","either","5","3150","","32","","","","","","","","","","","","","","","","","","","","","","","","","","","","","","","","","","",""
"","text","14","478848","0.0-13.0","49348775","wem/bandit_either_2","A29374NDYXSCWB","either","5","4554","","32","","","","","","","","","","","","","","","","","","","","","","","","","","","","","","","","","","",""
"","bandit","15","484806","0.0-14.0-0.0","49348775","wem/bandit_either_2","A29374NDYXSCWB","either","5","4447","","","","","","","0","0","1","0","0","","","","","0","","","","0","","","","","","","","","","","74","J","0","img/none_selected_demo.jpg","true","0",""
"","bandit","16","492655","0.0-15.0-0.0","49348775","wem/bandit_either_2","A29374NDYXSCWB","either","5","6342","","","","","","","0","0","1","0","0","","","","","0","","","","0","","","","","","","","","","","75","K","0","img/none_selected_demo.jpg","true","0",""
"","text","17","504806","0.0-16.0","49348775","wem/bandit_either_2","A29374NDYXSCWB","either","5","12149","","32","","","","","","","","","","","","","","","","","","","","","","","","","","","","","","","","","","",""
"","text","18","526735","0.0-17.0","49348775","wem/bandit_either_2","A29374NDYXSCWB","either","5","21927","","32","","","","","","","","","","","","","","","","","","","","","","","","","","","","","","","","","","",""
"","text","19","541232","0.0-18.0","49348775","wem/bandit_either_2","A29374NDYXSCWB","either","5","14495","","32","","","","","","","","","","","","","","","","","","","","","","","","","","","","","","","","","","",""
"","text","20","545290","0.0-19.0","49348775","wem/bandit_either_2","A29374NDYXSCWB","either","5","4056","","32","","","","","","","","","","","","","","","","","","","","","","","","","","","","","","","","","","",""
"","bandit","21","549016","0.0-20.0-0.0","49348775","wem/bandit_either_2","A29374NDYXSCWB","either","5","2218","","","","","","","0","0","1","","0.2","0.5","0.5","","","0.8","0.2","","","","","","","","","","","","","","75","K","1","","true","0","80_20_practice"
"","bandit","22","551388","0.0-20.0-1.0","49348775","wem/bandit_either_2","A29374NDYXSCWB","either","5","863","","","","","","","0","0","1","","0.2","0.5","0.5","","","0.8","0.2","","","","","","","","","","","","","","75","K","1","","true","0","80_20_practice"
"","bandit","23","553234","0.0-20.0-2.0","49348775","wem/bandit_either_2","A29374NDYXSCWB","either","5","339","","","","","","","0","1","0","","0.8","0.5","0.5","","","0.8","0.2","","","","","","","","","","","","","","74","J","0","img/none_selected_demo.jpg","true","0","80_20_practice"
"","bandit","24","555190","0.0-20.0-3.0","49348775","wem/bandit_either_2","A29374NDYXSCWB","either","5","449","","","","","","","0","0","1","0.8","","0.5","0.5","","","","","","","0.8","0.2","","","","","","","","","","74","J","0","img/none_selected_demo.jpg","true","0","80_20_practice"
"","bandit","25","557009","0.0-20.0-4.0","49348775","wem/bandit_either_2","A29374NDYXSCWB","either","5","311","","","","","","","0","1","0","","0.8","0.5","0.5","","","0.8","0.2","","","","","","","","","","","","","","74","J","0","img/none_selected_demo.jpg","true","0","80_20_practice"
"","bandit","26","558833","0.0-20.0-5.0","49348775","wem/bandit_either_2","A29374NDYXSCWB","either","5","315","","","","","","","1","0","0","0.8","","0.5","0.5","","","","","","","0.8","0.2","","","","","","","","","","74","J","0","img/none_selected_demo.jpg","true","0","80_20_practice"
"","bandit","27","560615","0.0-20.0-6.0","49348775","wem/bandit_either_2","A29374NDYXSCWB","either","5","274","","","","","","","0","1","0","","0.8","0.5","0.5","","","0.8","0.2","","","","","","","","","","","","","","74","J","0","img/none_selected_demo.jpg","true","0","80_20_practice"
"","bandit","28","562405","0.0-20.0-7.0","49348775","wem/bandit_either_2","A29374NDYXSCWB","either","5","283","","","","","","","0","0","1","","0.8","0.5","0.5","","","0.8","0.2","","","","","","","","","","","","","","74","J","0","img/none_selected_demo.jpg","true","0","80_20_practice"
"","bandit","29","564015","0.0-20.0-8.0","49348775","wem/bandit_either_2","A29374NDYXSCWB","either","5","103","","","","","","","0","0","1","","0.8","0.5","0.5","","","0.8","0.2","","","","","","","","","","","","","","74","J","0","img/none_selected_demo.jpg","true","0","80_20_practice"
"","bandit","30","565795","0.0-20.0-9.0","49348775","wem/bandit_either_2","A29374NDYXSCWB","either","5","272","","","","","","","1","0","0","0.8","","0.5","0.5","","","","","","","0.8","0.2","","","","","","","","","","74","J","0","img/none_selected_demo.jpg","true","0","80_20_practice"
"","bandit","31","567614","0.0-20.0-10.0","49348775","wem/bandit_either_2","A29374NDYXSCWB","either","5","312","","","","","","","0","1","0","","0.8","0.5","0.5","","","0.8","0.2","","","","","","","","","","","","","","74","J","0","img/none_selected_demo.jpg","true","0","80_20_practice"
"","bandit","32","569341","0.0-20.0-11.0","49348775","wem/bandit_either_2","A29374NDYXSCWB","either","5","221","","","","","","","1","0","0","0.8","","0.5","0.5","","","","","","","0.8","0.2","","","","","","","","","","74","J","0","img/none_selected_demo.jpg","true","0","80_20_practice"
"","bandit","33","571089","0.0-20.0-12.0","49348775","wem/bandit_either_2","A29374NDYXSCWB","either","5","241","","","","","","","1","0","0","0.8","","0.5","0.5","","","","","","","0.8","0.2","","","","","","","","","","74","J","0","img/none_selected_demo.jpg","true","0","80_20_practice"
"","bandit","34","572842","0.0-20.0-13.0","49348775","wem/bandit_either_2","A29374NDYXSCWB","either","5","244","","","","","","","1","0","0","0.8","","0.5","0.5","","","","","","","0.8","0.2","","","","","","","","","","74","J","0","img/none_selected_demo.jpg","true","0","80_20_practice"
"","bandit","35","574620","0.0-20.0-14.0","49348775","wem/bandit_either_2","A29374NDYXSCWB","either","5","267","","","","","","","0","0","1","0.8","","0.5","0.5","","","","","","","0.8","0.2","","","","","","","","","","74","J","0","img/none_selected_demo.jpg","true","0","80_20_practice"
"","bandit","36","576732","0.0-20.0-15.0","49348775","wem/bandit_either_2","A29374NDYXSCWB","either","5","605","","","","","","","0","1","0","","0.8","0.5","0.5","","","0.8","0.2","","","","","","","","","","","","","","74","J","0","img/none_selected_demo.jpg","true","0","80_20_practice"
"","bandit","37","578483","0.0-20.0-16.0","49348775","wem/bandit_either_2","A29374NDYXSCWB","either","5","243","","","","","","","1","0","0","0.8","","0.5","0.5","","","","","","","0.8","0.2","","","","","","","","","","74","J","0","img/none_selected_demo.jpg","true","0","80_20_practice"
"","bandit","38","580268","0.0-20.0-17.0","49348775","wem/bandit_either_2","A29374NDYXSCWB","either","5","277","","","","","","","0","1","0","","0.8","0.5","0.5","","","0.8","0.2","","","","","","","","","","","","","","74","J","0","img/none_selected_demo.jpg","true","0","80_20_practice"
"","bandit","39","582238","0.0-20.0-18.0","49348775","wem/bandit_either_2","A29374NDYXSCWB","either","5","464","","","","","","","0","1","0","","0.8","0.5","0.5","","","0.8","0.2","","","","","","","","","","","","","","74","J","0","img/none_selected_demo.jpg","true","0","80_20_practice"
"","bandit","40","584209","0.0-20.0-19.0","49348775","wem/bandit_either_2","A29374NDYXSCWB","either","5","465","","","","","","","0","1","0","","0.8","0.5","0.5","","","0.8","0.2","","","","","","","","","","","","","","74","J","0","img/none_selected_demo.jpg","true","0","80_20_practice"
"","text","41","595897","0.0-21.0","49348775","wem/bandit_either_2","A29374NDYXSCWB","either","5","11684","","32","","","","","","","","","","","","","","","","","","","","","","","","","","","","","","","","","","",""
"","bandit","42","599254","0.0-22.0-0.0","49348775","wem/bandit_either_2","A29374NDYXSCWB","either","5","1848","","","","","","","1","0","0","1","0","","","","","0","1","","","1","0","","","","","","","","","","74","J","0","img/none_selected_demo.jpg","true","0",""
"","text","43","607406","0.0-23.0","49348775","wem/bandit_either_2","A29374NDYXSCWB","either","5","8150","","32","","","","","","","","","","","","","","","","","","","","","","","","","","","","","","","","","","",""
"","text","44","611532","0.0-24.0","49348775","wem/bandit_either_2","A29374NDYXSCWB","either","5","4125","","32","","","","","","","","","","","","","","","","","","","","","","","","","","","","","","","","","","",""
"","text","45","616048","0.0-25.0","49348775","wem/bandit_either_2","A29374NDYXSCWB","either","5","4512","","32","","","","","","","","","","","","","","","","","","","","","","","","","","","","","","","","","","",""
"","text","46","620258","0.0-26.0","49348775","wem/bandit_either_2","A29374NDYXSCWB","either","5","4207","","32","","","","","","","","","","","","","","","","","","","","","","","","","","","","","","","","","","",""
"","text","47","628082","0.0-27.0","49348775","wem/bandit_either_2","A29374NDYXSCWB","either","5","7822","","32","","","","","","","","","","","","","","","","","","","","","","","","","","","","","","","","","","",""
"","text","48","633504","0.0-28.0","49348775","wem/bandit_either_2","A29374NDYXSCWB","either","5","5419","","32","","","","","","","","","","","","","","","","","","","","","","","","","","","","","","","","","","",""
"","text","49","636852","0.0-29.0","49348775","wem/bandit_either_2","A29374NDYXSCWB","either","5","3346","","32","","","","","","","","","","","","","","","","","","","","","","","","","","","","","","","","","","",""
"","text","50","644238","0.0-30.0","49348775","wem/bandit_either_2","A29374NDYXSCWB","either","5","7383","","32","","","","","","","","","","","","","","","","","","","","","","","","","","","","","","","","","","",""
"","text","51","651144","0.0-31.0","49348775","wem/bandit_either_2","A29374NDYXSCWB","either","5","6903","","32","","","","","","","","","","","","","","","","","","","","","","","","","","","","","","","","","","",""
"","text","52","653623","0.0-32.0","49348775","wem/bandit_either_2","A29374NDYXSCWB","either","5","2476","","32","","","","","","","","","","","","","","","","","","","","","","","","","","","","","","","","","","",""
"","text","53","661521","0.0-33.0","49348775","wem/bandit_either_2","A29374NDYXSCWB","either","5","7894","","32","","","","","","","","","","","","","","","","","","","","","","","","","","","","","","","","","","",""
"","bandit","54","666097","0.0-34.0-0.0","49348775","wem/bandit_either_2","A29374NDYXSCWB","either","5","3066","","","","","","","1","0","0","0.8","","0.5","0.5","0.5","0.5","","","","","0.8","0.2","0.6","0.2","","","","","","","","72","H","0","img/none_selected.jpg","true","0","full_practice"
"","bandit","55","667943","0.0-34.0-1.0","49348775","wem/bandit_either_2","A29374NDYXSCWB","either","5","339","","","","","","","1","0","0","0.8","","0.5","0.5","0.5","0.5","","","","","0.8","0.2","0.6","0.2","","","","","","","","72","H","0","img/none_selected.jpg","true","0","full_practice"
"","bandit","56","669786","0.0-34.0-2.0","49348775","wem/bandit_either_2","A29374NDYXSCWB","either","5","335","","","","","","","0","1","0","","0.8","0.5","0.5","0.5","0.5","0.8","0.2","0.6","0.2","","","","","","","","","","","","72","H","0","img/none_selected.jpg","true","0","full_practice"
"","bandit","57","671588","0.0-34.0-3.0","49348775","wem/bandit_either_2","A29374NDYXSCWB","either","5","295","","","","","","","0","0","1","0.8","","0.5","0.5","0.5","0.5","","","","","0.8","0.2","0.6","0.2","","","","","","","","72","H","0","img/none_selected.jpg","true","0","full_practice"
"","bandit","58","673398","0.0-34.0-4.0","49348775","wem/bandit_either_2","A29374NDYXSCWB","either","5","304","","","","","","","0","0","1","","0.2","0.5","0.5","0.5","0.5","0.8","0.2","0.6","0.2","","","","","","","","","","","","74","J","1","","true","0","full_practice"
"","bandit","59","675186","0.0-34.0-5.0","49348775","wem/bandit_either_2","A29374NDYXSCWB","either","5","279","","","","","","","0","0","1","0.2","","0.5","0.5","0.5","0.5","","","","","0.8","0.2","0.6","0.2","","","","","","","","74","J","1","","true","0","full_practice"
"","bandit","60","676798","0.0-34.0-6.0","49348775","wem/bandit_either_2","A29374NDYXSCWB","either","5","103","","","","","","","0","1","0","","0.6","0.5","0.5","0.5","0.5","0.8","0.2","0.6","0.2","","","","","","","","","","","","75","K","2","","true","0","full_practice"
"","bandit","61","678587","0.0-34.0-7.0","49348775","wem/bandit_either_2","A29374NDYXSCWB","either","5","281","","","","","","","0","0","1","0.6","","0.5","0.5","0.5","0.5","","","","","0.8","0.2","0.6","0.2","","","","","","","","75","K","2","","true","0","full_practice"
"","bandit","62","680340","0.0-34.0-8.0","49348775","wem/bandit_either_2","A29374NDYXSCWB","either","5","247","","","","","","","0","0","1","","0.2","0.5","0.5","0.5","0.5","0.8","0.2","0.6","0.2","","","","","","","","","","","","76","L","3","","true","0","full_practice"
"","bandit","63","682140","0.0-34.0-9.0","49348775","wem/bandit_either_2","A29374NDYXSCWB","either","5","292","","","","","","","0","0","1","","0.2","0.5","0.5","0.5","0.5","0.8","0.2","0.6","0.2","","","","","","","","","","","","76","L","3","","true","0","full_practice"
"","bandit","64","684009","0.0-34.0-10.0","49348775","wem/bandit_either_2","A29374NDYXSCWB","either","5","360","","","","","","","0","1","0","","0.8","0.5","0.5","0.5","0.5","0.8","0.2","0.6","0.2","","","","","","","","","","","","72","H","0","img/none_selected.jpg","true","0","full_practice"
"","bandit","65","685777","0.0-34.0-11.0","49348775","wem/bandit_either_2","A29374NDYXSCWB","either","5","258","","","","","","","1","0","0","0.8","","0.5","0.5","0.5","0.5","","","","","0.8","0.2","0.6","0.2","","","","","","","","72","H","0","img/none_selected.jpg","true","0","full_practice"
"","bandit","66","687525","0.0-34.0-12.0","49348775","wem/bandit_either_2","A29374NDYXSCWB","either","5","242","","","","","","","0","1","0","","0.8","0.5","0.5","0.5","0.5","0.8","0.2","0.6","0.2","","","","","","","","","","","","72","H","0","img/none_selected.jpg","true","0","full_practice"
"","bandit","67","689305","0.0-34.0-13.0","49348775","wem/bandit_either_2","A29374NDYXSCWB","either","5","270","","","","","","","0","1","0","","0.8","0.5","0.5","0.5","0.5","0.8","0.2","0.6","0.2","","","","","","","","","","","","72","H","0","img/none_selected.jpg","true","0","full_practice"
"","bandit","68","691057","0.0-34.0-14.0","49348775","wem/bandit_either_2","A29374NDYXSCWB","either","5","242","","","","","","","1","0","0","0.8","","0.5","0.5","0.5","0.5","","","","","0.8","0.2","0.6","0.2","","","","","","","","72","H","0","img/none_selected.jpg","true","0","full_practice"
"","bandit","69","692792","0.0-34.0-15.0","49348775","wem/bandit_either_2","A29374NDYXSCWB","either","5","226","","","","","","","1","0","0","0.8","","0.5","0.5","0.5","0.5","","","","","0.8","0.2","0.6","0.2","","","","","","","","72","H","0","img/none_selected.jpg","true","0","full_practice"
"","bandit","70","694570","0.0-34.0-16.0","49348775","wem/bandit_either_2","A29374NDYXSCWB","either","5","269","","","","","","","0","1","0","","0.8","0.5","0.5","0.5","0.5","0.8","0.2","0.6","0.2","","","","","","","","","","","","72","H","0","img/none_selected.jpg","true","0","full_practice"
"","bandit","71","696306","0.0-34.0-17.0","49348775","wem/bandit_either_2","A29374NDYXSCWB","either","5","229","","","","","","","1","0","0","0.8","","0.5","0.5","0.5","0.5","","","","","0.8","0.2","0.6","0.2","","","","","","","","72","H","0","img/none_selected.jpg","true","0","full_practice"
"","bandit","72","698019","0.0-34.0-18.0","49348775","wem/bandit_either_2","A29374NDYXSCWB","either","5","205","","","","","","","0","1","0","","0.8","0.5","0.5","0.5","0.5","0.8","0.2","0.6","0.2","","","","","","","","","","","","72","H","0","img/none_selected.jpg","true","0","full_practice"
"","bandit","73","699714","0.0-34.0-19.0","49348775","wem/bandit_either_2","A29374NDYXSCWB","either","5","186","","","","","","","0","0","1","","0.8","0.5","0.5","0.5","0.5","0.8","0.2","0.6","0.2","","","","","","","","","","","","72","H","0","img/none_selected.jpg","true","0","full_practice"
"","text","74","704696","0.0-35.0","49348775","wem/bandit_either_2","A29374NDYXSCWB","either","5","4972","","32","","","","","","","","","","","","","","","","","","","","","","","","","","","","","","","","","","",""
"","text","75","722446","0.0-36.0","49348775","wem/bandit_either_2","A29374NDYXSCWB","either","5","16747","","32","","","","","","","","","","","","","","","","","","","","","","","","","","","","","","","","","","",""
"","text","76","737578","0.0-37.0","49348775","wem/bandit_either_2","A29374NDYXSCWB","either","5","15128","","32","","","","","","","","","","","","","","","","","","","","","","","","","","","","","","","","","","",""
"","text","77","744970","0.0-38.0","49348775","wem/bandit_either_2","A29374NDYXSCWB","either","5","7389","","32","","","","","","","","","","","","","","","","","","","","","","","","","","","","","","","","","","",""
"","text","78","752836","0.0-39.0","49348775","wem/bandit_either_2","A29374NDYXSCWB","either","5","7864","","32","","","","","","","","","","","","","","","","","","","","","","","","","","","","","","","","","","",""
"","text","79","758536","0.0-40.0","49348775","wem/bandit_either_2","A29374NDYXSCWB","either","5","5696","","32","","","","","","","","","","","","","","","","","","","","","","","","","","","","","","","","","","",""
"","bandit","80","761784","0.0-41.0-0.0","49348775","wem/bandit_either_2","A29374NDYXSCWB","either","5","1738","","","","","","","0","0","1","","0.1165465043","0.4","0.8","0.2","0.6","0.1165465043","0.3897275569","0.4265570961","0.3340388524","","","","","","","","","","","","72","H","0","img/none_selected.jpg","","1","main_expt"
"","bandit","81","763633","0.0-42.0-0.0","49348775","wem/bandit_either_2","A29374NDYXSCWB","either","5","341","","","","","","","0","0","1","","0.08371899021","0.4","0.8","0.2","0.6","0.08371899021","0.3911966266","0.4177099958","0.3223834482","","","","","","","","","","","","72","H","0","img/none_selected.jpg","","2","main_expt"
"","bandit","82","765191","0.0-43.0-0.0","49348775","wem/bandit_either_2","A29374NDYXSCWB","either","5","50","","","","","","","0","0","1","0.4074861021","","0.4","0.8","0.2","0.6","","","","","0.04339790364","0.4074861021","0.4192185534","0.3585509001","","","","","","","","74","J","1","","","3","main_expt"
"","bandit","83","766982","0.0-44.0-0.0","49348775","wem/bandit_either_2","A29374NDYXSCWB","either","5","282","","","","","","","0","0","1","0.3965638453","","0.4","0.8","0.2","0.6","","","","","0.04073472785","0.3965638453","0.4241610434","0.3416436242","","","","","","","","74","J","1","","","4","main_expt"
"","bandit","84","768710","0.0-45.0-0.0","49348775","wem/bandit_either_2","A29374NDYXSCWB","either","5","219","","","","","","","0","1","0","","0.4284837315","0.4","0.8","0.2","0.6","0.04731773769","0.3688269119","0.4284837315","0.3444758892","","","","","","","","","","","","75","K","2","","","5","main_expt"
"","bandit","85","770465","0.0-46.0-0.0","49348775","wem/bandit_either_2","A29374NDYXSCWB","either","5","245","","","","","","","0","1","0","","0.4328708062","0.4","0.8","0.2","0.6","0.05617088868","0.3865867917","0.4328708062","0.3574177426","","","","","","","","","","","","75","K","2","","","6","main_expt"
"","bandit","86","772163","0.0-47.0-0.0","49348775","wem/bandit_either_2","A29374NDYXSCWB","either","5","187","","","","","","","0","1","0","","0.4176545671","0.4","0.8","0.2","0.6","0.05606577856","0.4294719924","0.4176545671","0.3634052143","","","","","","","","","","","","75","K","2","","","7","main_expt"
"","bandit","87","773896","0.0-48.0-0.0","49348775","wem/bandit_either_2","A29374NDYXSCWB","either","5","223","","","","","","","0","0","1","","0.4022395488","0.4","0.8","0.2","0.6","0.09244853328","0.4210378118","0.4022395488","0.3675420607","","","","","","","","","","","","75","K","2","","","8","main_expt"
"","bandit","88","775652","0.0-49.0-0.0","49348775","wem/bandit_either_2","A29374NDYXSCWB","either","5","245","","","","","","","0","1","0","","0.3929004949","0.4","0.8","0.2","0.6","0.1271341085","0.4502112583","0.3929004949","0.3921196104","","","","","","","","","","","","75","K","2","","","9","main_expt"
"","bandit","89","777390","0.0-50.0-0.0","49348775","wem/bandit_either_2","A29374NDYXSCWB","either","5","230","","","","","","","0","1","0","","0.3863711448","0.4","0.8","0.2","0.6","0.1370717255","0.4452653155","0.3863711448","0.4026182126","","","","","","","","","","","","75","K","2","","","10","main_expt"
"","bandit","90","779114","0.0-51.0-0.0","49348775","wem/bandit_either_2","A29374NDYXSCWB","either","5","216","","","","","","","0","0","1","","0.4205849279","0.4","0.8","0.2","0.6","0.1275050207","0.4352349267","0.4205849279","0.3543069494","","","","","","","","","","","","75","K","2","","","11","main_expt"
"","bandit","91","781017","0.0-52.0-0.0","49348775","wem/bandit_either_2","A29374NDYXSCWB","either","5","397","","","","","","","0","1","0","","0.4525069231","0.4","0.8","0.2","0.6","0.122317004","0.4029030639","0.4525069231","0.3504097904","","","","","","","","","","","","75","K","2","","","12","main_expt"
"","bandit","92","782762","0.0-53.0-0.0","49348775","wem/bandit_either_2","A29374NDYXSCWB","either","5","238","","","","","","","0","1","0","","0.4485799753","0.4","0.8","0.2","0.6","0.1251711411","0.4198147105","0.4485799753","0.2787441393","","","","","","","","","","","","75","K","2","","","13","main_expt"
"","bandit","93","784491","0.0-54.0-0.0","49348775","wem/bandit_either_2","A29374NDYXSCWB","either","5","219","","","","","","","1","0","0","0.4504049656","","0.4","0.8","0.2","0.6","","","","","0.1380641988","0.3761312174","0.4504049656","0.2723245106","","","","","","","","75","K","2","","","14","main_expt"
"","bandit","94","786103","0.0-55.0-0.0","49348775","wem/bandit_either_2","A29374NDYXSCWB","either","5","102","","","","","","","0","1","0","","0.4281165459","0.4","0.8","0.2","0.6","0.2010812313","0.4017507227","0.4281165459","0.3687644442","","","","","","","","","","","","75","K","2","","","15","main_expt"
"","bandit","95","787770","0.0-56.0-0.0","49348775","wem/bandit_either_2","A29374NDYXSCWB","either","5","159","","","","","","","1","0","0","0.4035101098","","0.4","0.8","0.2","0.6","","","","","0.1747275657","0.3859888637","0.4035101098","0.3992289848","","","","","","","","75","K","2","","","16","main_expt"
"","bandit","96","789499","0.0-57.0-0.0","49348775","wem/bandit_either_2","A29374NDYXSCWB","either","5","220","","","","","","","0","0","1","","0.4063691663","0.4","0.8","0.2","0.6","0.1816524112","0.3706978481","0.4063691663","0.4067061876","","","","","","","","","","","","75","K","2","","","17","main_expt"
"","bandit","97","791211","0.0-58.0-0.0","49348775","wem/bandit_either_2","A29374NDYXSCWB","either","5","202","","","","","","","0","1","0","","0.4201618032","0.4","0.8","0.2","0.6","0.1700798448","0.3323991027","0.4201618032","0.3969002131","","","","","","","","","","","","75","K","2","","","18","main_expt"
"","bandit","98","792939","0.0-59.0-0.0","49348775","wem/bandit_either_2","A29374NDYXSCWB","either","5","220","","","","","","","0","0","1","","0.3868389751","0.4","0.8","0.2","0.6","0.1998500639","0.3301718366","0.3868389751","0.3930099592","","","","","","","","","","","","75","K","2","","","19","main_expt"
"","bandit","99","794774","0.0-60.0-0.0","49348775","wem/bandit_either_2","A29374NDYXSCWB","either","5","325","","","","","","","0","0","1","0.3791602553","","0.4","0.8","0.2","0.6","","","","","0.2418808817","0.3714618997","0.3868875991","0.3791602553","","","","","","","","76","L","3","","","20","main_expt"
"","bandit","100","796452","0.0-61.0-0.0","49348775","wem/bandit_either_2","A29374NDYXSCWB","either","5","169","","","","","","","0","0","1","","0.4127515201","0.4","0.8","0.2","0.6","0.2293341009","0.3621694591","0.4253770554","0.4127515201","","","","","","","","","","","","76","L","3","","","21","main_expt"
"","bandit","101","798156","0.0-62.0-0.0","49348775","wem/bandit_either_2","A29374NDYXSCWB","either","5","193","","","","","","","0","0","1","","0.4285762007","0.4","0.8","0.2","0.6","0.2074184163","0.3648829928","0.4285762007","0.4164833055","","","","","","","","","","","","75","K","2","","","22","main_expt"
"","bandit","102","799904","0.0-63.0-0.0","49348775","wem/bandit_either_2","A29374NDYXSCWB","either","5","238","","","","","","","1","0","0","0.4082522222","","0.4","0.8","0.2","0.6","","","","","0.1832507358","0.2856994719","0.4082522222","0.4143027846","","","","","","","","75","K","2","","","23","main_expt"
"","bandit","103","801647","0.0-64.0-0.0","49348775","wem/bandit_either_2","A29374NDYXSCWB","either","5","233","","","","","","","0","0","1","","0.4027270218","0.4","0.8","0.2","0.6","0.1469425149","0.3152516524","0.4027270218","0.3649270698","","","","","","","","","","","","75","K","2","","","24","main_expt"
"","bandit","104","803363","0.0-65.0-0.0","49348775","wem/bandit_either_2","A29374NDYXSCWB","either","5","206","","","","","","","0","1","0","","0.4100212433","0.4","0.8","0.2","0.6","0.102794739","0.2778145345","0.4100212433","0.392676409","","","","","","","","","","","","75","K","2","","","25","main_expt"
"","bandit","105","805089","0.0-66.0-0.0","49348775","wem/bandit_either_2","A29374NDYXSCWB","either","5","215","","","","","","","0","1","0","","0.4190791169","0.4","0.8","0.2","0.6","0.1173732637","0.3170506137","0.4190791169","0.4031565401","","","","","","","","","","","","75","K","2","","","26","main_expt"
"","bandit","106","806793","0.0-67.0-0.0","49348775","wem/bandit_either_2","A29374NDYXSCWB","either","5","194","","","","","","","1","0","0","0.4527212376","","0.4","0.8","0.2","0.6","","","","","0.08835016803","0.3223143746","0.4527212376","0.4245959001","","","","","","","","75","K","2","","","27","main_expt"
"","bandit","107","808509","0.0-68.0-0.0","49348775","wem/bandit_either_2","A29374NDYXSCWB","either","5","206","","","","","","","0","0","1","0.4480998813","","0.4","0.8","0.2","0.6","","","","","0.1134440288","0.3234472479","0.4480998813","0.4232885055","","","","","","","","75","K","2","","","28","main_expt"
"","bandit","108","811385","0.0-69.0-0.0","49348775","wem/bandit_either_2","A29374NDYXSCWB","either","5","1365","","","","","","","0","0","1","","0.4628669208","0.4","0.8","0.2","0.6","0.1982905849","0.2881425904","0.4628669208","0.4495512981","","","","","","","","","","","","75","K","2","","","29","main_expt"
"","bandit","109","812989","0.0-70.0-0.0","49348775","wem/bandit_either_2","A29374NDYXSCWB","either","5","96","","","","","","","0","1","0","","0.2326555855","0.4","0.8","0.2","0.6","0.2366655967","0.2326555855","0.4565655028","0.4485299892","","","","","","","","","","","","74","J","1","","","30","main_expt"
"","bandit","110","814880","0.0-71.0-0.0","49348775","wem/bandit_either_2","A29374NDYXSCWB","either","5","380","","","","","","","0","0","1","","0.2364604256","0.4","0.8","0.2","0.6","0.1622470467","0.2364604256","0.4686031056","0.4599237238","","","","","","","","","","","","74","J","1","","","31","main_expt"
"","bandit","111","816692","0.0-72.0-0.0","49348775","wem/bandit_either_2","A29374NDYXSCWB","either","5","301","","","","","","","0","0","1","0.2451982598","","0.4","0.8","0.2","0.6","","","","","0.1771911602","0.2451982598","0.4659582456","0.4508116693","","","","","","","","74","J","1","","","32","main_expt"
"","bandit","112","818386","0.0-73.0-0.0","49348775","wem/bandit_either_2","A29374NDYXSCWB","either","5","183","","","","","","","0","0","1","","0.1622836308","0.4","0.8","0.2","0.6","0.1622836308","0.2360369815","0.4810757035","0.45101727","","","","","","","","","","","","72","H","0","img/none_selected.jpg","","33","main_expt"
"","bandit","113","820201","0.0-74.0-0.0","49348775","wem/bandit_either_2","A29374NDYXSCWB","either","5","305","","","","","","","0","0","1","","0.1655985557","0.4","0.8","0.2","0.6","0.1655985557","0.2317763892","0.4842727378","0.4340174653","","","","","","","","","","","","72","H","0","img/none_selected.jpg","","34","main_expt"
"","bandit","114","821976","0.0-75.0-0.0","49348775","wem/bandit_either_2","A29374NDYXSCWB","either","5","264","","","","","","","0","0","1","","0.1492797185","0.4","0.8","0.2","0.6","0.1492797185","0.2527891731","0.4745470136","0.4040147441","","","","","","","","","","","","72","H","0","img/none_selected.jpg","","35","main_expt"
"","bandit","115","823679","0.0-76.0-0.0","49348775","wem/bandit_either_2","A29374NDYXSCWB","either","5","192","","","","","","","0","0","1","","0.4440965139","0.4","0.8","0.2","0.6","0.1504543003","0.2641283143","0.4440965139","0.4268829696","","","","","","","","","","","","75","K","2","","","36","main_expt"
"","bandit","116","825589","0.0-77.0-0.0","49348775","wem/bandit_either_2","A29374NDYXSCWB","either","5","400","","","","","","","1","0","0","0.4544425755","","0.4","0.8","0.2","0.6","","","","","0.1064249526","0.2309310423","0.4544425755","0.4562327564","","","","","","","","75","K","2","","","37","main_expt"
"","bandit","117","827338","0.0-78.0-0.0","49348775","wem/bandit_either_2","A29374NDYXSCWB","either","5","239","","","","","","","0","0","1","","0.4700138218","0.4","0.8","0.2","0.6","0.1346530267","0.2093170459","0.4700138218","0.4481627861","","","","","","","","","","","","75","K","2","","","38","main_expt"
"","bandit","118","829223","0.0-79.0-0.0","49348775","wem/bandit_either_2","A29374NDYXSCWB","either","5","377","","","","","","","0","0","1","0.466948448","","0.4","0.8","0.2","0.6","","","","","0.1303494481","0.1398625959","0.466948448","0.4475890948","","","","","","","","75","K","2","","","39","main_expt"
"","bandit","119","831069","0.0-80.0-0.0","49348775","wem/bandit_either_2","A29374NDYXSCWB","either","5","334","","","","","","","0","1","0","","0.4679256248","0.4","0.8","0.2","0.6","0.1492074344","0.09690087606","0.4679256248","0.4501575696","","","","","","","","","","","","75","K","2","","","40","main_expt"
"","bandit","120","832917","0.0-81.0-0.0","49348775","wem/bandit_either_2","A29374NDYXSCWB","either","5","337","","","","","","","0","0","1","0.445537573","","0.4","0.8","0.2","0.6","","","","","0.1370672299","0.1129569356","0.445537573","0.4121884666","","","","","","","","75","K","2","","","41","main_expt"
"","bandit","121","834637","0.0-82.0-0.0","49348775","wem/bandit_either_2","A29374NDYXSCWB","either","5","211","","","","","","","0","0","1","","0.4521531226","0.4","0.8","0.2","0.6","0.08144147181","0.1227033228","0.4521531226","0.4379939247","","","","","","","","","","","","75","K","2","","","42","main_expt"
"","bandit","122","836320","0.0-83.0-0.0","49348775","wem/bandit_either_2","A29374NDYXSCWB","either","5","175","","","","","","","0","0","1","0.08393287497","","0.4","0.8","0.2","0.6","","","","","0.06793865388","0.08393287497","0.4695072217","0.4271747655","","","","","","","","74","J","1","","","43","main_expt"
"","bandit","123","837980","0.0-84.0-0.0","49348775","wem/bandit_either_2","A29374NDYXSCWB","either","5","149","","","","","","","0","0","1","0.06260074275","","0.4","0.8","0.2","0.6","","","","","0.05295344446","0.06260074275","0.4807409838","0.4480494518","","","","","","","","74","J","1","","","44","main_expt"
"","bandit","124","839703","0.0-85.0-0.0","49348775","wem/bandit_either_2","A29374NDYXSCWB","either","5","211","","","","","","","0","0","1","0.08062123592","","0.4","0.8","0.2","0.6","","","","","0.02744239742","0.08062123592","0.4507048108","0.4269729589","","","","","","","","74","J","1","","","45","main_expt"
"","bandit","125","841323","0.0-86.0-0.0","49348775","wem/bandit_either_2","A29374NDYXSCWB","either","5","110","","","","","","","0","1","0","","0.4475746277","0.4","0.8","0.2","0.6","0.02347437243","0.1110847749","0.4382321206","0.4475746277","","","","","","","","","","","","76","L","3","","","46","main_expt"
"","bandit","126","843015","0.0-87.0-0.0","49348775","wem/bandit_either_2","A29374NDYXSCWB","either","5","185","","","","","","","0","0","1","0.4295618238","","0.4","0.8","0.2","0.6","","","","","0.02418160198","0.05346849493","0.4393937913","0.4295618238","","","","","","","","76","L","3","","","47","main_expt"
"","bandit","127","844605","0.0-88.0-0.0","49348775","wem/bandit_either_2","A29374NDYXSCWB","either","5","83","","","","","","","0","0","1","","0.4431907244","0.4","0.8","0.2","0.6","0.01182676654","0.04499733497","0.440318131","0.4431907244","","","","","","","","","","","","76","L","3","","","48","main_expt"
"","bandit","128","846378","0.0-89.0-0.0","49348775","wem/bandit_either_2","A29374NDYXSCWB","either","5","264","","","","","","","0","0","1","","0.4187732916","0.4","0.8","0.2","0.6","0.0186287842","0.07378534534","0.4362102412","0.4187732916","","","","","","","","","","","","76","L","3","","","49","main_expt"
"","bandit","129","848119","0.0-90.0-0.0","49348775","wem/bandit_either_2","A29374NDYXSCWB","either","5","231","","","","","","","0","0","1","","0.356579213","0.4","0.8","0.2","0.6","0.02550629551","0.06168845619","0.44488671","0.356579213","","","","","","","","","","","","76","L","3","","","50","main_expt"
"","bandit","130","849932","0.0-91.0-0.0","49348775","wem/bandit_either_2","A29374NDYXSCWB","either","5","304","","","","","","","0","0","1","","0.04366809707","0.4","0.8","0.2","0.6","0.04366809707","0.1062028567","0.4633405548","0.2629404955","","","","","","","","","","","","72","H","0","img/none_selected.jpg","","51","main_expt"
"","bandit","131","852000","0.0-92.0-0.0","49348775","wem/bandit_either_2","A29374NDYXSCWB","either","5","555","","","","","","","0","0","1","","0.04357168116","0.4","0.8","0.2","0.6","0.04357168116","0.1379608546","0.4528043762","0.2919747068","","","","","","","","","","","","72","H","0","img/none_selected.jpg","","52","main_expt"
"","bandit","132","853584","0.0-93.0-0.0","49348775","wem/bandit_either_2","A29374NDYXSCWB","either","5","72","","","","","","","0","0","1","","0.4390431751","0.4","0.8","0.2","0.6","0.03899227154","0.1356826849","0.4390431751","0.3809901122","","","","","","","","","","","","75","K","2","","","53","main_expt"
"","bandit","133","855338","0.0-94.0-0.0","49348775","wem/bandit_either_2","A29374NDYXSCWB","either","5","244","","","","","","","0","0","1","","0.4549270822","0.4","0.8","0.2","0.6","0.04009146386","0.1038772241","0.4549270822","0.3452518694","","","","","","","","","","","","75","K","2","","","54","main_expt"
"","bandit","134","857087","0.0-95.0-0.0","49348775","wem/bandit_either_2","A29374NDYXSCWB","either","5","237","","","","","","","0","0","1","","0.4710341864","0.4","0.8","0.2","0.6","0.0155768565","0.1689791829","0.4710341864","0.3263112327","","","","","","","","","","","","75","K","2","","","55","main_expt"
"","bandit","135","858820","0.0-96.0-0.0","49348775","wem/bandit_either_2","A29374NDYXSCWB","either","5","221","","","","","","","0","1","0","","0.4745834276","0.4","0.8","0.2","0.6","0.02112461672","0.1108888145","0.4745834276","0.3308963945","","","","","","","","","","","","75","K","2","","","56","main_expt"
"","bandit","136","860547","0.0-97.0-0.0","49348775","wem/bandit_either_2","A29374NDYXSCWB","either","5","217","","","","","","","1","0","0","0.489318572","","0.4","0.8","0.2","0.6","","","","","0.0126553198","0.1206542402","0.489318572","0.3150326571","","","","","","","","75","K","2","","","57","main_expt"
"","bandit","137","862280","0.0-98.0-0.0","49348775","wem/bandit_either_2","A29374NDYXSCWB","either","5","222","","","","","","","0","0","1","0.480037986","","0.4","0.8","0.2","0.6","","","","","0.01131359515","0.09707343937","0.480037986","0.3049116772","","","","","","","","75","K","2","","","58","main_expt"
"","bandit","138","863912","0.0-99.0-0.0","49348775","wem/bandit_either_2","A29374NDYXSCWB","either","5","122","","","","","","","1","0","0","0.4593461039","","0.4","0.8","0.2","0.6","","","","","0.01030075821","0.1044384952","0.4593461039","0.3050987947","","","","","","","","75","K","2","","","59","main_expt"
"","bandit","139","865673","0.0-100.0-0.0","49348775","wem/bandit_either_2","A29374NDYXSCWB","either","5","250","","","","","","","0","0","1","","0.446051488","0.4","0.8","0.2","0.6","0.005868957973","0.08890369623","0.446051488","0.3274009355","","","","","","","","","","","","75","K","2","","","60","main_expt"
"","bandit","140","867346","0.0-101.0-0.0","49348775","wem/bandit_either_2","A29374NDYXSCWB","either","5","161","","","","","","","0","0","1","","0.4391285327","0.4","0.8","0.2","0.6","0.004361943215","0.08921221942","0.4391285327","0.3428943983","","","","","","","","","","","","75","K","2","","","61","main_expt"
"","bandit","141","868933","0.0-102.0-0.0","49348775","wem/bandit_either_2","A29374NDYXSCWB","either","5","75","","","","","","","1","0","0","0.09812025034","","0.4","0.8","0.2","0.6","","","","","0.005208412743","0.09812025034","0.4063883723","0.3549763931","","","","","","","","74","J","1","","","62","main_expt"
"","bandit","142","870680","0.0-103.0-0.0","49348775","wem/bandit_either_2","A29374NDYXSCWB","either","5","237","","","","","","","0","0","1","0.09006279409","","0.4","0.8","0.2","0.6","","","","","0.006461011255","0.09006279409","0.4330387396","0.3496678451","","","","","","","","74","J","1","","","63","main_expt"
"","bandit","143","872422","0.0-104.0-0.0","49348775","wem/bandit_either_2","A29374NDYXSCWB","either","5","230","","","","","","","0","0","1","0.3188537263","","0.4","0.8","0.2","0.6","","","","","0.01267926231","0.1118976224","0.4207902426","0.3188537263","","","","","","","","76","L","3","","","64","main_expt"
"","bandit","144","874475","0.0-105.0-0.0","49348775","wem/bandit_either_2","A29374NDYXSCWB","either","5","538","","","","","","","0","0","1","","0.009732787917","0.4","0.8","0.2","0.6","0.009732787917","0.1053817613","0.3719582347","0.3191795336","","","","","","","","","","","","72","H","0","img/none_selected.jpg","","65","main_expt"
"","bandit","145","876304","0.0-106.0-0.0","49348775","wem/bandit_either_2","A29374NDYXSCWB","either","5","318","","","","","","","0","0","1","","0.3748569955","0.4","0.8","0.2","0.6","0.01092542651","0.1307356695","0.3748569955","0.268616347","","","","","","","","","","","","75","K","2","","","66","main_expt"
"","bandit","146","878019","0.0-107.0-0.0","49348775","wem/bandit_either_2","A29374NDYXSCWB","either","5","205","","","","","","","0","0","1","","0.1418436428","0.4","0.8","0.2","0.6","0.02125534741","0.1418436428","0.335252031","0.259194563","","","","","","","","","","","","74","J","1","","","67","main_expt"
"","bandit","147","879772","0.0-108.0-0.0","49348775","wem/bandit_either_2","A29374NDYXSCWB","either","5","241","","","","","","","0","1","0","","0.1459089566","0.4","0.8","0.2","0.6","0.02360283027","0.1459089566","0.3199157278","0.2281204868","","","","","","","","","","","","74","J","1","","","68","main_expt"
"","bandit","148","881497","0.0-109.0-0.0","49348775","wem/bandit_either_2","A29374NDYXSCWB","either","5","216","","","","","","","0","0","1","","0.1809721424","0.4","0.8","0.2","0.6","0.02539305756","0.1809721424","0.3068525281","0.2195844169","","","","","","","","","","","","74","J","1","","","69","main_expt"
"","bandit","149","883242","0.0-110.0-0.0","49348775","wem/bandit_either_2","A29374NDYXSCWB","either","5","232","","","","","","","0","0","1","0.1784068974","","0.4","0.8","0.2","0.6","","","","","0.05014388586","0.1784068974","0.3181076016","0.1883338509","","","","","","","","74","J","1","","","70","main_expt"
"","bandit","150","884798","0.0-111.0-0.0","49348775","wem/bandit_either_2","A29374NDYXSCWB","either","5","45","","","","","","","0","1","0","","0.2926426422","0.4","0.8","0.2","0.6","0.04209054697","0.1973023396","0.2926426422","0.1639708178","","","","","","","","","","","","75","K","2","","","71","main_expt"
"","bandit","151","886577","0.0-112.0-0.0","49348775","wem/bandit_either_2","A29374NDYXSCWB","either","5","268","","","","","","","0","1","0","","0.2380263643","0.4","0.8","0.2","0.6","0.05611199342","0.2436342847","0.2380263643","0.1312842785","","","","","","","","","","","","75","K","2","","","72","main_expt"
"","bandit","152","888326","0.0-113.0-0.0","49348775","wem/bandit_either_2","A29374NDYXSCWB","either","5","242","","","","","","","0","0","1","","0.2407197948","0.4","0.8","0.2","0.6","0.05293238473","0.1992173182","0.2407197948","0.1805041857","","","","","","","","","","","","75","K","2","","","73","main_expt"
"","bandit","153","889944","0.0-114.0-0.0","49348775","wem/bandit_either_2","A29374NDYXSCWB","either","5","104","","","","","","","0","0","1","0.2317468449","","0.4","0.8","0.2","0.6","","","","","0.0318456884","0.2347098304","0.2317468449","0.1739557812","","","","","","","","75","K","2","","","74","main_expt"
"","bandit","154","891757","0.0-115.0-0.0","49348775","wem/bandit_either_2","A29374NDYXSCWB","either","5","301","","","","","","","0","0","1","","0.03873230677","0.4","0.8","0.2","0.6","0.03873230677","0.2641442137","0.2545997551","0.2434916027","","","","","","","","","","","","72","H","0","img/none_selected.jpg","","75","main_expt"
"","bandit","155","893629","0.0-116.0-0.0","49348775","wem/bandit_either_2","A29374NDYXSCWB","either","5","361","","","","","","","0","0","1","","0.03304947682","0.4","0.8","0.2","0.6","0.03304947682","0.3192644053","0.2890845388","0.2438468568","","","","","","","","","","","","72","H","0","img/none_selected.jpg","","76","main_expt"
"","bandit","156","895494","0.0-117.0-0.0","49348775","wem/bandit_either_2","A29374NDYXSCWB","either","5","354","","","","","","","0","0","1","","0.02607887458","0.4","0.8","0.2","0.6","0.02607887458","0.3351132613","0.2386362654","0.2425324642","","","","","","","","","","","","72","H","0","img/none_selected.jpg","","77","main_expt"
"","bandit","157","897123","0.0-118.0-0.0","49348775","wem/bandit_either_2","A29374NDYXSCWB","either","5","120","","","","","","","0","0","1","0.205588479","","0.4","0.8","0.2","0.6","","","","","0.02492981692","0.3086784207","0.2673679704","0.205588479","","","","","","","","76","L","3","","","78","main_expt"
"","bandit","158","898867","0.0-119.0-0.0","49348775","wem/bandit_either_2","A29374NDYXSCWB","either","5","233","","","","","","","0","0","1","0.213062191","","0.4","0.8","0.2","0.6","","","","","0.01824110002","0.3076482073","0.2813811921","0.213062191","","","","","","","","76","L","3","","","79","main_expt"
"","bandit","159","900544","0.0-120.0-0.0","49348775","wem/bandit_either_2","A29374NDYXSCWB","either","5","167","","","","","","","0","0","1","0.1852926048","","0.4","0.8","0.2","0.6","","","","","0.0202176162","0.3605025214","0.2419447949","0.1852926048","","","","","","","","76","L","3","","","80","main_expt"
"","bandit","160","902162","0.0-121.0-0.0","49348775","wem/bandit_either_2","A29374NDYXSCWB","either","5","107","","","","","","","0","0","1","","0.323481111","0.4","0.8","0.2","0.6","0.0252752587","0.3286166321","0.323481111","0.2332942271","","","","","","","","","","","","75","K","2","","","81","main_expt"
"","bandit","161","903838","0.0-122.0-0.0","49348775","wem/bandit_either_2","A29374NDYXSCWB","either","5","166","","","","","","","0","0","1","","0.3097244961","0.4","0.8","0.2","0.6","0.05668457717","0.3459677762","0.3097244961","0.2087797338","","","","","","","","","","","","75","K","2","","","82","main_expt"
"","bandit","162","905516","0.0-123.0-0.0","49348775","wem/bandit_either_2","A29374NDYXSCWB","either","5","165","","","","","","","0","0","1","","0.2787498647","0.4","0.8","0.2","0.6","0.07760530004","0.3092751195","0.2787498647","0.2049979043","","","","","","","","","","","","75","K","2","","","83","main_expt"
"","bandit","163","907095","0.0-124.0-0.0","49348775","wem/bandit_either_2","A29374NDYXSCWB","either","5","69","","","","","","","0","0","1","","0.2589524449","0.4","0.8","0.2","0.6","0.03696005566","0.3044630387","0.2589524449","0.2151780091","","","","","","","","","","","","75","K","2","","","84","main_expt"
"","bandit","164","908818","0.0-125.0-0.0","49348775","wem/bandit_either_2","A29374NDYXSCWB","either","5","211","","","","","","","0","0","1","0.2812480587","","0.4","0.8","0.2","0.6","","","","","0.04177257934","0.2812480587","0.2769318636","0.1497615914","","","","","","","","74","J","1","","","85","main_expt"
"","bandit","165","910530","0.0-126.0-0.0","49348775","wem/bandit_either_2","A29374NDYXSCWB","either","5","202","","","","","","","0","0","1","0.2506532223","","0.4","0.8","0.2","0.6","","","","","0.0385770192","0.2506532223","0.2849222391","0.1223687677","","","","","","","","74","J","1","","","86","main_expt"
"","bandit","166","912222","0.0-127.0-0.0","49348775","wem/bandit_either_2","A29374NDYXSCWB","either","5","184","","","","","","","0","0","1","0.2269900387","","0.4","0.8","0.2","0.6","","","","","0.03720252147","0.2269900387","0.3131087309","0.1472857413","","","","","","","","74","J","1","","","87","main_expt"
"","bandit","167","913895","0.0-128.0-0.0","49348775","wem/bandit_either_2","A29374NDYXSCWB","either","5","163","","","","","","","0","0","1","","0.1504729919","0.4","0.8","0.2","0.6","0.06746059371","0.1504729919","0.3038587512","0.1252586248","","","","","","","","","","","","74","J","1","","","88","main_expt"
"","bandit","168","915636","0.0-129.0-0.0","49348775","wem/bandit_either_2","A29374NDYXSCWB","either","5","229","","","","","","","1","0","0","0.1382070302","","0.4","0.8","0.2","0.6","","","","","0.04069757945","0.1382070302","0.3308022157","0.1194927994","","","","","","","","74","J","1","","","89","main_expt"
"","bandit","169","917389","0.0-130.0-0.0","49348775","wem/bandit_either_2","A29374NDYXSCWB","either","5","239","","","","","","","0","0","1","","0.1364765349","0.4","0.8","0.2","0.6","0.07325379503","0.1364765349","0.3574922351","0.1589750007","","","","","","","","","","","","74","J","1","","","90","main_expt"
"","bandit","170","919054","0.0-131.0-0.0","49348775","wem/bandit_either_2","A29374NDYXSCWB","either","5","153","","","","","","","0","1","0","","0.09318196272","0.4","0.8","0.2","0.6","0.06877471811","0.09318196272","0.3729517688","0.1859960426","","","","","","","","","","","","74","J","1","","","91","main_expt"
"","bandit","171","920760","0.0-132.0-0.0","49348775","wem/bandit_either_2","A29374NDYXSCWB","either","5","198","","","","","","","0","0","1","","0.06946097624","0.4","0.8","0.2","0.6","0.04115987362","0.06946097624","0.398352994","0.192419488","","","","","","","","","","","","74","J","1","","","92","main_expt"
"","bandit","172","922371","0.0-133.0-0.0","49348775","wem/bandit_either_2","A29374NDYXSCWB","either","5","101","","","","","","","0","0","1","0.08102832817","","0.4","0.8","0.2","0.6","","","","","0.07078892783","0.08102832817","0.4135860398","0.1716033463","","","","","","","","74","J","1","","","93","main_expt"
"","bandit","173","924010","0.0-134.0-0.0","49348775","wem/bandit_either_2","A29374NDYXSCWB","either","5","131","","","","","","","0","0","1","0.1271360848","","0.4","0.8","0.2","0.6","","","","","0.05572868433","0.1271360848","0.3786880174","0.1935897604","","","","","","","","74","J","1","","","94","main_expt"
"","bandit","174","926151","0.0-135.0-0.0","49348775","wem/bandit_either_2","A29374NDYXSCWB","either","5","630","","","","","","","0","0","1","0.05056929995","","0.4","0.8","0.2","0.6","","","","","0.05056929995","0.1097592989","0.3823424718","0.2193228015","","","","","","","","72","H","0","img/none_selected.jpg","","95","main_expt"
"","bandit","175","932677","0.0-136.0-0.0","49348775","wem/bandit_either_2","A29374NDYXSCWB","either","5","5017","","","","","","","0","0","1","0.04159874267","","0.4","0.8","0.2","0.6","","","","","0.04159874267","0.1085490834","0.3642725552","0.3262643469","","","","","","","","72","H","0","img/none_selected.jpg","","96","main_expt"
"","bandit","176","934207","0.0-137.0-0.0","49348775","wem/bandit_either_2","A29374NDYXSCWB","either","5","20","","","","","","","0","0","1","0.3207405496","","0.4","0.8","0.2","0.6","","","","","0.03654451862","0.1049812554","0.3197717944","0.3207405496","","","","","","","","76","L","3","","","97","main_expt"
"","bandit","177","936993","0.0-138.0-0.0","49348775","wem/bandit_either_2","A29374NDYXSCWB","either","5","1275","","","","","","","0","0","1","","0.3712856991","0.4","0.8","0.2","0.6","0.04190300095","0.08177978443","0.2514424369","0.3712856991","","","","","","","","","","","","76","L","3","","","98","main_expt"
"","bandit","178","939307","0.0-139.0-0.0","49348775","wem/bandit_either_2","A29374NDYXSCWB","either","5","802","","","","","","","0","0","1","","0.2926772137","0.4","0.8","0.2","0.6","0.08742990617","0.07574087804","0.2926772137","0.3740145378","","","","","","","","","","","","75","K","2","","","99","main_expt"
"","bandit","179","942062","0.0-140.0-0.0","49348775","wem/bandit_either_2","A29374NDYXSCWB","either","5","1243","","","","","","","0","0","1","0.07829319678","","0.4","0.8","0.2","0.6","","","","","0.08966523481","0.07829319678","0.234485335","0.3776295542","","","","","","","","74","J","1","","","100","main_expt"
"","bandit","180","954004","0.0-141.0-0.0","49348775","wem/bandit_either_2","A29374NDYXSCWB","either","5","10428","","","","","","","0","0","1","","0.07849065771","0.4","0.8","0.2","0.6","0.07849065771","0.07919243683","0.250352175","0.3592666398","","","","","","","","","","","","72","H","0","img/none_selected.jpg","","101","main_expt"
"","bandit","181","956281","0.0-142.0-0.0","49348775","wem/bandit_either_2","A29374NDYXSCWB","either","5","767","","","","","","","0","0","1","","0.1052753188","0.4","0.8","0.2","0.6","0.1054267613","0.1052753188","0.2139972863","0.3412191773","","","","","","","","","","","","74","J","1","","","102","main_expt"
"","bandit","182","958187","0.0-143.0-0.0","49348775","wem/bandit_either_2","A29374NDYXSCWB","either","5","394","","","","","","","0","0","1","0.1248526142","","0.4","0.8","0.2","0.6","","","","","0.1120981937","0.1248526142","0.20092706","0.3133100433","","","","","","","","74","J","1","","","103","main_expt"
"","bandit","183","960321","0.0-144.0-0.0","49348775","wem/bandit_either_2","A29374NDYXSCWB","either","5","621","","","","","","","0","1","0","","0.3219148419","0.4","0.8","0.2","0.6","0.1034740879","0.142969925","0.2305366804","0.3219148419","","","","","","","","","","","","76","L","3","","","104","main_expt"
"","bandit","184","1045119","0.0-145.0-0.0","49348775","wem/bandit_either_2","A29374NDYXSCWB","either","5","83286","","","","","","","0","0","1","0.13947254","","0.4","0.8","0.2","0.6","","","","","0.07597240327","0.13947254","0.2102135581","0.3300892518","","","","","","","","74","J","1","","","105","main_expt"
"","bandit","185","1046836","0.0-146.0-0.0","49348775","wem/bandit_either_2","A29374NDYXSCWB","either","5","204","","","","","","","0","0","1","0.1329526997","","0.4","0.8","0.2","0.6","","","","","0.1124257427","0.1329526997","0.2219457329","0.3401839058","","","","","","","","74","J","1","","","106","main_expt"
"","bandit","186","1048468","0.0-147.0-0.0","49348775","wem/bandit_either_2","A29374NDYXSCWB","either","5","118","","","","","","","0","0","1","0.1727290233","","0.4","0.8","0.2","0.6","","","","","0.1133168519","0.1727290233","0.3048423019","0.3784706915","","","","","","","","74","J","1","","","107","main_expt"
"","bandit","187","1049996","0.0-148.0-0.0","49348775","wem/bandit_either_2","A29374NDYXSCWB","either","5","17","","","","","","","0","0","1","","0.258150515","0.4","0.8","0.2","0.6","0.1752395656","0.1864487031","0.258150515","0.3945753887","","","","","","","","","","","","75","K","2","","","108","main_expt"
"","bandit","188","1051719","0.0-149.0-0.0","49348775","wem/bandit_either_2","A29374NDYXSCWB","either","5","209","","","","","","","0","0","1","0.1859129148","","0.4","0.8","0.2","0.6","","","","","0.1862973424","0.2463216238","0.1859129148","0.356827327","","","","","","","","75","K","2","","","109","main_expt"
"","bandit","189","1053336","0.0-150.0-0.0","49348775","wem/bandit_either_2","A29374NDYXSCWB","either","5","109","","","","","","","0","0","1","","0.1371624404","0.4","0.8","0.2","0.6","0.2015845776","0.2431522628","0.1371624404","0.2344179837","","","","","","","","","","","","75","K","2","","","110","main_expt"
"","bandit","190","1054929","0.0-151.0-0.0","49348775","wem/bandit_either_2","A29374NDYXSCWB","either","5","85","","","","","","","0","0","1","","0.1258232978","0.4","0.8","0.2","0.6","0.2003651753","0.1757476643","0.1258232978","0.2644823096","","","","","","","","","","","","75","K","2","","","111","main_expt"
"","bandit","191","1056701","0.0-152.0-0.0","49348775","wem/bandit_either_2","A29374NDYXSCWB","either","5","259","","","","","","","0","0","1","0.28311182","","0.4","0.8","0.2","0.6","","","","","0.21392293","0.2451518953","0.1529967373","0.28311182","","","","","","","","76","L","3","","","112","main_expt"
"","bandit","192","1058480","0.0-153.0-0.0","49348775","wem/bandit_either_2","A29374NDYXSCWB","either","5","266","","","","","","","1","0","0","0.2413269532","","0.4","0.8","0.2","0.6","","","","","0.1606798039","0.2407836715","0.148248117","0.2413269532","","","","","","","","76","L","3","","","113","main_expt"
"","bandit","193","1060245","0.0-154.0-0.0","49348775","wem/bandit_either_2","A29374NDYXSCWB","either","5","252","","","","","","","0","0","1","0.3100969134","","0.4","0.8","0.2","0.6","","","","","0.2095980235","0.3099317417","0.1562208239","0.3100969134","","","","","","","","76","L","3","","","114","main_expt"
"","bandit","194","1061996","0.0-155.0-0.0","49348775","wem/bandit_either_2","A29374NDYXSCWB","either","5","240","","","","","","","1","0","0","0.329842252","","0.4","0.8","0.2","0.6","","","","","0.2550279667","0.3180754701","0.2138032898","0.329842252","","","","","","","","76","L","3","","","115","main_expt"
"","bandit","195","1063743","0.0-156.0-0.0","49348775","wem/bandit_either_2","A29374NDYXSCWB","either","5","239","","","","","","","0","0","1","","0.3223706096","0.4","0.8","0.2","0.6","0.2471764387","0.2919742107","0.2331260325","0.3223706096","","","","","","","","","","","","76","L","3","","","116","main_expt"
"","bandit","196","1065524","0.0-157.0-0.0","49348775","wem/bandit_either_2","A29374NDYXSCWB","either","5","268","","","","","","","0","0","1","0.3098408215","","0.4","0.8","0.2","0.6","","","","","0.2730878341","0.2799774295","0.1826309729","0.3098408215","","","","","","","","76","L","3","","","117","main_expt"
"","bandit","197","1067280","0.0-158.0-0.0","49348775","wem/bandit_either_2","A29374NDYXSCWB","either","5","244","","","","","","","0","0","1","","0.2974554567","0.4","0.8","0.2","0.6","0.2071462199","0.2646714695","0.1511269107","0.2974554567","","","","","","","","","","","","76","L","3","","","118","main_expt"
"","bandit","198","1068990","0.0-159.0-0.0","49348775","wem/bandit_either_2","A29374NDYXSCWB","either","5","197","","","","","","","0","0","1","0.3598468986","","0.4","0.8","0.2","0.6","","","","","0.2275232499","0.3179839519","0.1559979654","0.3598468986","","","","","","","","76","L","3","","","119","main_expt"
"","bandit","199","1070715","0.0-160.0-0.0","49348775","wem/bandit_either_2","A29374NDYXSCWB","either","5","213","","","","","","","0","0","1","","0.2984373086","0.4","0.8","0.2","0.6","0.2767559596","0.3302262658","0.1463004055","0.2984373086","","","","","","","","","","","","76","L","3","","","120","main_expt"
"","bandit","200","1072392","0.0-161.0-0.0","49348775","wem/bandit_either_2","A29374NDYXSCWB","either","5","164","","","","","","","0","0","1","","0.2973090059","0.4","0.8","0.2","0.6","0.3448590315","0.3500549905","0.1418195479","0.2973090059","","","","","","","","","","","","76","L","3","","","121","main_expt"
"","bandit","201","1074283","0.0-162.0-0.0","49348775","wem/bandit_either_2","A29374NDYXSCWB","either","5","377","","","","","","","0","0","1","0.3382791822","","0.4","0.8","0.2","0.6","","","","","0.3593301016","0.2686616284","0.1270782113","0.3382791822","","","","","","","","76","L","3","","","122","main_expt"
"","bandit","202","1075884","0.0-163.0-0.0","49348775","wem/bandit_either_2","A29374NDYXSCWB","either","5","89","","","","","","","0","1","0","","0.3680529171","0.4","0.8","0.2","0.6","0.3680529171","0.2277230314","0.1207154071","0.3154347028","","","","","","","","","","","","72","H","0","img/none_selected.jpg","","123","main_expt"
"","bandit","203","1077628","0.0-164.0-0.0","49348775","wem/bandit_either_2","A29374NDYXSCWB","either","5","232","","","","","","","1","0","0","0.3476523483","","0.4","0.8","0.2","0.6","","","","","0.3476523483","0.3287090939","0.1229329119","0.2966737815","","","","","","","","72","H","0","img/none_selected.jpg","","124","main_expt"
"","bandit","204","1079416","0.0-165.0-0.0","49348775","wem/bandit_either_2","A29374NDYXSCWB","either","5","274","","","","","","","1","0","0","0.3564603465","","0.4","0.8","0.2","0.6","","","","","0.3564603465","0.3687339586","0.09241122996","0.3094831126","","","","","","","","72","H","0","img/none_selected.jpg","","125","main_expt"
"","bandit","205","1081150","0.0-166.0-0.0","49348775","wem/bandit_either_2","A29374NDYXSCWB","either","5","223","","","","","","","0","0","1","0.3550684458","","0.4","0.8","0.2","0.6","","","","","0.3550684458","0.3836195774","0.08418962236","0.2488993205","","","","","","","","72","H","0","img/none_selected.jpg","","126","main_expt"
"","bandit","206","1082886","0.0-167.0-0.0","49348775","wem/bandit_either_2","A29374NDYXSCWB","either","5","224","","","","","","","0","0","1","","0.3235559827","0.4","0.8","0.2","0.6","0.3235559827","0.3617365958","0.154715772","0.1953487027","","","","","","","","","","","","72","H","0","img/none_selected.jpg","","127","main_expt"
"","bandit","207","1084586","0.0-168.0-0.0","49348775","wem/bandit_either_2","A29374NDYXSCWB","either","5","185","","","","","","","0","0","1","","0.312087491","0.4","0.8","0.2","0.6","0.312087491","0.3235283493","0.1556709078","0.2171889907","","","","","","","","","","","","72","H","0","img/none_selected.jpg","","128","main_expt"
"","bandit","208","1086320","0.0-169.0-0.0","49348775","wem/bandit_either_2","A29374NDYXSCWB","either","5","222","","","","","","","1","0","0","0.3453830546","","0.4","0.8","0.2","0.6","","","","","0.2843272188","0.3453830546","0.1214200615","0.2467699801","","","","","","","","74","J","1","","","129","main_expt"
"","bandit","209","1088089","0.0-170.0-0.0","49348775","wem/bandit_either_2","A29374NDYXSCWB","either","5","254","","","","","","","0","0","1","0.3242747857","","0.4","0.8","0.2","0.6","","","","","0.2128416856","0.3242747857","0.1377283829","0.2814443482","","","","","","","","74","J","1","","","130","main_expt"
"","bandit","210","1089753","0.0-171.0-0.0","49348775","wem/bandit_either_2","A29374NDYXSCWB","either","5","151","","","","","","","0","0","1","0.3417201858","","0.4","0.8","0.2","0.6","","","","","0.2403879813","0.3417201858","0.1397421628","0.2834176508","","","","","","","","74","J","1","","","131","main_expt"
"","bandit","211","1091511","0.0-172.0-0.0","49348775","wem/bandit_either_2","A29374NDYXSCWB","either","5","246","","","","","","","0","0","1","0.3498614837","","0.4","0.8","0.2","0.6","","","","","0.2811421594","0.3498614837","0.1061875113","0.2429908031","","","","","","","","74","J","1","","","132","main_expt"
"","bandit","212","1093456","0.0-173.0-0.0","49348775","wem/bandit_either_2","A29374NDYXSCWB","either","5","432","","","","","","","0","1","0","","0.3134828643","0.4","0.8","0.2","0.6","0.3002858371","0.3134828643","0.07774811701","0.3053559495","","","","","","","","","","","","74","J","1","","","133","main_expt"
"","bandit","213","1095125","0.0-174.0-0.0","49348775","wem/bandit_either_2","A29374NDYXSCWB","either","5","158","","","","","","","0","0","1","0.3554593188","","0.4","0.8","0.2","0.6","","","","","0.277406375","0.3554593188","0.08211281178","0.2693478067","","","","","","","","74","J","1","","","134","main_expt"
"","bandit","214","1096710","0.0-175.0-0.0","49348775","wem/bandit_either_2","A29374NDYXSCWB","either","5","73","","","","","","","0","0","1","0.3150900126","","0.4","0.8","0.2","0.6","","","","","0.2897147582","0.3150900126","0.1123817552","0.3369166079","","","","","","","","74","J","1","","","135","main_expt"
"","bandit","215","1098518","0.0-176.0-0.0","49348775","wem/bandit_either_2","A29374NDYXSCWB","either","5","296","","","","","","","0","0","1","0.3199395785","","0.4","0.8","0.2","0.6","","","","","0.3590576628","0.3199395785","0.1478339482","0.268603144","","","","","","","","74","J","1","","","136","main_expt"
"","bandit","216","1100285","0.0-177.0-0.0","49348775","wem/bandit_either_2","A29374NDYXSCWB","either","5","254","","","","","","","0","0","1","","0.1374936615","0.4","0.8","0.2","0.6","0.3822427384","0.33362357","0.1374936615","0.2373427956","","","","","","","","","","","","75","K","2","","","137","main_expt"
"","bandit","217","1102004","0.0-178.0-0.0","49348775","wem/bandit_either_2","A29374NDYXSCWB","either","5","204","","","","","","","0","0","1","","0.159761955","0.4","0.8","0.2","0.6","0.3410071165","0.3611324022","0.159761955","0.2206869265","","","","","","","","","","","","75","K","2","","","138","main_expt"
"","bandit","218","1103694","0.0-179.0-0.0","49348775","wem/bandit_either_2","A29374NDYXSCWB","either","5","176","","","","","","","0","0","1","","0.1363721132","0.4","0.8","0.2","0.6","0.3738014659","0.3504145086","0.1363721132","0.2177966349","","","","","","","","","","","","75","K","2","","","139","main_expt"
"","bandit","219","1105670","0.0-180.0-0.0","49348775","wem/bandit_either_2","A29374NDYXSCWB","either","5","461","","","","","","","0","0","1","0.1031445192","","0.4","0.8","0.2","0.6","","","","","0.422575493","0.309774603","0.1031445192","0.2387685432","","","","","","","","75","K","2","","","140","main_expt"
"","bandit","220","1107446","0.0-181.0-0.0","49348775","wem/bandit_either_2","A29374NDYXSCWB","either","5","264","","","","","","","0","0","1","0.09805286369","","0.4","0.8","0.2","0.6","","","","","0.4439129864","0.3506531288","0.09805286369","0.2575087366","","","","","","","","75","K","2","","","141","main_expt"
"","bandit","221","1108985","0.0-182.0-0.0","49348775","wem/bandit_either_2","A29374NDYXSCWB","either","5","27","","","","","","","0","0","1","0.2392038972","","0.4","0.8","0.2","0.6","","","","","0.4323802182","0.2965027242","0.1149002948","0.2392038972","","","","","","","","76","L","3","","","142","main_expt"
"","bandit","222","1110759","0.0-183.0-0.0","49348775","wem/bandit_either_2","A29374NDYXSCWB","either","5","265","","","","","","","0","0","1","","0.2216470548","0.4","0.8","0.2","0.6","0.4358412593","0.2087517366","0.1209542099","0.2216470548","","","","","","","","","","","","76","L","3","","","143","main_expt"
"","bandit","223","1112386","0.0-184.0-0.0","49348775","wem/bandit_either_2","A29374NDYXSCWB","either","5","114","","","","","","","0","0","1","","0.2224896139","0.4","0.8","0.2","0.6","0.4407373256","0.2313605626","0.1202521083","0.2224896139","","","","","","","","","","","","76","L","3","","","144","main_expt"
"","bandit","224","1114212","0.0-185.0-0.0","49348775","wem/bandit_either_2","A29374NDYXSCWB","either","5","312","","","","","","","0","0","1","","0.1925605464","0.4","0.8","0.2","0.6","0.4661091035","0.1785565547","0.1619743669","0.1925605464","","","","","","","","","","","","76","L","3","","","145","main_expt"
"","bandit","225","1116000","0.0-186.0-0.0","49348775","wem/bandit_either_2","A29374NDYXSCWB","either","5","274","","","","","","","1","0","0","0.4637097668","","0.4","0.8","0.2","0.6","","","","","0.4637097668","0.1770660648","0.1664631043","0.2069800611","","","","","","","","72","H","0","img/none_selected.jpg","","146","main_expt"
"","bandit","226","1117754","0.0-187.0-0.0","49348775","wem/bandit_either_2","A29374NDYXSCWB","either","5","240","","","","","","","0","1","0","","0.4700491642","0.4","0.8","0.2","0.6","0.4700491642","0.1063371611","0.1669241763","0.2489662189","","","","","","","","","","","","72","H","0","img/none_selected.jpg","","147","main_expt"
"","bandit","227","1119508","0.0-188.0-0.0","49348775","wem/bandit_either_2","A29374NDYXSCWB","either","5","240","","","","","","","0","0","1","","0.4648109734","0.4","0.8","0.2","0.6","0.4648109734","0.1216370817","0.1581456949","0.1946464158","","","","","","","","","","","","72","H","0","img/none_selected.jpg","","148","main_expt"
"","bandit","228","1121045","0.0-189.0-0.0","49348775","wem/bandit_either_2","A29374NDYXSCWB","either","5","24","","","","","","","0","0","1","0.1024256959","","0.4","0.8","0.2","0.6","","","","","0.4635511513","0.1024256959","0.1698392466","0.1826562491","","","","","","","","74","J","1","","","149","main_expt"
"","bandit","229","1122705","0.0-190.0-0.0","49348775","wem/bandit_either_2","A29374NDYXSCWB","either","5","148","","","","","","","0","0","1","0.1371094633","","0.4","0.8","0.2","0.6","","","","","0.4445017148","0.1371094633","0.2140114634","0.1750473563","","","","","","","","74","J","1","","","150","main_expt"
"","bandit","230","1124352","0.0-191.0-0.0","49348775","wem/bandit_either_2","A29374NDYXSCWB","either","5","137","","","","","","","0","0","1","","0.2392960001","0.4","0.8","0.2","0.6","0.4434799742","0.1702433702","0.2392960001","0.1109536645","","","","","","","","","","","","75","K","2","","","151","main_expt"
"","bandit","231","1126038","0.0-192.0-0.0","49348775","wem/bandit_either_2","A29374NDYXSCWB","either","5","172","","","","","","","0","0","1","","0.2095863317","0.4","0.8","0.2","0.6","0.4451665291","0.1860489046","0.2095863317","0.1143086707","","","","","","","","","","","","75","K","2","","","152","main_expt"
"","bandit","232","1127745","0.0-193.0-0.0","49348775","wem/bandit_either_2","A29374NDYXSCWB","either","5","196","","","","","","","0","0","1","0.1236290712","","0.4","0.8","0.2","0.6","","","","","0.4401532833","0.2117094388","0.2543258611","0.1236290712","","","","","","","","76","L","3","","","153","main_expt"
"","bandit","233","1129595","0.0-194.0-0.0","49348775","wem/bandit_either_2","A29374NDYXSCWB","either","5","336","","","","","","","0","0","1","","0.1600695342","0.4","0.8","0.2","0.6","0.4516855879","0.2072389033","0.2602259906","0.1600695342","","","","","","","","","","","","76","L","3","","","154","main_expt"
"","bandit","234","1131342","0.0-195.0-0.0","49348775","wem/bandit_either_2","A29374NDYXSCWB","either","5","234","","","","","","","0","0","1","","0.1770288166","0.4","0.8","0.2","0.6","0.4480264808","0.1986333914","0.2750581274","0.1770288166","","","","","","","","","","","","76","L","3","","","155","main_expt"
"","bandit","235","1132950","0.0-196.0-0.0","49348775","wem/bandit_either_2","A29374NDYXSCWB","either","5","95","","","","","","","0","0","1","","0.4260414265","0.4","0.8","0.2","0.6","0.4260414265","0.2054640346","0.2438045727","0.1761817894","","","","","","","","","","","","72","H","0","img/none_selected.jpg","","156","main_expt"
"","bandit","236","1134632","0.0-197.0-0.0","49348775","wem/bandit_either_2","A29374NDYXSCWB","either","5","169","","","","","","","1","0","0","0.4365201507","","0.4","0.8","0.2","0.6","","","","","0.4365201507","0.1810715383","0.2857025143","0.1998830888","","","","","","","","72","H","0","img/none_selected.jpg","","157","main_expt"
"","bandit","237","1136310","0.0-198.0-0.0","49348775","wem/bandit_either_2","A29374NDYXSCWB","either","5","165","","","","","","","0","0","1","","0.4076244479","0.4","0.8","0.2","0.6","0.4076244479","0.2118906364","0.2887719476","0.2150354531","","","","","","","","","","","","72","H","0","img/none_selected.jpg","","158","main_expt"
"","bandit","238","1138188","0.0-199.0-0.0","49348775","wem/bandit_either_2","A29374NDYXSCWB","either","5","364","","","","","","","0","0","1","","0.403953851","0.4","0.8","0.2","0.6","0.403953851","0.2293976715","0.2859462397","0.2221069796","","","","","","","","","","","","72","H","0","img/none_selected.jpg","","159","main_expt"
"","bandit","239","1139863","0.0-200.0-0.0","49348775","wem/bandit_either_2","A29374NDYXSCWB","either","5","159","","","","","","","0","1","0","","0.4282135537","0.4","0.8","0.2","0.6","0.4282135537","0.2186051381","0.207432816","0.2627335039","","","","","","","","","","","","72","H","0","img/none_selected.jpg","","160","main_expt"
"","bandit","240","1141454","0.0-201.0-0.0","49348775","wem/bandit_either_2","A29374NDYXSCWB","either","5","79","","","","","","","0","1","0","","0.4479073124","0.4","0.8","0.2","0.6","0.4479073124","0.2175927206","0.1611694724","0.2922457848","","","","","","","","","","","","72","H","0","img/none_selected.jpg","","161","main_expt"
"","bandit","241","1143206","0.0-202.0-0.0","49348775","wem/bandit_either_2","A29374NDYXSCWB","either","5","238","","","","","","","0","0","1","0.4456201243","","0.4","0.8","0.2","0.6","","","","","0.4456201243","0.2370404117","0.14378348","0.3040212123","","","","","","","","72","H","0","img/none_selected.jpg","","162","main_expt"
"","bandit","242","1144930","0.0-203.0-0.0","49348775","wem/bandit_either_2","A29374NDYXSCWB","either","5","210","","","","","","","0","0","1","0.4384930657","","0.4","0.8","0.2","0.6","","","","","0.4384930657","0.2778780432","0.1707099899","0.2933359027","","","","","","","","72","H","0","img/none_selected.jpg","","163","main_expt"
"","bandit","243","1146651","0.0-204.0-0.0","49348775","wem/bandit_either_2","A29374NDYXSCWB","either","5","208","","","","","","","0","0","1","","0.4231568034","0.4","0.8","0.2","0.6","0.4231568034","0.2643388611","0.1933693166","0.2388203062","","","","","","","","","","","","72","H","0","img/none_selected.jpg","","164","main_expt"
"","bandit","244","1148195","0.0-205.0-0.0","49348775","wem/bandit_either_2","A29374NDYXSCWB","either","5","34","","","","","","","0","0","1","0.1967204453","","0.4","0.8","0.2","0.6","","","","","0.4412535734","0.1967204453","0.2406324952","0.2646204916","","","","","","","","74","J","1","","","165","main_expt"
"","bandit","245","1149996","0.0-206.0-0.0","49348775","wem/bandit_either_2","A29374NDYXSCWB","either","5","288","","","","","","","0","0","1","","0.1567937345","0.4","0.8","0.2","0.6","0.438364003","0.1567937345","0.2650462377","0.2591758032","","","","","","","","","","","","74","J","1","","","166","main_expt"
"","bandit","246","1151710","0.0-207.0-0.0","49348775","wem/bandit_either_2","A29374NDYXSCWB","either","5","203","","","","","","","0","0","1","0.1201482918","","0.4","0.8","0.2","0.6","","","","","0.4290991351","0.1201482918","0.245875583","0.1955934818","","","","","","","","74","J","1","","","167","main_expt"
"","bandit","247","1154022","0.0-208.0-0.0","49348775","wem/bandit_either_2","A29374NDYXSCWB","either","5","797","","","","","","","0","0","1","0.257303599","","0.4","0.8","0.2","0.6","","","","","0.4510860662","0.0936051119","0.257303599","0.2090603634","","","","","","","","75","K","2","","","168","main_expt"
"","bandit","248","1155836","0.0-209.0-0.0","49348775","wem/bandit_either_2","A29374NDYXSCWB","either","5","301","","","","","","","1","0","0","0.2993732043","","0.4","0.8","0.2","0.6","","","","","0.4491424364","0.08775096918","0.2993732043","0.2678479696","","","","","","","","75","K","2","","","169","main_expt"
"","bandit","249","1157612","0.0-210.0-0.0","49348775","wem/bandit_either_2","A29374NDYXSCWB","either","5","261","","","","","","","0","0","1","","0.3388977639","0.4","0.8","0.2","0.6","0.4332244901","0.06743429675","0.3388977639","0.2532125956","","","","","","","","","","","","75","K","2","","","170","main_expt"
"","bandit","250","1159777","0.0-211.0-0.0","49348775","wem/bandit_either_2","A29374NDYXSCWB","either","5","651","","","","","","","0","0","1","","0.2947926635","0.4","0.8","0.2","0.6","0.4405036994","0.05979118822","0.2947926635","0.2568627054","","","","","","","","","","","","75","K","2","","","171","main_expt"
"","bandit","251","1161688","0.0-212.0-0.0","49348775","wem/bandit_either_2","A29374NDYXSCWB","either","5","396","","","","","","","1","0","0","0.2892529657","","0.4","0.8","0.2","0.6","","","","","0.4358521759","0.03200499914","0.2892529657","0.2451563353","","","","","","","","75","K","2","","","172","main_expt"
"","bandit","252","1163403","0.0-213.0-0.0","49348775","wem/bandit_either_2","A29374NDYXSCWB","either","5","197","","","","","","","0","0","1","","0.2571917514","0.4","0.8","0.2","0.6","0.4471617722","0.04613358223","0.2571917514","0.3003395367","","","","","","","","","","","","75","K","2","","","173","main_expt"
"","bandit","253","1165458","0.0-214.0-0.0","49348775","wem/bandit_either_2","A29374NDYXSCWB","either","5","540","","","","","","","0","0","1","","0.244173221","0.4","0.8","0.2","0.6","0.4560251174","0.05969677181","0.244173221","0.2545998681","","","","","","","","","","","","75","K","2","","","174","main_expt"
"","bandit","254","1167822","0.0-215.0-0.0","49348775","wem/bandit_either_2","A29374NDYXSCWB","either","5","850","","","","","","","0","1","0","","0.3383135611","0.4","0.8","0.2","0.6","0.4379349024","0.05930066603","0.2038098688","0.3383135611","","","","","","","","","","","","76","L","3","","","175","main_expt"
"","bandit","255","1169563","0.0-216.0-0.0","49348775","wem/bandit_either_2","A29374NDYXSCWB","either","5","228","","","","","","","0","0","1","","0.3880627729","0.4","0.8","0.2","0.6","0.4328841116","0.08110879181","0.2053823003","0.3880627729","","","","","","","","","","","","76","L","3","","","176","main_expt"
"","bandit","256","1171421","0.0-217.0-0.0","49348775","wem/bandit_either_2","A29374NDYXSCWB","either","5","343","","","","","","","0","0","1","","0.3920994557","0.4","0.8","0.2","0.6","0.3965365967","0.07611568943","0.2193083282","0.3920994557","","","","","","","","","","","","76","L","3","","","177","main_expt"
"","bandit","257","1173199","0.0-218.0-0.0","49348775","wem/bandit_either_2","A29374NDYXSCWB","either","5","264","","","","","","","0","0","1","","0.3882277994","0.4","0.8","0.2","0.6","0.3899234309","0.1220467165","0.1904263594","0.3882277994","","","","","","","","","","","","76","L","3","","","178","main_expt"
"","bandit","258","1175241","0.0-219.0-0.0","49348775","wem/bandit_either_2","A29374NDYXSCWB","either","5","530","","","","","","","1","0","0","0.4238443777","","0.4","0.8","0.2","0.6","","","","","0.4238443777","0.1698853315","0.2212788648","0.3939691408","","","","","","","","72","H","0","img/none_selected.jpg","","179","main_expt"
"","bandit","259","1176989","0.0-220.0-0.0","49348775","wem/bandit_either_2","A29374NDYXSCWB","either","5","236","","","","","","","0","1","0","","0.4487400994","0.4","0.8","0.2","0.6","0.4487400994","0.1374762061","0.2640717145","0.4074656662","","","","","","","","","","","","72","H","0","img/none_selected.jpg","","180","main_expt"
"","bandit","260","1178720","0.0-221.0-0.0","49348775","wem/bandit_either_2","A29374NDYXSCWB","either","5","216","","","","","","","0","1","0","","0.4314573438","0.4","0.8","0.2","0.6","0.4314573438","0.09961924189","0.2426483564","0.3724421945","","","","","","","","","","","","72","H","0","img/none_selected.jpg","","181","main_expt"
"","bandit","261","1180492","0.0-222.0-0.0","49348775","wem/bandit_either_2","A29374NDYXSCWB","either","5","257","","","","","","","0","1","0","","0.4458059303","0.4","0.8","0.2","0.6","0.4458059303","0.1391043194","0.2001563476","0.2998177931","","","","","","","","","","","","72","H","0","img/none_selected.jpg","","182","main_expt"
"","bandit","262","1182173","0.0-223.0-0.0","49348775","wem/bandit_either_2","A29374NDYXSCWB","either","5","165","","","","","","","0","0","1","0.4485460149","","0.4","0.8","0.2","0.6","","","","","0.4485460149","0.1336424596","0.2167094124","0.3629728763","","","","","","","","72","H","0","img/none_selected.jpg","","183","main_expt"
"","bandit","263","1183926","0.0-224.0-0.0","49348775","wem/bandit_either_2","A29374NDYXSCWB","either","5","239","","","","","","","0","1","0","","0.4078350507","0.4","0.8","0.2","0.6","0.4078350507","0.115911235","0.2402813617","0.3763603645","","","","","","","","","","","","72","H","0","img/none_selected.jpg","","184","main_expt"
"","bandit","264","1185754","0.0-225.0-0.0","49348775","wem/bandit_either_2","A29374NDYXSCWB","either","5","315","","","","","","","0","0","1","","0.3805788675","0.4","0.8","0.2","0.6","0.3805788675","0.1394203739","0.2745112141","0.3472982705","","","","","","","","","","","","72","H","0","img/none_selected.jpg","","185","main_expt"
"","bandit","265","1187642","0.0-226.0-0.0","49348775","wem/bandit_either_2","A29374NDYXSCWB","either","5","378","","","","","","","0","1","0","","0.4236809331","0.4","0.8","0.2","0.6","0.4236809331","0.1557479742","0.2774566956","0.3095995051","","","","","","","","","","","","72","H","0","img/none_selected.jpg","","186","main_expt"
"","bandit","266","1189653","0.0-227.0-0.0","49348775","wem/bandit_either_2","A29374NDYXSCWB","either","5","497","","","","","","","0","1","0","","0.4058627081","0.4","0.8","0.2","0.6","0.4058627081","0.1823611596","0.2876011691","0.2567332284","","","","","","","","","","","","72","H","0","img/none_selected.jpg","","187","main_expt"
"","bandit","267","1191483","0.0-228.0-0.0","49348775","wem/bandit_either_2","A29374NDYXSCWB","either","5","321","","","","","","","1","0","0","0.3913346521","","0.4","0.8","0.2","0.6","","","","","0.3913346521","0.1854179297","0.2947112378","0.2555256861","","","","","","","","72","H","0","img/none_selected.jpg","","188","main_expt"
"","bandit","268","1193203","0.0-229.0-0.0","49348775","wem/bandit_either_2","A29374NDYXSCWB","either","5","204","","","","","","","0","0","1","","0.3760164219","0.4","0.8","0.2","0.6","0.3760164219","0.1875645599","0.2581494","0.2009875262","","","","","","","","","","","","72","H","0","img/none_selected.jpg","","189","main_expt"
"","bandit","269","1194923","0.0-230.0-0.0","49348775","wem/bandit_either_2","A29374NDYXSCWB","either","5","205","","","","","","","0","0","1","","0.3327352817","0.4","0.8","0.2","0.6","0.3327352817","0.2018323604","0.1756323468","0.2055488595","","","","","","","","","","","","72","H","0","img/none_selected.jpg","","190","main_expt"
"","bandit","270","1196631","0.0-231.0-0.0","49348775","wem/bandit_either_2","A29374NDYXSCWB","either","5","192","","","","","","","0","0","1","0.221094727","","0.4","0.8","0.2","0.6","","","","","0.3015177445","0.221094727","0.2521570866","0.1506387864","","","","","","","","74","J","1","","","191","main_expt"
"","bandit","271","1198399","0.0-232.0-0.0","49348775","wem/bandit_either_2","A29374NDYXSCWB","either","5","254","","","","","","","0","0","1","0.2320570195","","0.4","0.8","0.2","0.6","","","","","0.2773298268","0.2320570195","0.2964739449","0.2027442266","","","","","","","","74","J","1","","","192","main_expt"
"","bandit","272","1200148","0.0-233.0-0.0","49348775","wem/bandit_either_2","A29374NDYXSCWB","either","5","235","","","","","","","0","0","1","0.2948950962","","0.4","0.8","0.2","0.6","","","","","0.2836613797","0.2948950962","0.2612966838","0.1969137872","","","","","","","","74","J","1","","","193","main_expt"
"","bandit","273","1201703","0.0-234.0-0.0","49348775","wem/bandit_either_2","A29374NDYXSCWB","either","5","42","","","","","","","0","1","0","","0.3292914436","0.4","0.8","0.2","0.6","0.2799350415","0.2602906927","0.3292914436","0.2114994946","","","","","","","","","","","","75","K","2","","","194","main_expt"
"","bandit","274","1203407","0.0-235.0-0.0","49348775","wem/bandit_either_2","A29374NDYXSCWB","either","5","189","","","","","","","0","0","1","","0.4070308407","0.4","0.8","0.2","0.6","0.2068597772","0.1771499101","0.4070308407","0.2467939011","","","","","","","","","","","","75","K","2","","","195","main_expt"
"","bandit","275","1205011","0.0-236.0-0.0","49348775","wem/bandit_either_2","A29374NDYXSCWB","either","5","89","","","","","","","0","0","1","","0.3494820729","0.4","0.8","0.2","0.6","0.2679469531","0.1746274925","0.3494820729","0.2731811988","","","","","","","","","","","","75","K","2","","","196","main_expt"
"","bandit","276","1206744","0.0-237.0-0.0","49348775","wem/bandit_either_2","A29374NDYXSCWB","either","5","218","","","","","","","0","0","1","","0.3571939809","0.4","0.8","0.2","0.6","0.2448078588","0.193224684","0.3571939809","0.2512114903","","","","","","","","","","","","75","K","2","","","197","main_expt"
"","bandit","277","1208447","0.0-238.0-0.0","49348775","wem/bandit_either_2","A29374NDYXSCWB","either","5","188","","","","","","","0","0","1","0.1771509929","","0.4","0.8","0.2","0.6","","","","","0.2433987968","0.1771509929","0.382430028","0.190651112","","","","","","","","74","J","1","","","198","main_expt"
"","bandit","278","1210069","0.0-239.0-0.0","49348775","wem/bandit_either_2","A29374NDYXSCWB","either","5","107","","","","","","","0","0","1","","0.1701189695","0.4","0.8","0.2","0.6","0.2653624242","0.2466668772","0.3353474301","0.1701189695","","","","","","","","","","","","76","L","3","","","199","main_expt"
"","bandit","279","1211873","0.0-240.0-0.0","49348775","wem/bandit_either_2","A29374NDYXSCWB","either","5","290","","","","","","","1","0","0","0.1656975488","","0.4","0.8","0.2","0.6","","","","","0.2551376492","0.2477816141","0.3321976498","0.1656975488","","","","","","","","76","L","3","","","200","main_expt"
"","bandit","280","1213606","0.0-241.0-0.0","49348775","wem/bandit_either_2","A29374NDYXSCWB","either","5","222","","","","","","","1","0","0","0.1647298582","","0.4","0.8","0.2","0.6","","","","","0.2660639347","0.2744817861","0.3218117355","0.1647298582","","","","","","","","76","L","3","","","201","main_expt"
"","bandit","281","1215288","0.0-242.0-0.0","49348775","wem/bandit_either_2","A29374NDYXSCWB","either","5","171","","","","","","","0","0","1","0.1242041815","","0.4","0.8","0.2","0.6","","","","","0.2220900594","0.3043062986","0.2949214693","0.1242041815","","","","","","","","76","L","3","","","202","main_expt"
"","bandit","282","1217009","0.0-243.0-0.0","49348775","wem/bandit_either_2","A29374NDYXSCWB","either","5","205","","","","","","","0","0","1","0.1684487429","","0.4","0.8","0.2","0.6","","","","","0.1543353204","0.272185569","0.300077299","0.1684487429","","","","","","","","76","L","3","","","203","main_expt"
"","bandit","283","1218697","0.0-244.0-0.0","49348775","wem/bandit_either_2","A29374NDYXSCWB","either","5","172","","","","","","","0","0","1","","0.1666409686","0.4","0.8","0.2","0.6","0.1605482003","0.2610767704","0.2866085977","0.1666409686","","","","","","","","","","","","76","L","3","","","204","main_expt"
"","bandit","284","1220485","0.0-245.0-0.0","49348775","wem/bandit_either_2","A29374NDYXSCWB","either","5","273","","","","","","","0","1","0","","0.1406914754","0.4","0.8","0.2","0.6","0.1406914754","0.2832615928","0.2695546272","0.2197286508","","","","","","","","","","","","72","H","0","img/none_selected.jpg","","205","main_expt"
"","bandit","285","1222263","0.0-246.0-0.0","49348775","wem/bandit_either_2","A29374NDYXSCWB","either","5","263","","","","","","","0","0","1","","0.1138947463","0.4","0.8","0.2","0.6","0.1138947463","0.300913322","0.2622178416","0.2754509052","","","","","","","","","","","","72","H","0","img/none_selected.jpg","","206","main_expt"
"","bandit","286","1224042","0.0-247.0-0.0","49348775","wem/bandit_either_2","A29374NDYXSCWB","either","5","262","","","","","","","0","0","1","0.1096702189","","0.4","0.8","0.2","0.6","","","","","0.1096702189","0.3260258847","0.2498186578","0.2664869377","","","","","","","","72","H","0","img/none_selected.jpg","","207","main_expt"
"","bandit","287","1225799","0.0-248.0-0.0","49348775","wem/bandit_either_2","A29374NDYXSCWB","either","5","243","","","","","","","0","0","1","","0.09922356593","0.4","0.8","0.2","0.6","0.09922356593","0.3173829003","0.2335358635","0.2686565688","","","","","","","","","","","","72","H","0","img/none_selected.jpg","","208","main_expt"
"","bandit","288","1227721","0.0-249.0-0.0","49348775","wem/bandit_either_2","A29374NDYXSCWB","either","5","406","","","","","","","0","0","1","","0.101567507","0.4","0.8","0.2","0.6","0.101567507","0.3153846937","0.2638942681","0.2380255957","","","","","","","","","","","","72","H","0","img/none_selected.jpg","","209","main_expt"
"","bandit","289","1229376","0.0-250.0-0.0","49348775","wem/bandit_either_2","A29374NDYXSCWB","either","5","141","","","","","","","0","0","1","0.3010876552","","0.4","0.8","0.2","0.6","","","","","0.08675379402","0.3010876552","0.2526926237","0.2507768727","","","","","","","","74","J","1","","","210","main_expt"
"","bandit","290","1231064","0.0-251.0-0.0","49348775","wem/bandit_either_2","A29374NDYXSCWB","either","5","174","","","","","","","1","0","0","0.07512021269","","0.4","0.8","0.2","0.6","","","","","0.07512021269","0.2864900033","0.2740367769","0.2685142319","","","","","","","","72","H","0","img/none_selected.jpg","","211","main_expt"
"","bandit","291","1232768","0.0-252.0-0.0","49348775","wem/bandit_either_2","A29374NDYXSCWB","either","5","194","","","","","","","0","0","1","","0.08144254236","0.4","0.8","0.2","0.6","0.08144254236","0.3163372434","0.2440836191","0.260511483","","","","","","","","","","","","72","H","0","img/none_selected.jpg","","212","main_expt"
"","bandit","292","1234426","0.0-253.0-0.0","49348775","wem/bandit_either_2","A29374NDYXSCWB","either","5","144","","","","","","","0","0","1","","0.2341903104","0.4","0.8","0.2","0.6","0.06585574052","0.2701305136","0.2341903104","0.2579605047","","","","","","","","","","","","75","K","2","","","213","main_expt"
"","bandit","293","1236214","0.0-254.0-0.0","49348775","wem/bandit_either_2","A29374NDYXSCWB","either","5","273","","","","","","","0","0","1","0.08686614453","","0.4","0.8","0.2","0.6","","","","","0.08686614453","0.302599165","0.2097526345","0.2470456849","","","","","","","","72","H","0","img/none_selected.jpg","","214","main_expt"
"","bandit","294","1237956","0.0-255.0-0.0","49348775","wem/bandit_either_2","A29374NDYXSCWB","either","5","232","","","","","","","0","0","1","","0.3285383036","0.4","0.8","0.2","0.6","0.1068548489","0.2968005471","0.1796882487","0.3285383036","","","","","","","","","","","","76","L","3","","","215","main_expt"
"","bandit","295","1239588","0.0-256.0-0.0","49348775","wem/bandit_either_2","A29374NDYXSCWB","either","5","116","","","","","","","0","0","1","","0.3780044773","0.4","0.8","0.2","0.6","0.1211736082","0.2835536598","0.2237900511","0.3780044773","","","","","","","","","","","","76","L","3","","","216","main_expt"
"","bandit","296","1241245","0.0-257.0-0.0","49348775","wem/bandit_either_2","A29374NDYXSCWB","either","5","140","","","","","","","0","0","1","0.2520762718","","0.4","0.8","0.2","0.6","","","","","0.09343701815","0.2520762718","0.2265358539","0.3939228946","","","","","","","","74","J","1","","","217","main_expt"
"","bandit","297","1242977","0.0-258.0-0.0","49348775","wem/bandit_either_2","A29374NDYXSCWB","either","5","218","","","","","","","1","0","0","0.2562699476","","0.4","0.8","0.2","0.6","","","","","0.1001055386","0.2562699476","0.2364013437","0.3198270803","","","","","","","","74","J","1","","","218","main_expt"
"","bandit","298","1244723","0.0-259.0-0.0","49348775","wem/bandit_either_2","A29374NDYXSCWB","either","5","235","","","","","","","1","0","0","0.3002431464","","0.4","0.8","0.2","0.6","","","","","0.09524874014","0.3002431464","0.2810560361","0.3502502288","","","","","","","","74","J","1","","","219","main_expt"
"","bandit","299","1246428","0.0-260.0-0.0","49348775","wem/bandit_either_2","A29374NDYXSCWB","either","5","190","","","","","","","1","0","0","0.3365413303","","0.4","0.8","0.2","0.6","","","","","0.1304899995","0.3365413303","0.3027429446","0.3402456168","","","","","","","","74","J","1","","","220","main_expt"
"","bandit","300","1248159","0.0-261.0-0.0","49348775","wem/bandit_either_2","A29374NDYXSCWB","either","5","213","","","","","","","0","0","1","0.2946103072","","0.4","0.8","0.2","0.6","","","","","0.1272814923","0.2946103072","0.3132134988","0.3770059732","","","","","","","","74","J","1","","","221","main_expt"
"","bandit","301","1249854","0.0-262.0-0.0","49348775","wem/bandit_either_2","A29374NDYXSCWB","either","5","181","","","","","","","0","0","1","0.1654407056","","0.4","0.8","0.2","0.6","","","","","0.1654407056","0.3267284332","0.2424821827","0.3864421123","","","","","","","","72","H","0","img/none_selected.jpg","","222","main_expt"
"","bandit","302","1251580","0.0-263.0-0.0","49348775","wem/bandit_either_2","A29374NDYXSCWB","either","5","209","","","","","","","0","0","1","0.1788325852","","0.4","0.8","0.2","0.6","","","","","0.1788325852","0.3175152631","0.2595367495","0.4205211408","","","","","","","","72","H","0","img/none_selected.jpg","","223","main_expt"
"","bandit","303","1253295","0.0-264.0-0.0","49348775","wem/bandit_either_2","A29374NDYXSCWB","either","5","201","","","","","","","0","0","1","0.1736623033","","0.4","0.8","0.2","0.6","","","","","0.1736623033","0.3192400935","0.328819141","0.4131889957","","","","","","","","72","H","0","img/none_selected.jpg","","224","main_expt"
"","bandit","304","1255763","0.0-265.0-0.0","49348775","wem/bandit_either_2","A29374NDYXSCWB","either","5","950","","","","","","","0","1","0","","0.356121412","0.4","0.8","0.2","0.6","0.1721911447","0.3096750449","0.356121412","0.4001513574","","","","","","","","","","","","75","K","2","","","225","main_expt"
"","bandit","305","1257484","0.0-266.0-0.0","49348775","wem/bandit_either_2","A29374NDYXSCWB","either","5","205","","","","","","","1","0","0","0.3394019192","","0.4","0.8","0.2","0.6","","","","","0.2133818582","0.3142833063","0.3394019192","0.3963688582","","","","","","","","75","K","2","","","226","main_expt"
"","bandit","306","1259329","0.0-267.0-0.0","49348775","wem/bandit_either_2","A29374NDYXSCWB","either","5","331","","","","","","","0","1","0","","0.2860553004","0.4","0.8","0.2","0.6","0.2620007467","0.3096885674","0.2860553004","0.3979714495","","","","","","","","","","","","75","K","2","","","227","main_expt"
"","bandit","307","1261090","0.0-268.0-0.0","49348775","wem/bandit_either_2","A29374NDYXSCWB","either","5","242","","","","","","","0","0","1","","0.2967856672","0.4","0.8","0.2","0.6","0.2961930455","0.3048295172","0.2967856672","0.3811043637","","","","","","","","","","","","75","K","2","","","228","main_expt"
"","bandit","308","1262701","0.0-269.0-0.0","49348775","wem/bandit_either_2","A29374NDYXSCWB","either","5","96","","","","","","","0","0","1","0.3488149186","","0.4","0.8","0.2","0.6","","","","","0.3081123415","0.2553920021","0.2857745529","0.3488149186","","","","","","","","76","L","3","","","229","main_expt"
"","bandit","309","1264320","0.0-270.0-0.0","49348775","wem/bandit_either_2","A29374NDYXSCWB","either","5","105","","","","","","","0","0","1","0.2883621188","","0.4","0.8","0.2","0.6","","","","","0.3027177586","0.2783794412","0.2589404948","0.2883621188","","","","","","","","76","L","3","","","230","main_expt"
"","bandit","310","1265854","0.0-271.0-0.0","49348775","wem/bandit_either_2","A29374NDYXSCWB","either","5","20","","","","","","","0","0","1","","0.2495346478","0.4","0.8","0.2","0.6","0.2495346478","0.2735536708","0.2628441024","0.2444465504","","","","","","","","","","","","72","H","0","img/none_selected.jpg","","231","main_expt"
"","bandit","311","1267603","0.0-272.0-0.0","49348775","wem/bandit_either_2","A29374NDYXSCWB","either","5","232","","","","","","","0","0","1","0.2185872191","","0.4","0.8","0.2","0.6","","","","","0.2185872191","0.2262440502","0.276537748","0.2996930955","","","","","","","","72","H","0","img/none_selected.jpg","","232","main_expt"
"","bandit","312","1269412","0.0-273.0-0.0","49348775","wem/bandit_either_2","A29374NDYXSCWB","either","5","294","","","","","","","0","0","1","","0.1874863907","0.4","0.8","0.2","0.6","0.1874863907","0.2171974885","0.2485723575","0.3103031796","","","","","","","","","","","","72","H","0","img/none_selected.jpg","","233","main_expt"
"","bandit","313","1271497","0.0-274.0-0.0","49348775","wem/bandit_either_2","A29374NDYXSCWB","either","5","573","","","","","","","0","0","1","0.2951485073","","0.4","0.8","0.2","0.6","","","","","0.2165838284","0.2951485073","0.2172766866","0.2971988612","","","","","","","","74","J","1","","","234","main_expt"
"","bandit","314","1273217","0.0-275.0-0.0","49348775","wem/bandit_either_2","A29374NDYXSCWB","either","5","205","","","","","","","0","1","0","","0.3135740045","0.4","0.8","0.2","0.6","0.1791302586","0.3135740045","0.221542824","0.3266576642","","","","","","","","","","","","74","J","1","","","235","main_expt"
"","bandit","315","1274959","0.0-276.0-0.0","49348775","wem/bandit_either_2","A29374NDYXSCWB","either","5","226","","","","","","","1","0","0","0.2945285262","","0.4","0.8","0.2","0.6","","","","","0.2463713802","0.2945285262","0.2200573756","0.3596878827","","","","","","","","74","J","1","","","236","main_expt"
"","bandit","316","1276708","0.0-277.0-0.0","49348775","wem/bandit_either_2","A29374NDYXSCWB","either","5","231","","","","","","","0","0","1","0.2797454337","","0.4","0.8","0.2","0.6","","","","","0.2204623923","0.2797454337","0.2146478317","0.3951370387","","","","","","","","74","J","1","","","237","main_expt"
"","bandit","317","1278360","0.0-278.0-0.0","49348775","wem/bandit_either_2","A29374NDYXSCWB","either","5","138","","","","","","","0","0","1","0.266453507","","0.4","0.8","0.2","0.6","","","","","0.2316256556","0.266453507","0.2237656472","0.3863552979","","","","","","","","74","J","1","","","238","main_expt"
"","bandit","318","1280041","0.0-279.0-0.0","49348775","wem/bandit_either_2","A29374NDYXSCWB","either","5","169","","","","","","","0","0","1","0.310831157","","0.4","0.8","0.2","0.6","","","","","0.2406304147","0.310831157","0.2302611888","0.3962704677","","","","","","","","74","J","1","","","239","main_expt"
"","bandit","319","1281713","0.0-280.0-0.0","49348775","wem/bandit_either_2","A29374NDYXSCWB","either","5","155","","","","","","","0","0","1","","0.2253069634","0.4","0.8","0.2","0.6","0.2624476398","0.331950591","0.2253069634","0.3926977495","","","","","","","","","","","","75","K","2","","","240","main_expt"
"","bandit","320","1283486","0.0-281.0-0.0","49348775","wem/bandit_either_2","A29374NDYXSCWB","either","5","255","","","","","","","0","1","0","","0.2523404353","0.4","0.8","0.2","0.6","0.2627099727","0.3223776605","0.2523404353","0.3381110468","","","","","","","","","","","","75","K","2","","","241","main_expt"
"","bandit","321","1285251","0.0-282.0-0.0","49348775","wem/bandit_either_2","A29374NDYXSCWB","either","5","248","","","","","","","0","0","1","","0.238450381","0.4","0.8","0.2","0.6","0.2262339403","0.3389272588","0.238450381","0.3213381148","","","","","","","","","","","","75","K","2","","","242","main_expt"
"","bandit","322","1287000","0.0-283.0-0.0","49348775","wem/bandit_either_2","A29374NDYXSCWB","either","5","238","","","","","","","0","1","0","","0.2476478509","0.4","0.8","0.2","0.6","0.2511573395","0.4023830898","0.2476478509","0.3395415742","","","","","","","","","","","","75","K","2","","","243","main_expt"
"","bandit","323","1288767","0.0-284.0-0.0","49348775","wem/bandit_either_2","A29374NDYXSCWB","either","5","253","","","","","","","0","1","0","","0.2603762171","0.4","0.8","0.2","0.6","0.3112309098","0.4072225753","0.2603762171","0.3077285799","","","","","","","","","","","","75","K","2","","","244","main_expt"
"","bandit","324","1290510","0.0-285.0-0.0","49348775","wem/bandit_either_2","A29374NDYXSCWB","either","5","226","","","","","","","0","0","1","","0.2778117757","0.4","0.8","0.2","0.6","0.3169667097","0.4047901721","0.2778117757","0.269997398","","","","","","","","","","","","75","K","2","","","245","main_expt"
"","bandit","325","1292194","0.0-286.0-0.0","49348775","wem/bandit_either_2","A29374NDYXSCWB","either","5","169","","","","","","","1","0","0","0.2571702875","","0.4","0.8","0.2","0.6","","","","","0.3774934029","0.4245844383","0.2571702875","0.2896792764","","","","","","","","75","K","2","","","246","main_expt"
