"consent","trial_type","trial_index","time_elapsed","internal_node_id","subjID","study","MID","cond","drift","rt","responses","key_press","expt_phase","like","value","connected","gems","bombs","no_reward","GemPrChosen","BombPrChosen","GainOverPainPr_0","GainOverPainPr_1","GainOverPainPr_2","GainOverPainPr_3","LosePr_0","LosePr_1","LosePr_2","LosePr_3","WinPr_0","WinPr_1","WinPr_2","WinPr_3","Q0","Q1","Q2","gender","age","ethnicity","target","respCharCode","respKey","respChoiceNum","respChoice","practice","trial_counter","trial_label"
"INL_behavioral_consent_30min_online.html","consent","0","21967","0.0-0.0","51236223","wem/bandit_either_2","AAXX5LDVJ32F8","either","4","","","","","","","","","","","","","","","","","","","","","","","","","","","","","","","","","","","","","",""
"","survey-text","1","30271","0.0-1.0","51236223","wem/bandit_either_2","AAXX5LDVJ32F8","either","4","7293","{""Q0"":""AAXX5LDVJ32F8""}","","","","","","","","","","","","","","","","","","","","","","","","","","","","","","","","","","","",""
"","text","2","44297","0.0-2.0","51236223","wem/bandit_either_2","AAXX5LDVJ32F8","either","4","13021","","32","","","","","","","","","","","","","","","","","","","","","","","","","","","","","","","","","","",""
"","text","3","51574","0.0-3.0","51236223","wem/bandit_either_2","AAXX5LDVJ32F8","either","4","7275","","32","","","","","","","","","","","","","","","","","","","","","","","","","","","","","","","","","","",""
"","text","4","75566","0.0-4.0","51236223","wem/bandit_either_2","AAXX5LDVJ32F8","either","4","23990","","32","","","","","","","","","","","","","","","","","","","","","","","","","","","","","","","","","","",""
"","text","5","89773","0.0-5.0","51236223","wem/bandit_either_2","AAXX5LDVJ32F8","either","4","14205","","32","","","","","","","","","","","","","","","","","","","","","","","","","","","","","","","","","","",""
"","text","6","105357","0.0-6.0","51236223","wem/bandit_either_2","AAXX5LDVJ32F8","either","4","15582","","32","","","","","","","","","","","","","","","","","","","","","","","","","","","","","","","","","","",""
"","text","7","111836","0.0-7.0","51236223","wem/bandit_either_2","AAXX5LDVJ32F8","either","4","6477","","32","","","","","","","","","","","","","","","","","","","","","","","","","","","","","","","","","","",""
"","text","8","115733","0.0-8.0","51236223","wem/bandit_either_2","AAXX5LDVJ32F8","either","4","3895","","32","","","","","","","","","","","","","","","","","","","","","","","","","","","","","","","","","","",""
"","identification","9","133087","0.0-9.0-0.0","51236223","wem/bandit_either_2","AAXX5LDVJ32F8","either","4","17339","","","","1","1","0","","","","","","","","","","","","","","","","","","","","","","","","the village of Zur","","","","","","",""
"","identification","10","139677","0.0-9.0-1.0","51236223","wem/bandit_either_2","AAXX5LDVJ32F8","either","4","5580","","","","1","1","0","","","","","","","","","","","","","","","","","","","","","","","","the village of Nyx","","","","","","",""
"","text","11","146763","0.0-10.0","51236223","wem/bandit_either_2","AAXX5LDVJ32F8","either","4","6086","","32","","","","","","","","","","","","","","","","","","","","","","","","","","","","","","","","","","",""
"","text","12","152490","0.0-11.0","51236223","wem/bandit_either_2","AAXX5LDVJ32F8","either","4","5725","","32","","","","","","","","","","","","","","","","","","","","","","","","","","","","","","","","","","",""
"","text","13","154787","0.0-12.0","51236223","wem/bandit_either_2","AAXX5LDVJ32F8","either","4","2295","","32","","","","","","","","","","","","","","","","","","","","","","","","","","","","","","","","","","",""
"","text","14","160275","0.0-13.0","51236223","wem/bandit_either_2","AAXX5LDVJ32F8","either","4","5485","","32","","","","","","","","","","","","","","","","","","","","","","","","","","","","","","","","","","",""
"","bandit","15","165972","0.0-14.0-0.0","51236223","wem/bandit_either_2","AAXX5LDVJ32F8","either","4","4188","","","","","","","0","0","1","0","0","","","","","0","","","","0","","","","","","","","","","","74","J","0","img/none_selected_demo.jpg","true","0",""
"","bandit","16","169307","0.0-15.0-0.0","51236223","wem/bandit_either_2","AAXX5LDVJ32F8","either","4","1829","","","","","","","0","0","1","0","0","","","","","0","","","","0","","","","","","","","","","","75","K","0","img/none_selected_demo.jpg","true","0",""
"","text","17","177819","0.0-16.0","51236223","wem/bandit_either_2","AAXX5LDVJ32F8","either","4","8511","","32","","","","","","","","","","","","","","","","","","","","","","","","","","","","","","","","","","",""
"","text","18","187435","0.0-17.0","51236223","wem/bandit_either_2","AAXX5LDVJ32F8","either","4","9614","","32","","","","","","","","","","","","","","","","","","","","","","","","","","","","","","","","","","",""
"","text","19","193452","0.0-18.0","51236223","wem/bandit_either_2","AAXX5LDVJ32F8","either","4","6014","","32","","","","","","","","","","","","","","","","","","","","","","","","","","","","","","","","","","",""
"","text","20","196907","0.0-19.0","51236223","wem/bandit_either_2","AAXX5LDVJ32F8","either","4","3454","","32","","","","","","","","","","","","","","","","","","","","","","","","","","","","","","","","","","",""
"","bandit","21","200105","0.0-20.0-0.0","51236223","wem/bandit_either_2","AAXX5LDVJ32F8","either","4","1691","","","","","","","1","0","0","0.8","","0.5","0.5","","","","","","","0.8","0.2","","","","","","","","","","74","J","0","img/none_selected_demo.jpg","true","0","80_20_practice"
"","bandit","22","202123","0.0-20.0-1.0","51236223","wem/bandit_either_2","AAXX5LDVJ32F8","either","4","506","","","","","","","0","1","0","","0.8","0.5","0.5","","","0.8","0.2","","","","","","","","","","","","","","74","J","0","img/none_selected_demo.jpg","true","0","80_20_practice"
"","bandit","23","204384","0.0-20.0-2.0","51236223","wem/bandit_either_2","AAXX5LDVJ32F8","either","4","754","","","","","","","0","0","1","","0.8","0.5","0.5","","","0.8","0.2","","","","","","","","","","","","","","74","J","0","img/none_selected_demo.jpg","true","0","80_20_practice"
"","bandit","24","205953","0.0-20.0-3.0","51236223","wem/bandit_either_2","AAXX5LDVJ32F8","either","4","64","","","","","","","1","0","0","0.8","","0.5","0.5","","","","","","","0.8","0.2","","","","","","","","","","74","J","0","img/none_selected_demo.jpg","true","0","80_20_practice"
"","bandit","25","207810","0.0-20.0-4.0","51236223","wem/bandit_either_2","AAXX5LDVJ32F8","either","4","351","","","","","","","0","1","0","","0.8","0.5","0.5","","","0.8","0.2","","","","","","","","","","","","","","74","J","0","img/none_selected_demo.jpg","true","0","80_20_practice"
"","bandit","26","209741","0.0-20.0-5.0","51236223","wem/bandit_either_2","AAXX5LDVJ32F8","either","4","416","","","","","","","1","0","0","0.8","","0.5","0.5","","","","","","","0.8","0.2","","","","","","","","","","74","J","0","img/none_selected_demo.jpg","true","0","80_20_practice"
"","bandit","27","212419","0.0-20.0-6.0","51236223","wem/bandit_either_2","AAXX5LDVJ32F8","either","4","1170","","","","","","","0","1","0","","0.8","0.5","0.5","","","0.8","0.2","","","","","","","","","","","","","","74","J","0","img/none_selected_demo.jpg","true","0","80_20_practice"
"","bandit","28","214479","0.0-20.0-7.0","51236223","wem/bandit_either_2","AAXX5LDVJ32F8","either","4","555","","","","","","","0","0","1","0.2","","0.5","0.5","","","","","","","0.8","0.2","","","","","","","","","","75","K","1","","true","0","80_20_practice"
"","bandit","29","218043","0.0-20.0-8.0","51236223","wem/bandit_either_2","AAXX5LDVJ32F8","either","4","2057","","","","","","","0","0","1","","0.2","0.5","0.5","","","0.8","0.2","","","","","","","","","","","","","","75","K","1","","true","0","80_20_practice"
"","bandit","30","220122","0.0-20.0-9.0","51236223","wem/bandit_either_2","AAXX5LDVJ32F8","either","4","573","","","","","","","1","0","0","0.8","","0.5","0.5","","","","","","","0.8","0.2","","","","","","","","","","74","J","0","img/none_selected_demo.jpg","true","0","80_20_practice"
"","bandit","31","222033","0.0-20.0-10.0","51236223","wem/bandit_either_2","AAXX5LDVJ32F8","either","4","392","","","","","","","0","0","1","","0.8","0.5","0.5","","","0.8","0.2","","","","","","","","","","","","","","74","J","0","img/none_selected_demo.jpg","true","0","80_20_practice"
"","bandit","32","224921","0.0-20.0-11.0","51236223","wem/bandit_either_2","AAXX5LDVJ32F8","either","4","1377","","","","","","","1","0","0","0.8","","0.5","0.5","","","","","","","0.8","0.2","","","","","","","","","","74","J","0","img/none_selected_demo.jpg","true","0","80_20_practice"
"","bandit","33","227424","0.0-20.0-12.0","51236223","wem/bandit_either_2","AAXX5LDVJ32F8","either","4","996","","","","","","","0","0","1","0.8","","0.5","0.5","","","","","","","0.8","0.2","","","","","","","","","","74","J","0","img/none_selected_demo.jpg","true","0","80_20_practice"
"","bandit","34","229636","0.0-20.0-13.0","51236223","wem/bandit_either_2","AAXX5LDVJ32F8","either","4","702","","","","","","","0","0","1","","0.8","0.5","0.5","","","0.8","0.2","","","","","","","","","","","","","","74","J","0","img/none_selected_demo.jpg","true","0","80_20_practice"
"","bandit","35","231512","0.0-20.0-14.0","51236223","wem/bandit_either_2","AAXX5LDVJ32F8","either","4","366","","","","","","","0","1","0","","0.8","0.5","0.5","","","0.8","0.2","","","","","","","","","","","","","","74","J","0","img/none_selected_demo.jpg","true","0","80_20_practice"
"","bandit","36","233408","0.0-20.0-15.0","51236223","wem/bandit_either_2","AAXX5LDVJ32F8","either","4","387","","","","","","","0","1","0","","0.8","0.5","0.5","","","0.8","0.2","","","","","","","","","","","","","","74","J","0","img/none_selected_demo.jpg","true","0","80_20_practice"
"","bandit","37","235040","0.0-20.0-16.0","51236223","wem/bandit_either_2","AAXX5LDVJ32F8","either","4","123","","","","","","","1","0","0","0.8","","0.5","0.5","","","","","","","0.8","0.2","","","","","","","","","","74","J","0","img/none_selected_demo.jpg","true","0","80_20_practice"
"","bandit","38","236816","0.0-20.0-17.0","51236223","wem/bandit_either_2","AAXX5LDVJ32F8","either","4","271","","","","","","","0","1","0","","0.8","0.5","0.5","","","0.8","0.2","","","","","","","","","","","","","","74","J","0","img/none_selected_demo.jpg","true","0","80_20_practice"
"","bandit","39","238752","0.0-20.0-18.0","51236223","wem/bandit_either_2","AAXX5LDVJ32F8","either","4","428","","","","","","","0","1","0","","0.8","0.5","0.5","","","0.8","0.2","","","","","","","","","","","","","","74","J","0","img/none_selected_demo.jpg","true","0","80_20_practice"
"","bandit","40","240512","0.0-20.0-19.0","51236223","wem/bandit_either_2","AAXX5LDVJ32F8","either","4","256","","","","","","","1","0","0","0.8","","0.5","0.5","","","","","","","0.8","0.2","","","","","","","","","","74","J","0","img/none_selected_demo.jpg","true","0","80_20_practice"
"","text","41","247755","0.0-21.0","51236223","wem/bandit_either_2","AAXX5LDVJ32F8","either","4","7237","","32","","","","","","","","","","","","","","","","","","","","","","","","","","","","","","","","","","",""
"","bandit","42","252065","0.0-22.0-0.0","51236223","wem/bandit_either_2","AAXX5LDVJ32F8","either","4","2802","","","","","","","1","0","0","1","0","","","","","0","1","","","1","0","","","","","","","","","","74","J","0","img/none_selected_demo.jpg","true","0",""
"","text","43","258442","0.0-23.0","51236223","wem/bandit_either_2","AAXX5LDVJ32F8","either","4","6375","","32","","","","","","","","","","","","","","","","","","","","","","","","","","","","","","","","","","",""
"","text","44","262075","0.0-24.0","51236223","wem/bandit_either_2","AAXX5LDVJ32F8","either","4","3630","","32","","","","","","","","","","","","","","","","","","","","","","","","","","","","","","","","","","",""
"","text","45","264489","0.0-25.0","51236223","wem/bandit_either_2","AAXX5LDVJ32F8","either","4","2410","","32","","","","","","","","","","","","","","","","","","","","","","","","","","","","","","","","","","",""
"","text","46","267705","0.0-26.0","51236223","wem/bandit_either_2","AAXX5LDVJ32F8","either","4","3214","","32","","","","","","","","","","","","","","","","","","","","","","","","","","","","","","","","","","",""
"","text","47","273044","0.0-27.0","51236223","wem/bandit_either_2","AAXX5LDVJ32F8","either","4","5336","","32","","","","","","","","","","","","","","","","","","","","","","","","","","","","","","","","","","",""
"","text","48","276521","0.0-28.0","51236223","wem/bandit_either_2","AAXX5LDVJ32F8","either","4","3474","","32","","","","","","","","","","","","","","","","","","","","","","","","","","","","","","","","","","",""
"","text","49","280633","0.0-29.0","51236223","wem/bandit_either_2","AAXX5LDVJ32F8","either","4","4108","","32","","","","","","","","","","","","","","","","","","","","","","","","","","","","","","","","","","",""
"","text","50","283801","0.0-30.0","51236223","wem/bandit_either_2","AAXX5LDVJ32F8","either","4","3165","","32","","","","","","","","","","","","","","","","","","","","","","","","","","","","","","","","","","",""
"","text","51","287424","0.0-31.0","51236223","wem/bandit_either_2","AAXX5LDVJ32F8","either","4","3621","","32","","","","","","","","","","","","","","","","","","","","","","","","","","","","","","","","","","",""
"","text","52","289503","0.0-32.0","51236223","wem/bandit_either_2","AAXX5LDVJ32F8","either","4","2077","","32","","","","","","","","","","","","","","","","","","","","","","","","","","","","","","","","","","",""
"","text","53","293759","0.0-33.0","51236223","wem/bandit_either_2","AAXX5LDVJ32F8","either","4","4253","","32","","","","","","","","","","","","","","","","","","","","","","","","","","","","","","","","","","",""
"","bandit","54","296735","0.0-34.0-0.0","51236223","wem/bandit_either_2","AAXX5LDVJ32F8","either","4","1468","","","","","","","0","0","1","","0.8","0.5","0.5","0.5","0.5","0.8","0.2","0.6","0.2","","","","","","","","","","","","72","H","0","img/none_selected.jpg","true","0","full_practice"
"","bandit","55","298504","0.0-34.0-1.0","51236223","wem/bandit_either_2","AAXX5LDVJ32F8","either","4","262","","","","","","","1","0","0","0.8","","0.5","0.5","0.5","0.5","","","","","0.8","0.2","0.6","0.2","","","","","","","","72","H","0","img/none_selected.jpg","true","0","full_practice"
"","bandit","56","300375","0.0-34.0-2.0","51236223","wem/bandit_either_2","AAXX5LDVJ32F8","either","4","360","","","","","","","0","0","1","","0.8","0.5","0.5","0.5","0.5","0.8","0.2","0.6","0.2","","","","","","","","","","","","72","H","0","img/none_selected.jpg","true","0","full_practice"
"","bandit","57","303478","0.0-34.0-3.0","51236223","wem/bandit_either_2","AAXX5LDVJ32F8","either","4","1597","","","","","","","1","0","0","0.8","","0.5","0.5","0.5","0.5","","","","","0.8","0.2","0.6","0.2","","","","","","","","72","H","0","img/none_selected.jpg","true","0","full_practice"
"","bandit","58","305764","0.0-34.0-4.0","51236223","wem/bandit_either_2","AAXX5LDVJ32F8","either","4","781","","","","","","","0","0","1","0.2","","0.5","0.5","0.5","0.5","","","","","0.8","0.2","0.6","0.2","","","","","","","","74","J","1","","true","0","full_practice"
"","bandit","59","307385","0.0-34.0-5.0","51236223","wem/bandit_either_2","AAXX5LDVJ32F8","either","4","114","","","","","","","0","0","1","0.2","","0.5","0.5","0.5","0.5","","","","","0.8","0.2","0.6","0.2","","","","","","","","74","J","1","","true","0","full_practice"
"","bandit","60","309244","0.0-34.0-6.0","51236223","wem/bandit_either_2","AAXX5LDVJ32F8","either","4","350","","","","","","","0","0","1","0.2","","0.5","0.5","0.5","0.5","","","","","0.8","0.2","0.6","0.2","","","","","","","","74","J","1","","true","0","full_practice"
"","bandit","61","310965","0.0-34.0-7.0","51236223","wem/bandit_either_2","AAXX5LDVJ32F8","either","4","214","","","","","","","1","0","0","0.6","","0.5","0.5","0.5","0.5","","","","","0.8","0.2","0.6","0.2","","","","","","","","75","K","2","","true","0","full_practice"
"","bandit","62","312767","0.0-34.0-8.0","51236223","wem/bandit_either_2","AAXX5LDVJ32F8","either","4","292","","","","","","","0","1","0","","0.6","0.5","0.5","0.5","0.5","0.8","0.2","0.6","0.2","","","","","","","","","","","","75","K","2","","true","0","full_practice"
"","bandit","63","314590","0.0-34.0-9.0","51236223","wem/bandit_either_2","AAXX5LDVJ32F8","either","4","311","","","","","","","1","0","0","0.6","","0.5","0.5","0.5","0.5","","","","","0.8","0.2","0.6","0.2","","","","","","","","75","K","2","","true","0","full_practice"
"","bandit","64","316425","0.0-34.0-10.0","51236223","wem/bandit_either_2","AAXX5LDVJ32F8","either","4","323","","","","","","","0","0","1","0.6","","0.5","0.5","0.5","0.5","","","","","0.8","0.2","0.6","0.2","","","","","","","","75","K","2","","true","0","full_practice"
"","bandit","65","318509","0.0-34.0-11.0","51236223","wem/bandit_either_2","AAXX5LDVJ32F8","either","4","569","","","","","","","0","0","1","0.2","","0.5","0.5","0.5","0.5","","","","","0.8","0.2","0.6","0.2","","","","","","","","76","L","3","","true","0","full_practice"
"","bandit","66","320327","0.0-34.0-12.0","51236223","wem/bandit_either_2","AAXX5LDVJ32F8","either","4","311","","","","","","","0","0","1","","0.2","0.5","0.5","0.5","0.5","0.8","0.2","0.6","0.2","","","","","","","","","","","","76","L","3","","true","0","full_practice"
"","bandit","67","322197","0.0-34.0-13.0","51236223","wem/bandit_either_2","AAXX5LDVJ32F8","either","4","365","","","","","","","0","0","1","","0.2","0.5","0.5","0.5","0.5","0.8","0.2","0.6","0.2","","","","","","","","","","","","76","L","3","","true","0","full_practice"
"","bandit","68","325520","0.0-34.0-14.0","51236223","wem/bandit_either_2","AAXX5LDVJ32F8","either","4","1813","","","","","","","1","0","0","0.6","","0.5","0.5","0.5","0.5","","","","","0.8","0.2","0.6","0.2","","","","","","","","75","K","2","","true","0","full_practice"
"","bandit","69","327373","0.0-34.0-15.0","51236223","wem/bandit_either_2","AAXX5LDVJ32F8","either","4","342","","","","","","","0","0","1","0.6","","0.5","0.5","0.5","0.5","","","","","0.8","0.2","0.6","0.2","","","","","","","","75","K","2","","true","0","full_practice"
"","bandit","70","329423","0.0-34.0-16.0","51236223","wem/bandit_either_2","AAXX5LDVJ32F8","either","4","544","","","","","","","0","1","0","","0.6","0.5","0.5","0.5","0.5","0.8","0.2","0.6","0.2","","","","","","","","","","","","75","K","2","","true","0","full_practice"
"","bandit","71","331429","0.0-34.0-17.0","51236223","wem/bandit_either_2","AAXX5LDVJ32F8","either","4","492","","","","","","","1","0","0","0.6","","0.5","0.5","0.5","0.5","","","","","0.8","0.2","0.6","0.2","","","","","","","","75","K","2","","true","0","full_practice"
"","bandit","72","333404","0.0-34.0-18.0","51236223","wem/bandit_either_2","AAXX5LDVJ32F8","either","4","467","","","","","","","0","1","0","","0.6","0.5","0.5","0.5","0.5","0.8","0.2","0.6","0.2","","","","","","","","","","","","75","K","2","","true","0","full_practice"
"","bandit","73","335252","0.0-34.0-19.0","51236223","wem/bandit_either_2","AAXX5LDVJ32F8","either","4","342","","","","","","","0","1","0","","0.6","0.5","0.5","0.5","0.5","0.8","0.2","0.6","0.2","","","","","","","","","","","","75","K","2","","true","0","full_practice"
"","text","74","338002","0.0-35.0","51236223","wem/bandit_either_2","AAXX5LDVJ32F8","either","4","2740","","32","","","","","","","","","","","","","","","","","","","","","","","","","","","","","","","","","","",""
"","text","75","350056","0.0-36.0","51236223","wem/bandit_either_2","AAXX5LDVJ32F8","either","4","11049","","32","","","","","","","","","","","","","","","","","","","","","","","","","","","","","","","","","","",""
"","text","76","362512","0.0-37.0","51236223","wem/bandit_either_2","AAXX5LDVJ32F8","either","4","12453","","32","","","","","","","","","","","","","","","","","","","","","","","","","","","","","","","","","","",""
"","text","77","368184","0.0-38.0","51236223","wem/bandit_either_2","AAXX5LDVJ32F8","either","4","5669","","32","","","","","","","","","","","","","","","","","","","","","","","","","","","","","","","","","","",""
"","text","78","375249","0.0-39.0","51236223","wem/bandit_either_2","AAXX5LDVJ32F8","either","4","7059","","32","","","","","","","","","","","","","","","","","","","","","","","","","","","","","","","","","","",""
"","text","79","379415","0.0-40.0","51236223","wem/bandit_either_2","AAXX5LDVJ32F8","either","4","4163","","32","","","","","","","","","","","","","","","","","","","","","","","","","","","","","","","","","","",""
"","bandit","80","381911","0.0-41.0-0.0","51236223","wem/bandit_either_2","AAXX5LDVJ32F8","either","4","989","","","","","","","1","0","0","0.3242650943","","0.8","0.6","0.2","0.4","","","","","0.3242650943","0.2771551185","0.3894728165","0.3525715257","","","","","","","","72","H","0","img/none_selected.jpg","","1","main_expt"
"","bandit","81","383797","0.0-42.0-0.0","51236223","wem/bandit_either_2","AAXX5LDVJ32F8","either","4","375","","","","","","","1","0","0","0.3296228245","","0.8","0.6","0.2","0.4","","","","","0.3296228245","0.3030893157","0.363660736","0.390153736","","","","","","","","72","H","0","img/none_selected.jpg","","2","main_expt"
"","bandit","82","385645","0.0-43.0-0.0","51236223","wem/bandit_either_2","AAXX5LDVJ32F8","either","4","335","","","","","","","1","0","0","0.3102780753","","0.8","0.6","0.2","0.4","","","","","0.3102780753","0.3211059343","0.3842171554","0.3725447061","","","","","","","","72","H","0","img/none_selected.jpg","","3","main_expt"
"","bandit","83","387472","0.0-44.0-0.0","51236223","wem/bandit_either_2","AAXX5LDVJ32F8","either","4","321","","","","","","","0","0","1","0.2749892112","","0.8","0.6","0.2","0.4","","","","","0.2749892112","0.2804386453","0.3831963053","0.3431524481","","","","","","","","72","H","0","img/none_selected.jpg","","4","main_expt"
"","bandit","84","389286","0.0-45.0-0.0","51236223","wem/bandit_either_2","AAXX5LDVJ32F8","either","4","306","","","","","","","0","0","1","","0.3037824898","0.8","0.6","0.2","0.4","0.3037824898","0.2609559086","0.4056596471","0.3448007793","","","","","","","","","","","","72","H","0","img/none_selected.jpg","","5","main_expt"
"","bandit","85","391102","0.0-46.0-0.0","51236223","wem/bandit_either_2","AAXX5LDVJ32F8","either","4","309","","","","","","","0","0","1","0.3217417103","","0.8","0.6","0.2","0.4","","","","","0.3217417103","0.2259287768","0.4409946319","0.3980888019","","","","","","","","72","H","0","img/none_selected.jpg","","6","main_expt"
"","bandit","86","392902","0.0-47.0-0.0","51236223","wem/bandit_either_2","AAXX5LDVJ32F8","either","4","293","","","","","","","0","0","1","0.3018715163","","0.8","0.6","0.2","0.4","","","","","0.3018715163","0.2433618728","0.3821747998","0.3693121862","","","","","","","","72","H","0","img/none_selected.jpg","","7","main_expt"
"","bandit","87","396269","0.0-48.0-0.0","51236223","wem/bandit_either_2","AAXX5LDVJ32F8","either","4","1858","","","","","","","0","0","1","0.2025356769","","0.8","0.6","0.2","0.4","","","","","0.3643645816","0.2025356769","0.3841844813","0.2933697555","","","","","","","","74","J","1","","","8","main_expt"
"","bandit","88","398404","0.0-49.0-0.0","51236223","wem/bandit_either_2","AAXX5LDVJ32F8","either","4","615","","","","","","","0","0","1","0.3418610374","","0.8","0.6","0.2","0.4","","","","","0.3418610374","0.1441028094","0.3412237964","0.3036212831","","","","","","","","72","H","0","img/none_selected.jpg","","9","main_expt"
"","bandit","89","400419","0.0-50.0-0.0","51236223","wem/bandit_either_2","AAXX5LDVJ32F8","either","4","505","","","","","","","0","0","1","","0.1736005971","0.8","0.6","0.2","0.4","0.3190157878","0.1736005971","0.3256420777","0.308020301","","","","","","","","","","","","74","J","1","","","10","main_expt"
"","bandit","90","401964","0.0-51.0-0.0","51236223","wem/bandit_either_2","AAXX5LDVJ32F8","either","4","34","","","","","","","0","1","0","","0.3514007431","0.8","0.6","0.2","0.4","0.2998731478","0.1836365694","0.3514007431","0.3065973113","","","","","","","","","","","","75","K","2","","","11","main_expt"
"","bandit","91","403934","0.0-52.0-0.0","51236223","wem/bandit_either_2","AAXX5LDVJ32F8","either","4","461","","","","","","","0","1","0","","0.3722032088","0.8","0.6","0.2","0.4","0.2942822571","0.2143869662","0.3722032088","0.3271859636","","","","","","","","","","","","75","K","2","","","12","main_expt"
"","bandit","92","406005","0.0-53.0-0.0","51236223","wem/bandit_either_2","AAXX5LDVJ32F8","either","4","565","","","","","","","0","0","1","","0.3681707299","0.8","0.6","0.2","0.4","0.3009212619","0.1637139448","0.3681707299","0.2761076709","","","","","","","","","","","","75","K","2","","","13","main_expt"
"","bandit","93","407830","0.0-54.0-0.0","51236223","wem/bandit_either_2","AAXX5LDVJ32F8","either","4","318","","","","","","","0","0","1","","0.3528222564","0.8","0.6","0.2","0.4","0.3227424667","0.1488535162","0.3528222564","0.2311164494","","","","","","","","","","","","75","K","2","","","14","main_expt"
"","bandit","94","409692","0.0-55.0-0.0","51236223","wem/bandit_either_2","AAXX5LDVJ32F8","either","4","352","","","","","","","0","0","1","","0.2905977425","0.8","0.6","0.2","0.4","0.3547546862","0.1332411271","0.3738838661","0.2905977425","","","","","","","","","","","","76","L","3","","","15","main_expt"
"","bandit","95","411431","0.0-56.0-0.0","51236223","wem/bandit_either_2","AAXX5LDVJ32F8","either","4","225","","","","","","","0","0","1","","0.2924554969","0.8","0.6","0.2","0.4","0.3241157583","0.09882415698","0.3385239332","0.2924554969","","","","","","","","","","","","76","L","3","","","16","main_expt"
"","bandit","96","413264","0.0-57.0-0.0","51236223","wem/bandit_either_2","AAXX5LDVJ32F8","either","4","318","","","","","","","0","0","1","","0.3114836302","0.8","0.6","0.2","0.4","0.3363410386","0.1069157009","0.3111355138","0.3114836302","","","","","","","","","","","","76","L","3","","","17","main_expt"
"","bandit","97","415078","0.0-58.0-0.0","51236223","wem/bandit_either_2","AAXX5LDVJ32F8","either","4","304","","","","","","","0","0","1","","0.3215333475","0.8","0.6","0.2","0.4","0.3880947854","0.134958137","0.3487767647","0.3215333475","","","","","","","","","","","","76","L","3","","","18","main_expt"
"","bandit","98","416604","0.0-59.0-0.0","51236223","wem/bandit_either_2","AAXX5LDVJ32F8","either","4","20","","","","","","","0","0","1","","0.3010303499","0.8","0.6","0.2","0.4","0.4116912081","0.1230418706","0.3010303499","0.2733398822","","","","","","","","","","","","75","K","2","","","19","main_expt"
"","bandit","99","418390","0.0-60.0-0.0","51236223","wem/bandit_either_2","AAXX5LDVJ32F8","either","4","277","","","","","","","0","1","0","","0.2907203997","0.8","0.6","0.2","0.4","0.3973894305","0.09866604889","0.2907203997","0.2351410235","","","","","","","","","","","","75","K","2","","","20","main_expt"
"","bandit","100","420181","0.0-61.0-0.0","51236223","wem/bandit_either_2","AAXX5LDVJ32F8","either","4","279","","","","","","","0","1","0","","0.3088108907","0.8","0.6","0.2","0.4","0.369037109","0.1021222834","0.3088108907","0.2257810982","","","","","","","","","","","","75","K","2","","","21","main_expt"
"","bandit","101","422045","0.0-62.0-0.0","51236223","wem/bandit_either_2","AAXX5LDVJ32F8","either","4","352","","","","","","","0","1","0","","0.349202701","0.8","0.6","0.2","0.4","0.4179468344","0.1234138809","0.349202701","0.2221856846","","","","","","","","","","","","75","K","2","","","22","main_expt"
"","bandit","102","423884","0.0-63.0-0.0","51236223","wem/bandit_either_2","AAXX5LDVJ32F8","either","4","330","","","","","","","0","0","1","","0.3785068464","0.8","0.6","0.2","0.4","0.4276062926","0.1030640584","0.3785068464","0.2127124712","","","","","","","","","","","","75","K","2","","","23","main_expt"
"","bandit","103","426307","0.0-64.0-0.0","51236223","wem/bandit_either_2","AAXX5LDVJ32F8","either","4","917","","","","","","","0","1","0","","0.4078122208","0.8","0.6","0.2","0.4","0.4078122208","0.1261035851","0.4012919653","0.1882566648","","","","","","","","","","","","72","H","0","img/none_selected.jpg","","24","main_expt"
"","bandit","104","428183","0.0-65.0-0.0","51236223","wem/bandit_either_2","AAXX5LDVJ32F8","either","4","365","","","","","","","0","0","1","0.3950411191","","0.8","0.6","0.2","0.4","","","","","0.3950411191","0.1796705612","0.400899794","0.1273223766","","","","","","","","72","H","0","img/none_selected.jpg","","25","main_expt"
"","bandit","105","430092","0.0-66.0-0.0","51236223","wem/bandit_either_2","AAXX5LDVJ32F8","either","4","398","","","","","","","1","0","0","0.4322303329","","0.8","0.6","0.2","0.4","","","","","0.4322303329","0.2414651519","0.4126274585","0.15747458","","","","","","","","72","H","0","img/none_selected.jpg","","26","main_expt"
"","bandit","106","432137","0.0-67.0-0.0","51236223","wem/bandit_either_2","AAXX5LDVJ32F8","either","4","530","","","","","","","0","0","1","0.4353643722","","0.8","0.6","0.2","0.4","","","","","0.4353643722","0.2005374927","0.3992263875","0.1442684908","","","","","","","","72","H","0","img/none_selected.jpg","","27","main_expt"
"","bandit","107","434077","0.0-68.0-0.0","51236223","wem/bandit_either_2","AAXX5LDVJ32F8","either","4","431","","","","","","","0","0","1","0.4464017809","","0.8","0.6","0.2","0.4","","","","","0.4464017809","0.3197257227","0.3846584236","0.2255404594","","","","","","","","72","H","0","img/none_selected.jpg","","28","main_expt"
"","bandit","108","435727","0.0-69.0-0.0","51236223","wem/bandit_either_2","AAXX5LDVJ32F8","either","4","139","","","","","","","0","1","0","","0.3561298134","0.8","0.6","0.2","0.4","0.4417109462","0.3141869899","0.3561298134","0.2730951691","","","","","","","","","","","","75","K","2","","","29","main_expt"
"","bandit","109","437603","0.0-70.0-0.0","51236223","wem/bandit_either_2","AAXX5LDVJ32F8","either","4","365","","","","","","","0","0","1","","0.3101363315","0.8","0.6","0.2","0.4","0.4065908859","0.3445991012","0.3101363315","0.2890412698","","","","","","","","","","","","75","K","2","","","30","main_expt"
"","bandit","110","439467","0.0-71.0-0.0","51236223","wem/bandit_either_2","AAXX5LDVJ32F8","either","4","357","","","","","","","0","0","1","","0.3322219809","0.8","0.6","0.2","0.4","0.3954582793","0.3456655029","0.3322219809","0.3309226042","","","","","","","","","","","","75","K","2","","","31","main_expt"
"","bandit","111","441387","0.0-72.0-0.0","51236223","wem/bandit_either_2","AAXX5LDVJ32F8","either","4","415","","","","","","","0","0","1","","0.3516269472","0.8","0.6","0.2","0.4","0.3716723047","0.3826172224","0.3516269472","0.3519301717","","","","","","","","","","","","75","K","2","","","32","main_expt"
"","bandit","112","443183","0.0-73.0-0.0","51236223","wem/bandit_either_2","AAXX5LDVJ32F8","either","4","288","","","","","","","0","1","0","","0.3804083149","0.8","0.6","0.2","0.4","0.3799724366","0.3804083149","0.3852085553","0.3414953842","","","","","","","","","","","","74","J","1","","","33","main_expt"
"","bandit","113","445019","0.0-74.0-0.0","51236223","wem/bandit_either_2","AAXX5LDVJ32F8","either","4","323","","","","","","","0","0","1","","0.3808178469","0.8","0.6","0.2","0.4","0.409480615","0.3808178469","0.4196644934","0.2938412915","","","","","","","","","","","","74","J","1","","","34","main_expt"
"","bandit","114","446982","0.0-75.0-0.0","51236223","wem/bandit_either_2","AAXX5LDVJ32F8","either","4","455","","","","","","","0","0","1","0.376129724","","0.8","0.6","0.2","0.4","","","","","0.3869649509","0.376129724","0.420891004","0.2256616696","","","","","","","","74","J","1","","","35","main_expt"
"","bandit","115","448971","0.0-76.0-0.0","51236223","wem/bandit_either_2","AAXX5LDVJ32F8","either","4","475","","","","","","","0","0","1","0.3045389962","","0.8","0.6","0.2","0.4","","","","","0.3045389962","0.4027809904","0.3808881167","0.2525957923","","","","","","","","72","H","0","img/none_selected.jpg","","36","main_expt"
"","bandit","116","451058","0.0-77.0-0.0","51236223","wem/bandit_either_2","AAXX5LDVJ32F8","either","4","579","","","","","","","0","0","1","0.2333373749","","0.8","0.6","0.2","0.4","","","","","0.2954217214","0.3715556026","0.3634360393","0.2333373749","","","","","","","","76","L","3","","","37","main_expt"
"","bandit","117","452694","0.0-78.0-0.0","51236223","wem/bandit_either_2","AAXX5LDVJ32F8","either","4","127","","","","","","","0","0","1","0.2126884676","","0.8","0.6","0.2","0.4","","","","","0.2749906923","0.354842885","0.3432691328","0.2126884676","","","","","","","","76","L","3","","","38","main_expt"
"","bandit","118","454268","0.0-79.0-0.0","51236223","wem/bandit_either_2","AAXX5LDVJ32F8","either","4","64","","","","","","","0","0","1","","0.3113322025","0.8","0.6","0.2","0.4","0.2911873598","0.3066825603","0.3113322025","0.212498526","","","","","","","","","","","","75","K","2","","","39","main_expt"
"","bandit","119","455843","0.0-80.0-0.0","51236223","wem/bandit_either_2","AAXX5LDVJ32F8","either","4","65","","","","","","","0","0","1","0.3208648015","","0.8","0.6","0.2","0.4","","","","","0.3066149412","0.3208648015","0.3298138996","0.2031275136","","","","","","","","74","J","1","","","40","main_expt"
"","bandit","120","457814","0.0-81.0-0.0","51236223","wem/bandit_either_2","AAXX5LDVJ32F8","either","4","461","","","","","","","1","0","0","0.2774570704","","0.8","0.6","0.2","0.4","","","","","0.2612722093","0.2774570704","0.3590557929","0.2409224204","","","","","","","","74","J","1","","","41","main_expt"
"","bandit","121","460052","0.0-82.0-0.0","51236223","wem/bandit_either_2","AAXX5LDVJ32F8","either","4","725","","","","","","","1","0","0","0.3092882543","","0.8","0.6","0.2","0.4","","","","","0.2579482203","0.3092882543","0.3455434044","0.2166695961","","","","","","","","74","J","1","","","42","main_expt"
"","bandit","122","463079","0.0-83.0-0.0","51236223","wem/bandit_either_2","AAXX5LDVJ32F8","either","4","1510","","","","","","","1","0","0","0.3161251671","","0.8","0.6","0.2","0.4","","","","","0.2232302517","0.3161251671","0.4020043176","0.2314197793","","","","","","","","74","J","1","","","43","main_expt"
"","bandit","123","464964","0.0-84.0-0.0","51236223","wem/bandit_either_2","AAXX5LDVJ32F8","either","4","373","","","","","","","0","1","0","","0.3032549762","0.8","0.6","0.2","0.4","0.2435669349","0.3032549762","0.4088695108","0.1889371852","","","","","","","","","","","","74","J","1","","","44","main_expt"
"","bandit","124","467027","0.0-85.0-0.0","51236223","wem/bandit_either_2","AAXX5LDVJ32F8","either","4","549","","","","","","","1","0","0","0.3012359134","","0.8","0.6","0.2","0.4","","","","","0.1885724617","0.3012359134","0.3914045207","0.2152104473","","","","","","","","74","J","1","","","45","main_expt"
"","bandit","125","469011","0.0-86.0-0.0","51236223","wem/bandit_either_2","AAXX5LDVJ32F8","either","4","477","","","","","","","0","0","1","","0.2994346937","0.8","0.6","0.2","0.4","0.104230756","0.2994346937","0.3682142312","0.2260726972","","","","","","","","","","","","74","J","1","","","46","main_expt"
"","bandit","126","470820","0.0-87.0-0.0","51236223","wem/bandit_either_2","AAXX5LDVJ32F8","either","4","298","","","","","","","0","0","1","0.3169549043","","0.8","0.6","0.2","0.4","","","","","0.09013225529","0.3169549043","0.3462276735","0.2330399618","","","","","","","","74","J","1","","","47","main_expt"
"","bandit","127","472668","0.0-88.0-0.0","51236223","wem/bandit_either_2","AAXX5LDVJ32F8","either","4","333","","","","","","","0","0","1","0.3137179834","","0.8","0.6","0.2","0.4","","","","","0.1066227192","0.3137179834","0.3501405617","0.2769685944","","","","","","","","74","J","1","","","48","main_expt"
"","bandit","128","474502","0.0-89.0-0.0","51236223","wem/bandit_either_2","AAXX5LDVJ32F8","either","4","319","","","","","","","0","0","1","0.3026837323","","0.8","0.6","0.2","0.4","","","","","0.1273062614","0.3026837323","0.3607669766","0.2954986192","","","","","","","","74","J","1","","","49","main_expt"
"","bandit","129","476036","0.0-90.0-0.0","51236223","wem/bandit_either_2","AAXX5LDVJ32F8","either","4","21","","","","","","","0","0","1","0.08158159543","","0.8","0.6","0.2","0.4","","","","","0.08158159543","0.2690248343","0.3776327681","0.2730110453","","","","","","","","72","H","0","img/none_selected.jpg","","50","main_expt"
"","bandit","130","477853","0.0-91.0-0.0","51236223","wem/bandit_either_2","AAXX5LDVJ32F8","either","4","308","","","","","","","0","0","1","0.08035098666","","0.8","0.6","0.2","0.4","","","","","0.08035098666","0.2407215714","0.3922012959","0.2672659715","","","","","","","","72","H","0","img/none_selected.jpg","","51","main_expt"
"","bandit","131","479955","0.0-92.0-0.0","51236223","wem/bandit_either_2","AAXX5LDVJ32F8","either","4","592","","","","","","","0","0","1","0.2552972095","","0.8","0.6","0.2","0.4","","","","","0.1007468434","0.2758158767","0.3532085343","0.2552972095","","","","","","","","76","L","3","","","52","main_expt"
"","bandit","132","481766","0.0-93.0-0.0","51236223","wem/bandit_either_2","AAXX5LDVJ32F8","either","4","301","","","","","","","0","0","1","","0.1954439593","0.8","0.6","0.2","0.4","0.1479770317","0.2661511239","0.3597378762","0.1954439593","","","","","","","","","","","","76","L","3","","","53","main_expt"
"","bandit","133","483286","0.0-94.0-0.0","51236223","wem/bandit_either_2","AAXX5LDVJ32F8","either","4","2","","","","","","","0","1","0","","0.3553644404","0.8","0.6","0.2","0.4","0.1450389045","0.250303373","0.3553644404","0.1250298759","","","","","","","","","","","","75","K","2","","","54","main_expt"
"","bandit","134","485187","0.0-95.0-0.0","51236223","wem/bandit_either_2","AAXX5LDVJ32F8","either","4","392","","","","","","","0","0","1","","0.3427354451","0.8","0.6","0.2","0.4","0.1678096349","0.1850572083","0.3427354451","0.1224949652","","","","","","","","","","","","75","K","2","","","55","main_expt"
"","bandit","135","487045","0.0-96.0-0.0","51236223","wem/bandit_either_2","AAXX5LDVJ32F8","either","4","347","","","","","","","0","1","0","","0.3158877586","0.8","0.6","0.2","0.4","0.1748395718","0.2410157884","0.3158877586","0.1312048923","","","","","","","","","","","","75","K","2","","","56","main_expt"
"","bandit","136","488918","0.0-97.0-0.0","51236223","wem/bandit_either_2","AAXX5LDVJ32F8","either","4","346","","","","","","","0","0","1","","0.3224611445","0.8","0.6","0.2","0.4","0.146986137","0.2657224069","0.3224611445","0.14452077","","","","","","","","","","","","75","K","2","","","57","main_expt"
"","bandit","137","490781","0.0-98.0-0.0","51236223","wem/bandit_either_2","AAXX5LDVJ32F8","either","4","344","","","","","","","0","0","1","0.3378672788","","0.8","0.6","0.2","0.4","","","","","0.1316135006","0.2361308133","0.3378672788","0.1198415177","","","","","","","","75","K","2","","","58","main_expt"
"","bandit","138","492410","0.0-99.0-0.0","51236223","wem/bandit_either_2","AAXX5LDVJ32F8","either","4","121","","","","","","","0","0","1","","0.1776120447","0.8","0.6","0.2","0.4","0.1776120447","0.2078360154","0.3438075972","0.1674914914","","","","","","","","","","","","72","H","0","img/none_selected.jpg","","59","main_expt"
"","bandit","139","494172","0.0-100.0-0.0","51236223","wem/bandit_either_2","AAXX5LDVJ32F8","either","4","254","","","","","","","0","0","1","0.2034864675","","0.8","0.6","0.2","0.4","","","","","0.2034864675","0.2256957235","0.2950987239","0.147959707","","","","","","","","72","H","0","img/none_selected.jpg","","60","main_expt"
"","bandit","140","496075","0.0-101.0-0.0","51236223","wem/bandit_either_2","AAXX5LDVJ32F8","either","4","391","","","","","","","0","0","1","","0.2713547376","0.8","0.6","0.2","0.4","0.1325668513","0.2713547376","0.2939622289","0.1217284172","","","","","","","","","","","","74","J","1","","","61","main_expt"
"","bandit","141","497885","0.0-102.0-0.0","51236223","wem/bandit_either_2","AAXX5LDVJ32F8","either","4","301","","","","","","","0","0","1","","0.2800078023","0.8","0.6","0.2","0.4","0.125492747","0.2800078023","0.2907096119","0.1392905859","","","","","","","","","","","","74","J","1","","","62","main_expt"
"","bandit","142","500619","0.0-103.0-0.0","51236223","wem/bandit_either_2","AAXX5LDVJ32F8","either","4","1210","","","","","","","0","0","1","","0.1953314019","0.8","0.6","0.2","0.4","0.1081989139","0.362183352","0.2696382907","0.1953314019","","","","","","","","","","","","76","L","3","","","63","main_expt"
"","bandit","143","503419","0.0-104.0-0.0","51236223","wem/bandit_either_2","AAXX5LDVJ32F8","either","4","1293","","","","","","","0","0","1","","0.2618523415","0.8","0.6","0.2","0.4","0.09104284411","0.3354395381","0.2496415039","0.2618523415","","","","","","","","","","","","76","L","3","","","64","main_expt"
"","bandit","144","505255","0.0-105.0-0.0","51236223","wem/bandit_either_2","AAXX5LDVJ32F8","either","4","324","","","","","","","0","1","0","","0.2364994079","0.8","0.6","0.2","0.4","0.1264903162","0.2893845237","0.2364994079","0.2686672798","","","","","","","","","","","","75","K","2","","","65","main_expt"
"","bandit","145","508280","0.0-106.0-0.0","51236223","wem/bandit_either_2","AAXX5LDVJ32F8","either","4","1506","","","","","","","0","0","1","","0.2541683514","0.8","0.6","0.2","0.4","0.1665937301","0.2355717356","0.2541683514","0.2451656397","","","","","","","","","","","","75","K","2","","","66","main_expt"
"","bandit","146","510129","0.0-107.0-0.0","51236223","wem/bandit_either_2","AAXX5LDVJ32F8","either","4","334","","","","","","","0","0","1","0.2985471382","","0.8","0.6","0.2","0.4","","","","","0.1740025863","0.2848755716","0.2985471382","0.2445320338","","","","","","","","75","K","2","","","67","main_expt"
"","bandit","147","511836","0.0-108.0-0.0","51236223","wem/bandit_either_2","AAXX5LDVJ32F8","either","4","198","","","","","","","0","0","1","0.3391290389","","0.8","0.6","0.2","0.4","","","","","0.2300011382","0.3341158043","0.3391290389","0.2261158315","","","","","","","","75","K","2","","","68","main_expt"
"","bandit","148","513595","0.0-109.0-0.0","51236223","wem/bandit_either_2","AAXX5LDVJ32F8","either","4","250","","","","","","","1","0","0","0.3114764975","","0.8","0.6","0.2","0.4","","","","","0.1768594062","0.3253412689","0.3114764975","0.1627286519","","","","","","","","75","K","2","","","69","main_expt"
"","bandit","149","515380","0.0-110.0-0.0","51236223","wem/bandit_either_2","AAXX5LDVJ32F8","either","4","268","","","","","","","0","1","0","","0.3056328376","0.8","0.6","0.2","0.4","0.1906145184","0.3280915152","0.3056328376","0.1301009224","","","","","","","","","","","","75","K","2","","","70","main_expt"
"","bandit","150","517197","0.0-111.0-0.0","51236223","wem/bandit_either_2","AAXX5LDVJ32F8","either","4","307","","","","","","","0","0","1","","0.3445325487","0.8","0.6","0.2","0.4","0.1451664327","0.3772643828","0.3445325487","0.1356707761","","","","","","","","","","","","75","K","2","","","71","main_expt"
"","bandit","151","519058","0.0-112.0-0.0","51236223","wem/bandit_either_2","AAXX5LDVJ32F8","either","4","346","","","","","","","1","0","0","0.364612409","","0.8","0.6","0.2","0.4","","","","","0.1091447996","0.4074174212","0.364612409","0.1045412551","","","","","","","","75","K","2","","","72","main_expt"
"","bandit","152","520995","0.0-113.0-0.0","51236223","wem/bandit_either_2","AAXX5LDVJ32F8","either","4","425","","","","","","","0","0","1","","0.4454774056","0.8","0.6","0.2","0.4","0.1248737042","0.3736299767","0.4454774056","0.0867882282","","","","","","","","","","","","75","K","2","","","73","main_expt"
"","bandit","153","522917","0.0-114.0-0.0","51236223","wem/bandit_either_2","AAXX5LDVJ32F8","either","4","404","","","","","","","1","0","0","0.4492830973","","0.8","0.6","0.2","0.4","","","","","0.1073746888","0.383211712","0.4492830973","0.1018359722","","","","","","","","75","K","2","","","74","main_expt"
"","bandit","154","524802","0.0-115.0-0.0","51236223","wem/bandit_either_2","AAXX5LDVJ32F8","either","4","376","","","","","","","0","1","0","","0.449321966","0.8","0.6","0.2","0.4","0.1051395745","0.3681962321","0.449321966","0.09443707336","","","","","","","","","","","","75","K","2","","","75","main_expt"
"","bandit","155","526707","0.0-116.0-0.0","51236223","wem/bandit_either_2","AAXX5LDVJ32F8","either","4","395","","","","","","","0","1","0","","0.4299726132","0.8","0.6","0.2","0.4","0.09171451076","0.3574328021","0.4299726132","0.08768691443","","","","","","","","","","","","75","K","2","","","76","main_expt"
"","bandit","156","528581","0.0-117.0-0.0","51236223","wem/bandit_either_2","AAXX5LDVJ32F8","either","4","363","","","","","","","0","0","1","","0.4349340462","0.8","0.6","0.2","0.4","0.1256070833","0.4041720962","0.4349340462","0.07744448812","","","","","","","","","","","","75","K","2","","","77","main_expt"
"","bandit","157","530384","0.0-118.0-0.0","51236223","wem/bandit_either_2","AAXX5LDVJ32F8","either","4","270","","","","","","","0","1","0","","0.4112950215","0.8","0.6","0.2","0.4","0.1398604905","0.4000946746","0.4112950215","0.05712631425","","","","","","","","","","","","75","K","2","","","78","main_expt"
"","bandit","158","532258","0.0-119.0-0.0","51236223","wem/bandit_either_2","AAXX5LDVJ32F8","either","4","365","","","","","","","0","0","1","","0.4123046053","0.8","0.6","0.2","0.4","0.1303191282","0.425248604","0.4123046053","0.03981704588","","","","","","","","","","","","75","K","2","","","79","main_expt"
"","bandit","159","534046","0.0-120.0-0.0","51236223","wem/bandit_either_2","AAXX5LDVJ32F8","either","4","274","","","","","","","0","0","1","0.4345430878","","0.8","0.6","0.2","0.4","","","","","0.1491340647","0.4263383456","0.4345430878","0.02961196177","","","","","","","","75","K","2","","","80","main_expt"
"","bandit","160","535835","0.0-121.0-0.0","51236223","wem/bandit_either_2","AAXX5LDVJ32F8","either","4","274","","","","","","","0","1","0","","0.4255274095","0.8","0.6","0.2","0.4","0.1484119081","0.4377411966","0.4255274095","0.0408206899","","","","","","","","","","","","75","K","2","","","81","main_expt"
"","bandit","161","537843","0.0-122.0-0.0","51236223","wem/bandit_either_2","AAXX5LDVJ32F8","either","4","500","","","","","","","0","1","0","","0.4266934287","0.8","0.6","0.2","0.4","0.135460029","0.4263216968","0.4266934287","0.03491361241","","","","","","","","","","","","75","K","2","","","82","main_expt"
"","bandit","162","539737","0.0-123.0-0.0","51236223","wem/bandit_either_2","AAXX5LDVJ32F8","either","4","384","","","","","","","1","0","0","0.4321646522","","0.8","0.6","0.2","0.4","","","","","0.09497461961","0.4536492548","0.4321646522","0.01881925386","","","","","","","","75","K","2","","","83","main_expt"
"","bandit","163","541620","0.0-124.0-0.0","51236223","wem/bandit_either_2","AAXX5LDVJ32F8","either","4","372","","","","","","","0","0","1","","0.43129245","0.8","0.6","0.2","0.4","0.0956585677","0.4344769981","0.43129245","0.03441768066","","","","","","","","","","","","75","K","2","","","84","main_expt"
"","bandit","164","543425","0.0-125.0-0.0","51236223","wem/bandit_either_2","AAXX5LDVJ32F8","either","4","297","","","","","","","0","0","1","","0.4307495417","0.8","0.6","0.2","0.4","0.08427930603","0.4167097255","0.4307495417","0.04015732792","","","","","","","","","","","","75","K","2","","","85","main_expt"
"","bandit","165","545241","0.0-126.0-0.0","51236223","wem/bandit_either_2","AAXX5LDVJ32F8","either","4","302","","","","","","","0","0","1","","0.4327415212","0.8","0.6","0.2","0.4","0.09540141202","0.4215971904","0.4327415212","0.0462821445","","","","","","","","","","","","75","K","2","","","86","main_expt"
"","bandit","166","547059","0.0-127.0-0.0","51236223","wem/bandit_either_2","AAXX5LDVJ32F8","either","4","304","","","","","","","1","0","0","0.4507305815","","0.8","0.6","0.2","0.4","","","","","0.06504543429","0.3962725568","0.4507305815","0.07236867375","","","","","","","","75","K","2","","","87","main_expt"
"","bandit","167","548872","0.0-128.0-0.0","51236223","wem/bandit_either_2","AAXX5LDVJ32F8","either","4","294","","","","","","","0","0","1","","0.4571393315","0.8","0.6","0.2","0.4","0.05894337134","0.4038430626","0.4571393315","0.1132918069","","","","","","","","","","","","75","K","2","","","88","main_expt"
"","bandit","168","550652","0.0-129.0-0.0","51236223","wem/bandit_either_2","AAXX5LDVJ32F8","either","4","263","","","","","","","0","1","0","","0.4639779763","0.8","0.6","0.2","0.4","0.06803635399","0.4247877058","0.4639779763","0.1466354559","","","","","","","","","","","","75","K","2","","","89","main_expt"
"","bandit","169","552497","0.0-130.0-0.0","51236223","wem/bandit_either_2","AAXX5LDVJ32F8","either","4","328","","","","","","","0","0","1","","0.4620017245","0.8","0.6","0.2","0.4","0.09657856289","0.4196700557","0.4620017245","0.1746819083","","","","","","","","","","","","75","K","2","","","90","main_expt"
"","bandit","170","554331","0.0-131.0-0.0","51236223","wem/bandit_either_2","AAXX5LDVJ32F8","either","4","324","","","","","","","0","1","0","","0.4492963398","0.8","0.6","0.2","0.4","0.08522031428","0.401758082","0.4492963398","0.1864657318","","","","","","","","","","","","75","K","2","","","91","main_expt"
"","bandit","171","555913","0.0-132.0-0.0","51236223","wem/bandit_either_2","AAXX5LDVJ32F8","either","4","71","","","","","","","0","0","1","0.2124622091","","0.8","0.6","0.2","0.4","","","","","0.07078380504","0.3422099147","0.462009279","0.2124622091","","","","","","","","76","L","3","","","92","main_expt"
"","bandit","172","557674","0.0-133.0-0.0","51236223","wem/bandit_either_2","AAXX5LDVJ32F8","either","4","252","","","","","","","0","0","1","","0.245786276","0.8","0.6","0.2","0.4","0.0564278809","0.3279059742","0.4363090379","0.245786276","","","","","","","","","","","","76","L","3","","","93","main_expt"
"","bandit","173","559490","0.0-134.0-0.0","51236223","wem/bandit_either_2","AAXX5LDVJ32F8","either","4","305","","","","","","","0","0","1","","0.4457519602","0.8","0.6","0.2","0.4","0.06067733924","0.3155724737","0.4457519602","0.2316759231","","","","","","","","","","","","75","K","2","","","94","main_expt"
"","bandit","174","561296","0.0-135.0-0.0","51236223","wem/bandit_either_2","AAXX5LDVJ32F8","either","4","298","","","","","","","1","0","0","0.4231248902","","0.8","0.6","0.2","0.4","","","","","0.08632751489","0.3519625041","0.4231248902","0.2231756969","","","","","","","","75","K","2","","","95","main_expt"
"","bandit","175","563305","0.0-136.0-0.0","51236223","wem/bandit_either_2","AAXX5LDVJ32F8","either","4","496","","","","","","","0","1","0","","0.4210676831","0.8","0.6","0.2","0.4","0.08481729553","0.3661455107","0.4210676831","0.1957128212","","","","","","","","","","","","75","K","2","","","96","main_expt"
"","bandit","176","565211","0.0-137.0-0.0","51236223","wem/bandit_either_2","AAXX5LDVJ32F8","either","4","393","","","","","","","0","0","1","","0.4022895305","0.8","0.6","0.2","0.4","0.08386440452","0.3558031673","0.4022895305","0.1638116915","","","","","","","","","","","","75","K","2","","","97","main_expt"
"","bandit","177","567642","0.0-138.0-0.0","51236223","wem/bandit_either_2","AAXX5LDVJ32F8","either","4","914","","","","","","","0","0","1","","0.4187351015","0.8","0.6","0.2","0.4","0.0940701929","0.3558230887","0.4187351015","0.1405816365","","","","","","","","","","","","75","K","2","","","98","main_expt"
"","bandit","178","569465","0.0-139.0-0.0","51236223","wem/bandit_either_2","AAXX5LDVJ32F8","either","4","312","","","","","","","0","0","1","","0.3981340028","0.8","0.6","0.2","0.4","0.1285058524","0.3064708089","0.3981340028","0.1435678602","","","","","","","","","","","","75","K","2","","","99","main_expt"
"","bandit","179","571241","0.0-140.0-0.0","51236223","wem/bandit_either_2","AAXX5LDVJ32F8","either","4","268","","","","","","","0","0","1","0.352498313","","0.8","0.6","0.2","0.4","","","","","0.065882019","0.352498313","0.3520446815","0.1478754355","","","","","","","","74","J","1","","","100","main_expt"
"","bandit","180","573090","0.0-141.0-0.0","51236223","wem/bandit_either_2","AAXX5LDVJ32F8","either","4","330","","","","","","","1","0","0","0.3511810171","","0.8","0.6","0.2","0.4","","","","","0.05692140794","0.3511810171","0.3715523215","0.1532559328","","","","","","","","74","J","1","","","101","main_expt"
"","bandit","181","575002","0.0-142.0-0.0","51236223","wem/bandit_either_2","AAXX5LDVJ32F8","either","4","396","","","","","","","0","1","0","","0.3246867477","0.8","0.6","0.2","0.4","0.04322280369","0.3246867477","0.3966955113","0.15857411","","","","","","","","","","","","74","J","1","","","102","main_expt"
"","bandit","182","576906","0.0-143.0-0.0","51236223","wem/bandit_either_2","AAXX5LDVJ32F8","either","4","385","","","","","","","0","0","1","0.2827689756","","0.8","0.6","0.2","0.4","","","","","0.05121437093","0.2827689756","0.3865714765","0.1552377357","","","","","","","","74","J","1","","","103","main_expt"
"","bandit","183","578847","0.0-144.0-0.0","51236223","wem/bandit_either_2","AAXX5LDVJ32F8","either","4","420","","","","","","","0","0","1","0.3307995119","","0.8","0.6","0.2","0.4","","","","","0.06548077564","0.3307995119","0.3440646931","0.1584193753","","","","","","","","74","J","1","","","104","main_expt"
"","bandit","184","580610","0.0-145.0-0.0","51236223","wem/bandit_either_2","AAXX5LDVJ32F8","either","4","239","","","","","","","0","0","1","0.07577357845","","0.8","0.6","0.2","0.4","","","","","0.07577357845","0.3078297571","0.330981063","0.192058402","","","","","","","","72","H","0","img/none_selected.jpg","","105","main_expt"
"","bandit","185","582458","0.0-146.0-0.0","51236223","wem/bandit_either_2","AAXX5LDVJ32F8","either","4","331","","","","","","","0","0","1","0.09041352565","","0.8","0.6","0.2","0.4","","","","","0.09041352565","0.3202685942","0.3317280627","0.1562344916","","","","","","","","72","H","0","img/none_selected.jpg","","106","main_expt"
"","bandit","186","584130","0.0-147.0-0.0","51236223","wem/bandit_either_2","AAXX5LDVJ32F8","either","4","163","","","","","","","1","0","0","0.3163418234","","0.8","0.6","0.2","0.4","","","","","0.1184921167","0.3163418234","0.2760665195","0.1493116313","","","","","","","","74","J","1","","","107","main_expt"
"","bandit","187","586057","0.0-148.0-0.0","51236223","wem/bandit_either_2","AAXX5LDVJ32F8","either","4","420","","","","","","","0","0","1","","0.3425943818","0.8","0.6","0.2","0.4","0.1057615429","0.3425943818","0.2826301941","0.1357435498","","","","","","","","","","","","74","J","1","","","108","main_expt"
"","bandit","188","587907","0.0-149.0-0.0","51236223","wem/bandit_either_2","AAXX5LDVJ32F8","either","4","330","","","","","","","0","0","1","0.2852030557","","0.8","0.6","0.2","0.4","","","","","0.1464484126","0.2852030557","0.318117281","0.1164074326","","","","","","","","74","J","1","","","109","main_expt"
"","bandit","189","589785","0.0-150.0-0.0","51236223","wem/bandit_either_2","AAXX5LDVJ32F8","either","4","361","","","","","","","0","0","1","","0.3392406975","0.8","0.6","0.2","0.4","0.1641354829","0.3392406975","0.3358587519","0.1444451916","","","","","","","","","","","","74","J","1","","","110","main_expt"
"","bandit","190","591973","0.0-151.0-0.0","51236223","wem/bandit_either_2","AAXX5LDVJ32F8","either","4","661","","","","","","","0","0","1","","0.3023411017","0.8","0.6","0.2","0.4","0.1386891192","0.3023411017","0.3031660534","0.09905323685","","","","","","","","","","","","74","J","1","","","111","main_expt"
"","bandit","191","593937","0.0-152.0-0.0","51236223","wem/bandit_either_2","AAXX5LDVJ32F8","either","4","453","","","","","","","0","0","1","","0.296849772","0.8","0.6","0.2","0.4","0.1847512065","0.296849772","0.2773548355","0.09652445584","","","","","","","","","","","","74","J","1","","","112","main_expt"
"","bandit","192","595834","0.0-153.0-0.0","51236223","wem/bandit_either_2","AAXX5LDVJ32F8","either","4","387","","","","","","","0","1","0","","0.2370758425","0.8","0.6","0.2","0.4","0.1304555333","0.2673419259","0.2370758425","0.09961189632","","","","","","","","","","","","75","K","2","","","113","main_expt"
"","bandit","193","597736","0.0-154.0-0.0","51236223","wem/bandit_either_2","AAXX5LDVJ32F8","either","4","394","","","","","","","0","0","1","","0.1821928837","0.8","0.6","0.2","0.4","0.1770102637","0.2670531803","0.1821928837","0.1036139638","","","","","","","","","","","","75","K","2","","","114","main_expt"
"","bandit","194","599549","0.0-155.0-0.0","51236223","wem/bandit_either_2","AAXX5LDVJ32F8","either","4","284","","","","","","","0","0","1","0.1564651975","","0.8","0.6","0.2","0.4","","","","","0.1564651975","0.2825009356","0.1315453283","0.0968506792","","","","","","","","72","H","0","img/none_selected.jpg","","115","main_expt"
"","bandit","195","601401","0.0-156.0-0.0","51236223","wem/bandit_either_2","AAXX5LDVJ32F8","either","4","335","","","","","","","0","0","1","0.1665702367","","0.8","0.6","0.2","0.4","","","","","0.1665702367","0.3237719372","0.1102777544","0.08782875681","","","","","","","","72","H","0","img/none_selected.jpg","","116","main_expt"
"","bandit","196","603280","0.0-157.0-0.0","51236223","wem/bandit_either_2","AAXX5LDVJ32F8","either","4","361","","","","","","","0","0","1","","0.1530687496","0.8","0.6","0.2","0.4","0.1530687496","0.3154846423","0.1101610351","0.06031800864","","","","","","","","","","","","72","H","0","img/none_selected.jpg","","117","main_expt"
"","bandit","197","604909","0.0-158.0-0.0","51236223","wem/bandit_either_2","AAXX5LDVJ32F8","either","4","115","","","","","","","0","0","1","","0.122460482","0.8","0.6","0.2","0.4","0.1674206906","0.2584508078","0.122460482","0.05633053331","","","","","","","","","","","","75","K","2","","","118","main_expt"
"","bandit","198","606929","0.0-159.0-0.0","51236223","wem/bandit_either_2","AAXX5LDVJ32F8","either","4","500","","","","","","","0","0","1","","0.07530514027","0.8","0.6","0.2","0.4","0.1990215448","0.2141905193","0.1451868924","0.07530514027","","","","","","","","","","","","76","L","3","","","119","main_expt"
"","bandit","199","608770","0.0-160.0-0.0","51236223","wem/bandit_either_2","AAXX5LDVJ32F8","either","4","329","","","","","","","0","0","1","","0.09639595661","0.8","0.6","0.2","0.4","0.2208640619","0.2341954374","0.09092593383","0.09639595661","","","","","","","","","","","","76","L","3","","","120","main_expt"
"","bandit","200","610586","0.0-161.0-0.0","51236223","wem/bandit_either_2","AAXX5LDVJ32F8","either","4","293","","","","","","","0","0","1","","0.1421799471","0.8","0.6","0.2","0.4","0.2602917539","0.1886372651","0.1080456108","0.1421799471","","","","","","","","","","","","76","L","3","","","121","main_expt"
"","bandit","201","612328","0.0-162.0-0.0","51236223","wem/bandit_either_2","AAXX5LDVJ32F8","either","4","233","","","","","","","0","0","1","","0.1169053248","0.8","0.6","0.2","0.4","0.2512498235","0.1597592322","0.1169053248","0.1624760489","","","","","","","","","","","","75","K","2","","","122","main_expt"
"","bandit","202","614136","0.0-163.0-0.0","51236223","wem/bandit_either_2","AAXX5LDVJ32F8","either","4","296","","","","","","","0","0","1","","0.1571594809","0.8","0.6","0.2","0.4","0.2266242761","0.1895266442","0.1571594809","0.1640214383","","","","","","","","","","","","75","K","2","","","123","main_expt"
"","bandit","203","616066","0.0-164.0-0.0","51236223","wem/bandit_either_2","AAXX5LDVJ32F8","either","4","410","","","","","","","0","0","1","0.2042850732","","0.8","0.6","0.2","0.4","","","","","0.2373824638","0.2042850732","0.2231804049","0.2014340991","","","","","","","","74","J","1","","","124","main_expt"
"","bandit","204","617967","0.0-165.0-0.0","51236223","wem/bandit_either_2","AAXX5LDVJ32F8","either","4","390","","","","","","","0","0","1","","0.1812515389","0.8","0.6","0.2","0.4","0.2538727107","0.1812515389","0.2232794356","0.2229229076","","","","","","","","","","","","74","J","1","","","125","main_expt"
"","bandit","205","619937","0.0-166.0-0.0","51236223","wem/bandit_either_2","AAXX5LDVJ32F8","either","4","450","","","","","","","0","0","1","0.1694736183","","0.8","0.6","0.2","0.4","","","","","0.290219491","0.1694736183","0.2316903634","0.2324712723","","","","","","","","74","J","1","","","126","main_expt"
"","bandit","206","621808","0.0-167.0-0.0","51236223","wem/bandit_either_2","AAXX5LDVJ32F8","either","4","357","","","","","","","0","0","1","","0.1624528765","0.8","0.6","0.2","0.4","0.2542505169","0.1624528765","0.2337524142","0.2628391623","","","","","","","","","","","","74","J","1","","","127","main_expt"
"","bandit","207","623576","0.0-168.0-0.0","51236223","wem/bandit_either_2","AAXX5LDVJ32F8","either","4","256","","","","","","","0","0","1","0.2582316027","","0.8","0.6","0.2","0.4","","","","","0.2582316027","0.1632982916","0.2198210178","0.2654356302","","","","","","","","72","H","0","img/none_selected.jpg","","128","main_expt"
"","bandit","208","625489","0.0-169.0-0.0","51236223","wem/bandit_either_2","AAXX5LDVJ32F8","either","4","400","","","","","","","0","0","1","0.3267566011","","0.8","0.6","0.2","0.4","","","","","0.3267566011","0.2264598068","0.2280168395","0.2070569149","","","","","","","","72","H","0","img/none_selected.jpg","","129","main_expt"
"","bandit","209","627375","0.0-170.0-0.0","51236223","wem/bandit_either_2","AAXX5LDVJ32F8","either","4","368","","","","","","","1","0","0","0.3323271388","","0.8","0.6","0.2","0.4","","","","","0.3323271388","0.202760285","0.243895296","0.2579182239","","","","","","","","72","H","0","img/none_selected.jpg","","130","main_expt"
"","bandit","210","629415","0.0-171.0-0.0","51236223","wem/bandit_either_2","AAXX5LDVJ32F8","either","4","531","","","","","","","0","0","1","0.2666668646","","0.8","0.6","0.2","0.4","","","","","0.2666668646","0.1585094705","0.2164454501","0.2329110821","","","","","","","","72","H","0","img/none_selected.jpg","","131","main_expt"
"","bandit","211","631324","0.0-172.0-0.0","51236223","wem/bandit_either_2","AAXX5LDVJ32F8","either","4","389","","","","","","","0","0","1","0.2359119393","","0.8","0.6","0.2","0.4","","","","","0.2359119393","0.1304261544","0.200468731","0.2400232435","","","","","","","","72","H","0","img/none_selected.jpg","","132","main_expt"
"","bandit","212","633328","0.0-173.0-0.0","51236223","wem/bandit_either_2","AAXX5LDVJ32F8","either","4","482","","","","","","","0","1","0","","0.2084798617","0.8","0.6","0.2","0.4","0.2540740643","0.09339990826","0.2038597077","0.2084798617","","","","","","","","","","","","76","L","3","","","133","main_expt"
"","bandit","213","635191","0.0-174.0-0.0","51236223","wem/bandit_either_2","AAXX5LDVJ32F8","either","4","355","","","","","","","0","0","1","","0.2034544","0.8","0.6","0.2","0.4","0.2414927735","0.08524612959","0.2263269307","0.2034544","","","","","","","","","","","","76","L","3","","","134","main_expt"
"","bandit","214","637032","0.0-175.0-0.0","51236223","wem/bandit_either_2","AAXX5LDVJ32F8","either","4","319","","","","","","","0","0","1","0.2088958693","","0.8","0.6","0.2","0.4","","","","","0.2632369982","0.0622033461","0.2686469146","0.2088958693","","","","","","","","76","L","3","","","135","main_expt"
"","bandit","215","638975","0.0-176.0-0.0","51236223","wem/bandit_either_2","AAXX5LDVJ32F8","either","4","432","","","","","","","1","0","0","0.2573758916","","0.8","0.6","0.2","0.4","","","","","0.3032623762","0.05632890875","0.3170393738","0.2573758916","","","","","","","","76","L","3","","","136","main_expt"
"","bandit","216","640827","0.0-177.0-0.0","51236223","wem/bandit_either_2","AAXX5LDVJ32F8","either","4","339","","","","","","","0","0","1","","0.2467438462","0.8","0.6","0.2","0.4","0.2984046037","0.06052980877","0.338962466","0.2467438462","","","","","","","","","","","","76","L","3","","","137","main_expt"
"","bandit","217","642659","0.0-178.0-0.0","51236223","wem/bandit_either_2","AAXX5LDVJ32F8","either","4","312","","","","","","","0","0","1","","0.2221944767","0.8","0.6","0.2","0.4","0.3110629865","0.1038497792","0.3586643031","0.2221944767","","","","","","","","","","","","76","L","3","","","138","main_expt"
"","bandit","218","644544","0.0-179.0-0.0","51236223","wem/bandit_either_2","AAXX5LDVJ32F8","either","4","366","","","","","","","0","1","0","","0.2750517365","0.8","0.6","0.2","0.4","0.3048373826","0.08561062373","0.3430902759","0.2750517365","","","","","","","","","","","","76","L","3","","","139","main_expt"
"","bandit","219","646402","0.0-180.0-0.0","51236223","wem/bandit_either_2","AAXX5LDVJ32F8","either","4","347","","","","","","","0","0","1","0.277474309","","0.8","0.6","0.2","0.4","","","","","0.3163642845","0.08025295029","0.3777112835","0.277474309","","","","","","","","76","L","3","","","140","main_expt"
"","bandit","220","648275","0.0-181.0-0.0","51236223","wem/bandit_either_2","AAXX5LDVJ32F8","either","4","359","","","","","","","0","0","1","0.2932007391","","0.8","0.6","0.2","0.4","","","","","0.2213861514","0.09309891757","0.4276051364","0.2932007391","","","","","","","","76","L","3","","","141","main_expt"
"","bandit","221","650695","0.0-182.0-0.0","51236223","wem/bandit_either_2","AAXX5LDVJ32F8","either","4","899","","","","","","","0","0","1","0.3001807938","","0.8","0.6","0.2","0.4","","","","","0.2492613222","0.1107976638","0.4312347149","0.3001807938","","","","","","","","76","L","3","","","142","main_expt"
"","bandit","222","652760","0.0-183.0-0.0","51236223","wem/bandit_either_2","AAXX5LDVJ32F8","either","4","539","","","","","","","0","0","1","","0.3640878437","0.8","0.6","0.2","0.4","0.2645663874","0.09575525052","0.386657586","0.3640878437","","","","","","","","","","","","76","L","3","","","143","main_expt"
"","bandit","223","654665","0.0-184.0-0.0","51236223","wem/bandit_either_2","AAXX5LDVJ32F8","either","4","392","","","","","","","0","0","1","","0.3409851627","0.8","0.6","0.2","0.4","0.2928215939","0.07222794989","0.3409851627","0.2706796495","","","","","","","","","","","","75","K","2","","","144","main_expt"
"","bandit","224","656265","0.0-185.0-0.0","51236223","wem/bandit_either_2","AAXX5LDVJ32F8","either","4","89","","","","","","","0","0","1","","0.3538709708","0.8","0.6","0.2","0.4","0.3178979655","0.03203798906","0.3538709708","0.2359726437","","","","","","","","","","","","75","K","2","","","145","main_expt"
"","bandit","225","658096","0.0-186.0-0.0","51236223","wem/bandit_either_2","AAXX5LDVJ32F8","either","4","313","","","","","","","0","0","1","0.03073079809","","0.8","0.6","0.2","0.4","","","","","0.2850957273","0.03073079809","0.2745956728","0.2200332621","","","","","","","","74","J","1","","","146","main_expt"
"","bandit","226","659879","0.0-187.0-0.0","51236223","wem/bandit_either_2","AAXX5LDVJ32F8","either","4","275","","","","","","","0","0","1","0.05105424151","","0.8","0.6","0.2","0.4","","","","","0.2483519338","0.05105424151","0.2375793476","0.1957794229","","","","","","","","74","J","1","","","147","main_expt"
"","bandit","227","661522","0.0-188.0-0.0","51236223","wem/bandit_either_2","AAXX5LDVJ32F8","either","4","131","","","","","","","0","0","1","","0.2309770791","0.8","0.6","0.2","0.4","0.2309770791","0.04045355104","0.2954602587","0.1790722045","","","","","","","","","","","","72","H","0","img/none_selected.jpg","","148","main_expt"
"","bandit","228","663305","0.0-189.0-0.0","51236223","wem/bandit_either_2","AAXX5LDVJ32F8","either","4","257","","","","","","","0","0","1","0.1759049641","","0.8","0.6","0.2","0.4","","","","","0.1759049641","0.06416506337","0.3435099865","0.2189150546","","","","","","","","72","H","0","img/none_selected.jpg","","149","main_expt"
"","bandit","229","665210","0.0-190.0-0.0","51236223","wem/bandit_either_2","AAXX5LDVJ32F8","either","4","394","","","","","","","0","1","0","","0.2119229637","0.8","0.6","0.2","0.4","0.1910702346","0.07819388902","0.268900415","0.2119229637","","","","","","","","","","","","76","L","3","","","150","main_expt"
"","bandit","230","667136","0.0-191.0-0.0","51236223","wem/bandit_either_2","AAXX5LDVJ32F8","either","4","410","","","","","","","0","1","0","","0.2472398003","0.8","0.6","0.2","0.4","0.1799178466","0.1186979887","0.2326488896","0.2472398003","","","","","","","","","","","","76","L","3","","","151","main_expt"
"","bandit","231","669027","0.0-192.0-0.0","51236223","wem/bandit_either_2","AAXX5LDVJ32F8","either","4","378","","","","","","","0","0","1","","0.2148428051","0.8","0.6","0.2","0.4","0.1826140084","0.1084773402","0.2768057641","0.2148428051","","","","","","","","","","","","76","L","3","","","152","main_expt"
"","bandit","232","671089","0.0-193.0-0.0","51236223","wem/bandit_either_2","AAXX5LDVJ32F8","either","4","540","","","","","","","0","0","1","","0.1598057249","0.8","0.6","0.2","0.4","0.147924298","0.1314289417","0.2997660112","0.1598057249","","","","","","","","","","","","76","L","3","","","153","main_expt"
"","bandit","233","672898","0.0-194.0-0.0","51236223","wem/bandit_either_2","AAXX5LDVJ32F8","either","4","291","","","","","","","0","0","1","0.1489099923","","0.8","0.6","0.2","0.4","","","","","0.1388357139","0.1354051011","0.3196464983","0.1489099923","","","","","","","","76","L","3","","","154","main_expt"
"","bandit","234","674798","0.0-195.0-0.0","51236223","wem/bandit_either_2","AAXX5LDVJ32F8","either","4","374","","","","","","","0","0","1","","0.1502541116","0.8","0.6","0.2","0.4","0.1658398244","0.1085215933","0.3141654429","0.1502541116","","","","","","","","","","","","76","L","3","","","155","main_expt"
"","bandit","235","676592","0.0-196.0-0.0","51236223","wem/bandit_either_2","AAXX5LDVJ32F8","either","4","281","","","","","","","0","0","1","0.1605084188","","0.8","0.6","0.2","0.4","","","","","0.1104921729","0.1383379057","0.2667217688","0.1605084188","","","","","","","","76","L","3","","","156","main_expt"
"","bandit","236","678447","0.0-197.0-0.0","51236223","wem/bandit_either_2","AAXX5LDVJ32F8","either","4","342","","","","","","","0","0","1","0.09530810267","","0.8","0.6","0.2","0.4","","","","","0.09530810267","0.1428990181","0.2867075714","0.1684101418","","","","","","","","72","H","0","img/none_selected.jpg","","157","main_expt"
"","bandit","237","680275","0.0-198.0-0.0","51236223","wem/bandit_either_2","AAXX5LDVJ32F8","either","4","315","","","","","","","0","0","1","0.1211627972","","0.8","0.6","0.2","0.4","","","","","0.1211627972","0.07455979893","0.2788639118","0.1807688322","","","","","","","","72","H","0","img/none_selected.jpg","","158","main_expt"
"","bandit","238","682048","0.0-199.0-0.0","51236223","wem/bandit_either_2","AAXX5LDVJ32F8","either","4","248","","","","","","","0","0","1","","0.1009372764","0.8","0.6","0.2","0.4","0.1012897464","0.1009372764","0.3020710819","0.1516426412","","","","","","","","","","","","74","J","1","","","159","main_expt"
"","bandit","239","683918","0.0-200.0-0.0","51236223","wem/bandit_either_2","AAXX5LDVJ32F8","either","4","361","","","","","","","0","0","1","","0.05118862797","0.8","0.6","0.2","0.4","0.1188035868","0.05118862797","0.3404227007","0.1638698877","","","","","","","","","","","","74","J","1","","","160","main_expt"
"","bandit","240","685698","0.0-201.0-0.0","51236223","wem/bandit_either_2","AAXX5LDVJ32F8","either","4","264","","","","","","","0","0","1","","0.2876249865","0.8","0.6","0.2","0.4","0.1606836622","0.05265847637","0.2876249865","0.1645359983","","","","","","","","","","","","75","K","2","","","161","main_expt"
"","bandit","241","687585","0.0-202.0-0.0","51236223","wem/bandit_either_2","AAXX5LDVJ32F8","either","4","366","","","","","","","0","0","1","","0.2401308511","0.8","0.6","0.2","0.4","0.1859884171","0.07938684611","0.2401308511","0.2509918509","","","","","","","","","","","","75","K","2","","","162","main_expt"
"","bandit","242","689414","0.0-203.0-0.0","51236223","wem/bandit_either_2","AAXX5LDVJ32F8","either","4","321","","","","","","","0","0","1","0.1883685458","","0.8","0.6","0.2","0.4","","","","","0.2528258464","0.0970900163","0.2486605046","0.1883685458","","","","","","","","76","L","3","","","163","main_expt"
"","bandit","243","691231","0.0-204.0-0.0","51236223","wem/bandit_either_2","AAXX5LDVJ32F8","either","4","298","","","","","","","0","0","1","","0.2179532334","0.8","0.6","0.2","0.4","0.2515292425","0.07401968201","0.22675384","0.2179532334","","","","","","","","","","","","76","L","3","","","164","main_expt"
"","bandit","244","693041","0.0-205.0-0.0","51236223","wem/bandit_either_2","AAXX5LDVJ32F8","either","4","296","","","","","","","0","0","1","","0.2143704678","0.8","0.6","0.2","0.4","0.2068970429","0.06633104104","0.2841151948","0.2143704678","","","","","","","","","","","","76","L","3","","","165","main_expt"
"","bandit","245","694681","0.0-206.0-0.0","51236223","wem/bandit_either_2","AAXX5LDVJ32F8","either","4","117","","","","","","","0","0","1","","0.1413778631","0.8","0.6","0.2","0.4","0.1413778631","0.05309652092","0.2842980464","0.2175899085","","","","","","","","","","","","72","H","0","img/none_selected.jpg","","166","main_expt"
"","bandit","246","696474","0.0-207.0-0.0","51236223","wem/bandit_either_2","AAXX5LDVJ32F8","either","4","280","","","","","","","0","0","1","0.1999497975","","0.8","0.6","0.2","0.4","","","","","0.1999497975","0.07357446968","0.3007590714","0.2137120923","","","","","","","","72","H","0","img/none_selected.jpg","","167","main_expt"
"","bandit","247","698320","0.0-208.0-0.0","51236223","wem/bandit_either_2","AAXX5LDVJ32F8","either","4","316","","","","","","","0","1","0","","0.1054325378","0.8","0.6","0.2","0.4","0.1696145944","0.1054325378","0.2884936601","0.2331560811","","","","","","","","","","","","74","J","1","","","168","main_expt"
"","bandit","248","700145","0.0-209.0-0.0","51236223","wem/bandit_either_2","AAXX5LDVJ32F8","either","4","312","","","","","","","0","0","1","","0.08536867429","0.8","0.6","0.2","0.4","0.1338518967","0.08536867429","0.2803439438","0.2367963754","","","","","","","","","","","","74","J","1","","","169","main_expt"
"","bandit","249","701935","0.0-210.0-0.0","51236223","wem/bandit_either_2","AAXX5LDVJ32F8","either","4","281","","","","","","","0","0","1","","0.1083432756","0.8","0.6","0.2","0.4","0.1307598277","0.1083432756","0.3010437192","0.2378050175","","","","","","","","","","","","74","J","1","","","170","main_expt"
"","bandit","250","703695","0.0-211.0-0.0","51236223","wem/bandit_either_2","AAXX5LDVJ32F8","either","4","246","","","","","","","0","0","1","0.09185370626","","0.8","0.6","0.2","0.4","","","","","0.1200375331","0.09185370626","0.3243802095","0.2253696972","","","","","","","","74","J","1","","","171","main_expt"
"","bandit","251","705519","0.0-212.0-0.0","51236223","wem/bandit_either_2","AAXX5LDVJ32F8","either","4","304","","","","","","","0","0","1","","0.3140094691","0.8","0.6","0.2","0.4","0.07514546963","0.09458096772","0.3140094691","0.2903394368","","","","","","","","","","","","75","K","2","","","172","main_expt"
"","bandit","252","707383","0.0-213.0-0.0","51236223","wem/bandit_either_2","AAXX5LDVJ32F8","either","4","354","","","","","","","0","0","1","","0.2433770114","0.8","0.6","0.2","0.4","0.07704486673","0.1016296913","0.2433770114","0.2384828248","","","","","","","","","","","","75","K","2","","","173","main_expt"
"","bandit","253","709318","0.0-214.0-0.0","51236223","wem/bandit_either_2","AAXX5LDVJ32F8","either","4","426","","","","","","","0","0","1","0.2823111034","","0.8","0.6","0.2","0.4","","","","","0.04061738922","0.117107939","0.2080779891","0.2823111034","","","","","","","","76","L","3","","","174","main_expt"
"","bandit","254","711306","0.0-215.0-0.0","51236223","wem/bandit_either_2","AAXX5LDVJ32F8","either","4","475","","","","","","","0","1","0","","0.292147578","0.8","0.6","0.2","0.4","0.02968316822","0.1254773658","0.2211365803","0.292147578","","","","","","","","","","","","76","L","3","","","175","main_expt"
"","bandit","255","713184","0.0-216.0-0.0","51236223","wem/bandit_either_2","AAXX5LDVJ32F8","either","4","355","","","","","","","0","1","0","","0.2928295457","0.8","0.6","0.2","0.4","0.04419366322","0.1518856622","0.231280906","0.2928295457","","","","","","","","","","","","76","L","3","","","176","main_expt"
"","bandit","256","715061","0.0-217.0-0.0","51236223","wem/bandit_either_2","AAXX5LDVJ32F8","either","4","350","","","","","","","0","0","1","","0.297241693","0.8","0.6","0.2","0.4","0.04140429262","0.1502483312","0.1689881391","0.297241693","","","","","","","","","","","","76","L","3","","","177","main_expt"
"","bandit","257","716897","0.0-218.0-0.0","51236223","wem/bandit_either_2","AAXX5LDVJ32F8","either","4","323","","","","","","","0","0","1","0.276241128","","0.8","0.6","0.2","0.4","","","","","0.06103489621","0.2073149786","0.1699404395","0.276241128","","","","","","","","76","L","3","","","178","main_expt"
"","bandit","258","718771","0.0-219.0-0.0","51236223","wem/bandit_either_2","AAXX5LDVJ32F8","either","4","361","","","","","","","0","0","1","","0.2405339857","0.8","0.6","0.2","0.4","0.053608248","0.1928578162","0.1571972967","0.2405339857","","","","","","","","","","","","76","L","3","","","179","main_expt"
"","bandit","259","720729","0.0-220.0-0.0","51236223","wem/bandit_either_2","AAXX5LDVJ32F8","either","4","429","","","","","","","0","0","1","","0.233428307","0.8","0.6","0.2","0.4","0.06289379635","0.1412953234","0.1567782565","0.233428307","","","","","","","","","","","","76","L","3","","","180","main_expt"
"","bandit","260","722607","0.0-221.0-0.0","51236223","wem/bandit_either_2","AAXX5LDVJ32F8","either","4","362","","","","","","","0","0","1","","0.07748386732","0.8","0.6","0.2","0.4","0.07748386732","0.1258774719","0.1492691696","0.1459310114","","","","","","","","","","","","72","H","0","img/none_selected.jpg","","181","main_expt"
"","bandit","261","724446","0.0-222.0-0.0","51236223","wem/bandit_either_2","AAXX5LDVJ32F8","either","4","326","","","","","","","0","0","1","0.096714051","","0.8","0.6","0.2","0.4","","","","","0.096714051","0.1121960069","0.1609613705","0.1796360657","","","","","","","","72","H","0","img/none_selected.jpg","","182","main_expt"
"","bandit","262","726321","0.0-223.0-0.0","51236223","wem/bandit_either_2","AAXX5LDVJ32F8","either","4","359","","","","","","","0","0","1","0.05351369794","","0.8","0.6","0.2","0.4","","","","","0.05351369794","0.08335286121","0.1982891881","0.1907874973","","","","","","","","72","H","0","img/none_selected.jpg","","183","main_expt"
"","bandit","263","728119","0.0-224.0-0.0","51236223","wem/bandit_either_2","AAXX5LDVJ32F8","either","4","275","","","","","","","0","0","1","0.1085923678","","0.8","0.6","0.2","0.4","","","","","0.08854511538","0.1085923678","0.1703318442","0.1451627339","","","","","","","","74","J","1","","","184","main_expt"
"","bandit","264","729937","0.0-225.0-0.0","51236223","wem/bandit_either_2","AAXX5LDVJ32F8","either","4","301","","","","","","","0","0","1","0.1113654269","","0.8","0.6","0.2","0.4","","","","","0.136385666","0.1113654269","0.09566746086","0.1692531577","","","","","","","","74","J","1","","","185","main_expt"
"","bandit","265","731687","0.0-226.0-0.0","51236223","wem/bandit_either_2","AAXX5LDVJ32F8","either","4","232","","","","","","","0","0","1","","0.1254261761","0.8","0.6","0.2","0.4","0.1848043888","0.1383531569","0.1254261761","0.1885113298","","","","","","","","","","","","75","K","2","","","186","main_expt"
"","bandit","266","733558","0.0-227.0-0.0","51236223","wem/bandit_either_2","AAXX5LDVJ32F8","either","4","360","","","","","","","0","0","1","","0.1081798115","0.8","0.6","0.2","0.4","0.1640989128","0.1739713275","0.1081798115","0.2088125345","","","","","","","","","","","","75","K","2","","","187","main_expt"
"","bandit","267","735167","0.0-228.0-0.0","51236223","wem/bandit_either_2","AAXX5LDVJ32F8","either","4","86","","","","","","","0","0","1","0.2228369986","","0.8","0.6","0.2","0.4","","","","","0.1301402021","0.1926366302","0.08529062399","0.2228369986","","","","","","","","76","L","3","","","188","main_expt"
"","bandit","268","737119","0.0-229.0-0.0","51236223","wem/bandit_either_2","AAXX5LDVJ32F8","either","4","436","","","","","","","0","0","1","0.2567428292","","0.8","0.6","0.2","0.4","","","","","0.1980942663","0.2499935398","0.07250281893","0.2567428292","","","","","","","","76","L","3","","","189","main_expt"
"","bandit","269","738911","0.0-230.0-0.0","51236223","wem/bandit_either_2","AAXX5LDVJ32F8","either","4","281","","","","","","","0","0","1","0.1842725295","","0.8","0.6","0.2","0.4","","","","","0.1842725295","0.2367317824","0.07895395147","0.3177850294","","","","","","","","72","H","0","img/none_selected.jpg","","190","main_expt"
"","bandit","270","740826","0.0-231.0-0.0","51236223","wem/bandit_either_2","AAXX5LDVJ32F8","either","4","391","","","","","","","0","0","1","0.2087081259","","0.8","0.6","0.2","0.4","","","","","0.2087081259","0.2515026666","0.06204701637","0.2876912335","","","","","","","","72","H","0","img/none_selected.jpg","","191","main_expt"
"","bandit","271","742681","0.0-232.0-0.0","51236223","wem/bandit_either_2","AAXX5LDVJ32F8","either","4","331","","","","","","","0","0","1","","0.2451916405","0.8","0.6","0.2","0.4","0.1800110976","0.2451916405","0.064067899","0.2383873749","","","","","","","","","","","","74","J","1","","","192","main_expt"
"","bandit","272","744528","0.0-233.0-0.0","51236223","wem/bandit_either_2","AAXX5LDVJ32F8","either","4","321","","","","","","","0","0","1","0.2353451433","","0.8","0.6","0.2","0.4","","","","","0.1519186298","0.2353451433","0.1286650472","0.24690957","","","","","","","","74","J","1","","","193","main_expt"
"","bandit","273","746257","0.0-234.0-0.0","51236223","wem/bandit_either_2","AAXX5LDVJ32F8","either","4","211","","","","","","","0","0","1","","0.1746490116","0.8","0.6","0.2","0.4","0.1431656489","0.307075739","0.1746490116","0.2728455101","","","","","","","","","","","","75","K","2","","","194","main_expt"
"","bandit","274","747974","0.0-235.0-0.0","51236223","wem/bandit_either_2","AAXX5LDVJ32F8","either","4","204","","","","","","","0","0","1","","0.129035247","0.8","0.6","0.2","0.4","0.1868251083","0.3011001907","0.129035247","0.2421292151","","","","","","","","","","","","75","K","2","","","195","main_expt"
"","bandit","275","749703","0.0-236.0-0.0","51236223","wem/bandit_either_2","AAXX5LDVJ32F8","either","4","215","","","","","","","0","0","1","","0.2598052724","0.8","0.6","0.2","0.4","0.176624335","0.2861216794","0.09052040682","0.2598052724","","","","","","","","","","","","76","L","3","","","196","main_expt"
"","bandit","276","751604","0.0-237.0-0.0","51236223","wem/bandit_either_2","AAXX5LDVJ32F8","either","4","365","","","","","","","0","0","1","","0.2540930088","0.8","0.6","0.2","0.4","0.2383323772","0.2121549007","0.08675464884","0.2540930088","","","","","","","","","","","","76","L","3","","","197","main_expt"
"","bandit","277","753297","0.0-238.0-0.0","51236223","wem/bandit_either_2","AAXX5LDVJ32F8","either","4","168","","","","","","","0","0","1","0.260618614","","0.8","0.6","0.2","0.4","","","","","0.260618614","0.260340052","0.09429549835","0.2460150375","","","","","","","","72","H","0","img/none_selected.jpg","","198","main_expt"
"","bandit","278","755509","0.0-239.0-0.0","51236223","wem/bandit_either_2","AAXX5LDVJ32F8","either","4","701","","","","","","","1","0","0","0.2935067364","","0.8","0.6","0.2","0.4","","","","","0.2935067364","0.3009562829","0.09303778716","0.2217343644","","","","","","","","72","H","0","img/none_selected.jpg","","199","main_expt"
"","bandit","279","757453","0.0-240.0-0.0","51236223","wem/bandit_either_2","AAXX5LDVJ32F8","either","4","431","","","","","","","0","0","1","0.362920627","","0.8","0.6","0.2","0.4","","","","","0.362920627","0.3430896668","0.07354084322","0.2830302048","","","","","","","","72","H","0","img/none_selected.jpg","","200","main_expt"
"","bandit","280","759238","0.0-241.0-0.0","51236223","wem/bandit_either_2","AAXX5LDVJ32F8","either","4","265","","","","","","","0","0","1","0.3119044903","","0.8","0.6","0.2","0.4","","","","","0.3119044903","0.2973668079","0.08115367452","0.3175621279","","","","","","","","72","H","0","img/none_selected.jpg","","201","main_expt"
"","bandit","281","761285","0.0-242.0-0.0","51236223","wem/bandit_either_2","AAXX5LDVJ32F8","either","4","535","","","","","","","0","1","0","","0.3219337599","0.8","0.6","0.2","0.4","0.3095695708","0.3219337599","0.0774842685","0.3049471546","","","","","","","","","","","","74","J","1","","","202","main_expt"
"","bandit","282","763136","0.0-243.0-0.0","51236223","wem/bandit_either_2","AAXX5LDVJ32F8","either","4","335","","","","","","","0","0","1","0.3229991028","","0.8","0.6","0.2","0.4","","","","","0.3005459379","0.3229991028","0.09704724367","0.2975042969","","","","","","","","74","J","1","","","203","main_expt"
"","bandit","283","764900","0.0-244.0-0.0","51236223","wem/bandit_either_2","AAXX5LDVJ32F8","either","4","246","","","","","","","0","0","1","","0.3077995671","0.8","0.6","0.2","0.4","0.3116824409","0.3077995671","0.1224111047","0.2268457719","","","","","","","","","","","","74","J","1","","","204","main_expt"
"","bandit","284","766714","0.0-245.0-0.0","51236223","wem/bandit_either_2","AAXX5LDVJ32F8","either","4","293","","","","","","","0","0","1","","0.1627664319","0.8","0.6","0.2","0.4","0.3291635812","0.3070199156","0.1627664319","0.2582085449","","","","","","","","","","","","75","K","2","","","205","main_expt"
"","bandit","285","768502","0.0-246.0-0.0","51236223","wem/bandit_either_2","AAXX5LDVJ32F8","either","4","276","","","","","","","0","0","1","","0.1604236747","0.8","0.6","0.2","0.4","0.4008790519","0.3109683939","0.1604236747","0.2841247045","","","","","","","","","","","","75","K","2","","","206","main_expt"
"","bandit","286","770366","0.0-247.0-0.0","51236223","wem/bandit_either_2","AAXX5LDVJ32F8","either","4","346","","","","","","","1","0","0","0.4202180382","","0.8","0.6","0.2","0.4","","","","","0.4202180382","0.2845075958","0.126388554","0.3333225396","","","","","","","","72","H","0","img/none_selected.jpg","","207","main_expt"
"","bandit","287","772183","0.0-248.0-0.0","51236223","wem/bandit_either_2","AAXX5LDVJ32F8","either","4","297","","","","","","","0","0","1","","0.4168586074","0.8","0.6","0.2","0.4","0.4168586074","0.2419557814","0.1602309633","0.290219871","","","","","","","","","","","","72","H","0","img/none_selected.jpg","","208","main_expt"
"","bandit","288","773901","0.0-249.0-0.0","51236223","wem/bandit_either_2","AAXX5LDVJ32F8","either","4","197","","","","","","","1","0","0","0.3949328033","","0.8","0.6","0.2","0.4","","","","","0.3949328033","0.2449545816","0.2009997365","0.3426384504","","","","","","","","72","H","0","img/none_selected.jpg","","209","main_expt"
"","bandit","289","775756","0.0-250.0-0.0","51236223","wem/bandit_either_2","AAXX5LDVJ32F8","either","4","332","","","","","","","1","0","0","0.41782505","","0.8","0.6","0.2","0.4","","","","","0.41782505","0.2176860071","0.1997114924","0.2932754766","","","","","","","","72","H","0","img/none_selected.jpg","","210","main_expt"
"","bandit","290","777569","0.0-251.0-0.0","51236223","wem/bandit_either_2","AAXX5LDVJ32F8","either","4","298","","","","","","","0","0","1","","0.4377941382","0.8","0.6","0.2","0.4","0.4377941382","0.2460847292","0.2631807131","0.2522206247","","","","","","","","","","","","72","H","0","img/none_selected.jpg","","211","main_expt"
"","bandit","291","779374","0.0-252.0-0.0","51236223","wem/bandit_either_2","AAXX5LDVJ32F8","either","4","295","","","","","","","0","0","1","0.4619006446","","0.8","0.6","0.2","0.4","","","","","0.4619006446","0.2017704833","0.2008991105","0.2323705111","","","","","","","","72","H","0","img/none_selected.jpg","","212","main_expt"
"","bandit","292","781148","0.0-253.0-0.0","51236223","wem/bandit_either_2","AAXX5LDVJ32F8","either","4","248","","","","","","","0","0","1","0.4508737721","","0.8","0.6","0.2","0.4","","","","","0.4508737721","0.1891715169","0.1656487101","0.2815580385","","","","","","","","72","H","0","img/none_selected.jpg","","213","main_expt"
"","bandit","293","782919","0.0-254.0-0.0","51236223","wem/bandit_either_2","AAXX5LDVJ32F8","either","4","257","","","","","","","0","0","1","","0.4639731149","0.8","0.6","0.2","0.4","0.4639731149","0.1819308411","0.213788386","0.2955812139","","","","","","","","","","","","72","H","0","img/none_selected.jpg","","214","main_expt"
"","bandit","294","784767","0.0-255.0-0.0","51236223","wem/bandit_either_2","AAXX5LDVJ32F8","either","4","322","","","","","","","1","0","0","0.2988647484","","0.8","0.6","0.2","0.4","","","","","0.4690757113","0.1406935411","0.2206736926","0.2988647484","","","","","","","","76","L","3","","","215","main_expt"
"","bandit","295","786629","0.0-256.0-0.0","51236223","wem/bandit_either_2","AAXX5LDVJ32F8","either","4","348","","","","","","","0","0","1","","0.3361974059","0.8","0.6","0.2","0.4","0.4685680314","0.206739756","0.2270120675","0.3361974059","","","","","","","","","","","","76","L","3","","","216","main_expt"
"","bandit","296","788286","0.0-257.0-0.0","51236223","wem/bandit_either_2","AAXX5LDVJ32F8","either","4","140","","","","","","","0","0","1","0.2764506131","","0.8","0.6","0.2","0.4","","","","","0.4873952874","0.178624692","0.2561581829","0.2764506131","","","","","","","","76","L","3","","","217","main_expt"
"","bandit","297","790247","0.0-258.0-0.0","51236223","wem/bandit_either_2","AAXX5LDVJ32F8","either","4","435","","","","","","","0","0","1","0.299893698","","0.8","0.6","0.2","0.4","","","","","0.4790671899","0.2021641755","0.2785758431","0.299893698","","","","","","","","76","L","3","","","218","main_expt"
"","bandit","298","792067","0.0-259.0-0.0","51236223","wem/bandit_either_2","AAXX5LDVJ32F8","either","4","312","","","","","","","0","1","0","","0.3213687962","0.8","0.6","0.2","0.4","0.4769795117","0.2076996705","0.2707863597","0.3213687962","","","","","","","","","","","","76","L","3","","","219","main_expt"
"","bandit","299","793886","0.0-260.0-0.0","51236223","wem/bandit_either_2","AAXX5LDVJ32F8","either","4","304","","","","","","","0","0","1","","0.3782095139","0.8","0.6","0.2","0.4","0.4746148145","0.2479045362","0.2262269101","0.3782095139","","","","","","","","","","","","76","L","3","","","220","main_expt"
"","bandit","300","795606","0.0-261.0-0.0","51236223","wem/bandit_either_2","AAXX5LDVJ32F8","either","4","198","","","","","","","1","0","0","0.3572699546","","0.8","0.6","0.2","0.4","","","","","0.4789253058","0.251163546","0.2522421151","0.3572699546","","","","","","","","76","L","3","","","221","main_expt"
"","bandit","301","797453","0.0-262.0-0.0","51236223","wem/bandit_either_2","AAXX5LDVJ32F8","either","4","333","","","","","","","0","0","1","","0.332217079","0.8","0.6","0.2","0.4","0.4765400837","0.2653622565","0.2323100388","0.332217079","","","","","","","","","","","","76","L","3","","","222","main_expt"
"","bandit","302","799247","0.0-263.0-0.0","51236223","wem/bandit_either_2","AAXX5LDVJ32F8","either","4","274","","","","","","","0","0","1","0.3327789551","","0.8","0.6","0.2","0.4","","","","","0.4872993944","0.2034578964","0.2013525365","0.3327789551","","","","","","","","76","L","3","","","223","main_expt"
"","bandit","303","801037","0.0-264.0-0.0","51236223","wem/bandit_either_2","AAXX5LDVJ32F8","either","4","273","","","","","","","0","0","1","0.3720138676","","0.8","0.6","0.2","0.4","","","","","0.4864577786","0.1176985371","0.2017363432","0.3720138676","","","","","","","","76","L","3","","","224","main_expt"
"","bandit","304","802855","0.0-265.0-0.0","51236223","wem/bandit_either_2","AAXX5LDVJ32F8","either","4","303","","","","","","","1","0","0","0.4815865163","","0.8","0.6","0.2","0.4","","","","","0.4815865163","0.08531446518","0.1608447522","0.4035982493","","","","","","","","72","H","0","img/none_selected.jpg","","225","main_expt"
"","bandit","305","804685","0.0-266.0-0.0","51236223","wem/bandit_either_2","AAXX5LDVJ32F8","either","4","299","","","","","","","1","0","0","0.4781941344","","0.8","0.6","0.2","0.4","","","","","0.4781941344","0.0901010045","0.2023183299","0.3538577565","","","","","","","","72","H","0","img/none_selected.jpg","","226","main_expt"
"","bandit","306","806532","0.0-267.0-0.0","51236223","wem/bandit_either_2","AAXX5LDVJ32F8","either","4","324","","","","","","","1","0","0","0.4742279627","","0.8","0.6","0.2","0.4","","","","","0.4742279627","0.06499555022","0.1555458008","0.4205879778","","","","","","","","72","H","0","img/none_selected.jpg","","227","main_expt"
"","bandit","307","808396","0.0-268.0-0.0","51236223","wem/bandit_either_2","AAXX5LDVJ32F8","either","4","348","","","","","","","0","0","1","0.4597327255","","0.8","0.6","0.2","0.4","","","","","0.4597327255","0.06967502077","0.1210896773","0.4082381823","","","","","","","","72","H","0","img/none_selected.jpg","","228","main_expt"
"","bandit","308","810221","0.0-269.0-0.0","51236223","wem/bandit_either_2","AAXX5LDVJ32F8","either","4","310","","","","","","","0","0","1","0.4733003713","","0.8","0.6","0.2","0.4","","","","","0.4733003713","0.07642173418","0.1206830913","0.4274963613","","","","","","","","72","H","0","img/none_selected.jpg","","229","main_expt"
"","bandit","309","812133","0.0-270.0-0.0","51236223","wem/bandit_either_2","AAXX5LDVJ32F8","either","4","381","","","","","","","0","0","1","","0.4832022084","0.8","0.6","0.2","0.4","0.4832022084","0.04973788902","0.1334008039","0.4362488765","","","","","","","","","","","","72","H","0","img/none_selected.jpg","","230","main_expt"
"","bandit","310","813989","0.0-271.0-0.0","51236223","wem/bandit_either_2","AAXX5LDVJ32F8","either","4","336","","","","","","","0","0","1","0.4802630573","","0.8","0.6","0.2","0.4","","","","","0.4802630573","0.07419495466","0.1048467088","0.4420629534","","","","","","","","72","H","0","img/none_selected.jpg","","231","main_expt"
"","bandit","311","815822","0.0-272.0-0.0","51236223","wem/bandit_either_2","AAXX5LDVJ32F8","either","4","301","","","","","","","0","1","0","","0.4287414635","0.8","0.6","0.2","0.4","0.4739318499","0.08125260149","0.1184002818","0.4287414635","","","","","","","","","","","","76","L","3","","","232","main_expt"
"","bandit","312","817712","0.0-273.0-0.0","51236223","wem/bandit_either_2","AAXX5LDVJ32F8","either","4","357","","","","","","","0","0","1","","0.4395511981","0.8","0.6","0.2","0.4","0.4709765286","0.06057073796","0.08533064469","0.4395511981","","","","","","","","","","","","76","L","3","","","233","main_expt"
"","bandit","313","820301","0.0-274.0-0.0","51236223","wem/bandit_either_2","AAXX5LDVJ32F8","either","4","1064","","","","","","","0","1","0","","0.4479240545","0.8","0.6","0.2","0.4","0.4658145356","0.1037411708","0.1190123434","0.4479240545","","","","","","","","","","","","76","L","3","","","234","main_expt"
"","bandit","314","822364","0.0-275.0-0.0","51236223","wem/bandit_either_2","AAXX5LDVJ32F8","either","4","541","","","","","","","0","0","1","","0.4476644646","0.8","0.6","0.2","0.4","0.4312508187","0.1267441937","0.1392024459","0.4476644646","","","","","","","","","","","","76","L","3","","","235","main_expt"
"","bandit","315","824233","0.0-276.0-0.0","51236223","wem/bandit_either_2","AAXX5LDVJ32F8","either","4","352","","","","","","","0","0","1","","0.457106966","0.8","0.6","0.2","0.4","0.4323277229","0.1002206095","0.1076242464","0.457106966","","","","","","","","","","","","76","L","3","","","236","main_expt"
"","bandit","316","826126","0.0-277.0-0.0","51236223","wem/bandit_either_2","AAXX5LDVJ32F8","either","4","372","","","","","","","0","0","1","0.4097288684","","0.8","0.6","0.2","0.4","","","","","0.4517679415","0.08353940566","0.1539911713","0.4097288684","","","","","","","","76","L","3","","","237","main_expt"
"","bandit","317","827832","0.0-278.0-0.0","51236223","wem/bandit_either_2","AAXX5LDVJ32F8","either","4","173","","","","","","","0","1","0","","0.1833253983","0.8","0.6","0.2","0.4","0.4476427196","0.07847158511","0.1833253983","0.4530646831","","","","","","","","","","","","75","K","2","","","238","main_expt"
"","bandit","318","829682","0.0-279.0-0.0","51236223","wem/bandit_either_2","AAXX5LDVJ32F8","either","4","318","","","","","","","0","0","1","0.185515968","","0.8","0.6","0.2","0.4","","","","","0.4421551546","0.1132310855","0.185515968","0.4532148127","","","","","","","","75","K","2","","","239","main_expt"
"","bandit","319","831511","0.0-280.0-0.0","51236223","wem/bandit_either_2","AAXX5LDVJ32F8","either","4","294","","","","","","","0","1","0","","0.2545144829","0.8","0.6","0.2","0.4","0.4205303603","0.130249024","0.2545144829","0.4456906816","","","","","","","","","","","","75","K","2","","","240","main_expt"
"","bandit","320","833313","0.0-281.0-0.0","51236223","wem/bandit_either_2","AAXX5LDVJ32F8","either","4","272","","","","","","","0","0","1","","0.1902236802","0.8","0.6","0.2","0.4","0.4304808994","0.1356270161","0.1902236802","0.4515134246","","","","","","","","","","","","75","K","2","","","241","main_expt"
"","bandit","321","835164","0.0-282.0-0.0","51236223","wem/bandit_either_2","AAXX5LDVJ32F8","either","4","321","","","","","","","0","0","1","0.2196571485","","0.8","0.6","0.2","0.4","","","","","0.4318168925","0.1402569013","0.2196571485","0.4640222466","","","","","","","","75","K","2","","","242","main_expt"
"","bandit","322","837241","0.0-283.0-0.0","51236223","wem/bandit_either_2","AAXX5LDVJ32F8","either","4","558","","","","","","","0","0","1","0.1851652895","","0.8","0.6","0.2","0.4","","","","","0.4437639365","0.1851652895","0.2691755858","0.4305348251","","","","","","","","74","J","1","","","243","main_expt"
"","bandit","323","839025","0.0-284.0-0.0","51236223","wem/bandit_either_2","AAXX5LDVJ32F8","either","4","267","","","","","","","0","0","1","","0.1871667761","0.8","0.6","0.2","0.4","0.4444545885","0.1871667761","0.2689580194","0.4444417595","","","","","","","","","","","","74","J","1","","","244","main_expt"
"","bandit","324","840675","0.0-285.0-0.0","51236223","wem/bandit_either_2","AAXX5LDVJ32F8","either","4","134","","","","","","","0","0","1","0.445216333","","0.8","0.6","0.2","0.4","","","","","0.445216333","0.1881322931","0.1935089033","0.4468105605","","","","","","","","72","H","0","img/none_selected.jpg","","245","main_expt"
"","bandit","325","842479","0.0-286.0-0.0","51236223","wem/bandit_either_2","AAXX5LDVJ32F8","either","4","278","","","","","","","0","0","1","0.4767449203","","0.8","0.6","0.2","0.4","","","","","0.4767449203","0.187853128","0.1466547275","0.4453418505","","","","","","","","72","H","0","img/none_selected.jpg","","246","main_expt"
"","bandit","326","844565","0.0-287.0-0.0","51236223","wem/bandit_either_2","AAXX5LDVJ32F8","either","4","562","","","","","","","0","0","1","","0.4426138654","0.8","0.6","0.2","0.4","0.4530054638","0.1952756904","0.1275107348","0.4426138654","","","","","","","","","","","","76","L","3","","","247","main_expt"
"","bandit","327","846458","0.0-288.0-0.0","51236223","wem/bandit_either_2","AAXX5LDVJ32F8","either","4","383","","","","","","","0","1","0","","0.464375056","0.8","0.6","0.2","0.4","0.4326938674","0.1722543521","0.107785627","0.464375056","","","","","","","","","","","","76","L","3","","","248","main_expt"
