"consent","trial_type","trial_index","time_elapsed","internal_node_id","subjID","study","MID","cond","drift","rt","responses","key_press","expt_phase","like","value","connected","gems","bombs","no_reward","GemPrChosen","BombPrChosen","GainOverPainPr_0","GainOverPainPr_1","GainOverPainPr_2","GainOverPainPr_3","LosePr_0","LosePr_1","LosePr_2","LosePr_3","WinPr_0","WinPr_1","WinPr_2","WinPr_3","Q0","Q1","Q2","gender","age","ethnicity","target","respCharCode","respKey","respChoiceNum","respChoice","practice","trial_counter","trial_label"
"INL_behavioral_consent_30min_online.html","consent","0","7690","0.0-0.0","51594250","wem/bandit_either_2","A1YM0IWPC72J7V","either","4","","","","","","","","","","","","","","","","","","","","","","","","","","","","","","","","","","","","","",""
"","survey-text","1","12561","0.0-1.0","51594250","wem/bandit_either_2","A1YM0IWPC72J7V","either","4","3862","{""Q0"":""A1YM0IWPC72J7V""}","","","","","","","","","","","","","","","","","","","","","","","","","","","","","","","","","","","",""
"","text","2","28483","0.0-2.0","51594250","wem/bandit_either_2","A1YM0IWPC72J7V","either","4","14920","","32","","","","","","","","","","","","","","","","","","","","","","","","","","","","","","","","","","",""
"","text","3","35970","0.0-3.0","51594250","wem/bandit_either_2","A1YM0IWPC72J7V","either","4","7485","","32","","","","","","","","","","","","","","","","","","","","","","","","","","","","","","","","","","",""
"","text","4","48211","0.0-4.0","51594250","wem/bandit_either_2","A1YM0IWPC72J7V","either","4","12239","","32","","","","","","","","","","","","","","","","","","","","","","","","","","","","","","","","","","",""
"","text","5","56682","0.0-5.0","51594250","wem/bandit_either_2","A1YM0IWPC72J7V","either","4","8470","","32","","","","","","","","","","","","","","","","","","","","","","","","","","","","","","","","","","",""
"","text","6","81323","0.0-6.0","51594250","wem/bandit_either_2","A1YM0IWPC72J7V","either","4","24639","","32","","","","","","","","","","","","","","","","","","","","","","","","","","","","","","","","","","",""
"","text","7","86874","0.0-7.0","51594250","wem/bandit_either_2","A1YM0IWPC72J7V","either","4","5551","","32","","","","","","","","","","","","","","","","","","","","","","","","","","","","","","","","","","",""
"","text","8","95492","0.0-8.0","51594250","wem/bandit_either_2","A1YM0IWPC72J7V","either","4","8616","","32","","","","","","","","","","","","","","","","","","","","","","","","","","","","","","","","","","",""
"","identification","9","104069","0.0-9.0-0.0","51594250","wem/bandit_either_2","A1YM0IWPC72J7V","either","4","8562","","","","2","2","2","","","","","","","","","","","","","","","","","","","","","","","","the village of Zur","","","","","","",""
"","identification","10","109463","0.0-9.0-1.0","51594250","wem/bandit_either_2","A1YM0IWPC72J7V","either","4","4380","","","","2","2","2","","","","","","","","","","","","","","","","","","","","","","","","the village of Nyx","","","","","","",""
"","text","11","114754","0.0-10.0","51594250","wem/bandit_either_2","A1YM0IWPC72J7V","either","4","4289","","32","","","","","","","","","","","","","","","","","","","","","","","","","","","","","","","","","","",""
"","text","12","119635","0.0-11.0","51594250","wem/bandit_either_2","A1YM0IWPC72J7V","either","4","4880","","32","","","","","","","","","","","","","","","","","","","","","","","","","","","","","","","","","","",""
"","text","13","121738","0.0-12.0","51594250","wem/bandit_either_2","A1YM0IWPC72J7V","either","4","2101","","32","","","","","","","","","","","","","","","","","","","","","","","","","","","","","","","","","","",""
"","text","14","125675","0.0-13.0","51594250","wem/bandit_either_2","A1YM0IWPC72J7V","either","4","3936","","32","","","","","","","","","","","","","","","","","","","","","","","","","","","","","","","","","","",""
"","bandit","15","129885","0.0-14.0-0.0","51594250","wem/bandit_either_2","A1YM0IWPC72J7V","either","4","2696","","","","","","","0","0","1","0","0","","","","","0","","","","0","","","","","","","","","","","74","J","0","img/none_selected_demo.jpg","true","0",""
"","bandit","16","132131","0.0-15.0-0.0","51594250","wem/bandit_either_2","A1YM0IWPC72J7V","either","4","739","","","","","","","0","0","1","0","0","","","","","0","","","","0","","","","","","","","","","","75","K","0","img/none_selected_demo.jpg","true","0",""
"","text","17","136715","0.0-16.0","51594250","wem/bandit_either_2","A1YM0IWPC72J7V","either","4","4581","","32","","","","","","","","","","","","","","","","","","","","","","","","","","","","","","","","","","",""
"","text","18","143363","0.0-17.0","51594250","wem/bandit_either_2","A1YM0IWPC72J7V","either","4","6647","","32","","","","","","","","","","","","","","","","","","","","","","","","","","","","","","","","","","",""
"","text","19","147994","0.0-18.0","51594250","wem/bandit_either_2","A1YM0IWPC72J7V","either","4","4630","","32","","","","","","","","","","","","","","","","","","","","","","","","","","","","","","","","","","",""
"","text","20","150682","0.0-19.0","51594250","wem/bandit_either_2","A1YM0IWPC72J7V","either","4","2687","","32","","","","","","","","","","","","","","","","","","","","","","","","","","","","","","","","","","",""
"","bandit","21","152776","0.0-20.0-0.0","51594250","wem/bandit_either_2","A1YM0IWPC72J7V","either","4","591","","","","","","","0","1","0","","0.8","0.5","0.5","","","0.8","0.2","","","","","","","","","","","","","","74","J","0","img/none_selected_demo.jpg","true","0","80_20_practice"
"","bandit","22","154672","0.0-20.0-1.0","51594250","wem/bandit_either_2","A1YM0IWPC72J7V","either","4","393","","","","","","","0","0","1","0.2","","0.5","0.5","","","","","","","0.8","0.2","","","","","","","","","","75","K","1","","true","0","80_20_practice"
"","bandit","23","156408","0.0-20.0-2.0","51594250","wem/bandit_either_2","A1YM0IWPC72J7V","either","4","232","","","","","","","0","1","0","","0.8","0.5","0.5","","","0.8","0.2","","","","","","","","","","","","","","74","J","0","img/none_selected_demo.jpg","true","0","80_20_practice"
"","bandit","24","158168","0.0-20.0-3.0","51594250","wem/bandit_either_2","A1YM0IWPC72J7V","either","4","257","","","","","","","0","0","1","0.2","","0.5","0.5","","","","","","","0.8","0.2","","","","","","","","","","75","K","1","","true","0","80_20_practice"
"","bandit","25","159728","0.0-20.0-4.0","51594250","wem/bandit_either_2","A1YM0IWPC72J7V","either","4","55","","","","","","","0","0","1","0.8","","0.5","0.5","","","","","","","0.8","0.2","","","","","","","","","","74","J","0","img/none_selected_demo.jpg","true","0","80_20_practice"
"","bandit","26","161376","0.0-20.0-5.0","51594250","wem/bandit_either_2","A1YM0IWPC72J7V","either","4","144","","","","","","","0","0","1","","0.2","0.5","0.5","","","0.8","0.2","","","","","","","","","","","","","","75","K","1","","true","0","80_20_practice"
"","bandit","27","163279","0.0-20.0-6.0","51594250","wem/bandit_either_2","A1YM0IWPC72J7V","either","4","399","","","","","","","0","0","1","","0.8","0.5","0.5","","","0.8","0.2","","","","","","","","","","","","","","74","J","0","img/none_selected_demo.jpg","true","0","80_20_practice"
"","bandit","28","165169","0.0-20.0-7.0","51594250","wem/bandit_either_2","A1YM0IWPC72J7V","either","4","385","","","","","","","1","0","0","0.2","","0.5","0.5","","","","","","","0.8","0.2","","","","","","","","","","75","K","1","","true","0","80_20_practice"
"","bandit","29","167017","0.0-20.0-8.0","51594250","wem/bandit_either_2","A1YM0IWPC72J7V","either","4","340","","","","","","","0","0","1","0.2","","0.5","0.5","","","","","","","0.8","0.2","","","","","","","","","","75","K","1","","true","0","80_20_practice"
"","bandit","30","168849","0.0-20.0-9.0","51594250","wem/bandit_either_2","A1YM0IWPC72J7V","either","4","327","","","","","","","1","0","0","0.8","","0.5","0.5","","","","","","","0.8","0.2","","","","","","","","","","74","J","0","img/none_selected_demo.jpg","true","0","80_20_practice"
"","bandit","31","170530","0.0-20.0-10.0","51594250","wem/bandit_either_2","A1YM0IWPC72J7V","either","4","175","","","","","","","0","1","0","","0.8","0.5","0.5","","","0.8","0.2","","","","","","","","","","","","","","74","J","0","img/none_selected_demo.jpg","true","0","80_20_practice"
"","bandit","32","172224","0.0-20.0-11.0","51594250","wem/bandit_either_2","A1YM0IWPC72J7V","either","4","191","","","","","","","0","1","0","","0.8","0.5","0.5","","","0.8","0.2","","","","","","","","","","","","","","74","J","0","img/none_selected_demo.jpg","true","0","80_20_practice"
"","bandit","33","174120","0.0-20.0-12.0","51594250","wem/bandit_either_2","A1YM0IWPC72J7V","either","4","391","","","","","","","1","0","0","0.8","","0.5","0.5","","","","","","","0.8","0.2","","","","","","","","","","74","J","0","img/none_selected_demo.jpg","true","0","80_20_practice"
"","bandit","34","176169","0.0-20.0-13.0","51594250","wem/bandit_either_2","A1YM0IWPC72J7V","either","4","544","","","","","","","0","0","1","","0.8","0.5","0.5","","","0.8","0.2","","","","","","","","","","","","","","74","J","0","img/none_selected_demo.jpg","true","0","80_20_practice"
"","bandit","35","177766","0.0-20.0-14.0","51594250","wem/bandit_either_2","A1YM0IWPC72J7V","either","4","90","","","","","","","0","0","1","","0.2","0.5","0.5","","","0.8","0.2","","","","","","","","","","","","","","75","K","1","","true","0","80_20_practice"
"","bandit","36","179335","0.0-20.0-15.0","51594250","wem/bandit_either_2","A1YM0IWPC72J7V","either","4","65","","","","","","","0","0","1","0.8","","0.5","0.5","","","","","","","0.8","0.2","","","","","","","","","","74","J","0","img/none_selected_demo.jpg","true","0","80_20_practice"
"","bandit","37","181024","0.0-20.0-16.0","51594250","wem/bandit_either_2","A1YM0IWPC72J7V","either","4","185","","","","","","","1","0","0","0.8","","0.5","0.5","","","","","","","0.8","0.2","","","","","","","","","","74","J","0","img/none_selected_demo.jpg","true","0","80_20_practice"
"","bandit","38","182641","0.0-20.0-17.0","51594250","wem/bandit_either_2","A1YM0IWPC72J7V","either","4","111","","","","","","","0","1","0","","0.8","0.5","0.5","","","0.8","0.2","","","","","","","","","","","","","","74","J","0","img/none_selected_demo.jpg","true","0","80_20_practice"
"","bandit","39","184353","0.0-20.0-18.0","51594250","wem/bandit_either_2","A1YM0IWPC72J7V","either","4","208","","","","","","","1","0","0","0.8","","0.5","0.5","","","","","","","0.8","0.2","","","","","","","","","","74","J","0","img/none_selected_demo.jpg","true","0","80_20_practice"
"","bandit","40","186177","0.0-20.0-19.0","51594250","wem/bandit_either_2","A1YM0IWPC72J7V","either","4","319","","","","","","","1","0","0","0.8","","0.5","0.5","","","","","","","0.8","0.2","","","","","","","","","","74","J","0","img/none_selected_demo.jpg","true","0","80_20_practice"
"","text","41","190682","0.0-21.0","51594250","wem/bandit_either_2","A1YM0IWPC72J7V","either","4","4501","","32","","","","","","","","","","","","","","","","","","","","","","","","","","","","","","","","","","",""
"","bandit","42","193392","0.0-22.0-0.0","51594250","wem/bandit_either_2","A1YM0IWPC72J7V","either","4","1206","","","","","","","1","0","0","1","0","","","","","0","1","","","1","0","","","","","","","","","","74","J","0","img/none_selected_demo.jpg","true","0",""
"","text","43","195858","0.0-23.0","51594250","wem/bandit_either_2","A1YM0IWPC72J7V","either","4","2465","","32","","","","","","","","","","","","","","","","","","","","","","","","","","","","","","","","","","",""
"","text","44","199259","0.0-24.0","51594250","wem/bandit_either_2","A1YM0IWPC72J7V","either","4","3399","","32","","","","","","","","","","","","","","","","","","","","","","","","","","","","","","","","","","",""
"","text","45","201314","0.0-25.0","51594250","wem/bandit_either_2","A1YM0IWPC72J7V","either","4","2054","","32","","","","","","","","","","","","","","","","","","","","","","","","","","","","","","","","","","",""
"","text","46","203962","0.0-26.0","51594250","wem/bandit_either_2","A1YM0IWPC72J7V","either","4","2647","","32","","","","","","","","","","","","","","","","","","","","","","","","","","","","","","","","","","",""
"","text","47","208250","0.0-27.0","51594250","wem/bandit_either_2","A1YM0IWPC72J7V","either","4","4287","","32","","","","","","","","","","","","","","","","","","","","","","","","","","","","","","","","","","",""
"","text","48","210386","0.0-28.0","51594250","wem/bandit_either_2","A1YM0IWPC72J7V","either","4","2135","","32","","","","","","","","","","","","","","","","","","","","","","","","","","","","","","","","","","",""
"","text","49","213250","0.0-29.0","51594250","wem/bandit_either_2","A1YM0IWPC72J7V","either","4","2862","","32","","","","","","","","","","","","","","","","","","","","","","","","","","","","","","","","","","",""
"","text","50","217116","0.0-30.0","51594250","wem/bandit_either_2","A1YM0IWPC72J7V","either","4","3863","","32","","","","","","","","","","","","","","","","","","","","","","","","","","","","","","","","","","",""
"","text","51","222340","0.0-31.0","51594250","wem/bandit_either_2","A1YM0IWPC72J7V","either","4","5220","","32","","","","","","","","","","","","","","","","","","","","","","","","","","","","","","","","","","",""
"","text","52","223594","0.0-32.0","51594250","wem/bandit_either_2","A1YM0IWPC72J7V","either","4","1252","","32","","","","","","","","","","","","","","","","","","","","","","","","","","","","","","","","","","",""
"","text","53","233088","0.0-33.0","51594250","wem/bandit_either_2","A1YM0IWPC72J7V","either","4","9492","","32","","","","","","","","","","","","","","","","","","","","","","","","","","","","","","","","","","",""
"","bandit","54","235527","0.0-34.0-0.0","51594250","wem/bandit_either_2","A1YM0IWPC72J7V","either","4","935","","","","","","","1","0","0","0.8","","0.5","0.5","0.5","0.5","","","","","0.8","0.2","0.6","0.2","","","","","","","","72","H","0","img/none_selected.jpg","true","0","full_practice"
"","bandit","55","237657","0.0-34.0-1.0","51594250","wem/bandit_either_2","A1YM0IWPC72J7V","either","4","623","","","","","","","0","0","1","","0.8","0.5","0.5","0.5","0.5","0.8","0.2","0.6","0.2","","","","","","","","","","","","72","H","0","img/none_selected.jpg","true","0","full_practice"
"","bandit","56","239415","0.0-34.0-2.0","51594250","wem/bandit_either_2","A1YM0IWPC72J7V","either","4","252","","","","","","","0","0","1","0.2","","0.5","0.5","0.5","0.5","","","","","0.8","0.2","0.6","0.2","","","","","","","","74","J","1","","true","0","full_practice"
"","bandit","57","241319","0.0-34.0-3.0","51594250","wem/bandit_either_2","A1YM0IWPC72J7V","either","4","400","","","","","","","1","0","0","0.6","","0.5","0.5","0.5","0.5","","","","","0.8","0.2","0.6","0.2","","","","","","","","75","K","2","","true","0","full_practice"
"","bandit","58","242895","0.0-34.0-4.0","51594250","wem/bandit_either_2","A1YM0IWPC72J7V","either","4","72","","","","","","","0","0","1","","0.6","0.5","0.5","0.5","0.5","0.8","0.2","0.6","0.2","","","","","","","","","","","","75","K","2","","true","0","full_practice"
"","bandit","59","244687","0.0-34.0-5.0","51594250","wem/bandit_either_2","A1YM0IWPC72J7V","either","4","288","","","","","","","0","0","1","","0.2","0.5","0.5","0.5","0.5","0.8","0.2","0.6","0.2","","","","","","","","","","","","76","L","3","","true","0","full_practice"
"","bandit","60","246256","0.0-34.0-6.0","51594250","wem/bandit_either_2","A1YM0IWPC72J7V","either","4","64","","","","","","","0","1","0","","0.6","0.5","0.5","0.5","0.5","0.8","0.2","0.6","0.2","","","","","","","","","","","","75","K","2","","true","0","full_practice"
"","bandit","61","247839","0.0-34.0-7.0","51594250","wem/bandit_either_2","A1YM0IWPC72J7V","either","4","77","","","","","","","0","0","1","","0.6","0.5","0.5","0.5","0.5","0.8","0.2","0.6","0.2","","","","","","","","","","","","75","K","2","","true","0","full_practice"
"","bandit","62","249527","0.0-34.0-8.0","51594250","wem/bandit_either_2","A1YM0IWPC72J7V","either","4","183","","","","","","","0","0","1","","0.2","0.5","0.5","0.5","0.5","0.8","0.2","0.6","0.2","","","","","","","","","","","","74","J","1","","true","0","full_practice"
"","bandit","63","251151","0.0-34.0-9.0","51594250","wem/bandit_either_2","A1YM0IWPC72J7V","either","4","118","","","","","","","0","0","1","","0.8","0.5","0.5","0.5","0.5","0.8","0.2","0.6","0.2","","","","","","","","","","","","72","H","0","img/none_selected.jpg","true","0","full_practice"
"","bandit","64","252936","0.0-34.0-10.0","51594250","wem/bandit_either_2","A1YM0IWPC72J7V","either","4","279","","","","","","","0","0","1","","0.2","0.5","0.5","0.5","0.5","0.8","0.2","0.6","0.2","","","","","","","","","","","","74","J","1","","true","0","full_practice"
"","bandit","65","254498","0.0-34.0-11.0","51594250","wem/bandit_either_2","A1YM0IWPC72J7V","either","4","56","","","","","","","0","0","1","0.6","","0.5","0.5","0.5","0.5","","","","","0.8","0.2","0.6","0.2","","","","","","","","75","K","2","","true","0","full_practice"
"","bandit","66","256055","0.0-34.0-12.0","51594250","wem/bandit_either_2","A1YM0IWPC72J7V","either","4","53","","","","","","","1","0","0","0.2","","0.5","0.5","0.5","0.5","","","","","0.8","0.2","0.6","0.2","","","","","","","","76","L","3","","true","0","full_practice"
"","bandit","67","257601","0.0-34.0-13.0","51594250","wem/bandit_either_2","A1YM0IWPC72J7V","either","4","36","","","","","","","0","0","1","0.2","","0.5","0.5","0.5","0.5","","","","","0.8","0.2","0.6","0.2","","","","","","","","76","L","3","","true","0","full_practice"
"","bandit","68","259367","0.0-34.0-14.0","51594250","wem/bandit_either_2","A1YM0IWPC72J7V","either","4","260","","","","","","","0","1","0","","0.6","0.5","0.5","0.5","0.5","0.8","0.2","0.6","0.2","","","","","","","","","","","","75","K","2","","true","0","full_practice"
"","bandit","69","260887","0.0-34.0-15.0","51594250","wem/bandit_either_2","A1YM0IWPC72J7V","either","4","16","","","","","","","0","1","0","","0.6","0.5","0.5","0.5","0.5","0.8","0.2","0.6","0.2","","","","","","","","","","","","75","K","2","","true","0","full_practice"
"","bandit","70","262407","0.0-34.0-16.0","51594250","wem/bandit_either_2","A1YM0IWPC72J7V","either","4","16","","","","","","","1","0","0","0.6","","0.5","0.5","0.5","0.5","","","","","0.8","0.2","0.6","0.2","","","","","","","","75","K","2","","true","0","full_practice"
"","bandit","71","263951","0.0-34.0-17.0","51594250","wem/bandit_either_2","A1YM0IWPC72J7V","either","4","37","","","","","","","0","1","0","","0.6","0.5","0.5","0.5","0.5","0.8","0.2","0.6","0.2","","","","","","","","","","","","75","K","2","","true","0","full_practice"
"","bandit","72","265519","0.0-34.0-18.0","51594250","wem/bandit_either_2","A1YM0IWPC72J7V","either","4","63","","","","","","","0","1","0","","0.6","0.5","0.5","0.5","0.5","0.8","0.2","0.6","0.2","","","","","","","","","","","","75","K","2","","true","0","full_practice"
"","bandit","73","267149","0.0-34.0-19.0","51594250","wem/bandit_either_2","A1YM0IWPC72J7V","either","4","118","","","","","","","1","0","0","0.6","","0.5","0.5","0.5","0.5","","","","","0.8","0.2","0.6","0.2","","","","","","","","75","K","2","","true","0","full_practice"
"","text","74","269169","0.0-35.0","51594250","wem/bandit_either_2","A1YM0IWPC72J7V","either","4","2011","","32","","","","","","","","","","","","","","","","","","","","","","","","","","","","","","","","","","",""
"","text","75","277482","0.0-36.0","51594250","wem/bandit_either_2","A1YM0IWPC72J7V","either","4","7311","","32","","","","","","","","","","","","","","","","","","","","","","","","","","","","","","","","","","",""
"","text","76","284928","0.0-37.0","51594250","wem/bandit_either_2","A1YM0IWPC72J7V","either","4","7445","","32","","","","","","","","","","","","","","","","","","","","","","","","","","","","","","","","","","",""
"","text","77","288298","0.0-38.0","51594250","wem/bandit_either_2","A1YM0IWPC72J7V","either","4","3369","","32","","","","","","","","","","","","","","","","","","","","","","","","","","","","","","","","","","",""
"","text","78","290857","0.0-39.0","51594250","wem/bandit_either_2","A1YM0IWPC72J7V","either","4","2558","","32","","","","","","","","","","","","","","","","","","","","","","","","","","","","","","","","","","",""
"","text","79","292702","0.0-40.0","51594250","wem/bandit_either_2","A1YM0IWPC72J7V","either","4","1843","","32","","","","","","","","","","","","","","","","","","","","","","","","","","","","","","","","","","",""
"","bandit","80","294978","0.0-41.0-0.0","51594250","wem/bandit_either_2","A1YM0IWPC72J7V","either","4","770","","","","","","","0","0","1","0.3242650943","","0.6","0.2","0.8","0.4","","","","","0.3242650943","0.2771551185","0.3894728165","0.3525715257","","","","","","","","72","H","0","img/none_selected.jpg","","1","main_expt"
"","bandit","81","296913","0.0-42.0-0.0","51594250","wem/bandit_either_2","A1YM0IWPC72J7V","either","4","430","","","","","","","0","0","1","","0.3030893157","0.6","0.2","0.8","0.4","0.3296228245","0.3030893157","0.363660736","0.390153736","","","","","","","","","","","","74","J","1","","","2","main_expt"
"","bandit","82","299208","0.0-43.0-0.0","51594250","wem/bandit_either_2","A1YM0IWPC72J7V","either","4","788","","","","","","","1","0","0","0.3842171554","","0.6","0.2","0.8","0.4","","","","","0.3102780753","0.3211059343","0.3842171554","0.3725447061","","","","","","","","75","K","2","","","3","main_expt"
"","bandit","83","301264","0.0-44.0-0.0","51594250","wem/bandit_either_2","A1YM0IWPC72J7V","either","4","552","","","","","","","1","0","0","0.3831963053","","0.6","0.2","0.8","0.4","","","","","0.2749892112","0.2804386453","0.3831963053","0.3431524481","","","","","","","","75","K","2","","","4","main_expt"
"","bandit","84","303537","0.0-45.0-0.0","51594250","wem/bandit_either_2","A1YM0IWPC72J7V","either","4","766","","","","","","","1","0","0","0.4056596471","","0.6","0.2","0.8","0.4","","","","","0.3037824898","0.2609559086","0.4056596471","0.3448007793","","","","","","","","75","K","2","","","5","main_expt"
"","bandit","85","305698","0.0-46.0-0.0","51594250","wem/bandit_either_2","A1YM0IWPC72J7V","either","4","655","","","","","","","0","0","1","0.4409946319","","0.6","0.2","0.8","0.4","","","","","0.3217417103","0.2259287768","0.4409946319","0.3980888019","","","","","","","","75","K","2","","","6","main_expt"
"","bandit","86","307594","0.0-47.0-0.0","51594250","wem/bandit_either_2","A1YM0IWPC72J7V","either","4","386","","","","","","","0","1","0","","0.3693121862","0.6","0.2","0.8","0.4","0.3018715163","0.2433618728","0.3821747998","0.3693121862","","","","","","","","","","","","76","L","3","","","7","main_expt"
"","bandit","87","309440","0.0-48.0-0.0","51594250","wem/bandit_either_2","A1YM0IWPC72J7V","either","4","340","","","","","","","0","0","1","","0.2933697555","0.6","0.2","0.8","0.4","0.3643645816","0.2025356769","0.3841844813","0.2933697555","","","","","","","","","","","","76","L","3","","","8","main_expt"
"","bandit","88","311137","0.0-49.0-0.0","51594250","wem/bandit_either_2","A1YM0IWPC72J7V","either","4","192","","","","","","","0","0","1","0.3412237964","","0.6","0.2","0.8","0.4","","","","","0.3418610374","0.1441028094","0.3412237964","0.3036212831","","","","","","","","75","K","2","","","9","main_expt"
"","bandit","89","312964","0.0-50.0-0.0","51594250","wem/bandit_either_2","A1YM0IWPC72J7V","either","4","319","","","","","","","0","0","1","0.1736005971","","0.6","0.2","0.8","0.4","","","","","0.3190157878","0.1736005971","0.3256420777","0.308020301","","","","","","","","74","J","1","","","10","main_expt"
"","bandit","90","314792","0.0-51.0-0.0","51594250","wem/bandit_either_2","A1YM0IWPC72J7V","either","4","324","","","","","","","1","0","0","0.2998731478","","0.6","0.2","0.8","0.4","","","","","0.2998731478","0.1836365694","0.3514007431","0.3065973113","","","","","","","","72","H","0","img/none_selected.jpg","","11","main_expt"
"","bandit","91","316568","0.0-52.0-0.0","51594250","wem/bandit_either_2","A1YM0IWPC72J7V","either","4","272","","","","","","","0","0","1","0.2942822571","","0.6","0.2","0.8","0.4","","","","","0.2942822571","0.2143869662","0.3722032088","0.3271859636","","","","","","","","72","H","0","img/none_selected.jpg","","12","main_expt"
"","bandit","92","318353","0.0-53.0-0.0","51594250","wem/bandit_either_2","A1YM0IWPC72J7V","either","4","280","","","","","","","0","0","1","","0.1637139448","0.6","0.2","0.8","0.4","0.3009212619","0.1637139448","0.3681707299","0.2761076709","","","","","","","","","","","","74","J","1","","","13","main_expt"
"","bandit","93","319960","0.0-54.0-0.0","51594250","wem/bandit_either_2","A1YM0IWPC72J7V","either","4","102","","","","","","","0","1","0","","0.3528222564","0.6","0.2","0.8","0.4","0.3227424667","0.1488535162","0.3528222564","0.2311164494","","","","","","","","","","","","75","K","2","","","14","main_expt"
"","bandit","94","321808","0.0-55.0-0.0","51594250","wem/bandit_either_2","A1YM0IWPC72J7V","either","4","342","","","","","","","0","0","1","","0.3738838661","0.6","0.2","0.8","0.4","0.3547546862","0.1332411271","0.3738838661","0.2905977425","","","","","","","","","","","","75","K","2","","","15","main_expt"
"","bandit","95","323586","0.0-56.0-0.0","51594250","wem/bandit_either_2","A1YM0IWPC72J7V","either","4","273","","","","","","","0","0","1","","0.2924554969","0.6","0.2","0.8","0.4","0.3241157583","0.09882415698","0.3385239332","0.2924554969","","","","","","","","","","","","76","L","3","","","16","main_expt"
"","bandit","96","325376","0.0-57.0-0.0","51594250","wem/bandit_either_2","A1YM0IWPC72J7V","either","4","285","","","","","","","0","0","1","","0.3111355138","0.6","0.2","0.8","0.4","0.3363410386","0.1069157009","0.3111355138","0.3114836302","","","","","","","","","","","","75","K","2","","","17","main_expt"
"","bandit","97","327248","0.0-58.0-0.0","51594250","wem/bandit_either_2","A1YM0IWPC72J7V","either","4","368","","","","","","","0","0","1","","0.134958137","0.6","0.2","0.8","0.4","0.3880947854","0.134958137","0.3487767647","0.3215333475","","","","","","","","","","","","74","J","1","","","18","main_expt"
"","bandit","98","329345","0.0-59.0-0.0","51594250","wem/bandit_either_2","A1YM0IWPC72J7V","either","4","588","","","","","","","0","1","0","","0.4116912081","0.6","0.2","0.8","0.4","0.4116912081","0.1230418706","0.3010303499","0.2733398822","","","","","","","","","","","","72","H","0","img/none_selected.jpg","","19","main_expt"
"","bandit","99","331232","0.0-60.0-0.0","51594250","wem/bandit_either_2","A1YM0IWPC72J7V","either","4","379","","","","","","","0","0","1","","0.3973894305","0.6","0.2","0.8","0.4","0.3973894305","0.09866604889","0.2907203997","0.2351410235","","","","","","","","","","","","72","H","0","img/none_selected.jpg","","20","main_expt"
"","bandit","100","333617","0.0-61.0-0.0","51594250","wem/bandit_either_2","A1YM0IWPC72J7V","either","4","879","","","","","","","0","0","1","0.1021222834","","0.6","0.2","0.8","0.4","","","","","0.369037109","0.1021222834","0.3088108907","0.2257810982","","","","","","","","74","J","1","","","21","main_expt"
"","bandit","101","335977","0.0-62.0-0.0","51594250","wem/bandit_either_2","A1YM0IWPC72J7V","either","4","853","","","","","","","0","0","1","0.349202701","","0.6","0.2","0.8","0.4","","","","","0.4179468344","0.1234138809","0.349202701","0.2221856846","","","","","","","","75","K","2","","","22","main_expt"
"","bandit","102","338161","0.0-63.0-0.0","51594250","wem/bandit_either_2","A1YM0IWPC72J7V","either","4","675","","","","","","","0","0","1","","0.2127124712","0.6","0.2","0.8","0.4","0.4276062926","0.1030640584","0.3785068464","0.2127124712","","","","","","","","","","","","76","L","3","","","23","main_expt"
"","bandit","103","340113","0.0-64.0-0.0","51594250","wem/bandit_either_2","A1YM0IWPC72J7V","either","4","446","","","","","","","0","0","1","0.4012919653","","0.6","0.2","0.8","0.4","","","","","0.4078122208","0.1261035851","0.4012919653","0.1882566648","","","","","","","","75","K","2","","","24","main_expt"
"","bandit","104","342361","0.0-65.0-0.0","51594250","wem/bandit_either_2","A1YM0IWPC72J7V","either","4","741","","","","","","","0","0","1","","0.1796705612","0.6","0.2","0.8","0.4","0.3950411191","0.1796705612","0.400899794","0.1273223766","","","","","","","","","","","","74","J","1","","","25","main_expt"
"","bandit","105","344377","0.0-66.0-0.0","51594250","wem/bandit_either_2","A1YM0IWPC72J7V","either","4","507","","","","","","","1","0","0","0.4322303329","","0.6","0.2","0.8","0.4","","","","","0.4322303329","0.2414651519","0.4126274585","0.15747458","","","","","","","","72","H","0","img/none_selected.jpg","","26","main_expt"
"","bandit","106","346752","0.0-67.0-0.0","51594250","wem/bandit_either_2","A1YM0IWPC72J7V","either","4","871","","","","","","","1","0","0","0.4353643722","","0.6","0.2","0.8","0.4","","","","","0.4353643722","0.2005374927","0.3992263875","0.1442684908","","","","","","","","72","H","0","img/none_selected.jpg","","27","main_expt"
"","bandit","107","351088","0.0-68.0-0.0","51594250","wem/bandit_either_2","A1YM0IWPC72J7V","either","4","2830","","","","","","","0","0","1","","0.3197257227","0.6","0.2","0.8","0.4","0.4464017809","0.3197257227","0.3846584236","0.2255404594","","","","","","","","","","","","74","J","1","","","28","main_expt"
"","bandit","108","354082","0.0-69.0-0.0","51594250","wem/bandit_either_2","A1YM0IWPC72J7V","either","4","1487","","","","","","","0","0","1","0.3561298134","","0.6","0.2","0.8","0.4","","","","","0.4417109462","0.3141869899","0.3561298134","0.2730951691","","","","","","","","75","K","2","","","29","main_expt"
"","bandit","109","356546","0.0-70.0-0.0","51594250","wem/bandit_either_2","A1YM0IWPC72J7V","either","4","958","","","","","","","0","0","1","0.2890412698","","0.6","0.2","0.8","0.4","","","","","0.4065908859","0.3445991012","0.3101363315","0.2890412698","","","","","","","","76","L","3","","","30","main_expt"
"","bandit","110","358281","0.0-71.0-0.0","51594250","wem/bandit_either_2","A1YM0IWPC72J7V","either","4","229","","","","","","","0","0","1","0.3322219809","","0.6","0.2","0.8","0.4","","","","","0.3954582793","0.3456655029","0.3322219809","0.3309226042","","","","","","","","75","K","2","","","31","main_expt"
"","bandit","111","360116","0.0-72.0-0.0","51594250","wem/bandit_either_2","A1YM0IWPC72J7V","either","4","326","","","","","","","0","0","1","","0.3826172224","0.6","0.2","0.8","0.4","0.3716723047","0.3826172224","0.3516269472","0.3519301717","","","","","","","","","","","","74","J","1","","","32","main_expt"
"","bandit","112","362048","0.0-73.0-0.0","51594250","wem/bandit_either_2","A1YM0IWPC72J7V","either","4","428","","","","","","","0","0","1","0.3799724366","","0.6","0.2","0.8","0.4","","","","","0.3799724366","0.3804083149","0.3852085553","0.3414953842","","","","","","","","72","H","0","img/none_selected.jpg","","33","main_expt"
"","bandit","113","363816","0.0-74.0-0.0","51594250","wem/bandit_either_2","A1YM0IWPC72J7V","either","4","263","","","","","","","0","1","0","","0.3808178469","0.6","0.2","0.8","0.4","0.409480615","0.3808178469","0.4196644934","0.2938412915","","","","","","","","","","","","74","J","1","","","34","main_expt"
"","bandit","114","365736","0.0-75.0-0.0","51594250","wem/bandit_either_2","A1YM0IWPC72J7V","either","4","416","","","","","","","0","0","1","","0.376129724","0.6","0.2","0.8","0.4","0.3869649509","0.376129724","0.420891004","0.2256616696","","","","","","","","","","","","74","J","1","","","35","main_expt"
"","bandit","115","367580","0.0-76.0-0.0","51594250","wem/bandit_either_2","A1YM0IWPC72J7V","either","4","335","","","","","","","0","0","1","0.3808881167","","0.6","0.2","0.8","0.4","","","","","0.3045389962","0.4027809904","0.3808881167","0.2525957923","","","","","","","","75","K","2","","","36","main_expt"
"","bandit","116","369768","0.0-77.0-0.0","51594250","wem/bandit_either_2","A1YM0IWPC72J7V","either","4","682","","","","","","","0","0","1","0.2333373749","","0.6","0.2","0.8","0.4","","","","","0.2954217214","0.3715556026","0.3634360393","0.2333373749","","","","","","","","76","L","3","","","37","main_expt"
"","bandit","117","373256","0.0-78.0-0.0","51594250","wem/bandit_either_2","A1YM0IWPC72J7V","either","4","1984","","","","","","","0","0","1","0.3432691328","","0.6","0.2","0.8","0.4","","","","","0.2749906923","0.354842885","0.3432691328","0.2126884676","","","","","","","","75","K","2","","","38","main_expt"
"","bandit","118","375170","0.0-79.0-0.0","51594250","wem/bandit_either_2","A1YM0IWPC72J7V","either","4","408","","","","","","","0","0","1","","0.3066825603","0.6","0.2","0.8","0.4","0.2911873598","0.3066825603","0.3113322025","0.212498526","","","","","","","","","","","","74","J","1","","","39","main_expt"
"","bandit","119","377251","0.0-80.0-0.0","51594250","wem/bandit_either_2","A1YM0IWPC72J7V","either","4","572","","","","","","","0","0","1","0.3066149412","","0.6","0.2","0.8","0.4","","","","","0.3066149412","0.3208648015","0.3298138996","0.2031275136","","","","","","","","72","H","0","img/none_selected.jpg","","40","main_expt"
"","bandit","120","389842","0.0-81.0-0.0","51594250","wem/bandit_either_2","A1YM0IWPC72J7V","either","4","11081","","","","","","","0","0","1","0.3590557929","","0.6","0.2","0.8","0.4","","","","","0.2612722093","0.2774570704","0.3590557929","0.2409224204","","","","","","","","75","K","2","","","41","main_expt"
"","bandit","121","393096","0.0-82.0-0.0","51594250","wem/bandit_either_2","A1YM0IWPC72J7V","either","4","1750","","","","","","","1","0","0","0.2166695961","","0.6","0.2","0.8","0.4","","","","","0.2579482203","0.3092882543","0.3455434044","0.2166695961","","","","","","","","76","L","3","","","42","main_expt"
"","bandit","122","395720","0.0-83.0-0.0","51594250","wem/bandit_either_2","A1YM0IWPC72J7V","either","4","1120","","","","","","","0","0","1","","0.2314197793","0.6","0.2","0.8","0.4","0.2232302517","0.3161251671","0.4020043176","0.2314197793","","","","","","","","","","","","76","L","3","","","43","main_expt"
"","bandit","123","401817","0.0-84.0-0.0","51594250","wem/bandit_either_2","A1YM0IWPC72J7V","either","4","4590","","","","","","","1","0","0","0.4088695108","","0.6","0.2","0.8","0.4","","","","","0.2435669349","0.3032549762","0.4088695108","0.1889371852","","","","","","","","75","K","2","","","44","main_expt"
"","bandit","124","406416","0.0-85.0-0.0","51594250","wem/bandit_either_2","A1YM0IWPC72J7V","either","4","3093","","","","","","","0","0","1","0.3914045207","","0.6","0.2","0.8","0.4","","","","","0.1885724617","0.3012359134","0.3914045207","0.2152104473","","","","","","","","75","K","2","","","45","main_expt"
"","bandit","125","409250","0.0-86.0-0.0","51594250","wem/bandit_either_2","A1YM0IWPC72J7V","either","4","1328","","","","","","","0","0","1","0.2994346937","","0.6","0.2","0.8","0.4","","","","","0.104230756","0.2994346937","0.3682142312","0.2260726972","","","","","","","","74","J","1","","","46","main_expt"
"","bandit","126","411586","0.0-87.0-0.0","51594250","wem/bandit_either_2","A1YM0IWPC72J7V","either","4","831","","","","","","","1","0","0","0.09013225529","","0.6","0.2","0.8","0.4","","","","","0.09013225529","0.3169549043","0.3462276735","0.2330399618","","","","","","","","72","H","0","img/none_selected.jpg","","47","main_expt"
"","bandit","127","414833","0.0-88.0-0.0","51594250","wem/bandit_either_2","A1YM0IWPC72J7V","either","4","1742","","","","","","","0","0","1","","0.1066227192","0.6","0.2","0.8","0.4","0.1066227192","0.3137179834","0.3501405617","0.2769685944","","","","","","","","","","","","72","H","0","img/none_selected.jpg","","48","main_expt"
"","bandit","128","417288","0.0-89.0-0.0","51594250","wem/bandit_either_2","A1YM0IWPC72J7V","either","4","950","","","","","","","0","1","0","","0.3026837323","0.6","0.2","0.8","0.4","0.1273062614","0.3026837323","0.3607669766","0.2954986192","","","","","","","","","","","","74","J","1","","","49","main_expt"
"","bandit","129","421016","0.0-90.0-0.0","51594250","wem/bandit_either_2","A1YM0IWPC72J7V","either","4","2223","","","","","","","0","0","1","0.2690248343","","0.6","0.2","0.8","0.4","","","","","0.08158159543","0.2690248343","0.3776327681","0.2730110453","","","","","","","","74","J","1","","","50","main_expt"
"","bandit","130","423576","0.0-91.0-0.0","51594250","wem/bandit_either_2","A1YM0IWPC72J7V","either","4","1053","","","","","","","0","0","1","0.3922012959","","0.6","0.2","0.8","0.4","","","","","0.08035098666","0.2407215714","0.3922012959","0.2672659715","","","","","","","","75","K","2","","","51","main_expt"
"","bandit","131","425593","0.0-92.0-0.0","51594250","wem/bandit_either_2","A1YM0IWPC72J7V","either","4","512","","","","","","","1","0","0","0.2552972095","","0.6","0.2","0.8","0.4","","","","","0.1007468434","0.2758158767","0.3532085343","0.2552972095","","","","","","","","76","L","3","","","52","main_expt"
"","bandit","132","427489","0.0-93.0-0.0","51594250","wem/bandit_either_2","A1YM0IWPC72J7V","either","4","387","","","","","","","0","0","1","0.1954439593","","0.6","0.2","0.8","0.4","","","","","0.1479770317","0.2661511239","0.3597378762","0.1954439593","","","","","","","","76","L","3","","","53","main_expt"
"","bandit","133","429329","0.0-94.0-0.0","51594250","wem/bandit_either_2","A1YM0IWPC72J7V","either","4","334","","","","","","","0","0","1","0.3553644404","","0.6","0.2","0.8","0.4","","","","","0.1450389045","0.250303373","0.3553644404","0.1250298759","","","","","","","","75","K","2","","","54","main_expt"
"","bandit","134","431041","0.0-95.0-0.0","51594250","wem/bandit_either_2","A1YM0IWPC72J7V","either","4","207","","","","","","","0","0","1","","0.1850572083","0.6","0.2","0.8","0.4","0.1678096349","0.1850572083","0.3427354451","0.1224949652","","","","","","","","","","","","74","J","1","","","55","main_expt"
"","bandit","135","432873","0.0-96.0-0.0","51594250","wem/bandit_either_2","A1YM0IWPC72J7V","either","4","327","","","","","","","1","0","0","0.1748395718","","0.6","0.2","0.8","0.4","","","","","0.1748395718","0.2410157884","0.3158877586","0.1312048923","","","","","","","","72","H","0","img/none_selected.jpg","","56","main_expt"
"","bandit","136","434643","0.0-97.0-0.0","51594250","wem/bandit_either_2","A1YM0IWPC72J7V","either","4","265","","","","","","","1","0","0","0.146986137","","0.6","0.2","0.8","0.4","","","","","0.146986137","0.2657224069","0.3224611445","0.14452077","","","","","","","","72","H","0","img/none_selected.jpg","","57","main_expt"
"","bandit","137","436464","0.0-98.0-0.0","51594250","wem/bandit_either_2","A1YM0IWPC72J7V","either","4","317","","","","","","","0","0","1","","0.1316135006","0.6","0.2","0.8","0.4","0.1316135006","0.2361308133","0.3378672788","0.1198415177","","","","","","","","","","","","72","H","0","img/none_selected.jpg","","58","main_expt"
"","bandit","138","438168","0.0-99.0-0.0","51594250","wem/bandit_either_2","A1YM0IWPC72J7V","either","4","200","","","","","","","0","0","1","","0.2078360154","0.6","0.2","0.8","0.4","0.1776120447","0.2078360154","0.3438075972","0.1674914914","","","","","","","","","","","","74","J","1","","","59","main_expt"
"","bandit","139","439792","0.0-100.0-0.0","51594250","wem/bandit_either_2","A1YM0IWPC72J7V","either","4","119","","","","","","","0","0","1","0.2950987239","","0.6","0.2","0.8","0.4","","","","","0.2034864675","0.2256957235","0.2950987239","0.147959707","","","","","","","","75","K","2","","","60","main_expt"
"","bandit","140","441520","0.0-101.0-0.0","51594250","wem/bandit_either_2","A1YM0IWPC72J7V","either","4","222","","","","","","","0","0","1","0.1217284172","","0.6","0.2","0.8","0.4","","","","","0.1325668513","0.2713547376","0.2939622289","0.1217284172","","","","","","","","76","L","3","","","61","main_expt"
"","bandit","141","443336","0.0-102.0-0.0","51594250","wem/bandit_either_2","A1YM0IWPC72J7V","either","4","311","","","","","","","0","0","1","0.2907096119","","0.6","0.2","0.8","0.4","","","","","0.125492747","0.2800078023","0.2907096119","0.1392905859","","","","","","","","75","K","2","","","62","main_expt"
"","bandit","142","445184","0.0-103.0-0.0","51594250","wem/bandit_either_2","A1YM0IWPC72J7V","either","4","343","","","","","","","0","0","1","","0.362183352","0.6","0.2","0.8","0.4","0.1081989139","0.362183352","0.2696382907","0.1953314019","","","","","","","","","","","","74","J","1","","","63","main_expt"
"","bandit","143","447197","0.0-104.0-0.0","51594250","wem/bandit_either_2","A1YM0IWPC72J7V","either","4","505","","","","","","","0","0","1","","0.09104284411","0.6","0.2","0.8","0.4","0.09104284411","0.3354395381","0.2496415039","0.2618523415","","","","","","","","","","","","72","H","0","img/none_selected.jpg","","64","main_expt"
"","bandit","144","448994","0.0-105.0-0.0","51594250","wem/bandit_either_2","A1YM0IWPC72J7V","either","4","287","","","","","","","0","0","1","","0.2686672798","0.6","0.2","0.8","0.4","0.1264903162","0.2893845237","0.2364994079","0.2686672798","","","","","","","","","","","","76","L","3","","","65","main_expt"
"","bandit","145","451129","0.0-106.0-0.0","51594250","wem/bandit_either_2","A1YM0IWPC72J7V","either","4","627","","","","","","","0","0","1","","0.2355717356","0.6","0.2","0.8","0.4","0.1665937301","0.2355717356","0.2541683514","0.2451656397","","","","","","","","","","","","74","J","1","","","66","main_expt"
"","bandit","146","452888","0.0-107.0-0.0","51594250","wem/bandit_either_2","A1YM0IWPC72J7V","either","4","255","","","","","","","1","0","0","0.2985471382","","0.6","0.2","0.8","0.4","","","","","0.1740025863","0.2848755716","0.2985471382","0.2445320338","","","","","","","","75","K","2","","","67","main_expt"
"","bandit","147","454649","0.0-108.0-0.0","51594250","wem/bandit_either_2","A1YM0IWPC72J7V","either","4","256","","","","","","","0","0","1","0.3391290389","","0.6","0.2","0.8","0.4","","","","","0.2300011382","0.3341158043","0.3391290389","0.2261158315","","","","","","","","75","K","2","","","68","main_expt"
"","bandit","148","456155","0.0-109.0-0.0","51594250","wem/bandit_either_2","A1YM0IWPC72J7V","either","4","0","","","","","","","0","1","0","","0.1768594062","0.6","0.2","0.8","0.4","0.1768594062","0.3253412689","0.3114764975","0.1627286519","","","","","","","","","","","","72","H","0","img/none_selected.jpg","","69","main_expt"
"","bandit","149","457976","0.0-110.0-0.0","51594250","wem/bandit_either_2","A1YM0IWPC72J7V","either","4","314","","","","","","","1","0","0","0.1906145184","","0.6","0.2","0.8","0.4","","","","","0.1906145184","0.3280915152","0.3056328376","0.1301009224","","","","","","","","72","H","0","img/none_selected.jpg","","70","main_expt"
"","bandit","150","459834","0.0-111.0-0.0","51594250","wem/bandit_either_2","A1YM0IWPC72J7V","either","4","349","","","","","","","0","1","0","","0.1451664327","0.6","0.2","0.8","0.4","0.1451664327","0.3772643828","0.3445325487","0.1356707761","","","","","","","","","","","","72","H","0","img/none_selected.jpg","","71","main_expt"
"","bandit","151","461649","0.0-112.0-0.0","51594250","wem/bandit_either_2","A1YM0IWPC72J7V","either","4","308","","","","","","","0","0","1","","0.1091447996","0.6","0.2","0.8","0.4","0.1091447996","0.4074174212","0.364612409","0.1045412551","","","","","","","","","","","","72","H","0","img/none_selected.jpg","","72","main_expt"
"","bandit","152","463417","0.0-113.0-0.0","51594250","wem/bandit_either_2","A1YM0IWPC72J7V","either","4","262","","","","","","","0","0","1","","0.0867882282","0.6","0.2","0.8","0.4","0.1248737042","0.3736299767","0.4454774056","0.0867882282","","","","","","","","","","","","76","L","3","","","73","main_expt"
"","bandit","153","465128","0.0-114.0-0.0","51594250","wem/bandit_either_2","A1YM0IWPC72J7V","either","4","205","","","","","","","0","0","1","","0.383211712","0.6","0.2","0.8","0.4","0.1073746888","0.383211712","0.4492830973","0.1018359722","","","","","","","","","","","","74","J","1","","","74","main_expt"
"","bandit","154","466890","0.0-115.0-0.0","51594250","wem/bandit_either_2","A1YM0IWPC72J7V","either","4","252","","","","","","","0","0","1","0.449321966","","0.6","0.2","0.8","0.4","","","","","0.1051395745","0.3681962321","0.449321966","0.09443707336","","","","","","","","75","K","2","","","75","main_expt"
"","bandit","155","468707","0.0-116.0-0.0","51594250","wem/bandit_either_2","A1YM0IWPC72J7V","either","4","307","","","","","","","0","0","1","0.09171451076","","0.6","0.2","0.8","0.4","","","","","0.09171451076","0.3574328021","0.4299726132","0.08768691443","","","","","","","","72","H","0","img/none_selected.jpg","","76","main_expt"
"","bandit","156","470409","0.0-117.0-0.0","51594250","wem/bandit_either_2","A1YM0IWPC72J7V","either","4","192","","","","","","","0","0","1","0.4349340462","","0.6","0.2","0.8","0.4","","","","","0.1256070833","0.4041720962","0.4349340462","0.07744448812","","","","","","","","75","K","2","","","77","main_expt"
"","bandit","157","472169","0.0-118.0-0.0","51594250","wem/bandit_either_2","A1YM0IWPC72J7V","either","4","254","","","","","","","0","1","0","","0.4000946746","0.6","0.2","0.8","0.4","0.1398604905","0.4000946746","0.4112950215","0.05712631425","","","","","","","","","","","","74","J","1","","","78","main_expt"
"","bandit","158","473944","0.0-119.0-0.0","51594250","wem/bandit_either_2","A1YM0IWPC72J7V","either","4","267","","","","","","","0","0","1","0.425248604","","0.6","0.2","0.8","0.4","","","","","0.1303191282","0.425248604","0.4123046053","0.03981704588","","","","","","","","74","J","1","","","79","main_expt"
"","bandit","159","475593","0.0-120.0-0.0","51594250","wem/bandit_either_2","A1YM0IWPC72J7V","either","4","142","","","","","","","0","0","1","","0.02961196177","0.6","0.2","0.8","0.4","0.1491340647","0.4263383456","0.4345430878","0.02961196177","","","","","","","","","","","","76","L","3","","","80","main_expt"
"","bandit","160","477394","0.0-121.0-0.0","51594250","wem/bandit_either_2","A1YM0IWPC72J7V","either","4","287","","","","","","","0","0","1","","0.1484119081","0.6","0.2","0.8","0.4","0.1484119081","0.4377411966","0.4255274095","0.0408206899","","","","","","","","","","","","72","H","0","img/none_selected.jpg","","81","main_expt"
"","bandit","161","479489","0.0-122.0-0.0","51594250","wem/bandit_either_2","A1YM0IWPC72J7V","either","4","584","","","","","","","1","0","0","0.4266934287","","0.6","0.2","0.8","0.4","","","","","0.135460029","0.4263216968","0.4266934287","0.03491361241","","","","","","","","75","K","2","","","82","main_expt"
"","bandit","162","481273","0.0-123.0-0.0","51594250","wem/bandit_either_2","A1YM0IWPC72J7V","either","4","278","","","","","","","0","0","1","0.4321646522","","0.6","0.2","0.8","0.4","","","","","0.09497461961","0.4536492548","0.4321646522","0.01881925386","","","","","","","","75","K","2","","","83","main_expt"
"","bandit","163","482827","0.0-124.0-0.0","51594250","wem/bandit_either_2","A1YM0IWPC72J7V","either","4","45","","","","","","","0","1","0","","0.4344769981","0.6","0.2","0.8","0.4","0.0956585677","0.4344769981","0.43129245","0.03441768066","","","","","","","","","","","","74","J","1","","","84","main_expt"
"","bandit","164","484568","0.0-125.0-0.0","51594250","wem/bandit_either_2","A1YM0IWPC72J7V","either","4","235","","","","","","","0","1","0","","0.4167097255","0.6","0.2","0.8","0.4","0.08427930603","0.4167097255","0.4307495417","0.04015732792","","","","","","","","","","","","74","J","1","","","85","main_expt"
"","bandit","165","486360","0.0-126.0-0.0","51594250","wem/bandit_either_2","A1YM0IWPC72J7V","either","4","287","","","","","","","0","1","0","","0.4215971904","0.6","0.2","0.8","0.4","0.09540141202","0.4215971904","0.4327415212","0.0462821445","","","","","","","","","","","","74","J","1","","","86","main_expt"
"","bandit","166","488184","0.0-127.0-0.0","51594250","wem/bandit_either_2","A1YM0IWPC72J7V","either","4","319","","","","","","","0","1","0","","0.3962725568","0.6","0.2","0.8","0.4","0.06504543429","0.3962725568","0.4507305815","0.07236867375","","","","","","","","","","","","74","J","1","","","87","main_expt"
"","bandit","167","489964","0.0-128.0-0.0","51594250","wem/bandit_either_2","A1YM0IWPC72J7V","either","4","273","","","","","","","0","0","1","","0.4038430626","0.6","0.2","0.8","0.4","0.05894337134","0.4038430626","0.4571393315","0.1132918069","","","","","","","","","","","","74","J","1","","","88","main_expt"
"","bandit","168","491768","0.0-129.0-0.0","51594250","wem/bandit_either_2","A1YM0IWPC72J7V","either","4","298","","","","","","","0","0","1","","0.1466354559","0.6","0.2","0.8","0.4","0.06803635399","0.4247877058","0.4639779763","0.1466354559","","","","","","","","","","","","76","L","3","","","89","main_expt"
"","bandit","169","493408","0.0-130.0-0.0","51594250","wem/bandit_either_2","A1YM0IWPC72J7V","either","4","135","","","","","","","0","0","1","0.09657856289","","0.6","0.2","0.8","0.4","","","","","0.09657856289","0.4196700557","0.4620017245","0.1746819083","","","","","","","","72","H","0","img/none_selected.jpg","","90","main_expt"
"","bandit","170","495145","0.0-131.0-0.0","51594250","wem/bandit_either_2","A1YM0IWPC72J7V","either","4","228","","","","","","","0","0","1","0.4492963398","","0.6","0.2","0.8","0.4","","","","","0.08522031428","0.401758082","0.4492963398","0.1864657318","","","","","","","","75","K","2","","","91","main_expt"
"","bandit","171","496866","0.0-132.0-0.0","51594250","wem/bandit_either_2","A1YM0IWPC72J7V","either","4","204","","","","","","","0","0","1","","0.3422099147","0.6","0.2","0.8","0.4","0.07078380504","0.3422099147","0.462009279","0.2124622091","","","","","","","","","","","","74","J","1","","","92","main_expt"
"","bandit","172","498659","0.0-133.0-0.0","51594250","wem/bandit_either_2","A1YM0IWPC72J7V","either","4","282","","","","","","","0","0","1","0.245786276","","0.6","0.2","0.8","0.4","","","","","0.0564278809","0.3279059742","0.4363090379","0.245786276","","","","","","","","76","L","3","","","93","main_expt"
"","bandit","173","500489","0.0-134.0-0.0","51594250","wem/bandit_either_2","A1YM0IWPC72J7V","either","4","325","","","","","","","0","0","1","0.06067733924","","0.6","0.2","0.8","0.4","","","","","0.06067733924","0.3155724737","0.4457519602","0.2316759231","","","","","","","","72","H","0","img/none_selected.jpg","","94","main_expt"
"","bandit","174","502105","0.0-135.0-0.0","51594250","wem/bandit_either_2","A1YM0IWPC72J7V","either","4","110","","","","","","","0","0","1","0.4231248902","","0.6","0.2","0.8","0.4","","","","","0.08632751489","0.3519625041","0.4231248902","0.2231756969","","","","","","","","75","K","2","","","95","main_expt"
"","bandit","175","503792","0.0-136.0-0.0","51594250","wem/bandit_either_2","A1YM0IWPC72J7V","either","4","176","","","","","","","0","0","1","","0.3661455107","0.6","0.2","0.8","0.4","0.08481729553","0.3661455107","0.4210676831","0.1957128212","","","","","","","","","","","","74","J","1","","","96","main_expt"
"","bandit","176","505697","0.0-137.0-0.0","51594250","wem/bandit_either_2","A1YM0IWPC72J7V","either","4","399","","","","","","","0","0","1","0.4022895305","","0.6","0.2","0.8","0.4","","","","","0.08386440452","0.3558031673","0.4022895305","0.1638116915","","","","","","","","75","K","2","","","97","main_expt"
"","bandit","177","507512","0.0-138.0-0.0","51594250","wem/bandit_either_2","A1YM0IWPC72J7V","either","4","306","","","","","","","0","1","0","","0.1405816365","0.6","0.2","0.8","0.4","0.0940701929","0.3558230887","0.4187351015","0.1405816365","","","","","","","","","","","","76","L","3","","","98","main_expt"
"","bandit","178","509312","0.0-139.0-0.0","51594250","wem/bandit_either_2","A1YM0IWPC72J7V","either","4","293","","","","","","","0","0","1","0.1435678602","","0.6","0.2","0.8","0.4","","","","","0.1285058524","0.3064708089","0.3981340028","0.1435678602","","","","","","","","76","L","3","","","99","main_expt"
"","bandit","179","510856","0.0-140.0-0.0","51594250","wem/bandit_either_2","A1YM0IWPC72J7V","either","4","39","","","","","","","0","0","1","","0.065882019","0.6","0.2","0.8","0.4","0.065882019","0.352498313","0.3520446815","0.1478754355","","","","","","","","","","","","72","H","0","img/none_selected.jpg","","100","main_expt"
"","bandit","180","512992","0.0-141.0-0.0","51594250","wem/bandit_either_2","A1YM0IWPC72J7V","either","4","629","","","","","","","0","1","0","","0.3511810171","0.6","0.2","0.8","0.4","0.05692140794","0.3511810171","0.3715523215","0.1532559328","","","","","","","","","","","","74","J","1","","","101","main_expt"
"","bandit","181","514608","0.0-142.0-0.0","51594250","wem/bandit_either_2","A1YM0IWPC72J7V","either","4","110","","","","","","","0","0","1","","0.3246867477","0.6","0.2","0.8","0.4","0.04322280369","0.3246867477","0.3966955113","0.15857411","","","","","","","","","","","","74","J","1","","","102","main_expt"
"","bandit","182","516225","0.0-143.0-0.0","51594250","wem/bandit_either_2","A1YM0IWPC72J7V","either","4","111","","","","","","","0","0","1","","0.3865714765","0.6","0.2","0.8","0.4","0.05121437093","0.2827689756","0.3865714765","0.1552377357","","","","","","","","","","","","75","K","2","","","103","main_expt"
"","bandit","183","518008","0.0-144.0-0.0","51594250","wem/bandit_either_2","A1YM0IWPC72J7V","either","4","274","","","","","","","0","0","1","","0.1584193753","0.6","0.2","0.8","0.4","0.06548077564","0.3307995119","0.3440646931","0.1584193753","","","","","","","","","","","","76","L","3","","","104","main_expt"
"","bandit","184","519824","0.0-145.0-0.0","51594250","wem/bandit_either_2","A1YM0IWPC72J7V","either","4","311","","","","","","","0","0","1","0.07577357845","","0.6","0.2","0.8","0.4","","","","","0.07577357845","0.3078297571","0.330981063","0.192058402","","","","","","","","72","H","0","img/none_selected.jpg","","105","main_expt"
"","bandit","185","521609","0.0-146.0-0.0","51594250","wem/bandit_either_2","A1YM0IWPC72J7V","either","4","280","","","","","","","0","0","1","","0.3202685942","0.6","0.2","0.8","0.4","0.09041352565","0.3202685942","0.3317280627","0.1562344916","","","","","","","","","","","","74","J","1","","","106","main_expt"
"","bandit","186","523417","0.0-147.0-0.0","51594250","wem/bandit_either_2","A1YM0IWPC72J7V","either","4","302","","","","","","","0","0","1","0.2760665195","","0.6","0.2","0.8","0.4","","","","","0.1184921167","0.3163418234","0.2760665195","0.1493116313","","","","","","","","75","K","2","","","107","main_expt"
"","bandit","187","525137","0.0-148.0-0.0","51594250","wem/bandit_either_2","A1YM0IWPC72J7V","either","4","212","","","","","","","0","0","1","","0.1357435498","0.6","0.2","0.8","0.4","0.1057615429","0.3425943818","0.2826301941","0.1357435498","","","","","","","","","","","","76","L","3","","","108","main_expt"
"","bandit","188","527001","0.0-149.0-0.0","51594250","wem/bandit_either_2","A1YM0IWPC72J7V","either","4","356","","","","","","","0","0","1","","0.1464484126","0.6","0.2","0.8","0.4","0.1464484126","0.2852030557","0.318117281","0.1164074326","","","","","","","","","","","","72","H","0","img/none_selected.jpg","","109","main_expt"
"","bandit","189","528689","0.0-150.0-0.0","51594250","wem/bandit_either_2","A1YM0IWPC72J7V","either","4","177","","","","","","","0","0","1","","0.3392406975","0.6","0.2","0.8","0.4","0.1641354829","0.3392406975","0.3358587519","0.1444451916","","","","","","","","","","","","74","J","1","","","110","main_expt"
"","bandit","190","530337","0.0-151.0-0.0","51594250","wem/bandit_either_2","A1YM0IWPC72J7V","either","4","140","","","","","","","0","0","1","0.3031660534","","0.6","0.2","0.8","0.4","","","","","0.1386891192","0.3023411017","0.3031660534","0.09905323685","","","","","","","","75","K","2","","","111","main_expt"
"","bandit","191","532050","0.0-152.0-0.0","51594250","wem/bandit_either_2","A1YM0IWPC72J7V","either","4","205","","","","","","","0","0","1","","0.09652445584","0.6","0.2","0.8","0.4","0.1847512065","0.296849772","0.2773548355","0.09652445584","","","","","","","","","","","","76","L","3","","","112","main_expt"
"","bandit","192","533809","0.0-153.0-0.0","51594250","wem/bandit_either_2","A1YM0IWPC72J7V","either","4","245","","","","","","","0","0","1","","0.2370758425","0.6","0.2","0.8","0.4","0.1304555333","0.2673419259","0.2370758425","0.09961189632","","","","","","","","","","","","75","K","2","","","113","main_expt"
"","bandit","193","535329","0.0-154.0-0.0","51594250","wem/bandit_either_2","A1YM0IWPC72J7V","either","4","15","","","","","","","0","1","0","","0.2670531803","0.6","0.2","0.8","0.4","0.1770102637","0.2670531803","0.1821928837","0.1036139638","","","","","","","","","","","","74","J","1","","","114","main_expt"
"","bandit","194","537082","0.0-155.0-0.0","51594250","wem/bandit_either_2","A1YM0IWPC72J7V","either","4","246","","","","","","","0","0","1","","0.2825009356","0.6","0.2","0.8","0.4","0.1564651975","0.2825009356","0.1315453283","0.0968506792","","","","","","","","","","","","74","J","1","","","115","main_expt"
"","bandit","195","538674","0.0-156.0-0.0","51594250","wem/bandit_either_2","A1YM0IWPC72J7V","either","4","85","","","","","","","0","0","1","0.1665702367","","0.6","0.2","0.8","0.4","","","","","0.1665702367","0.3237719372","0.1102777544","0.08782875681","","","","","","","","72","H","0","img/none_selected.jpg","","116","main_expt"
"","bandit","196","540376","0.0-157.0-0.0","51594250","wem/bandit_either_2","A1YM0IWPC72J7V","either","4","196","","","","","","","0","0","1","","0.3154846423","0.6","0.2","0.8","0.4","0.1530687496","0.3154846423","0.1101610351","0.06031800864","","","","","","","","","","","","74","J","1","","","117","main_expt"
"","bandit","197","542017","0.0-158.0-0.0","51594250","wem/bandit_either_2","A1YM0IWPC72J7V","either","4","134","","","","","","","0","0","1","0.122460482","","0.6","0.2","0.8","0.4","","","","","0.1674206906","0.2584508078","0.122460482","0.05633053331","","","","","","","","75","K","2","","","118","main_expt"
"","bandit","198","543627","0.0-159.0-0.0","51594250","wem/bandit_either_2","A1YM0IWPC72J7V","either","4","100","","","","","","","0","0","1","0.07530514027","","0.6","0.2","0.8","0.4","","","","","0.1990215448","0.2141905193","0.1451868924","0.07530514027","","","","","","","","76","L","3","","","119","main_expt"
"","bandit","199","545337","0.0-160.0-0.0","51594250","wem/bandit_either_2","A1YM0IWPC72J7V","either","4","203","","","","","","","0","0","1","0.09092593383","","0.6","0.2","0.8","0.4","","","","","0.2208640619","0.2341954374","0.09092593383","0.09639595661","","","","","","","","75","K","2","","","120","main_expt"
"","bandit","200","547088","0.0-161.0-0.0","51594250","wem/bandit_either_2","A1YM0IWPC72J7V","either","4","241","","","","","","","0","0","1","","0.1886372651","0.6","0.2","0.8","0.4","0.2602917539","0.1886372651","0.1080456108","0.1421799471","","","","","","","","","","","","74","J","1","","","121","main_expt"
"","bandit","201","548738","0.0-162.0-0.0","51594250","wem/bandit_either_2","A1YM0IWPC72J7V","either","4","141","","","","","","","0","0","1","","0.2512498235","0.6","0.2","0.8","0.4","0.2512498235","0.1597592322","0.1169053248","0.1624760489","","","","","","","","","","","","72","H","0","img/none_selected.jpg","","122","main_expt"
"","bandit","202","550465","0.0-163.0-0.0","51594250","wem/bandit_either_2","A1YM0IWPC72J7V","either","4","221","","","","","","","0","0","1","0.1640214383","","0.6","0.2","0.8","0.4","","","","","0.2266242761","0.1895266442","0.1571594809","0.1640214383","","","","","","","","76","L","3","","","123","main_expt"
"","bandit","203","552536","0.0-164.0-0.0","51594250","wem/bandit_either_2","A1YM0IWPC72J7V","either","4","561","","","","","","","0","0","1","","0.2042850732","0.6","0.2","0.8","0.4","0.2373824638","0.2042850732","0.2231804049","0.2014340991","","","","","","","","","","","","74","J","1","","","124","main_expt"
"","bandit","204","554252","0.0-165.0-0.0","51594250","wem/bandit_either_2","A1YM0IWPC72J7V","either","4","209","","","","","","","0","0","1","0.2232794356","","0.6","0.2","0.8","0.4","","","","","0.2538727107","0.1812515389","0.2232794356","0.2229229076","","","","","","","","75","K","2","","","125","main_expt"
"","bandit","205","556080","0.0-166.0-0.0","51594250","wem/bandit_either_2","A1YM0IWPC72J7V","either","4","323","","","","","","","0","0","1","0.290219491","","0.6","0.2","0.8","0.4","","","","","0.290219491","0.1694736183","0.2316903634","0.2324712723","","","","","","","","72","H","0","img/none_selected.jpg","","126","main_expt"
"","bandit","206","557896","0.0-167.0-0.0","51594250","wem/bandit_either_2","A1YM0IWPC72J7V","either","4","307","","","","","","","0","0","1","","0.1624528765","0.6","0.2","0.8","0.4","0.2542505169","0.1624528765","0.2337524142","0.2628391623","","","","","","","","","","","","74","J","1","","","127","main_expt"
"","bandit","207","559608","0.0-168.0-0.0","51594250","wem/bandit_either_2","A1YM0IWPC72J7V","either","4","207","","","","","","","0","0","1","","0.2198210178","0.6","0.2","0.8","0.4","0.2582316027","0.1632982916","0.2198210178","0.2654356302","","","","","","","","","","","","75","K","2","","","128","main_expt"
"","bandit","208","561200","0.0-169.0-0.0","51594250","wem/bandit_either_2","A1YM0IWPC72J7V","either","4","86","","","","","","","0","0","1","0.2070569149","","0.6","0.2","0.8","0.4","","","","","0.3267566011","0.2264598068","0.2280168395","0.2070569149","","","","","","","","76","L","3","","","129","main_expt"
"","bandit","209","562960","0.0-170.0-0.0","51594250","wem/bandit_either_2","A1YM0IWPC72J7V","either","4","254","","","","","","","0","0","1","0.243895296","","0.6","0.2","0.8","0.4","","","","","0.3323271388","0.202760285","0.243895296","0.2579182239","","","","","","","","75","K","2","","","130","main_expt"
"","bandit","210","564577","0.0-171.0-0.0","51594250","wem/bandit_either_2","A1YM0IWPC72J7V","either","4","110","","","","","","","0","0","1","","0.1585094705","0.6","0.2","0.8","0.4","0.2666668646","0.1585094705","0.2164454501","0.2329110821","","","","","","","","","","","","74","J","1","","","131","main_expt"
"","bandit","211","566386","0.0-172.0-0.0","51594250","wem/bandit_either_2","A1YM0IWPC72J7V","either","4","299","","","","","","","0","1","0","","0.2359119393","0.6","0.2","0.8","0.4","0.2359119393","0.1304261544","0.200468731","0.2400232435","","","","","","","","","","","","72","H","0","img/none_selected.jpg","","132","main_expt"
"","bandit","212","567944","0.0-173.0-0.0","51594250","wem/bandit_either_2","A1YM0IWPC72J7V","either","4","53","","","","","","","0","0","1","0.2540740643","","0.6","0.2","0.8","0.4","","","","","0.2540740643","0.09339990826","0.2038597077","0.2084798617","","","","","","","","72","H","0","img/none_selected.jpg","","133","main_expt"
"","bandit","213","569585","0.0-174.0-0.0","51594250","wem/bandit_either_2","A1YM0IWPC72J7V","either","4","134","","","","","","","0","1","0","","0.2034544","0.6","0.2","0.8","0.4","0.2414927735","0.08524612959","0.2263269307","0.2034544","","","","","","","","","","","","76","L","3","","","134","main_expt"
"","bandit","214","571376","0.0-175.0-0.0","51594250","wem/bandit_either_2","A1YM0IWPC72J7V","either","4","284","","","","","","","0","0","1","0.2088958693","","0.6","0.2","0.8","0.4","","","","","0.2632369982","0.0622033461","0.2686469146","0.2088958693","","","","","","","","76","L","3","","","135","main_expt"
"","bandit","215","573393","0.0-176.0-0.0","51594250","wem/bandit_either_2","A1YM0IWPC72J7V","either","4","511","","","","","","","0","0","1","","0.05632890875","0.6","0.2","0.8","0.4","0.3032623762","0.05632890875","0.3170393738","0.2573758916","","","","","","","","","","","","74","J","1","","","136","main_expt"
"","bandit","216","575042","0.0-177.0-0.0","51594250","wem/bandit_either_2","A1YM0IWPC72J7V","either","4","140","","","","","","","1","0","0","0.338962466","","0.6","0.2","0.8","0.4","","","","","0.2984046037","0.06052980877","0.338962466","0.2467438462","","","","","","","","75","K","2","","","137","main_expt"
"","bandit","217","576753","0.0-178.0-0.0","51594250","wem/bandit_either_2","A1YM0IWPC72J7V","either","4","199","","","","","","","0","0","1","0.3586643031","","0.6","0.2","0.8","0.4","","","","","0.3110629865","0.1038497792","0.3586643031","0.2221944767","","","","","","","","75","K","2","","","138","main_expt"
"","bandit","218","578504","0.0-179.0-0.0","51594250","wem/bandit_either_2","A1YM0IWPC72J7V","either","4","243","","","","","","","0","0","1","0.3048373826","","0.6","0.2","0.8","0.4","","","","","0.3048373826","0.08561062373","0.3430902759","0.2750517365","","","","","","","","72","H","0","img/none_selected.jpg","","139","main_expt"
"","bandit","219","580226","0.0-180.0-0.0","51594250","wem/bandit_either_2","A1YM0IWPC72J7V","either","4","214","","","","","","","0","0","1","","0.08025295029","0.6","0.2","0.8","0.4","0.3163642845","0.08025295029","0.3777112835","0.277474309","","","","","","","","","","","","74","J","1","","","140","main_expt"
"","bandit","220","581880","0.0-181.0-0.0","51594250","wem/bandit_either_2","A1YM0IWPC72J7V","either","4","148","","","","","","","0","0","1","0.4276051364","","0.6","0.2","0.8","0.4","","","","","0.2213861514","0.09309891757","0.4276051364","0.2932007391","","","","","","","","75","K","2","","","141","main_expt"
"","bandit","221","584185","0.0-182.0-0.0","51594250","wem/bandit_either_2","A1YM0IWPC72J7V","either","4","793","","","","","","","0","0","1","","0.3001807938","0.6","0.2","0.8","0.4","0.2492613222","0.1107976638","0.4312347149","0.3001807938","","","","","","","","","","","","76","L","3","","","142","main_expt"
"","bandit","222","586057","0.0-183.0-0.0","51594250","wem/bandit_either_2","A1YM0IWPC72J7V","either","4","366","","","","","","","0","0","1","0.386657586","","0.6","0.2","0.8","0.4","","","","","0.2645663874","0.09575525052","0.386657586","0.3640878437","","","","","","","","75","K","2","","","143","main_expt"
"","bandit","223","587841","0.0-184.0-0.0","51594250","wem/bandit_either_2","A1YM0IWPC72J7V","either","4","274","","","","","","","0","0","1","0.07222794989","","0.6","0.2","0.8","0.4","","","","","0.2928215939","0.07222794989","0.3409851627","0.2706796495","","","","","","","","74","J","1","","","144","main_expt"
"","bandit","224","589785","0.0-185.0-0.0","51594250","wem/bandit_either_2","A1YM0IWPC72J7V","either","4","438","","","","","","","1","0","0","0.3178979655","","0.6","0.2","0.8","0.4","","","","","0.3178979655","0.03203798906","0.3538709708","0.2359726437","","","","","","","","72","H","0","img/none_selected.jpg","","145","main_expt"
"","bandit","225","591617","0.0-186.0-0.0","51594250","wem/bandit_either_2","A1YM0IWPC72J7V","either","4","326","","","","","","","0","1","0","","0.2850957273","0.6","0.2","0.8","0.4","0.2850957273","0.03073079809","0.2745956728","0.2200332621","","","","","","","","","","","","72","H","0","img/none_selected.jpg","","146","main_expt"
"","bandit","226","593450","0.0-187.0-0.0","51594250","wem/bandit_either_2","A1YM0IWPC72J7V","either","4","327","","","","","","","0","0","1","0.2483519338","","0.6","0.2","0.8","0.4","","","","","0.2483519338","0.05105424151","0.2375793476","0.1957794229","","","","","","","","72","H","0","img/none_selected.jpg","","147","main_expt"
"","bandit","227","595272","0.0-188.0-0.0","51594250","wem/bandit_either_2","A1YM0IWPC72J7V","either","4","313","","","","","","","0","0","1","","0.04045355104","0.6","0.2","0.8","0.4","0.2309770791","0.04045355104","0.2954602587","0.1790722045","","","","","","","","","","","","74","J","1","","","148","main_expt"
"","bandit","228","597436","0.0-189.0-0.0","51594250","wem/bandit_either_2","A1YM0IWPC72J7V","either","4","653","","","","","","","0","0","1","0.3435099865","","0.6","0.2","0.8","0.4","","","","","0.1759049641","0.06416506337","0.3435099865","0.2189150546","","","","","","","","75","K","2","","","149","main_expt"
"","bandit","229","599569","0.0-190.0-0.0","51594250","wem/bandit_either_2","A1YM0IWPC72J7V","either","4","625","","","","","","","0","0","1","0.2119229637","","0.6","0.2","0.8","0.4","","","","","0.1910702346","0.07819388902","0.268900415","0.2119229637","","","","","","","","76","L","3","","","150","main_expt"
"","bandit","230","601650","0.0-191.0-0.0","51594250","wem/bandit_either_2","A1YM0IWPC72J7V","either","4","571","","","","","","","0","0","1","0.2326488896","","0.6","0.2","0.8","0.4","","","","","0.1799178466","0.1186979887","0.2326488896","0.2472398003","","","","","","","","75","K","2","","","151","main_expt"
"","bandit","231","603458","0.0-192.0-0.0","51594250","wem/bandit_either_2","A1YM0IWPC72J7V","either","4","300","","","","","","","0","0","1","","0.1084773402","0.6","0.2","0.8","0.4","0.1826140084","0.1084773402","0.2768057641","0.2148428051","","","","","","","","","","","","74","J","1","","","152","main_expt"
"","bandit","232","605865","0.0-193.0-0.0","51594250","wem/bandit_either_2","A1YM0IWPC72J7V","either","4","892","","","","","","","0","0","1","","0.147924298","0.6","0.2","0.8","0.4","0.147924298","0.1314289417","0.2997660112","0.1598057249","","","","","","","","","","","","72","H","0","img/none_selected.jpg","","153","main_expt"
"","bandit","233","607679","0.0-194.0-0.0","51594250","wem/bandit_either_2","A1YM0IWPC72J7V","either","4","298","","","","","","","0","1","0","","0.1354051011","0.6","0.2","0.8","0.4","0.1388357139","0.1354051011","0.3196464983","0.1489099923","","","","","","","","","","","","74","J","1","","","154","main_expt"
"","bandit","234","609522","0.0-195.0-0.0","51594250","wem/bandit_either_2","A1YM0IWPC72J7V","either","4","326","","","","","","","0","0","1","","0.1085215933","0.6","0.2","0.8","0.4","0.1658398244","0.1085215933","0.3141654429","0.1502541116","","","","","","","","","","","","74","J","1","","","155","main_expt"
"","bandit","235","611264","0.0-196.0-0.0","51594250","wem/bandit_either_2","A1YM0IWPC72J7V","either","4","230","","","","","","","1","0","0","0.2667217688","","0.6","0.2","0.8","0.4","","","","","0.1104921729","0.1383379057","0.2667217688","0.1605084188","","","","","","","","75","K","2","","","156","main_expt"
"","bandit","236","612937","0.0-197.0-0.0","51594250","wem/bandit_either_2","A1YM0IWPC72J7V","either","4","166","","","","","","","0","0","1","0.2867075714","","0.6","0.2","0.8","0.4","","","","","0.09530810267","0.1428990181","0.2867075714","0.1684101418","","","","","","","","75","K","2","","","157","main_expt"
"","bandit","237","614448","0.0-198.0-0.0","51594250","wem/bandit_either_2","A1YM0IWPC72J7V","either","4","5","","","","","","","0","0","1","","0.1807688322","0.6","0.2","0.8","0.4","0.1211627972","0.07455979893","0.2788639118","0.1807688322","","","","","","","","","","","","76","L","3","","","158","main_expt"
"","bandit","238","616137","0.0-199.0-0.0","51594250","wem/bandit_either_2","A1YM0IWPC72J7V","either","4","182","","","","","","","0","0","1","0.3020710819","","0.6","0.2","0.8","0.4","","","","","0.1012897464","0.1009372764","0.3020710819","0.1516426412","","","","","","","","75","K","2","","","159","main_expt"
"","bandit","239","618265","0.0-200.0-0.0","51594250","wem/bandit_either_2","A1YM0IWPC72J7V","either","4","618","","","","","","","0","0","1","","0.05118862797","0.6","0.2","0.8","0.4","0.1188035868","0.05118862797","0.3404227007","0.1638698877","","","","","","","","","","","","74","J","1","","","160","main_expt"
"","bandit","240","620059","0.0-201.0-0.0","51594250","wem/bandit_either_2","A1YM0IWPC72J7V","either","4","285","","","","","","","0","0","1","","0.1606836622","0.6","0.2","0.8","0.4","0.1606836622","0.05265847637","0.2876249865","0.1645359983","","","","","","","","","","","","72","H","0","img/none_selected.jpg","","161","main_expt"
"","bandit","241","621728","0.0-202.0-0.0","51594250","wem/bandit_either_2","A1YM0IWPC72J7V","either","4","160","","","","","","","0","0","1","","0.07938684611","0.6","0.2","0.8","0.4","0.1859884171","0.07938684611","0.2401308511","0.2509918509","","","","","","","","","","","","74","J","1","","","162","main_expt"
"","bandit","242","623272","0.0-203.0-0.0","51594250","wem/bandit_either_2","A1YM0IWPC72J7V","either","4","39","","","","","","","0","0","1","","0.2486605046","0.6","0.2","0.8","0.4","0.2528258464","0.0970900163","0.2486605046","0.1883685458","","","","","","","","","","","","75","K","2","","","163","main_expt"
"","bandit","243","624859","0.0-204.0-0.0","51594250","wem/bandit_either_2","A1YM0IWPC72J7V","either","4","76","","","","","","","0","0","1","0.2179532334","","0.6","0.2","0.8","0.4","","","","","0.2515292425","0.07401968201","0.22675384","0.2179532334","","","","","","","","76","L","3","","","164","main_expt"
"","bandit","244","626665","0.0-205.0-0.0","51594250","wem/bandit_either_2","A1YM0IWPC72J7V","either","4","298","","","","","","","0","0","1","","0.2841151948","0.6","0.2","0.8","0.4","0.2068970429","0.06633104104","0.2841151948","0.2143704678","","","","","","","","","","","","75","K","2","","","165","main_expt"
"","bandit","245","628345","0.0-206.0-0.0","51594250","wem/bandit_either_2","A1YM0IWPC72J7V","either","4","173","","","","","","","0","0","1","","0.05309652092","0.6","0.2","0.8","0.4","0.1413778631","0.05309652092","0.2842980464","0.2175899085","","","","","","","","","","","","74","J","1","","","166","main_expt"
"","bandit","246","629936","0.0-207.0-0.0","51594250","wem/bandit_either_2","A1YM0IWPC72J7V","either","4","85","","","","","","","0","0","1","0.1999497975","","0.6","0.2","0.8","0.4","","","","","0.1999497975","0.07357446968","0.3007590714","0.2137120923","","","","","","","","72","H","0","img/none_selected.jpg","","167","main_expt"
"","bandit","247","632216","0.0-208.0-0.0","51594250","wem/bandit_either_2","A1YM0IWPC72J7V","either","4","774","","","","","","","0","0","1","","0.1054325378","0.6","0.2","0.8","0.4","0.1696145944","0.1054325378","0.2884936601","0.2331560811","","","","","","","","","","","","74","J","1","","","168","main_expt"
"","bandit","248","633864","0.0-209.0-0.0","51594250","wem/bandit_either_2","A1YM0IWPC72J7V","either","4","142","","","","","","","0","0","1","","0.2803439438","0.6","0.2","0.8","0.4","0.1338518967","0.08536867429","0.2803439438","0.2367963754","","","","","","","","","","","","75","K","2","","","169","main_expt"
"","bandit","249","635696","0.0-210.0-0.0","51594250","wem/bandit_either_2","A1YM0IWPC72J7V","either","4","326","","","","","","","0","0","1","","0.2378050175","0.6","0.2","0.8","0.4","0.1307598277","0.1083432756","0.3010437192","0.2378050175","","","","","","","","","","","","76","L","3","","","170","main_expt"
"","bandit","250","637475","0.0-211.0-0.0","51594250","wem/bandit_either_2","A1YM0IWPC72J7V","either","4","267","","","","","","","0","0","1","0.3243802095","","0.6","0.2","0.8","0.4","","","","","0.1200375331","0.09185370626","0.3243802095","0.2253696972","","","","","","","","75","K","2","","","171","main_expt"
"","bandit","251","639178","0.0-212.0-0.0","51594250","wem/bandit_either_2","A1YM0IWPC72J7V","either","4","189","","","","","","","0","0","1","0.09458096772","","0.6","0.2","0.8","0.4","","","","","0.07514546963","0.09458096772","0.3140094691","0.2903394368","","","","","","","","74","J","1","","","172","main_expt"
"","bandit","252","641025","0.0-213.0-0.0","51594250","wem/bandit_either_2","A1YM0IWPC72J7V","either","4","341","","","","","","","0","0","1","","0.07704486673","0.6","0.2","0.8","0.4","0.07704486673","0.1016296913","0.2433770114","0.2384828248","","","","","","","","","","","","72","H","0","img/none_selected.jpg","","173","main_expt"
"","bandit","253","642624","0.0-214.0-0.0","51594250","wem/bandit_either_2","A1YM0IWPC72J7V","either","4","93","","","","","","","0","0","1","","0.117107939","0.6","0.2","0.8","0.4","0.04061738922","0.117107939","0.2080779891","0.2823111034","","","","","","","","","","","","74","J","1","","","174","main_expt"
"","bandit","254","644672","0.0-215.0-0.0","51594250","wem/bandit_either_2","A1YM0IWPC72J7V","either","4","542","","","","","","","0","0","1","0.2211365803","","0.6","0.2","0.8","0.4","","","","","0.02968316822","0.1254773658","0.2211365803","0.292147578","","","","","","","","75","K","2","","","175","main_expt"
"","bandit","255","646481","0.0-216.0-0.0","51594250","wem/bandit_either_2","A1YM0IWPC72J7V","either","4","302","","","","","","","0","0","1","","0.2928295457","0.6","0.2","0.8","0.4","0.04419366322","0.1518856622","0.231280906","0.2928295457","","","","","","","","","","","","76","L","3","","","176","main_expt"
"","bandit","256","648568","0.0-217.0-0.0","51594250","wem/bandit_either_2","A1YM0IWPC72J7V","either","4","576","","","","","","","1","0","0","0.04140429262","","0.6","0.2","0.8","0.4","","","","","0.04140429262","0.1502483312","0.1689881391","0.297241693","","","","","","","","72","H","0","img/none_selected.jpg","","177","main_expt"
"","bandit","257","650112","0.0-218.0-0.0","51594250","wem/bandit_either_2","A1YM0IWPC72J7V","either","4","37","","","","","","","0","0","1","0.06103489621","","0.6","0.2","0.8","0.4","","","","","0.06103489621","0.2073149786","0.1699404395","0.276241128","","","","","","","","72","H","0","img/none_selected.jpg","","178","main_expt"
"","bandit","258","651768","0.0-219.0-0.0","51594250","wem/bandit_either_2","A1YM0IWPC72J7V","either","4","147","","","","","","","1","0","0","0.2405339857","","0.6","0.2","0.8","0.4","","","","","0.053608248","0.1928578162","0.1571972967","0.2405339857","","","","","","","","76","L","3","","","179","main_expt"
"","bandit","259","653520","0.0-220.0-0.0","51594250","wem/bandit_either_2","A1YM0IWPC72J7V","either","4","245","","","","","","","0","0","1","0.233428307","","0.6","0.2","0.8","0.4","","","","","0.06289379635","0.1412953234","0.1567782565","0.233428307","","","","","","","","76","L","3","","","180","main_expt"
"","bandit","260","655313","0.0-221.0-0.0","51594250","wem/bandit_either_2","A1YM0IWPC72J7V","either","4","286","","","","","","","0","0","1","0.1492691696","","0.6","0.2","0.8","0.4","","","","","0.07748386732","0.1258774719","0.1492691696","0.1459310114","","","","","","","","75","K","2","","","181","main_expt"
"","bandit","261","656986","0.0-222.0-0.0","51594250","wem/bandit_either_2","A1YM0IWPC72J7V","either","4","165","","","","","","","0","1","0","","0.1121960069","0.6","0.2","0.8","0.4","0.096714051","0.1121960069","0.1609613705","0.1796360657","","","","","","","","","","","","74","J","1","","","182","main_expt"
"","bandit","262","658698","0.0-223.0-0.0","51594250","wem/bandit_either_2","A1YM0IWPC72J7V","either","4","201","","","","","","","0","0","1","","0.08335286121","0.6","0.2","0.8","0.4","0.05351369794","0.08335286121","0.1982891881","0.1907874973","","","","","","","","","","","","74","J","1","","","183","main_expt"
"","bandit","263","660434","0.0-224.0-0.0","51594250","wem/bandit_either_2","A1YM0IWPC72J7V","either","4","227","","","","","","","0","0","1","0.08854511538","","0.6","0.2","0.8","0.4","","","","","0.08854511538","0.1085923678","0.1703318442","0.1451627339","","","","","","","","72","H","0","img/none_selected.jpg","","184","main_expt"
"","bandit","264","662216","0.0-225.0-0.0","51594250","wem/bandit_either_2","A1YM0IWPC72J7V","either","4","273","","","","","","","0","0","1","","0.1692531577","0.6","0.2","0.8","0.4","0.136385666","0.1113654269","0.09566746086","0.1692531577","","","","","","","","","","","","76","L","3","","","185","main_expt"
"","bandit","265","664056","0.0-226.0-0.0","51594250","wem/bandit_either_2","A1YM0IWPC72J7V","either","4","332","","","","","","","0","0","1","","0.1383531569","0.6","0.2","0.8","0.4","0.1848043888","0.1383531569","0.1254261761","0.1885113298","","","","","","","","","","","","74","J","1","","","186","main_expt"
"","bandit","266","665761","0.0-227.0-0.0","51594250","wem/bandit_either_2","A1YM0IWPC72J7V","either","4","198","","","","","","","1","0","0","0.1081798115","","0.6","0.2","0.8","0.4","","","","","0.1640989128","0.1739713275","0.1081798115","0.2088125345","","","","","","","","75","K","2","","","187","main_expt"
"","bandit","267","667308","0.0-228.0-0.0","51594250","wem/bandit_either_2","A1YM0IWPC72J7V","either","4","35","","","","","","","0","0","1","","0.08529062399","0.6","0.2","0.8","0.4","0.1301402021","0.1926366302","0.08529062399","0.2228369986","","","","","","","","","","","","75","K","2","","","188","main_expt"
"","bandit","268","669096","0.0-229.0-0.0","51594250","wem/bandit_either_2","A1YM0IWPC72J7V","either","4","282","","","","","","","0","0","1","","0.2567428292","0.6","0.2","0.8","0.4","0.1980942663","0.2499935398","0.07250281893","0.2567428292","","","","","","","","","","","","76","L","3","","","189","main_expt"
"","bandit","269","670784","0.0-230.0-0.0","51594250","wem/bandit_either_2","A1YM0IWPC72J7V","either","4","182","","","","","","","0","0","1","","0.1842725295","0.6","0.2","0.8","0.4","0.1842725295","0.2367317824","0.07895395147","0.3177850294","","","","","","","","","","","","72","H","0","img/none_selected.jpg","","190","main_expt"
"","bandit","270","672481","0.0-231.0-0.0","51594250","wem/bandit_either_2","A1YM0IWPC72J7V","either","4","187","","","","","","","0","0","1","0.06204701637","","0.6","0.2","0.8","0.4","","","","","0.2087081259","0.2515026666","0.06204701637","0.2876912335","","","","","","","","75","K","2","","","191","main_expt"
"","bandit","271","674889","0.0-232.0-0.0","51594250","wem/bandit_either_2","A1YM0IWPC72J7V","either","4","901","","","","","","","0","0","1","","0.2451916405","0.6","0.2","0.8","0.4","0.1800110976","0.2451916405","0.064067899","0.2383873749","","","","","","","","","","","","74","J","1","","","192","main_expt"
"","bandit","272","676800","0.0-233.0-0.0","51594250","wem/bandit_either_2","A1YM0IWPC72J7V","either","4","404","","","","","","","0","0","1","","0.1519186298","0.6","0.2","0.8","0.4","0.1519186298","0.2353451433","0.1286650472","0.24690957","","","","","","","","","","","","72","H","0","img/none_selected.jpg","","193","main_expt"
"","bandit","273","678873","0.0-234.0-0.0","51594250","wem/bandit_either_2","A1YM0IWPC72J7V","either","4","562","","","","","","","0","0","1","","0.307075739","0.6","0.2","0.8","0.4","0.1431656489","0.307075739","0.1746490116","0.2728455101","","","","","","","","","","","","74","J","1","","","194","main_expt"
"","bandit","274","680570","0.0-235.0-0.0","51594250","wem/bandit_either_2","A1YM0IWPC72J7V","either","4","186","","","","","","","0","0","1","0.129035247","","0.6","0.2","0.8","0.4","","","","","0.1868251083","0.3011001907","0.129035247","0.2421292151","","","","","","","","75","K","2","","","195","main_expt"
"","bandit","275","682242","0.0-236.0-0.0","51594250","wem/bandit_either_2","A1YM0IWPC72J7V","either","4","164","","","","","","","0","1","0","","0.2598052724","0.6","0.2","0.8","0.4","0.176624335","0.2861216794","0.09052040682","0.2598052724","","","","","","","","","","","","76","L","3","","","196","main_expt"
"","bandit","276","683945","0.0-237.0-0.0","51594250","wem/bandit_either_2","A1YM0IWPC72J7V","either","4","191","","","","","","","0","0","1","","0.2540930088","0.6","0.2","0.8","0.4","0.2383323772","0.2121549007","0.08675464884","0.2540930088","","","","","","","","","","","","76","L","3","","","197","main_expt"
"","bandit","277","685649","0.0-238.0-0.0","51594250","wem/bandit_either_2","A1YM0IWPC72J7V","either","4","196","","","","","","","1","0","0","0.09429549835","","0.6","0.2","0.8","0.4","","","","","0.260618614","0.260340052","0.09429549835","0.2460150375","","","","","","","","75","K","2","","","198","main_expt"
"","bandit","278","687425","0.0-239.0-0.0","51594250","wem/bandit_either_2","A1YM0IWPC72J7V","either","4","264","","","","","","","0","0","1","0.09303778716","","0.6","0.2","0.8","0.4","","","","","0.2935067364","0.3009562829","0.09303778716","0.2217343644","","","","","","","","75","K","2","","","199","main_expt"
"","bandit","279","689083","0.0-240.0-0.0","51594250","wem/bandit_either_2","A1YM0IWPC72J7V","either","4","144","","","","","","","0","0","1","0.3430896668","","0.6","0.2","0.8","0.4","","","","","0.362920627","0.3430896668","0.07354084322","0.2830302048","","","","","","","","74","J","1","","","200","main_expt"
"","bandit","280","690905","0.0-241.0-0.0","51594250","wem/bandit_either_2","A1YM0IWPC72J7V","either","4","312","","","","","","","0","0","1","","0.3119044903","0.6","0.2","0.8","0.4","0.3119044903","0.2973668079","0.08115367452","0.3175621279","","","","","","","","","","","","72","H","0","img/none_selected.jpg","","201","main_expt"
"","bandit","281","692713","0.0-242.0-0.0","51594250","wem/bandit_either_2","A1YM0IWPC72J7V","either","4","302","","","","","","","0","0","1","","0.3049471546","0.6","0.2","0.8","0.4","0.3095695708","0.3219337599","0.0774842685","0.3049471546","","","","","","","","","","","","76","L","3","","","202","main_expt"
"","bandit","282","694553","0.0-243.0-0.0","51594250","wem/bandit_either_2","A1YM0IWPC72J7V","either","4","332","","","","","","","1","0","0","0.09704724367","","0.6","0.2","0.8","0.4","","","","","0.3005459379","0.3229991028","0.09704724367","0.2975042969","","","","","","","","75","K","2","","","203","main_expt"
"","bandit","283","696153","0.0-244.0-0.0","51594250","wem/bandit_either_2","A1YM0IWPC72J7V","either","4","92","","","","","","","1","0","0","0.1224111047","","0.6","0.2","0.8","0.4","","","","","0.3116824409","0.3077995671","0.1224111047","0.2268457719","","","","","","","","75","K","2","","","204","main_expt"
"","bandit","284","697945","0.0-245.0-0.0","51594250","wem/bandit_either_2","A1YM0IWPC72J7V","either","4","279","","","","","","","0","0","1","0.1627664319","","0.6","0.2","0.8","0.4","","","","","0.3291635812","0.3070199156","0.1627664319","0.2582085449","","","","","","","","75","K","2","","","205","main_expt"
"","bandit","285","699601","0.0-246.0-0.0","51594250","wem/bandit_either_2","A1YM0IWPC72J7V","either","4","148","","","","","","","0","0","1","","0.3109683939","0.6","0.2","0.8","0.4","0.4008790519","0.3109683939","0.1604236747","0.2841247045","","","","","","","","","","","","74","J","1","","","206","main_expt"
"","bandit","286","701393","0.0-247.0-0.0","51594250","wem/bandit_either_2","A1YM0IWPC72J7V","either","4","282","","","","","","","0","0","1","0.4202180382","","0.6","0.2","0.8","0.4","","","","","0.4202180382","0.2845075958","0.126388554","0.3333225396","","","","","","","","72","H","0","img/none_selected.jpg","","207","main_expt"
"","bandit","287","703193","0.0-248.0-0.0","51594250","wem/bandit_either_2","A1YM0IWPC72J7V","either","4","293","","","","","","","0","0","1","0.2419557814","","0.6","0.2","0.8","0.4","","","","","0.4168586074","0.2419557814","0.1602309633","0.290219871","","","","","","","","74","J","1","","","208","main_expt"
"","bandit","288","705000","0.0-249.0-0.0","51594250","wem/bandit_either_2","A1YM0IWPC72J7V","either","4","301","","","","","","","0","0","1","","0.2009997365","0.6","0.2","0.8","0.4","0.3949328033","0.2449545816","0.2009997365","0.3426384504","","","","","","","","","","","","75","K","2","","","209","main_expt"
"","bandit","289","706633","0.0-250.0-0.0","51594250","wem/bandit_either_2","A1YM0IWPC72J7V","either","4","117","","","","","","","1","0","0","0.2932754766","","0.6","0.2","0.8","0.4","","","","","0.41782505","0.2176860071","0.1997114924","0.2932754766","","","","","","","","76","L","3","","","210","main_expt"
"","bandit","290","708193","0.0-251.0-0.0","51594250","wem/bandit_either_2","A1YM0IWPC72J7V","either","4","52","","","","","","","0","0","1","","0.2522206247","0.6","0.2","0.8","0.4","0.4377941382","0.2460847292","0.2631807131","0.2522206247","","","","","","","","","","","","76","L","3","","","211","main_expt"
"","bandit","291","710081","0.0-252.0-0.0","51594250","wem/bandit_either_2","A1YM0IWPC72J7V","either","4","381","","","","","","","0","0","1","0.2008991105","","0.6","0.2","0.8","0.4","","","","","0.4619006446","0.2017704833","0.2008991105","0.2323705111","","","","","","","","75","K","2","","","212","main_expt"
"","bandit","292","711912","0.0-253.0-0.0","51594250","wem/bandit_either_2","A1YM0IWPC72J7V","either","4","324","","","","","","","0","0","1","","0.1891715169","0.6","0.2","0.8","0.4","0.4508737721","0.1891715169","0.1656487101","0.2815580385","","","","","","","","","","","","74","J","1","","","213","main_expt"
"","bandit","293","713690","0.0-254.0-0.0","51594250","wem/bandit_either_2","A1YM0IWPC72J7V","either","4","271","","","","","","","0","0","1","0.4639731149","","0.6","0.2","0.8","0.4","","","","","0.4639731149","0.1819308411","0.213788386","0.2955812139","","","","","","","","72","H","0","img/none_selected.jpg","","214","main_expt"
"","bandit","294","715408","0.0-255.0-0.0","51594250","wem/bandit_either_2","A1YM0IWPC72J7V","either","4","212","","","","","","","0","0","1","","0.1406935411","0.6","0.2","0.8","0.4","0.4690757113","0.1406935411","0.2206736926","0.2988647484","","","","","","","","","","","","74","J","1","","","215","main_expt"
"","bandit","295","717113","0.0-256.0-0.0","51594250","wem/bandit_either_2","A1YM0IWPC72J7V","either","4","197","","","","","","","1","0","0","0.2270120675","","0.6","0.2","0.8","0.4","","","","","0.4685680314","0.206739756","0.2270120675","0.3361974059","","","","","","","","75","K","2","","","216","main_expt"
"","bandit","296","718650","0.0-257.0-0.0","51594250","wem/bandit_either_2","A1YM0IWPC72J7V","either","4","19","","","","","","","1","0","0","0.2561581829","","0.6","0.2","0.8","0.4","","","","","0.4873952874","0.178624692","0.2561581829","0.2764506131","","","","","","","","75","K","2","","","217","main_expt"
"","bandit","297","720434","0.0-258.0-0.0","51594250","wem/bandit_either_2","A1YM0IWPC72J7V","either","4","261","","","","","","","1","0","0","0.2785758431","","0.6","0.2","0.8","0.4","","","","","0.4790671899","0.2021641755","0.2785758431","0.299893698","","","","","","","","75","K","2","","","218","main_expt"
"","bandit","298","722218","0.0-259.0-0.0","51594250","wem/bandit_either_2","A1YM0IWPC72J7V","either","4","275","","","","","","","0","0","1","","0.2707863597","0.6","0.2","0.8","0.4","0.4769795117","0.2076996705","0.2707863597","0.3213687962","","","","","","","","","","","","75","K","2","","","219","main_expt"
"","bandit","299","723996","0.0-260.0-0.0","51594250","wem/bandit_either_2","A1YM0IWPC72J7V","either","4","263","","","","","","","0","0","1","","0.3782095139","0.6","0.2","0.8","0.4","0.4746148145","0.2479045362","0.2262269101","0.3782095139","","","","","","","","","","","","76","L","3","","","220","main_expt"
"","bandit","300","725625","0.0-261.0-0.0","51594250","wem/bandit_either_2","A1YM0IWPC72J7V","either","4","121","","","","","","","0","0","1","","0.2522421151","0.6","0.2","0.8","0.4","0.4789253058","0.251163546","0.2522421151","0.3572699546","","","","","","","","","","","","75","K","2","","","221","main_expt"
"","bandit","301","727494","0.0-262.0-0.0","51594250","wem/bandit_either_2","A1YM0IWPC72J7V","either","4","355","","","","","","","0","0","1","","0.2653622565","0.6","0.2","0.8","0.4","0.4765400837","0.2653622565","0.2323100388","0.332217079","","","","","","","","","","","","74","J","1","","","222","main_expt"
"","bandit","302","729336","0.0-263.0-0.0","51594250","wem/bandit_either_2","A1YM0IWPC72J7V","either","4","333","","","","","","","0","1","0","","0.4872993944","0.6","0.2","0.8","0.4","0.4872993944","0.2034578964","0.2013525365","0.3327789551","","","","","","","","","","","","72","H","0","img/none_selected.jpg","","223","main_expt"
"","bandit","303","731200","0.0-264.0-0.0","51594250","wem/bandit_either_2","A1YM0IWPC72J7V","either","4","358","","","","","","","0","0","1","0.4864577786","","0.6","0.2","0.8","0.4","","","","","0.4864577786","0.1176985371","0.2017363432","0.3720138676","","","","","","","","72","H","0","img/none_selected.jpg","","224","main_expt"
"","bandit","304","733048","0.0-265.0-0.0","51594250","wem/bandit_either_2","A1YM0IWPC72J7V","either","4","342","","","","","","","0","0","1","0.08531446518","","0.6","0.2","0.8","0.4","","","","","0.4815865163","0.08531446518","0.1608447522","0.4035982493","","","","","","","","74","J","1","","","225","main_expt"
"","bandit","305","734785","0.0-266.0-0.0","51594250","wem/bandit_either_2","A1YM0IWPC72J7V","either","4","231","","","","","","","0","0","1","0.2023183299","","0.6","0.2","0.8","0.4","","","","","0.4781941344","0.0901010045","0.2023183299","0.3538577565","","","","","","","","75","K","2","","","226","main_expt"
"","bandit","306","736609","0.0-267.0-0.0","51594250","wem/bandit_either_2","A1YM0IWPC72J7V","either","4","316","","","","","","","0","0","1","","0.4205879778","0.6","0.2","0.8","0.4","0.4742279627","0.06499555022","0.1555458008","0.4205879778","","","","","","","","","","","","76","L","3","","","227","main_expt"
"","bandit","307","738472","0.0-268.0-0.0","51594250","wem/bandit_either_2","A1YM0IWPC72J7V","either","4","357","","","","","","","0","0","1","0.1210896773","","0.6","0.2","0.8","0.4","","","","","0.4597327255","0.06967502077","0.1210896773","0.4082381823","","","","","","","","75","K","2","","","228","main_expt"
"","bandit","308","740384","0.0-269.0-0.0","51594250","wem/bandit_either_2","A1YM0IWPC72J7V","either","4","405","","","","","","","0","0","1","","0.07642173418","0.6","0.2","0.8","0.4","0.4733003713","0.07642173418","0.1206830913","0.4274963613","","","","","","","","","","","","74","J","1","","","229","main_expt"
"","bandit","309","742035","0.0-270.0-0.0","51594250","wem/bandit_either_2","A1YM0IWPC72J7V","either","4","141","","","","","","","0","1","0","","0.4832022084","0.6","0.2","0.8","0.4","0.4832022084","0.04973788902","0.1334008039","0.4362488765","","","","","","","","","","","","72","H","0","img/none_selected.jpg","","230","main_expt"
"","bandit","310","743715","0.0-271.0-0.0","51594250","wem/bandit_either_2","A1YM0IWPC72J7V","either","4","164","","","","","","","1","0","0","0.4802630573","","0.6","0.2","0.8","0.4","","","","","0.4802630573","0.07419495466","0.1048467088","0.4420629534","","","","","","","","72","H","0","img/none_selected.jpg","","231","main_expt"
"","bandit","311","745450","0.0-272.0-0.0","51594250","wem/bandit_either_2","A1YM0IWPC72J7V","either","4","225","","","","","","","1","0","0","0.4739318499","","0.6","0.2","0.8","0.4","","","","","0.4739318499","0.08125260149","0.1184002818","0.4287414635","","","","","","","","72","H","0","img/none_selected.jpg","","232","main_expt"
"","bandit","312","747217","0.0-273.0-0.0","51594250","wem/bandit_either_2","A1YM0IWPC72J7V","either","4","255","","","","","","","0","0","1","0.4709765286","","0.6","0.2","0.8","0.4","","","","","0.4709765286","0.06057073796","0.08533064469","0.4395511981","","","","","","","","72","H","0","img/none_selected.jpg","","233","main_expt"
"","bandit","313","748905","0.0-274.0-0.0","51594250","wem/bandit_either_2","A1YM0IWPC72J7V","either","4","177","","","","","","","0","0","1","","0.1037411708","0.6","0.2","0.8","0.4","0.4658145356","0.1037411708","0.1190123434","0.4479240545","","","","","","","","","","","","74","J","1","","","234","main_expt"
"","bandit","314","750656","0.0-275.0-0.0","51594250","wem/bandit_either_2","A1YM0IWPC72J7V","either","4","239","","","","","","","0","0","1","0.1392024459","","0.6","0.2","0.8","0.4","","","","","0.4312508187","0.1267441937","0.1392024459","0.4476644646","","","","","","","","75","K","2","","","235","main_expt"
"","bandit","315","752296","0.0-276.0-0.0","51594250","wem/bandit_either_2","A1YM0IWPC72J7V","either","4","133","","","","","","","0","0","1","0.457106966","","0.6","0.2","0.8","0.4","","","","","0.4323277229","0.1002206095","0.1076242464","0.457106966","","","","","","","","76","L","3","","","236","main_expt"
"","bandit","316","754024","0.0-277.0-0.0","51594250","wem/bandit_either_2","A1YM0IWPC72J7V","either","4","221","","","","","","","0","0","1","","0.1539911713","0.6","0.2","0.8","0.4","0.4517679415","0.08353940566","0.1539911713","0.4097288684","","","","","","","","","","","","75","K","2","","","237","main_expt"
"","bandit","317","755729","0.0-278.0-0.0","51594250","wem/bandit_either_2","A1YM0IWPC72J7V","either","4","197","","","","","","","0","0","1","","0.07847158511","0.6","0.2","0.8","0.4","0.4476427196","0.07847158511","0.1833253983","0.4530646831","","","","","","","","","","","","74","J","1","","","238","main_expt"
"","bandit","318","757633","0.0-279.0-0.0","51594250","wem/bandit_either_2","A1YM0IWPC72J7V","either","4","396","","","","","","","0","1","0","","0.4421551546","0.6","0.2","0.8","0.4","0.4421551546","0.1132310855","0.185515968","0.4532148127","","","","","","","","","","","","72","H","0","img/none_selected.jpg","","239","main_expt"
"","bandit","319","759481","0.0-280.0-0.0","51594250","wem/bandit_either_2","A1YM0IWPC72J7V","either","4","326","","","","","","","1","0","0","0.4205303603","","0.6","0.2","0.8","0.4","","","","","0.4205303603","0.130249024","0.2545144829","0.4456906816","","","","","","","","72","H","0","img/none_selected.jpg","","240","main_expt"
"","bandit","320","761329","0.0-281.0-0.0","51594250","wem/bandit_either_2","A1YM0IWPC72J7V","either","4","341","","","","","","","0","0","1","","0.4304808994","0.6","0.2","0.8","0.4","0.4304808994","0.1356270161","0.1902236802","0.4515134246","","","","","","","","","","","","72","H","0","img/none_selected.jpg","","241","main_expt"
"","bandit","321","763137","0.0-282.0-0.0","51594250","wem/bandit_either_2","A1YM0IWPC72J7V","either","4","301","","","","","","","0","0","1","","0.1402569013","0.6","0.2","0.8","0.4","0.4318168925","0.1402569013","0.2196571485","0.4640222466","","","","","","","","","","","","74","J","1","","","242","main_expt"
"","bandit","322","764985","0.0-283.0-0.0","51594250","wem/bandit_either_2","A1YM0IWPC72J7V","either","4","339","","","","","","","0","0","1","0.2691755858","","0.6","0.2","0.8","0.4","","","","","0.4437639365","0.1851652895","0.2691755858","0.4305348251","","","","","","","","75","K","2","","","243","main_expt"
"","bandit","323","766946","0.0-284.0-0.0","51594250","wem/bandit_either_2","A1YM0IWPC72J7V","either","4","454","","","","","","","1","0","0","0.4444417595","","0.6","0.2","0.8","0.4","","","","","0.4444545885","0.1871667761","0.2689580194","0.4444417595","","","","","","","","76","L","3","","","244","main_expt"
"","bandit","324","793424","0.0-285.0-0.0","51594250","wem/bandit_either_2","A1YM0IWPC72J7V","either","4","24967","","","","","","","0","0","1","0.445216333","","0.6","0.2","0.8","0.4","","","","","0.445216333","0.1881322931","0.1935089033","0.4468105605","","","","","","","","72","H","0","img/none_selected.jpg","","245","main_expt"
"","bandit","325","796320","0.0-286.0-0.0","51594250","wem/bandit_either_2","A1YM0IWPC72J7V","either","4","1378","","","","","","","0","0","1","","0.1466547275","0.6","0.2","0.8","0.4","0.4767449203","0.187853128","0.1466547275","0.4453418505","","","","","","","","","","","","75","K","2","","","246","main_expt"
"","bandit","326","798728","0.0-287.0-0.0","51594250","wem/bandit_either_2","A1YM0IWPC72J7V","either","4","901","","","","","","","0","0","1","","0.4426138654","0.6","0.2","0.8","0.4","0.4530054638","0.1952756904","0.1275107348","0.4426138654","","","","","","","","","","","","76","L","3","","","247","main_expt"
"","bandit","327","800376","0.0-288.0-0.0","51594250","wem/bandit_either_2","A1YM0IWPC72J7V","either","4","137","","","","","","","0","1","0","","0.1722543521","0.6","0.2","0.8","0.4","0.4326938674","0.1722543521","0.107785627","0.464375056","","","","","","","","","","","","74","J","1","","","248","main_expt"
