"consent","trial_type","trial_index","time_elapsed","internal_node_id","subjID","study","MID","cond","drift","rt","responses","key_press","expt_phase","like","value","connected","gems","bombs","no_reward","GemPrChosen","BombPrChosen","GainOverPainPr_0","GainOverPainPr_1","GainOverPainPr_2","GainOverPainPr_3","LosePr_0","LosePr_1","LosePr_2","LosePr_3","WinPr_0","WinPr_1","WinPr_2","WinPr_3","Q0","Q1","Q2","gender","age","ethnicity","target","respCharCode","respKey","respChoiceNum","respChoice","practice","trial_counter","trial_label"
"INL_behavioral_consent_30min_online.html","consent","0","9981","0.0-0.0","51837131","wem/bandit_either_2","A37SC1GEPN73AN","either","7","","","","","","","","","","","","","","","","","","","","","","","","","","","","","","","","","","","","","",""
"","survey-text","1","12824","0.0-1.0","51837131","wem/bandit_either_2","A37SC1GEPN73AN","either","7","1826","{""Q0"":""A37SC1GEPN73AN""}","","","","","","","","","","","","","","","","","","","","","","","","","","","","","","","","","","","",""
"","text","2","34783","0.0-2.0","51837131","wem/bandit_either_2","A37SC1GEPN73AN","either","7","20955","","32","","","","","","","","","","","","","","","","","","","","","","","","","","","","","","","","","","",""
"","text","3","39686","0.0-3.0","51837131","wem/bandit_either_2","A37SC1GEPN73AN","either","7","4900","","32","","","","","","","","","","","","","","","","","","","","","","","","","","","","","","","","","","",""
"","text","4","44451","0.0-4.0","51837131","wem/bandit_either_2","A37SC1GEPN73AN","either","7","4761","","32","","","","","","","","","","","","","","","","","","","","","","","","","","","","","","","","","","",""
"","text","5","45072","0.0-5.0","51837131","wem/bandit_either_2","A37SC1GEPN73AN","either","7","618","","32","","","","","","","","","","","","","","","","","","","","","","","","","","","","","","","","","","",""
"","text","6","63546","0.0-6.0","51837131","wem/bandit_either_2","A37SC1GEPN73AN","either","7","18471","","32","","","","","","","","","","","","","","","","","","","","","","","","","","","","","","","","","","",""
"","text","7","80934","0.0-7.0","51837131","wem/bandit_either_2","A37SC1GEPN73AN","either","7","17384","","32","","","","","","","","","","","","","","","","","","","","","","","","","","","","","","","","","","",""
"","text","8","240601","0.0-8.0","51837131","wem/bandit_either_2","A37SC1GEPN73AN","either","7","159665","","32","","","","","","","","","","","","","","","","","","","","","","","","","","","","","","","","","","",""
"","identification","9","245142","0.0-9.0-0.0","51837131","wem/bandit_either_2","A37SC1GEPN73AN","either","7","4504","","","","4","4","4","","","","","","","","","","","","","","","","","","","","","","","","the village of Zur","","","","","","",""
"","identification","10","251280","0.0-9.0-1.0","51837131","wem/bandit_either_2","A37SC1GEPN73AN","either","7","5104","","","","3","2","2","","","","","","","","","","","","","","","","","","","","","","","","the village of Nyx","","","","","","",""
"","text","11","256341","0.0-10.0","51837131","wem/bandit_either_2","A37SC1GEPN73AN","either","7","4052","","32","","","","","","","","","","","","","","","","","","","","","","","","","","","","","","","","","","",""
"","text","12","256883","0.0-11.0","51837131","wem/bandit_either_2","A37SC1GEPN73AN","either","7","539","","32","","","","","","","","","","","","","","","","","","","","","","","","","","","","","","","","","","",""
"","text","13","258599","0.0-12.0","51837131","wem/bandit_either_2","A37SC1GEPN73AN","either","7","1713","","32","","","","","","","","","","","","","","","","","","","","","","","","","","","","","","","","","","",""
"","text","14","260044","0.0-13.0","51837131","wem/bandit_either_2","A37SC1GEPN73AN","either","7","1440","","32","","","","","","","","","","","","","","","","","","","","","","","","","","","","","","","","","","",""
"","bandit","15","264027","0.0-14.0-0.0","51837131","wem/bandit_either_2","A37SC1GEPN73AN","either","7","2467","","","","","","","0","0","1","0","0","","","","","0","","","","0","","","","","","","","","","","74","J","0","img/none_selected_demo.jpg","true","0",""
"","bandit","16","267016","0.0-15.0-0.0","51837131","wem/bandit_either_2","A37SC1GEPN73AN","either","7","1474","","","","","","","0","0","1","0","0","","","","","0","","","","0","","","","","","","","","","","75","K","0","img/none_selected_demo.jpg","true","0",""
"","text","17","271960","0.0-16.0","51837131","wem/bandit_either_2","A37SC1GEPN73AN","either","7","4940","","32","","","","","","","","","","","","","","","","","","","","","","","","","","","","","","","","","","",""
"","text","18","320113","0.0-17.0","51837131","wem/bandit_either_2","A37SC1GEPN73AN","either","7","48148","","32","","","","","","","","","","","","","","","","","","","","","","","","","","","","","","","","","","",""
"","text","19","320751","0.0-18.0","51837131","wem/bandit_either_2","A37SC1GEPN73AN","either","7","634","","32","","","","","","","","","","","","","","","","","","","","","","","","","","","","","","","","","","",""
"","text","20","321802","0.0-19.0","51837131","wem/bandit_either_2","A37SC1GEPN73AN","either","7","1047","","32","","","","","","","","","","","","","","","","","","","","","","","","","","","","","","","","","","",""
"","bandit","21","474507","0.0-20.0-0.0","51837131","wem/bandit_either_2","A37SC1GEPN73AN","either","7","151188","","","","","","","1","0","0","0.8","","0.5","0.5","","","","","","","0.8","0.2","","","","","","","","","","74","J","0","img/none_selected_demo.jpg","true","0","80_20_practice"
"","bandit","22","476365","0.0-20.0-1.0","51837131","wem/bandit_either_2","A37SC1GEPN73AN","either","7","333","","","","","","","0","1","0","","0.8","0.5","0.5","","","0.8","0.2","","","","","","","","","","","","","","74","J","0","img/none_selected_demo.jpg","true","0","80_20_practice"
"","bandit","23","478149","0.0-20.0-2.0","51837131","wem/bandit_either_2","A37SC1GEPN73AN","either","7","274","","","","","","","0","0","1","","0.8","0.5","0.5","","","0.8","0.2","","","","","","","","","","","","","","74","J","0","img/none_selected_demo.jpg","true","0","80_20_practice"
"","bandit","24","479820","0.0-20.0-3.0","51837131","wem/bandit_either_2","A37SC1GEPN73AN","either","7","164","","","","","","","0","1","0","","0.8","0.5","0.5","","","0.8","0.2","","","","","","","","","","","","","","74","J","0","img/none_selected_demo.jpg","true","0","80_20_practice"
"","bandit","25","481401","0.0-20.0-4.0","51837131","wem/bandit_either_2","A37SC1GEPN73AN","either","7","70","","","","","","","0","1","0","","0.8","0.5","0.5","","","0.8","0.2","","","","","","","","","","","","","","74","J","0","img/none_selected_demo.jpg","true","0","80_20_practice"
"","bandit","26","483167","0.0-20.0-5.0","51837131","wem/bandit_either_2","A37SC1GEPN73AN","either","7","255","","","","","","","0","1","0","","0.8","0.5","0.5","","","0.8","0.2","","","","","","","","","","","","","","74","J","0","img/none_selected_demo.jpg","true","0","80_20_practice"
"","bandit","27","484935","0.0-20.0-6.0","51837131","wem/bandit_either_2","A37SC1GEPN73AN","either","7","253","","","","","","","0","1","0","","0.8","0.5","0.5","","","0.8","0.2","","","","","","","","","","","","","","74","J","0","img/none_selected_demo.jpg","true","0","80_20_practice"
"","bandit","28","486568","0.0-20.0-7.0","51837131","wem/bandit_either_2","A37SC1GEPN73AN","either","7","123","","","","","","","1","0","0","0.8","","0.5","0.5","","","","","","","0.8","0.2","","","","","","","","","","74","J","0","img/none_selected_demo.jpg","true","0","80_20_practice"
"","bandit","29","488401","0.0-20.0-8.0","51837131","wem/bandit_either_2","A37SC1GEPN73AN","either","7","319","","","","","","","1","0","0","0.8","","0.5","0.5","","","","","","","0.8","0.2","","","","","","","","","","74","J","0","img/none_selected_demo.jpg","true","0","80_20_practice"
"","bandit","30","490251","0.0-20.0-9.0","51837131","wem/bandit_either_2","A37SC1GEPN73AN","either","7","316","","","","","","","1","0","0","0.8","","0.5","0.5","","","","","","","0.8","0.2","","","","","","","","","","74","J","0","img/none_selected_demo.jpg","true","0","80_20_practice"
"","bandit","31","492063","0.0-20.0-10.0","51837131","wem/bandit_either_2","A37SC1GEPN73AN","either","7","298","","","","","","","0","1","0","","0.8","0.5","0.5","","","0.8","0.2","","","","","","","","","","","","","","74","J","0","img/none_selected_demo.jpg","true","0","80_20_practice"
"","bandit","32","494036","0.0-20.0-11.0","51837131","wem/bandit_either_2","A37SC1GEPN73AN","either","7","461","","","","","","","0","0","1","0.8","","0.5","0.5","","","","","","","0.8","0.2","","","","","","","","","","74","J","0","img/none_selected_demo.jpg","true","0","80_20_practice"
"","bandit","33","496212","0.0-20.0-12.0","51837131","wem/bandit_either_2","A37SC1GEPN73AN","either","7","661","","","","","","","0","0","1","0.8","","0.5","0.5","","","","","","","0.8","0.2","","","","","","","","","","74","J","0","img/none_selected_demo.jpg","true","0","80_20_practice"
"","bandit","34","498010","0.0-20.0-13.0","51837131","wem/bandit_either_2","A37SC1GEPN73AN","either","7","283","","","","","","","0","1","0","","0.8","0.5","0.5","","","0.8","0.2","","","","","","","","","","","","","","74","J","0","img/none_selected_demo.jpg","true","0","80_20_practice"
"","bandit","35","499845","0.0-20.0-14.0","51837131","wem/bandit_either_2","A37SC1GEPN73AN","either","7","319","","","","","","","0","1","0","","0.8","0.5","0.5","","","0.8","0.2","","","","","","","","","","","","","","74","J","0","img/none_selected_demo.jpg","true","0","80_20_practice"
"","bandit","36","501728","0.0-20.0-15.0","51837131","wem/bandit_either_2","A37SC1GEPN73AN","either","7","372","","","","","","","0","1","0","","0.8","0.5","0.5","","","0.8","0.2","","","","","","","","","","","","","","74","J","0","img/none_selected_demo.jpg","true","0","80_20_practice"
"","bandit","37","503645","0.0-20.0-16.0","51837131","wem/bandit_either_2","A37SC1GEPN73AN","either","7","406","","","","","","","1","0","0","0.8","","0.5","0.5","","","","","","","0.8","0.2","","","","","","","","","","74","J","0","img/none_selected_demo.jpg","true","0","80_20_practice"
"","bandit","38","505553","0.0-20.0-17.0","51837131","wem/bandit_either_2","A37SC1GEPN73AN","either","7","387","","","","","","","0","0","1","0.8","","0.5","0.5","","","","","","","0.8","0.2","","","","","","","","","","74","J","0","img/none_selected_demo.jpg","true","0","80_20_practice"
"","bandit","39","507652","0.0-20.0-18.0","51837131","wem/bandit_either_2","A37SC1GEPN73AN","either","7","588","","","","","","","0","1","0","","0.8","0.5","0.5","","","0.8","0.2","","","","","","","","","","","","","","74","J","0","img/none_selected_demo.jpg","true","0","80_20_practice"
"","bandit","40","509489","0.0-20.0-19.0","51837131","wem/bandit_either_2","A37SC1GEPN73AN","either","7","325","","","","","","","0","1","0","","0.8","0.5","0.5","","","0.8","0.2","","","","","","","","","","","","","","74","J","0","img/none_selected_demo.jpg","true","0","80_20_practice"
"","text","41","511037","0.0-21.0","51837131","wem/bandit_either_2","A37SC1GEPN73AN","either","7","1539","","32","","","","","","","","","","","","","","","","","","","","","","","","","","","","","","","","","","",""
"","bandit","42","513577","0.0-22.0-0.0","51837131","wem/bandit_either_2","A37SC1GEPN73AN","either","7","1024","","","","","","","1","0","0","1","0","","","","","0","1","","","1","0","","","","","","","","","","74","J","0","img/none_selected_demo.jpg","true","0",""
"","text","43","514613","0.0-23.0","51837131","wem/bandit_either_2","A37SC1GEPN73AN","either","7","1029","","32","","","","","","","","","","","","","","","","","","","","","","","","","","","","","","","","","","",""
"","text","44","515605","0.0-24.0","51837131","wem/bandit_either_2","A37SC1GEPN73AN","either","7","989","","32","","","","","","","","","","","","","","","","","","","","","","","","","","","","","","","","","","",""
"","text","45","516010","0.0-25.0","51837131","wem/bandit_either_2","A37SC1GEPN73AN","either","7","401","","32","","","","","","","","","","","","","","","","","","","","","","","","","","","","","","","","","","",""
"","text","46","516356","0.0-26.0","51837131","wem/bandit_either_2","A37SC1GEPN73AN","either","7","342","","32","","","","","","","","","","","","","","","","","","","","","","","","","","","","","","","","","","",""
"","text","47","516841","0.0-27.0","51837131","wem/bandit_either_2","A37SC1GEPN73AN","either","7","479","","32","","","","","","","","","","","","","","","","","","","","","","","","","","","","","","","","","","",""
"","text","48","517410","0.0-28.0","51837131","wem/bandit_either_2","A37SC1GEPN73AN","either","7","561","","32","","","","","","","","","","","","","","","","","","","","","","","","","","","","","","","","","","",""
"","text","49","517913","0.0-29.0","51837131","wem/bandit_either_2","A37SC1GEPN73AN","either","7","499","","32","","","","","","","","","","","","","","","","","","","","","","","","","","","","","","","","","","",""
"","text","50","518880","0.0-30.0","51837131","wem/bandit_either_2","A37SC1GEPN73AN","either","7","962","","32","","","","","","","","","","","","","","","","","","","","","","","","","","","","","","","","","","",""
"","text","51","519571","0.0-31.0","51837131","wem/bandit_either_2","A37SC1GEPN73AN","either","7","687","","32","","","","","","","","","","","","","","","","","","","","","","","","","","","","","","","","","","",""
"","text","52","520916","0.0-32.0","51837131","wem/bandit_either_2","A37SC1GEPN73AN","either","7","1340","","32","","","","","","","","","","","","","","","","","","","","","","","","","","","","","","","","","","",""
"","text","53","522577","0.0-33.0","51837131","wem/bandit_either_2","A37SC1GEPN73AN","either","7","1657","","32","","","","","","","","","","","","","","","","","","","","","","","","","","","","","","","","","","",""
"","bandit","54","525574","0.0-34.0-0.0","51837131","wem/bandit_either_2","A37SC1GEPN73AN","either","7","1488","","","","","","","0","1","0","","0.8","0.5","0.5","0.5","0.5","0.8","0.2","0.6","0.2","","","","","","","","","","","","72","H","0","img/none_selected.jpg","true","0","full_practice"
"","bandit","55","527676","0.0-34.0-1.0","51837131","wem/bandit_either_2","A37SC1GEPN73AN","either","7","584","","","","","","","1","0","0","0.8","","0.5","0.5","0.5","0.5","","","","","0.8","0.2","0.6","0.2","","","","","","","","72","H","0","img/none_selected.jpg","true","0","full_practice"
"","bandit","56","529701","0.0-34.0-2.0","51837131","wem/bandit_either_2","A37SC1GEPN73AN","either","7","514","","","","","","","0","1","0","","0.8","0.5","0.5","0.5","0.5","0.8","0.2","0.6","0.2","","","","","","","","","","","","72","H","0","img/none_selected.jpg","true","0","full_practice"
"","bandit","57","531718","0.0-34.0-3.0","51837131","wem/bandit_either_2","A37SC1GEPN73AN","either","7","507","","","","","","","0","1","0","","0.8","0.5","0.5","0.5","0.5","0.8","0.2","0.6","0.2","","","","","","","","","","","","72","H","0","img/none_selected.jpg","true","0","full_practice"
"","bandit","58","533557","0.0-34.0-4.0","51837131","wem/bandit_either_2","A37SC1GEPN73AN","either","7","316","","","","","","","0","0","1","0.2","","0.5","0.5","0.5","0.5","","","","","0.8","0.2","0.6","0.2","","","","","","","","74","J","1","","true","0","full_practice"
"","bandit","59","535407","0.0-34.0-5.0","51837131","wem/bandit_either_2","A37SC1GEPN73AN","either","7","334","","","","","","","1","0","0","0.6","","0.5","0.5","0.5","0.5","","","","","0.8","0.2","0.6","0.2","","","","","","","","75","K","2","","true","0","full_practice"
"","bandit","60","537438","0.0-34.0-6.0","51837131","wem/bandit_either_2","A37SC1GEPN73AN","either","7","515","","","","","","","0","0","1","","0.6","0.5","0.5","0.5","0.5","0.8","0.2","0.6","0.2","","","","","","","","","","","","75","K","2","","true","0","full_practice"
"","bandit","61","539272","0.0-34.0-7.0","51837131","wem/bandit_either_2","A37SC1GEPN73AN","either","7","323","","","","","","","0","0","1","0.6","","0.5","0.5","0.5","0.5","","","","","0.8","0.2","0.6","0.2","","","","","","","","75","K","2","","true","0","full_practice"
"","bandit","62","540913","0.0-34.0-8.0","51837131","wem/bandit_either_2","A37SC1GEPN73AN","either","7","117","","","","","","","1","0","0","0.8","","0.5","0.5","0.5","0.5","","","","","0.8","0.2","0.6","0.2","","","","","","","","72","H","0","img/none_selected.jpg","true","0","full_practice"
"","bandit","63","542935","0.0-34.0-9.0","51837131","wem/bandit_either_2","A37SC1GEPN73AN","either","7","511","","","","","","","1","0","0","0.8","","0.5","0.5","0.5","0.5","","","","","0.8","0.2","0.6","0.2","","","","","","","","72","H","0","img/none_selected.jpg","true","0","full_practice"
"","bandit","64","544850","0.0-34.0-10.0","51837131","wem/bandit_either_2","A37SC1GEPN73AN","either","7","404","","","","","","","1","0","0","0.8","","0.5","0.5","0.5","0.5","","","","","0.8","0.2","0.6","0.2","","","","","","","","72","H","0","img/none_selected.jpg","true","0","full_practice"
"","bandit","65","546882","0.0-34.0-11.0","51837131","wem/bandit_either_2","A37SC1GEPN73AN","either","7","520","","","","","","","1","0","0","0.8","","0.5","0.5","0.5","0.5","","","","","0.8","0.2","0.6","0.2","","","","","","","","72","H","0","img/none_selected.jpg","true","0","full_practice"
"","bandit","66","548760","0.0-34.0-12.0","51837131","wem/bandit_either_2","A37SC1GEPN73AN","either","7","366","","","","","","","0","1","0","","0.8","0.5","0.5","0.5","0.5","0.8","0.2","0.6","0.2","","","","","","","","","","","","72","H","0","img/none_selected.jpg","true","0","full_practice"
"","bandit","67","551376","0.0-34.0-13.0","51837131","wem/bandit_either_2","A37SC1GEPN73AN","either","7","1102","","","","","","","1","0","0","0.8","","0.5","0.5","0.5","0.5","","","","","0.8","0.2","0.6","0.2","","","","","","","","72","H","0","img/none_selected.jpg","true","0","full_practice"
"","bandit","68","553291","0.0-34.0-14.0","51837131","wem/bandit_either_2","A37SC1GEPN73AN","either","7","402","","","","","","","1","0","0","0.8","","0.5","0.5","0.5","0.5","","","","","0.8","0.2","0.6","0.2","","","","","","","","72","H","0","img/none_selected.jpg","true","0","full_practice"
"","bandit","69","555212","0.0-34.0-15.0","51837131","wem/bandit_either_2","A37SC1GEPN73AN","either","7","401","","","","","","","1","0","0","0.8","","0.5","0.5","0.5","0.5","","","","","0.8","0.2","0.6","0.2","","","","","","","","72","H","0","img/none_selected.jpg","true","0","full_practice"
"","bandit","70","557069","0.0-34.0-16.0","51837131","wem/bandit_either_2","A37SC1GEPN73AN","either","7","339","","","","","","","1","0","0","0.8","","0.5","0.5","0.5","0.5","","","","","0.8","0.2","0.6","0.2","","","","","","","","72","H","0","img/none_selected.jpg","true","0","full_practice"
"","bandit","71","558861","0.0-34.0-17.0","51837131","wem/bandit_either_2","A37SC1GEPN73AN","either","7","281","","","","","","","0","1","0","","0.8","0.5","0.5","0.5","0.5","0.8","0.2","0.6","0.2","","","","","","","","","","","","72","H","0","img/none_selected.jpg","true","0","full_practice"
"","bandit","72","560552","0.0-34.0-18.0","51837131","wem/bandit_either_2","A37SC1GEPN73AN","either","7","180","","","","","","","1","0","0","0.8","","0.5","0.5","0.5","0.5","","","","","0.8","0.2","0.6","0.2","","","","","","","","72","H","0","img/none_selected.jpg","true","0","full_practice"
"","bandit","73","562266","0.0-34.0-19.0","51837131","wem/bandit_either_2","A37SC1GEPN73AN","either","7","200","","","","","","","0","1","0","","0.8","0.5","0.5","0.5","0.5","0.8","0.2","0.6","0.2","","","","","","","","","","","","72","H","0","img/none_selected.jpg","true","0","full_practice"
"","text","74","568435","0.0-35.0","51837131","wem/bandit_either_2","A37SC1GEPN73AN","either","7","6146","","32","","","","","","","","","","","","","","","","","","","","","","","","","","","","","","","","","","",""
"","text","75","570995","0.0-36.0","51837131","wem/bandit_either_2","A37SC1GEPN73AN","either","7","1549","","32","","","","","","","","","","","","","","","","","","","","","","","","","","","","","","","","","","",""
"","text","76","572131","0.0-37.0","51837131","wem/bandit_either_2","A37SC1GEPN73AN","either","7","1131","","32","","","","","","","","","","","","","","","","","","","","","","","","","","","","","","","","","","",""
"","text","77","572736","0.0-38.0","51837131","wem/bandit_either_2","A37SC1GEPN73AN","either","7","597","","32","","","","","","","","","","","","","","","","","","","","","","","","","","","","","","","","","","",""
"","text","78","573342","0.0-39.0","51837131","wem/bandit_either_2","A37SC1GEPN73AN","either","7","600","","32","","","","","","","","","","","","","","","","","","","","","","","","","","","","","","","","","","",""
"","text","79","573915","0.0-40.0","51837131","wem/bandit_either_2","A37SC1GEPN73AN","either","7","568","","32","","","","","","","","","","","","","","","","","","","","","","","","","","","","","","","","","","",""
"","bandit","80","577730","0.0-41.0-0.0","51837131","wem/bandit_either_2","A37SC1GEPN73AN","either","7","2302","","","","","","","0","0","1","0.1952616071","","0.6","0.4","0.8","0.2","","","","","0.1952616071","0.06530018083","0.1480066451","0.01738065524","","","","","","","","72","H","0","img/none_selected.jpg","","1","main_expt"
"","bandit","81","579558","0.0-42.0-0.0","51837131","wem/bandit_either_2","A37SC1GEPN73AN","either","7","313","","","","","","","0","0","1","0.1652234336","","0.6","0.4","0.8","0.2","","","","","0.1652234336","0.1011701763","0.1053714073","0.0196943787","","","","","","","","72","H","0","img/none_selected.jpg","","2","main_expt"
"","bandit","82","581335","0.0-43.0-0.0","51837131","wem/bandit_either_2","A37SC1GEPN73AN","either","7","263","","","","","","","1","0","0","0.1347382479","","0.6","0.4","0.8","0.2","","","","","0.1347382479","0.09486719381","0.1460078221","0.01678573497","","","","","","","","72","H","0","img/none_selected.jpg","","3","main_expt"
"","bandit","83","583190","0.0-44.0-0.0","51837131","wem/bandit_either_2","A37SC1GEPN73AN","either","7","339","","","","","","","0","0","1","0.1684625442","","0.6","0.4","0.8","0.2","","","","","0.1684625442","0.06705802814","0.1866138214","0.02981965743","","","","","","","","72","H","0","img/none_selected.jpg","","4","main_expt"
"","bandit","84","585037","0.0-45.0-0.0","51837131","wem/bandit_either_2","A37SC1GEPN73AN","either","7","324","","","","","","","0","0","1","0.1792029032","","0.6","0.4","0.8","0.2","","","","","0.1792029032","0.0822298525","0.2445348717","0.02600208211","","","","","","","","72","H","0","img/none_selected.jpg","","5","main_expt"
"","bandit","85","586847","0.0-46.0-0.0","51837131","wem/bandit_either_2","A37SC1GEPN73AN","either","7","294","","","","","","","0","0","1","","0.2153873139","0.6","0.4","0.8","0.2","0.2153873139","0.09162209411","0.2546962146","0.02332436933","","","","","","","","","","","","72","H","0","img/none_selected.jpg","","6","main_expt"
"","bandit","86","588711","0.0-47.0-0.0","51837131","wem/bandit_either_2","A37SC1GEPN73AN","either","7","349","","","","","","","0","0","1","0.1757762721","","0.6","0.4","0.8","0.2","","","","","0.1757762721","0.1028820098","0.2344841702","0.02864040813","","","","","","","","72","H","0","img/none_selected.jpg","","7","main_expt"
"","bandit","87","590588","0.0-48.0-0.0","51837131","wem/bandit_either_2","A37SC1GEPN73AN","either","7","367","","","","","","","0","0","1","0.1532270122","","0.6","0.4","0.8","0.2","","","","","0.2241229746","0.1532270122","0.2473344203","0.02951264166","","","","","","","","74","J","1","","","8","main_expt"
"","bandit","88","592281","0.0-49.0-0.0","51837131","wem/bandit_either_2","A37SC1GEPN73AN","either","7","176","","","","","","","0","0","1","","0.2131450397","0.6","0.4","0.8","0.2","0.2199426203","0.2131450397","0.2642160399","0.02997011939","","","","","","","","","","","","74","J","1","","","9","main_expt"
"","bandit","89","594058","0.0-50.0-0.0","51837131","wem/bandit_either_2","A37SC1GEPN73AN","either","7","255","","","","","","","0","0","1","","0.2985754635","0.6","0.4","0.8","0.2","0.1520686932","0.2985754635","0.2104627424","0.02489651457","","","","","","","","","","","","74","J","1","","","10","main_expt"
"","bandit","90","595715","0.0-51.0-0.0","51837131","wem/bandit_either_2","A37SC1GEPN73AN","either","7","141","","","","","","","0","0","1","","0.219372878","0.6","0.4","0.8","0.2","0.2013349999","0.2924640086","0.219372878","0.01651058827","","","","","","","","","","","","75","K","2","","","11","main_expt"
"","bandit","91","597480","0.0-52.0-0.0","51837131","wem/bandit_either_2","A37SC1GEPN73AN","either","7","252","","","","","","","1","0","0","0.2105839871","","0.6","0.4","0.8","0.2","","","","","0.2156800105","0.3264291113","0.2105839871","0.02341729431","","","","","","","","75","K","2","","","12","main_expt"
"","bandit","92","599292","0.0-53.0-0.0","51837131","wem/bandit_either_2","A37SC1GEPN73AN","either","7","300","","","","","","","0","0","1","0.2511698571","","0.6","0.4","0.8","0.2","","","","","0.1833947696","0.3254913314","0.2511698571","0.0257410372","","","","","","","","75","K","2","","","13","main_expt"
"","bandit","93","601097","0.0-54.0-0.0","51837131","wem/bandit_either_2","A37SC1GEPN73AN","either","7","285","","","","","","","0","0","1","0.2158977649","","0.6","0.4","0.8","0.2","","","","","0.243643366","0.3428504842","0.2158977649","0.02570014082","","","","","","","","75","K","2","","","14","main_expt"
"","bandit","94","602789","0.0-55.0-0.0","51837131","wem/bandit_either_2","A37SC1GEPN73AN","either","7","176","","","","","","","0","0","1","","0.2762480727","0.6","0.4","0.8","0.2","0.2265365198","0.3244047679","0.2762480727","0.04268316416","","","","","","","","","","","","75","K","2","","","15","main_expt"
"","bandit","95","604626","0.0-56.0-0.0","51837131","wem/bandit_either_2","A37SC1GEPN73AN","either","7","323","","","","","","","0","0","1","0.3202890724","","0.6","0.4","0.8","0.2","","","","","0.2484951132","0.3025313629","0.3202890724","0.04667408308","","","","","","","","75","K","2","","","16","main_expt"
"","bandit","96","606447","0.0-57.0-0.0","51837131","wem/bandit_either_2","A37SC1GEPN73AN","either","7","309","","","","","","","1","0","0","0.3680552247","","0.6","0.4","0.8","0.2","","","","","0.2570267238","0.3291216938","0.3680552247","0.0506688767","","","","","","","","75","K","2","","","17","main_expt"
"","bandit","97","608246","0.0-58.0-0.0","51837131","wem/bandit_either_2","A37SC1GEPN73AN","either","7","289","","","","","","","1","0","0","0.3968593921","","0.6","0.4","0.8","0.2","","","","","0.287418789","0.2987881532","0.3968593921","0.02988526167","","","","","","","","75","K","2","","","18","main_expt"
"","bandit","98","610050","0.0-59.0-0.0","51837131","wem/bandit_either_2","A37SC1GEPN73AN","either","7","286","","","","","","","0","0","1","0.4192996399","","0.6","0.4","0.8","0.2","","","","","0.2338710899","0.281207523","0.4192996399","0.03476350355","","","","","","","","75","K","2","","","19","main_expt"
"","bandit","99","611816","0.0-60.0-0.0","51837131","wem/bandit_either_2","A37SC1GEPN73AN","either","7","254","","","","","","","1","0","0","0.4362768361","","0.6","0.4","0.8","0.2","","","","","0.2335293464","0.291129981","0.4362768361","0.0233687216","","","","","","","","75","K","2","","","20","main_expt"
"","bandit","100","613639","0.0-61.0-0.0","51837131","wem/bandit_either_2","A37SC1GEPN73AN","either","7","309","","","","","","","1","0","0","0.4599691003","","0.6","0.4","0.8","0.2","","","","","0.2434826965","0.2729578326","0.4599691003","0.01272547494","","","","","","","","75","K","2","","","21","main_expt"
"","bandit","101","615537","0.0-62.0-0.0","51837131","wem/bandit_either_2","A37SC1GEPN73AN","either","7","384","","","","","","","1","0","0","0.44353765","","0.6","0.4","0.8","0.2","","","","","0.2702300591","0.2805141014","0.44353765","0.01739491555","","","","","","","","75","K","2","","","22","main_expt"
"","bandit","102","617352","0.0-63.0-0.0","51837131","wem/bandit_either_2","A37SC1GEPN73AN","either","7","296","","","","","","","0","0","1","0.4105594395","","0.6","0.4","0.8","0.2","","","","","0.2424740502","0.3016389313","0.4105594395","0.006692102231","","","","","","","","75","K","2","","","23","main_expt"
"","bandit","103","619198","0.0-64.0-0.0","51837131","wem/bandit_either_2","A37SC1GEPN73AN","either","7","333","","","","","","","0","1","0","","0.4243351486","0.6","0.4","0.8","0.2","0.1754503809","0.2475621169","0.4243351486","0.01209419849","","","","","","","","","","","","75","K","2","","","24","main_expt"
"","bandit","104","621015","0.0-65.0-0.0","51837131","wem/bandit_either_2","A37SC1GEPN73AN","either","7","298","","","","","","","1","0","0","0.4172780312","","0.6","0.4","0.8","0.2","","","","","0.2023019753","0.2607476102","0.4172780312","0.009734580702","","","","","","","","75","K","2","","","25","main_expt"
"","bandit","105","622842","0.0-66.0-0.0","51837131","wem/bandit_either_2","A37SC1GEPN73AN","either","7","312","","","","","","","0","0","1","0.3981062588","","0.6","0.4","0.8","0.2","","","","","0.1887270612","0.292589008","0.3981062588","0.008596148908","","","","","","","","75","K","2","","","26","main_expt"
"","bandit","106","624714","0.0-67.0-0.0","51837131","wem/bandit_either_2","A37SC1GEPN73AN","either","7","352","","","","","","","0","0","1","","0.3889188119","0.6","0.4","0.8","0.2","0.2526986378","0.2978950393","0.3889188119","0.01380650739","","","","","","","","","","","","75","K","2","","","27","main_expt"
"","bandit","107","626512","0.0-68.0-0.0","51837131","wem/bandit_either_2","A37SC1GEPN73AN","either","7","272","","","","","","","0","0","1","0.3699095679","","0.6","0.4","0.8","0.2","","","","","0.2536033627","0.337392419","0.3699095679","0.01160852189","","","","","","","","75","K","2","","","28","main_expt"
"","bandit","108","628406","0.0-69.0-0.0","51837131","wem/bandit_either_2","A37SC1GEPN73AN","either","7","380","","","","","","","0","0","1","0.4087832773","","0.6","0.4","0.8","0.2","","","","","0.258258936","0.3830759015","0.4087832773","0.02858314752","","","","","","","","75","K","2","","","29","main_expt"
"","bandit","109","630112","0.0-70.0-0.0","51837131","wem/bandit_either_2","A37SC1GEPN73AN","either","7","189","","","","","","","1","0","0","0.4162513677","","0.6","0.4","0.8","0.2","","","","","0.3152574144","0.3778881599","0.4162513677","0.0265596094","","","","","","","","75","K","2","","","30","main_expt"
"","bandit","110","631918","0.0-71.0-0.0","51837131","wem/bandit_either_2","A37SC1GEPN73AN","either","7","284","","","","","","","1","0","0","0.43337534","","0.6","0.4","0.8","0.2","","","","","0.3508579725","0.3585458117","0.43337534","0.02828816112","","","","","","","","75","K","2","","","31","main_expt"
"","bandit","111","633733","0.0-72.0-0.0","51837131","wem/bandit_either_2","A37SC1GEPN73AN","either","7","302","","","","","","","0","0","1","0.4399105216","","0.6","0.4","0.8","0.2","","","","","0.3902021543","0.3511664436","0.4399105216","0.03857304495","","","","","","","","75","K","2","","","32","main_expt"
"","bandit","112","635814","0.0-73.0-0.0","51837131","wem/bandit_either_2","A37SC1GEPN73AN","either","7","568","","","","","","","0","0","1","0.3859623535","","0.6","0.4","0.8","0.2","","","","","0.4112626521","0.3924960189","0.3859623535","0.02642959278","","","","","","","","75","K","2","","","33","main_expt"
"","bandit","113","637362","0.0-74.0-0.0","51837131","wem/bandit_either_2","A37SC1GEPN73AN","either","7","30","","","","","","","1","0","0","0.4231921331","","0.6","0.4","0.8","0.2","","","","","0.3912589523","0.3713907517","0.4231921331","0.06800028167","","","","","","","","75","K","2","","","34","main_expt"
"","bandit","114","639230","0.0-75.0-0.0","51837131","wem/bandit_either_2","A37SC1GEPN73AN","either","7","350","","","","","","","0","0","1","0.3950458867","","0.6","0.4","0.8","0.2","","","","","0.3663646496","0.3929004689","0.3950458867","0.05710280771","","","","","","","","75","K","2","","","35","main_expt"
"","bandit","115","641087","0.0-76.0-0.0","51837131","wem/bandit_either_2","A37SC1GEPN73AN","either","7","337","","","","","","","1","0","0","0.4005306787","","0.6","0.4","0.8","0.2","","","","","0.3045225128","0.3820467604","0.4005306787","0.07756943076","","","","","","","","75","K","2","","","36","main_expt"
"","bandit","116","642879","0.0-77.0-0.0","51837131","wem/bandit_either_2","A37SC1GEPN73AN","either","7","282","","","","","","","0","0","1","","0.3972735937","0.6","0.4","0.8","0.2","0.2806474599","0.3948022939","0.3972735937","0.06074629621","","","","","","","","","","","","75","K","2","","","37","main_expt"
"","bandit","117","644665","0.0-78.0-0.0","51837131","wem/bandit_either_2","A37SC1GEPN73AN","either","7","272","","","","","","","0","0","1","0.38339591","","0.6","0.4","0.8","0.2","","","","","0.3558759705","0.3769579019","0.38339591","0.07063042774","","","","","","","","75","K","2","","","38","main_expt"
"","bandit","118","646328","0.0-79.0-0.0","51837131","wem/bandit_either_2","A37SC1GEPN73AN","either","7","143","","","","","","","0","1","0","","0.3906354184","0.6","0.4","0.8","0.2","0.3194138052","0.4030344636","0.3906354184","0.06209293178","","","","","","","","","","","","75","K","2","","","39","main_expt"
"","bandit","119","648098","0.0-80.0-0.0","51837131","wem/bandit_either_2","A37SC1GEPN73AN","either","7","249","","","","","","","0","0","1","0.3623676206","","0.6","0.4","0.8","0.2","","","","","0.3549086085","0.3622335218","0.3623676206","0.06952578958","","","","","","","","75","K","2","","","40","main_expt"
"","bandit","120","649897","0.0-81.0-0.0","51837131","wem/bandit_either_2","A37SC1GEPN73AN","either","7","276","","","","","","","1","0","0","0.3873704927","","0.6","0.4","0.8","0.2","","","","","0.3452113815","0.3911596719","0.3873704927","0.1291245709","","","","","","","","75","K","2","","","41","main_expt"
"","bandit","121","651657","0.0-82.0-0.0","51837131","wem/bandit_either_2","A37SC1GEPN73AN","either","7","242","","","","","","","1","0","0","0.359823116","","0.6","0.4","0.8","0.2","","","","","0.3522960267","0.3921858285","0.359823116","0.1174523948","","","","","","","","75","K","2","","","42","main_expt"
"","bandit","122","653473","0.0-83.0-0.0","51837131","wem/bandit_either_2","A37SC1GEPN73AN","either","7","297","","","","","","","0","0","1","0.3710191411","","0.6","0.4","0.8","0.2","","","","","0.3093122096","0.3831213528","0.3710191411","0.1201484523","","","","","","","","75","K","2","","","43","main_expt"
"","bandit","123","655301","0.0-84.0-0.0","51837131","wem/bandit_either_2","A37SC1GEPN73AN","either","7","314","","","","","","","0","0","1","0.3874065465","","0.6","0.4","0.8","0.2","","","","","0.3026159556","0.3518708159","0.3874065465","0.09958360536","","","","","","","","75","K","2","","","44","main_expt"
"","bandit","124","657086","0.0-85.0-0.0","51837131","wem/bandit_either_2","A37SC1GEPN73AN","either","7","263","","","","","","","0","0","1","0.3851533971","","0.6","0.4","0.8","0.2","","","","","0.3336294247","0.3122870636","0.3851533971","0.05173655998","","","","","","","","75","K","2","","","45","main_expt"
"","bandit","125","659224","0.0-86.0-0.0","51837131","wem/bandit_either_2","A37SC1GEPN73AN","either","7","622","","","","","","","1","0","0","0.4055883719","","0.6","0.4","0.8","0.2","","","","","0.3400222736","0.2635721956","0.4055883719","0.05945041096","","","","","","","","75","K","2","","","46","main_expt"
"","bandit","126","661020","0.0-87.0-0.0","51837131","wem/bandit_either_2","A37SC1GEPN73AN","either","7","274","","","","","","","0","1","0","","0.3671593179","0.6","0.4","0.8","0.2","0.328707825","0.2856785865","0.3671593179","0.04375763727","","","","","","","","","","","","75","K","2","","","47","main_expt"
"","bandit","127","662927","0.0-88.0-0.0","51837131","wem/bandit_either_2","A37SC1GEPN73AN","either","7","391","","","","","","","0","0","1","0.3198203038","","0.6","0.4","0.8","0.2","","","","","0.3307690822","0.2649087478","0.3198203038","0.0666370861","","","","","","","","75","K","2","","","48","main_expt"
"","bandit","128","664678","0.0-89.0-0.0","51837131","wem/bandit_either_2","A37SC1GEPN73AN","either","7","238","","","","","","","0","0","1","","0.3111357295","0.6","0.4","0.8","0.2","0.3438067684","0.2462979357","0.3111357295","0.08266213623","","","","","","","","","","","","75","K","2","","","49","main_expt"
"","bandit","129","666518","0.0-90.0-0.0","51837131","wem/bandit_either_2","A37SC1GEPN73AN","either","7","322","","","","","","","0","0","1","0.3196682981","","0.6","0.4","0.8","0.2","","","","","0.4037002216","0.2490076798","0.3196682981","0.08795051988","","","","","","","","75","K","2","","","50","main_expt"
"","bandit","130","668510","0.0-91.0-0.0","51837131","wem/bandit_either_2","A37SC1GEPN73AN","either","7","475","","","","","","","1","0","0","0.3088596379","","0.6","0.4","0.8","0.2","","","","","0.3557518394","0.305209751","0.3088596379","0.07533366945","","","","","","","","75","K","2","","","51","main_expt"
"","bandit","131","670547","0.0-92.0-0.0","51837131","wem/bandit_either_2","A37SC1GEPN73AN","either","7","511","","","","","","","0","0","1","0.3060924957","","0.6","0.4","0.8","0.2","","","","","0.3254324358","0.3087204988","0.3060924957","0.06506638851","","","","","","","","75","K","2","","","52","main_expt"
"","bandit","132","672313","0.0-93.0-0.0","51837131","wem/bandit_either_2","A37SC1GEPN73AN","either","7","248","","","","","","","0","0","1","0.3229319808","","0.6","0.4","0.8","0.2","","","","","0.2952150256","0.2984188648","0.3229319808","0.06562792832","","","","","","","","75","K","2","","","53","main_expt"
"","bandit","133","674085","0.0-94.0-0.0","51837131","wem/bandit_either_2","A37SC1GEPN73AN","either","7","249","","","","","","","0","0","1","","0.3280138586","0.6","0.4","0.8","0.2","0.300320608","0.3353917468","0.3280138586","0.04630081711","","","","","","","","","","","","75","K","2","","","54","main_expt"
"","bandit","134","675878","0.0-95.0-0.0","51837131","wem/bandit_either_2","A37SC1GEPN73AN","either","7","273","","","","","","","0","0","1","0.2777260571","","0.6","0.4","0.8","0.2","","","","","0.2985084879","0.3259144651","0.2777260571","0.03868373719","","","","","","","","75","K","2","","","55","main_expt"
"","bandit","135","677774","0.0-96.0-0.0","51837131","wem/bandit_either_2","A37SC1GEPN73AN","either","7","379","","","","","","","0","0","1","0.1791004868","","0.6","0.4","0.8","0.2","","","","","0.2607009345","0.3259049121","0.1791004868","0.06235362297","","","","","","","","75","K","2","","","56","main_expt"
"","bandit","136","679488","0.0-97.0-0.0","51837131","wem/bandit_either_2","A37SC1GEPN73AN","either","7","197","","","","","","","0","0","1","0.2182265394","","0.6","0.4","0.8","0.2","","","","","0.2565854794","0.3687904078","0.2182265394","0.04639461243","","","","","","","","75","K","2","","","57","main_expt"
"","bandit","137","681500","0.0-98.0-0.0","51837131","wem/bandit_either_2","A37SC1GEPN73AN","either","7","499","","","","","","","0","0","1","","0.08954448139","0.6","0.4","0.8","0.2","0.319121847","0.3422038875","0.2970860181","0.08954448139","","","","","","","","","","","","76","L","3","","","58","main_expt"
"","bandit","138","684269","0.0-99.0-0.0","51837131","wem/bandit_either_2","A37SC1GEPN73AN","either","7","1250","","","","","","","0","0","1","","0.07390342289","0.6","0.4","0.8","0.2","0.3269923399","0.3771421139","0.3249685468","0.07390342289","","","","","","","","","","","","76","L","3","","","59","main_expt"
"","bandit","139","686794","0.0-100.0-0.0","51837131","wem/bandit_either_2","A37SC1GEPN73AN","either","7","1005","","","","","","","0","0","1","","0.05801548519","0.6","0.4","0.8","0.2","0.3150968823","0.3620124399","0.2931470039","0.05801548519","","","","","","","","","","","","76","L","3","","","60","main_expt"
"","bandit","140","688455","0.0-101.0-0.0","51837131","wem/bandit_either_2","A37SC1GEPN73AN","either","7","136","","","","","","","0","0","1","","0.07333263924","0.6","0.4","0.8","0.2","0.324539239","0.3958116198","0.2646536279","0.07333263924","","","","","","","","","","","","76","L","3","","","61","main_expt"
"","bandit","141","693481","0.0-102.0-0.0","51837131","wem/bandit_either_2","A37SC1GEPN73AN","either","7","3505","","","","","","","1","0","0","0.242461968","","0.6","0.4","0.8","0.2","","","","","0.3066306166","0.3615218546","0.242461968","0.07563430262","","","","","","","","75","K","2","","","62","main_expt"
"","bandit","142","696204","0.0-103.0-0.0","51837131","wem/bandit_either_2","A37SC1GEPN73AN","either","7","1205","","","","","","","0","0","1","0.2206683029","","0.6","0.4","0.8","0.2","","","","","0.3068900116","0.3574266064","0.2206683029","0.06826526778","","","","","","","","75","K","2","","","63","main_expt"
"","bandit","143","698487","0.0-104.0-0.0","51837131","wem/bandit_either_2","A37SC1GEPN73AN","either","7","758","","","","","","","0","0","1","","0.2288959862","0.6","0.4","0.8","0.2","0.2936494982","0.3541915859","0.2288959862","0.1175271989","","","","","","","","","","","","75","K","2","","","64","main_expt"
"","bandit","144","701189","0.0-105.0-0.0","51837131","wem/bandit_either_2","A37SC1GEPN73AN","either","7","1185","","","","","","","0","0","1","0.2346523549","","0.6","0.4","0.8","0.2","","","","","0.290236101","0.3339820985","0.2346523549","0.1273865191","","","","","","","","75","K","2","","","65","main_expt"
"","bandit","145","703655","0.0-106.0-0.0","51837131","wem/bandit_either_2","A37SC1GEPN73AN","either","7","944","","","","","","","0","0","1","0.1881688105","","0.6","0.4","0.8","0.2","","","","","0.2512036594","0.3195467083","0.1881688105","0.09075088943","","","","","","","","75","K","2","","","66","main_expt"
"","bandit","146","708460","0.0-107.0-0.0","51837131","wem/bandit_either_2","A37SC1GEPN73AN","either","7","3287","","","","","","","0","0","1","0.231043846","","0.6","0.4","0.8","0.2","","","","","0.263747572","0.3477383846","0.231043846","0.08077075725","","","","","","","","75","K","2","","","67","main_expt"
"","bandit","147","710149","0.0-108.0-0.0","51837131","wem/bandit_either_2","A37SC1GEPN73AN","either","7","165","","","","","","","0","0","1","0.2576664243","","0.6","0.4","0.8","0.2","","","","","0.2892519303","0.3365352069","0.2576664243","0.08810311296","","","","","","","","75","K","2","","","68","main_expt"
"","bandit","148","711724","0.0-109.0-0.0","51837131","wem/bandit_either_2","A37SC1GEPN73AN","either","7","50","","","","","","","0","0","1","0.2183283259","","0.6","0.4","0.8","0.2","","","","","0.2383664846","0.3148812039","0.2183283259","0.1260156682","","","","","","","","75","K","2","","","69","main_expt"
"","bandit","149","713268","0.0-110.0-0.0","51837131","wem/bandit_either_2","A37SC1GEPN73AN","either","7","22","","","","","","","0","0","1","0.2260484764","","0.6","0.4","0.8","0.2","","","","","0.2497111545","0.3154014692","0.2260484764","0.08773951932","","","","","","","","75","K","2","","","70","main_expt"
"","bandit","150","716063","0.0-111.0-0.0","51837131","wem/bandit_either_2","A37SC1GEPN73AN","either","7","1278","","","","","","","0","0","1","0.3196469567","","0.6","0.4","0.8","0.2","","","","","0.2095843002","0.219815459","0.3196469567","0.1154304285","","","","","","","","75","K","2","","","71","main_expt"
"","bandit","151","718675","0.0-112.0-0.0","51837131","wem/bandit_either_2","A37SC1GEPN73AN","either","7","1088","","","","","","","0","0","1","","0.3644141189","0.6","0.4","0.8","0.2","0.1972488467","0.2623730272","0.3644141189","0.10097247","","","","","","","","","","","","75","K","2","","","72","main_expt"
"","bandit","152","720596","0.0-113.0-0.0","51837131","wem/bandit_either_2","A37SC1GEPN73AN","either","7","403","","","","","","","0","0","1","0.4081842109","","0.6","0.4","0.8","0.2","","","","","0.15494396","0.2639805735","0.4081842109","0.0746930591","","","","","","","","75","K","2","","","73","main_expt"
"","bandit","153","722341","0.0-114.0-0.0","51837131","wem/bandit_either_2","A37SC1GEPN73AN","either","7","227","","","","","","","0","0","1","","0.2770925356","0.6","0.4","0.8","0.2","0.1324790415","0.2770925356","0.4506698749","0.1124392477","","","","","","","","","","","","74","J","1","","","74","main_expt"
"","bandit","154","724046","0.0-115.0-0.0","51837131","wem/bandit_either_2","A37SC1GEPN73AN","either","7","180","","","","","","","0","0","1","","0.2796652475","0.6","0.4","0.8","0.2","0.179195356","0.2796652475","0.454520075","0.113494578","","","","","","","","","","","","74","J","1","","","75","main_expt"
"","bandit","155","1107051","0.0-116.0-0.0","51837131","wem/bandit_either_2","A37SC1GEPN73AN","either","7","381476","","","","","","","1","0","0","0.466199952","","0.6","0.4","0.8","0.2","","","","","0.215808919","0.3153427244","0.466199952","0.1469344428","","","","","","","","75","K","2","","","76","main_expt"
"","bandit","156","1108998","0.0-117.0-0.0","51837131","wem/bandit_either_2","A37SC1GEPN73AN","either","7","424","","","","","","","0","0","1","","0.4402141775","0.6","0.4","0.8","0.2","0.2312347408","0.3676911864","0.4402141775","0.2152215887","","","","","","","","","","","","75","K","2","","","77","main_expt"
"","bandit","157","1110627","0.0-118.0-0.0","51837131","wem/bandit_either_2","A37SC1GEPN73AN","either","7","114","","","","","","","1","0","0","0.4525957793","","0.6","0.4","0.8","0.2","","","","","0.2197025874","0.3434277392","0.4525957793","0.2055177618","","","","","","","","75","K","2","","","78","main_expt"
"","bandit","158","1112531","0.0-119.0-0.0","51837131","wem/bandit_either_2","A37SC1GEPN73AN","either","7","386","","","","","","","0","0","1","","0.4630799716","0.6","0.4","0.8","0.2","0.2227420924","0.3758616161","0.4630799716","0.222262525","","","","","","","","","","","","75","K","2","","","79","main_expt"
"","bandit","159","1114378","0.0-120.0-0.0","51837131","wem/bandit_either_2","A37SC1GEPN73AN","either","7","331","","","","","","","1","0","0","0.423693353","","0.6","0.4","0.8","0.2","","","","","0.2283057493","0.3862393514","0.423693353","0.2700860438","","","","","","","","75","K","2","","","80","main_expt"
"","bandit","160","1116216","0.0-121.0-0.0","51837131","wem/bandit_either_2","A37SC1GEPN73AN","either","7","303","","","","","","","1","0","0","0.4319112677","","0.6","0.4","0.8","0.2","","","","","0.2721525977","0.3593770893","0.4319112677","0.2642688004","","","","","","","","75","K","2","","","81","main_expt"
"","bandit","161","1118071","0.0-122.0-0.0","51837131","wem/bandit_either_2","A37SC1GEPN73AN","either","7","328","","","","","","","0","0","1","0.441827487","","0.6","0.4","0.8","0.2","","","","","0.2850237184","0.4035110645","0.441827487","0.2824164754","","","","","","","","75","K","2","","","82","main_expt"
"","bandit","162","1120007","0.0-123.0-0.0","51837131","wem/bandit_either_2","A37SC1GEPN73AN","either","7","415","","","","","","","0","0","1","0.4288861504","","0.6","0.4","0.8","0.2","","","","","0.3236436683","0.3719627038","0.4288861504","0.2819095575","","","","","","","","75","K","2","","","83","main_expt"
"","bandit","163","1121605","0.0-124.0-0.0","51837131","wem/bandit_either_2","A37SC1GEPN73AN","either","7","81","","","","","","","0","0","1","0.4350385517","","0.6","0.4","0.8","0.2","","","","","0.3339638593","0.3349288927","0.4350385517","0.2589745902","","","","","","","","75","K","2","","","84","main_expt"
"","bandit","164","1123301","0.0-125.0-0.0","51837131","wem/bandit_either_2","A37SC1GEPN73AN","either","7","180","","","","","","","0","0","1","0.4255505645","","0.6","0.4","0.8","0.2","","","","","0.3795022601","0.3247899262","0.4255505645","0.3626504113","","","","","","","","75","K","2","","","85","main_expt"
"","bandit","165","1124832","0.0-126.0-0.0","51837131","wem/bandit_either_2","A37SC1GEPN73AN","either","7","4","","","","","","","1","0","0","0.4330938692","","0.6","0.4","0.8","0.2","","","","","0.3835523064","0.3443557019","0.4330938692","0.3598915268","","","","","","","","75","K","2","","","86","main_expt"
"","bandit","166","1126773","0.0-127.0-0.0","51837131","wem/bandit_either_2","A37SC1GEPN73AN","either","7","423","","","","","","","1","0","0","0.4548398529","","0.6","0.4","0.8","0.2","","","","","0.3772514457","0.3648776167","0.4548398529","0.3433052933","","","","","","","","75","K","2","","","87","main_expt"
"","bandit","167","1128878","0.0-128.0-0.0","51837131","wem/bandit_either_2","A37SC1GEPN73AN","either","7","586","","","","","","","0","0","1","0.4493124031","","0.6","0.4","0.8","0.2","","","","","0.3766830519","0.3609631839","0.4493124031","0.4022938878","","","","","","","","75","K","2","","","88","main_expt"
"","bandit","168","1130764","0.0-129.0-0.0","51837131","wem/bandit_either_2","A37SC1GEPN73AN","either","7","370","","","","","","","1","0","0","0.4161110063","","0.6","0.4","0.8","0.2","","","","","0.3537755119","0.3636167192","0.4161110063","0.4141493151","","","","","","","","75","K","2","","","89","main_expt"
"","bandit","169","1132559","0.0-130.0-0.0","51837131","wem/bandit_either_2","A37SC1GEPN73AN","either","7","272","","","","","","","0","0","1","0.405260856","","0.6","0.4","0.8","0.2","","","","","0.3014761449","0.3563441379","0.405260856","0.4136124289","","","","","","","","75","K","2","","","90","main_expt"
"","bandit","170","1134401","0.0-131.0-0.0","51837131","wem/bandit_either_2","A37SC1GEPN73AN","either","7","324","","","","","","","0","0","1","0.3827048226","","0.6","0.4","0.8","0.2","","","","","0.2694038268","0.3389138503","0.3827048226","0.4184852842","","","","","","","","75","K","2","","","91","main_expt"
"","bandit","171","1136396","0.0-132.0-0.0","51837131","wem/bandit_either_2","A37SC1GEPN73AN","either","7","466","","","","","","","1","0","0","0.3552182969","","0.6","0.4","0.8","0.2","","","","","0.2651536323","0.3263360165","0.3552182969","0.4456808576","","","","","","","","75","K","2","","","92","main_expt"
"","bandit","172","1138227","0.0-133.0-0.0","51837131","wem/bandit_either_2","A37SC1GEPN73AN","either","7","308","","","","","","","0","0","1","0.3286897504","","0.6","0.4","0.8","0.2","","","","","0.1997208586","0.2844131911","0.3286897504","0.4355219805","","","","","","","","75","K","2","","","93","main_expt"
"","bandit","173","1140072","0.0-134.0-0.0","51837131","wem/bandit_either_2","A37SC1GEPN73AN","either","7","319","","","","","","","0","0","1","","0.3422490236","0.6","0.4","0.8","0.2","0.2442555344","0.2978465223","0.3422490236","0.4609821192","","","","","","","","","","","","75","K","2","","","94","main_expt"
"","bandit","174","1142145","0.0-135.0-0.0","51837131","wem/bandit_either_2","A37SC1GEPN73AN","either","7","543","","","","","","","0","0","1","","0.3160161054","0.6","0.4","0.8","0.2","0.2638839348","0.2638723705","0.3160161054","0.4419374505","","","","","","","","","","","","75","K","2","","","95","main_expt"
"","bandit","175","1144315","0.0-136.0-0.0","51837131","wem/bandit_either_2","A37SC1GEPN73AN","either","7","641","","","","","","","0","0","1","","0.2945538732","0.6","0.4","0.8","0.2","0.2265245807","0.2276010735","0.2945538732","0.39438674","","","","","","","","","","","","75","K","2","","","96","main_expt"
"","bandit","176","1146340","0.0-137.0-0.0","51837131","wem/bandit_either_2","A37SC1GEPN73AN","either","7","498","","","","","","","1","0","0","0.393563827","","0.6","0.4","0.8","0.2","","","","","0.1969189177","0.2045446072","0.393563827","0.3617668419","","","","","","","","75","K","2","","","97","main_expt"
"","bandit","177","1148489","0.0-138.0-0.0","51837131","wem/bandit_either_2","A37SC1GEPN73AN","either","7","622","","","","","","","1","0","0","0.4046254927","","0.6","0.4","0.8","0.2","","","","","0.1761144245","0.2436418828","0.4046254927","0.3737913853","","","","","","","","75","K","2","","","98","main_expt"
"","bandit","178","1150292","0.0-139.0-0.0","51837131","wem/bandit_either_2","A37SC1GEPN73AN","either","7","284","","","","","","","1","0","0","0.3659012549","","0.6","0.4","0.8","0.2","","","","","0.1211630765","0.2473144087","0.3659012549","0.4221129479","","","","","","","","75","K","2","","","99","main_expt"
"","bandit","179","1152113","0.0-140.0-0.0","51837131","wem/bandit_either_2","A37SC1GEPN73AN","either","7","293","","","","","","","0","0","1","0.400368336","","0.6","0.4","0.8","0.2","","","","","0.1257326749","0.2707360286","0.400368336","0.3857893684","","","","","","","","75","K","2","","","100","main_expt"
"","bandit","180","1154050","0.0-141.0-0.0","51837131","wem/bandit_either_2","A37SC1GEPN73AN","either","7","407","","","","","","","1","0","0","0.4367931528","","0.6","0.4","0.8","0.2","","","","","0.09975532208","0.3250409822","0.4367931528","0.3635527264","","","","","","","","75","K","2","","","101","main_expt"
"","bandit","181","1155886","0.0-142.0-0.0","51837131","wem/bandit_either_2","A37SC1GEPN73AN","either","7","307","","","","","","","0","0","1","0.4371155326","","0.6","0.4","0.8","0.2","","","","","0.1127414424","0.3088580598","0.4371155326","0.3738375489","","","","","","","","75","K","2","","","102","main_expt"
"","bandit","182","1157788","0.0-143.0-0.0","51837131","wem/bandit_either_2","A37SC1GEPN73AN","either","7","388","","","","","","","0","0","1","0.388648264","","0.6","0.4","0.8","0.2","","","","","0.1232600734","0.2901001995","0.388648264","0.3860163181","","","","","","","","75","K","2","","","103","main_expt"
"","bandit","183","1159788","0.0-144.0-0.0","51837131","wem/bandit_either_2","A37SC1GEPN73AN","either","7","475","","","","","","","1","0","0","0.3718469433","","0.6","0.4","0.8","0.2","","","","","0.08156843846","0.309645936","0.3718469433","0.390692362","","","","","","","","75","K","2","","","104","main_expt"
"","bandit","184","1161772","0.0-145.0-0.0","51837131","wem/bandit_either_2","A37SC1GEPN73AN","either","7","469","","","","","","","0","0","1","0.3920304628","","0.6","0.4","0.8","0.2","","","","","0.08245659199","0.3386062745","0.3920304628","0.4139082553","","","","","","","","75","K","2","","","105","main_expt"
"","bandit","185","1163884","0.0-146.0-0.0","51837131","wem/bandit_either_2","A37SC1GEPN73AN","either","7","594","","","","","","","0","0","1","0.3733497125","","0.6","0.4","0.8","0.2","","","","","0.1276639339","0.3827539061","0.3733497125","0.3295275825","","","","","","","","75","K","2","","","106","main_expt"
"","bandit","186","1166609","0.0-147.0-0.0","51837131","wem/bandit_either_2","A37SC1GEPN73AN","either","7","1209","","","","","","","0","0","1","0.3878439861","","0.6","0.4","0.8","0.2","","","","","0.1812689745","0.3401355396","0.3878439861","0.3499712774","","","","","","","","75","K","2","","","107","main_expt"
"","bandit","187","1168478","0.0-148.0-0.0","51837131","wem/bandit_either_2","A37SC1GEPN73AN","either","7","351","","","","","","","1","0","0","0.3529013302","","0.6","0.4","0.8","0.2","","","","","0.2187982558","0.3258039352","0.3529013302","0.2666891207","","","","","","","","75","K","2","","","108","main_expt"
"","bandit","188","1170449","0.0-149.0-0.0","51837131","wem/bandit_either_2","A37SC1GEPN73AN","either","7","453","","","","","","","0","0","1","0.3457683734","","0.6","0.4","0.8","0.2","","","","","0.2201216928","0.374919859","0.3457683734","0.2575067634","","","","","","","","75","K","2","","","109","main_expt"
"","bandit","189","1172399","0.0-150.0-0.0","51837131","wem/bandit_either_2","A37SC1GEPN73AN","either","7","414","","","","","","","0","0","1","0.3316873257","","0.6","0.4","0.8","0.2","","","","","0.1789817232","0.3656186065","0.3316873257","0.2664913793","","","","","","","","75","K","2","","","110","main_expt"
"","bandit","190","1174789","0.0-151.0-0.0","51837131","wem/bandit_either_2","A37SC1GEPN73AN","either","7","865","","","","","","","0","0","1","0.3434945318","","0.6","0.4","0.8","0.2","","","","","0.2404947452","0.3649701027","0.3434945318","0.2233446911","","","","","","","","75","K","2","","","111","main_expt"
"","bandit","191","1176821","0.0-152.0-0.0","51837131","wem/bandit_either_2","A37SC1GEPN73AN","either","7","512","","","","","","","0","0","1","","0.2729480053","0.6","0.4","0.8","0.2","0.2959558532","0.3371716456","0.2729480053","0.2170082082","","","","","","","","","","","","75","K","2","","","112","main_expt"
"","bandit","192","1178716","0.0-153.0-0.0","51837131","wem/bandit_either_2","A37SC1GEPN73AN","either","7","377","","","","","","","0","0","1","0.2579672073","","0.6","0.4","0.8","0.2","","","","","0.2966985553","0.2587224119","0.2579672073","0.1912277411","","","","","","","","75","K","2","","","113","main_expt"
"","bandit","193","1180726","0.0-154.0-0.0","51837131","wem/bandit_either_2","A37SC1GEPN73AN","either","7","495","","","","","","","1","0","0","0.24654084","","0.6","0.4","0.8","0.2","","","","","0.3289730608","0.2384324947","0.24654084","0.1691995451","","","","","","","","75","K","2","","","114","main_expt"
"","bandit","194","1182887","0.0-155.0-0.0","51837131","wem/bandit_either_2","A37SC1GEPN73AN","either","7","641","","","","","","","1","0","0","0.246649757","","0.6","0.4","0.8","0.2","","","","","0.2783705844","0.2705755989","0.246649757","0.1263730162","","","","","","","","75","K","2","","","115","main_expt"
"","bandit","195","1184729","0.0-156.0-0.0","51837131","wem/bandit_either_2","A37SC1GEPN73AN","either","7","325","","","","","","","0","0","1","0.2190482835","","0.6","0.4","0.8","0.2","","","","","0.2990421824","0.2666822","0.2190482835","0.1130092975","","","","","","","","75","K","2","","","116","main_expt"
"","bandit","196","1187018","0.0-157.0-0.0","51837131","wem/bandit_either_2","A37SC1GEPN73AN","either","7","769","","","","","","","0","0","1","0.1860086181","","0.6","0.4","0.8","0.2","","","","","0.3214730448","0.2664749026","0.1860086181","0.1317362661","","","","","","","","75","K","2","","","117","main_expt"
"","bandit","197","1188989","0.0-158.0-0.0","51837131","wem/bandit_either_2","A37SC1GEPN73AN","either","7","458","","","","","","","0","0","1","0.1765749983","","0.6","0.4","0.8","0.2","","","","","0.3996160597","0.285497096","0.1765749983","0.08460291254","","","","","","","","75","K","2","","","118","main_expt"
"","bandit","198","1190985","0.0-159.0-0.0","51837131","wem/bandit_either_2","A37SC1GEPN73AN","either","7","484","","","","","","","0","0","1","0.1840588368","","0.6","0.4","0.8","0.2","","","","","0.4143362638","0.3004427434","0.1840588368","0.09168363065","","","","","","","","75","K","2","","","119","main_expt"
"","bandit","199","1193129","0.0-160.0-0.0","51837131","wem/bandit_either_2","A37SC1GEPN73AN","either","7","628","","","","","","","0","0","1","0.1988357929","","0.6","0.4","0.8","0.2","","","","","0.372340151","0.2419855731","0.1988357929","0.06729372802","","","","","","","","75","K","2","","","120","main_expt"
"","bandit","200","1195135","0.0-161.0-0.0","51837131","wem/bandit_either_2","A37SC1GEPN73AN","either","7","475","","","","","","","0","0","1","","0.2315674","0.6","0.4","0.8","0.2","0.3910424524","0.3054132847","0.2315674","0.08346408207","","","","","","","","","","","","75","K","2","","","121","main_expt"
"","bandit","201","1197578","0.0-162.0-0.0","51837131","wem/bandit_either_2","A37SC1GEPN73AN","either","7","915","","","","","","","0","0","1","","0.2041322171","0.6","0.4","0.8","0.2","0.3813410711","0.2473202095","0.2041322171","0.05632743158","","","","","","","","","","","","75","K","2","","","122","main_expt"
"","bandit","202","1201638","0.0-163.0-0.0","51837131","wem/bandit_either_2","A37SC1GEPN73AN","either","7","2539","","","","","","","0","0","1","0.1945268209","","0.6","0.4","0.8","0.2","","","","","0.4247291795","0.2909195989","0.1945268209","0.05516745574","","","","","","","","75","K","2","","","123","main_expt"
"","bandit","203","1203557","0.0-164.0-0.0","51837131","wem/bandit_either_2","A37SC1GEPN73AN","either","7","393","","","","","","","0","0","1","0.2206749142","","0.6","0.4","0.8","0.2","","","","","0.4311179713","0.3493750294","0.2206749142","0.05528311039","","","","","","","","75","K","2","","","124","main_expt"
"","bandit","204","1205818","0.0-165.0-0.0","51837131","wem/bandit_either_2","A37SC1GEPN73AN","either","7","742","","","","","","","0","0","1","","0.212012295","0.6","0.4","0.8","0.2","0.4085782939","0.3883668019","0.212012295","0.07149807259","","","","","","","","","","","","75","K","2","","","125","main_expt"
"","bandit","205","1208046","0.0-166.0-0.0","51837131","wem/bandit_either_2","A37SC1GEPN73AN","either","7","712","","","","","","","0","0","1","0.1656684785","","0.6","0.4","0.8","0.2","","","","","0.4110861309","0.3888129637","0.1656684785","0.1137803622","","","","","","","","75","K","2","","","126","main_expt"
"","bandit","206","1209979","0.0-167.0-0.0","51837131","wem/bandit_either_2","A37SC1GEPN73AN","either","7","417","","","","","","","0","0","1","0.1685301808","","0.6","0.4","0.8","0.2","","","","","0.4214671818","0.3659195129","0.1685301808","0.1003054442","","","","","","","","75","K","2","","","127","main_expt"
"","bandit","207","1212218","0.0-168.0-0.0","51837131","wem/bandit_either_2","A37SC1GEPN73AN","either","7","723","","","","","","","0","0","1","0.1703551811","","0.6","0.4","0.8","0.2","","","","","0.36889317","0.3689954399","0.1703551811","0.1378169536","","","","","","","","75","K","2","","","128","main_expt"
"","bandit","208","1214252","0.0-169.0-0.0","51837131","wem/bandit_either_2","A37SC1GEPN73AN","either","7","508","","","","","","","0","0","1","0.1624753709","","0.6","0.4","0.8","0.2","","","","","0.3840267129","0.3600340942","0.1624753709","0.1333081235","","","","","","","","75","K","2","","","129","main_expt"
"","bandit","209","1216436","0.0-170.0-0.0","51837131","wem/bandit_either_2","A37SC1GEPN73AN","either","7","656","","","","","","","0","0","1","0.2335662737","","0.6","0.4","0.8","0.2","","","","","0.3809677701","0.3580797835","0.2335662737","0.1682212827","","","","","","","","75","K","2","","","130","main_expt"
"","bandit","210","1218280","0.0-171.0-0.0","51837131","wem/bandit_either_2","A37SC1GEPN73AN","either","7","327","","","","","","","1","0","0","0.240441026","","0.6","0.4","0.8","0.2","","","","","0.3681933818","0.3785893338","0.240441026","0.2193829955","","","","","","","","75","K","2","","","131","main_expt"
"","bandit","211","1220324","0.0-172.0-0.0","51837131","wem/bandit_either_2","A37SC1GEPN73AN","either","7","512","","","","","","","0","0","1","","0.2266699971","0.6","0.4","0.8","0.2","0.3664045944","0.3764735404","0.2266699971","0.2693349046","","","","","","","","","","","","75","K","2","","","132","main_expt"
"","bandit","212","1223393","0.0-173.0-0.0","51837131","wem/bandit_either_2","A37SC1GEPN73AN","either","7","1541","","","","","","","0","0","1","0.1994193025","","0.6","0.4","0.8","0.2","","","","","0.4046437197","0.3433534211","0.1994193025","0.2576546077","","","","","","","","75","K","2","","","133","main_expt"
"","bandit","213","1225257","0.0-174.0-0.0","51837131","wem/bandit_either_2","A37SC1GEPN73AN","either","7","343","","","","","","","0","0","1","0.1891464922","","0.6","0.4","0.8","0.2","","","","","0.364490756","0.3606247271","0.1891464922","0.2412372273","","","","","","","","75","K","2","","","134","main_expt"
"","bandit","214","1228586","0.0-175.0-0.0","51837131","wem/bandit_either_2","A37SC1GEPN73AN","either","7","1799","","","","","","","0","0","1","0.1614798668","","0.6","0.4","0.8","0.2","","","","","0.311914316","0.3268624306","0.1614798668","0.2198641054","","","","","","","","75","K","2","","","135","main_expt"
"","bandit","215","1230406","0.0-176.0-0.0","51837131","wem/bandit_either_2","A37SC1GEPN73AN","either","7","304","","","","","","","0","0","1","0.1880386222","","0.6","0.4","0.8","0.2","","","","","0.2653901568","0.2854606769","0.1880386222","0.2504132697","","","","","","","","75","K","2","","","136","main_expt"
"","bandit","216","1232418","0.0-177.0-0.0","51837131","wem/bandit_either_2","A37SC1GEPN73AN","either","7","466","","","","","","","0","0","1","0.1961818793","","0.6","0.4","0.8","0.2","","","","","0.2413295316","0.3311747399","0.1961818793","0.1912230989","","","","","","","","75","K","2","","","137","main_expt"
"","bandit","217","1234466","0.0-178.0-0.0","51837131","wem/bandit_either_2","A37SC1GEPN73AN","either","7","525","","","","","","","1","0","0","0.2857678963","","0.6","0.4","0.8","0.2","","","","","0.2060295423","0.2570785188","0.2857678963","0.1576256809","","","","","","","","75","K","2","","","138","main_expt"
"","bandit","218","1236416","0.0-179.0-0.0","51837131","wem/bandit_either_2","A37SC1GEPN73AN","either","7","425","","","","","","","0","0","1","","0.3449131854","0.6","0.4","0.8","0.2","0.1809645164","0.2858060749","0.3449131854","0.1019788138","","","","","","","","","","","","75","K","2","","","139","main_expt"
"","bandit","219","1238634","0.0-180.0-0.0","51837131","wem/bandit_either_2","A37SC1GEPN73AN","either","7","698","","","","","","","1","0","0","0.2537716732","","0.6","0.4","0.8","0.2","","","","","0.1843216893","0.2975559752","0.2537716732","0.07754087054","","","","","","","","75","K","2","","","140","main_expt"
"","bandit","220","1241820","0.0-181.0-0.0","51837131","wem/bandit_either_2","A37SC1GEPN73AN","either","7","1669","","","","","","","1","0","0","0.2858111263","","0.6","0.4","0.8","0.2","","","","","0.1651876155","0.2802168405","0.2858111263","0.09489610577","","","","","","","","75","K","2","","","141","main_expt"
"","bandit","221","1243588","0.0-182.0-0.0","51837131","wem/bandit_either_2","A37SC1GEPN73AN","either","7","249","","","","","","","0","0","1","0.303049367","","0.6","0.4","0.8","0.2","","","","","0.1536427928","0.2231986748","0.303049367","0.09601428546","","","","","","","","75","K","2","","","142","main_expt"
"","bandit","222","1245632","0.0-183.0-0.0","51837131","wem/bandit_either_2","A37SC1GEPN73AN","either","7","520","","","","","","","0","0","1","0.2969419413","","0.6","0.4","0.8","0.2","","","","","0.1546140226","0.2032880393","0.2969419413","0.08301142993","","","","","","","","75","K","2","","","143","main_expt"
"","bandit","223","1247993","0.0-184.0-0.0","51837131","wem/bandit_either_2","A37SC1GEPN73AN","either","7","840","","","","","","","1","0","0","0.3128690494","","0.6","0.4","0.8","0.2","","","","","0.1746031107","0.1967741464","0.3128690494","0.09599686985","","","","","","","","75","K","2","","","144","main_expt"
"","bandit","224","1249860","0.0-185.0-0.0","51837131","wem/bandit_either_2","A37SC1GEPN73AN","either","7","351","","","","","","","0","0","1","0.2991796355","","0.6","0.4","0.8","0.2","","","","","0.2021387556","0.2283154954","0.2991796355","0.07499383622","","","","","","","","75","K","2","","","145","main_expt"
"","bandit","225","1251592","0.0-186.0-0.0","51837131","wem/bandit_either_2","A37SC1GEPN73AN","either","7","210","","","","","","","0","0","1","0.3163763193","","0.6","0.4","0.8","0.2","","","","","0.2504344391","0.2118700154","0.3163763193","0.09566861","","","","","","","","75","K","2","","","146","main_expt"
"","bandit","226","1253791","0.0-187.0-0.0","51837131","wem/bandit_either_2","A37SC1GEPN73AN","either","7","679","","","","","","","0","0","1","0.3198025905","","0.6","0.4","0.8","0.2","","","","","0.2437718569","0.210437557","0.3198025905","0.08578591382","","","","","","","","75","K","2","","","147","main_expt"
"","bandit","227","1256984","0.0-188.0-0.0","51837131","wem/bandit_either_2","A37SC1GEPN73AN","either","7","1670","","","","","","","1","0","0","0.2588245921","","0.6","0.4","0.8","0.2","","","","","0.2446677265","0.2370661354","0.2588245921","0.1147887709","","","","","","","","75","K","2","","","148","main_expt"
"","bandit","228","1258529","0.0-189.0-0.0","51837131","wem/bandit_either_2","A37SC1GEPN73AN","either","7","27","","","","","","","0","0","1","","0.248712437","0.6","0.4","0.8","0.2","0.2911002833","0.2430363771","0.248712437","0.1378203382","","","","","","","","","","","","75","K","2","","","149","main_expt"
"","bandit","229","1260509","0.0-190.0-0.0","51837131","wem/bandit_either_2","A37SC1GEPN73AN","either","7","463","","","","","","","0","0","1","0.179144869","","0.6","0.4","0.8","0.2","","","","","0.3529655025","0.2242182381","0.179144869","0.1414499273","","","","","","","","75","K","2","","","150","main_expt"
"","bandit","230","1265090","0.0-191.0-0.0","51837131","wem/bandit_either_2","A37SC1GEPN73AN","either","7","3058","","","","","","","1","0","0","0.1545669956","","0.6","0.4","0.8","0.2","","","","","0.3885741111","0.1997145133","0.1545669956","0.07852348772","","","","","","","","75","K","2","","","151","main_expt"
"","bandit","231","1267205","0.0-192.0-0.0","51837131","wem/bandit_either_2","A37SC1GEPN73AN","either","7","587","","","","","","","0","0","1","0.1651714415","","0.6","0.4","0.8","0.2","","","","","0.3690499696","0.2195927633","0.1651714415","0.08485793113","","","","","","","","75","K","2","","","152","main_expt"
"","bandit","232","1270118","0.0-193.0-0.0","51837131","wem/bandit_either_2","A37SC1GEPN73AN","either","7","1382","","","","","","","0","0","1","0.2396245514","","0.6","0.4","0.8","0.2","","","","","0.3710492515","0.2121816628","0.2396245514","0.1083789561","","","","","","","","75","K","2","","","153","main_expt"
"","bandit","233","1272953","0.0-194.0-0.0","51837131","wem/bandit_either_2","A37SC1GEPN73AN","either","7","1304","","","","","","","0","0","1","0.2085838567","","0.6","0.4","0.8","0.2","","","","","0.3483335413","0.1830588608","0.2085838567","0.109098481","","","","","","","","75","K","2","","","154","main_expt"
"","bandit","234","1274585","0.0-195.0-0.0","51837131","wem/bandit_either_2","A37SC1GEPN73AN","either","7","118","","","","","","","0","0","1","","0.1864274254","0.6","0.4","0.8","0.2","0.3343760247","0.2031423662","0.1864274254","0.1758262092","","","","","","","","","","","","75","K","2","","","155","main_expt"
"","bandit","235","1276416","0.0-196.0-0.0","51837131","wem/bandit_either_2","A37SC1GEPN73AN","either","7","309","","","","","","","1","0","0","0.1750870897","","0.6","0.4","0.8","0.2","","","","","0.3742013553","0.2022731065","0.1750870897","0.2046597001","","","","","","","","75","K","2","","","156","main_expt"
"","bandit","236","1279009","0.0-197.0-0.0","51837131","wem/bandit_either_2","A37SC1GEPN73AN","either","7","1067","","","","","","","0","0","1","0.1321985386","","0.6","0.4","0.8","0.2","","","","","0.3620366094","0.1826661219","0.1321985386","0.1774751899","","","","","","","","75","K","2","","","157","main_expt"
"","bandit","237","1281958","0.0-198.0-0.0","51837131","wem/bandit_either_2","A37SC1GEPN73AN","either","7","1433","","","","","","","0","0","1","0.1341899746","","0.6","0.4","0.8","0.2","","","","","0.3671714071","0.1658993888","0.1341899746","0.1612033886","","","","","","","","75","K","2","","","158","main_expt"
"","bandit","238","1288894","0.0-199.0-0.0","51837131","wem/bandit_either_2","A37SC1GEPN73AN","either","7","5417","","","","","","","0","0","1","0.1567784951","","0.6","0.4","0.8","0.2","","","","","0.4015988616","0.1620079643","0.1567784951","0.1586838935","","","","","","","","75","K","2","","","159","main_expt"
"","bandit","239","1295500","0.0-200.0-0.0","51837131","wem/bandit_either_2","A37SC1GEPN73AN","either","7","5090","","","","","","","0","0","1","0.1615549635","","0.6","0.4","0.8","0.2","","","","","0.4004877553","0.2453635642","0.1615549635","0.2159944071","","","","","","","","75","K","2","","","160","main_expt"
"","bandit","240","1297619","0.0-201.0-0.0","51837131","wem/bandit_either_2","A37SC1GEPN73AN","either","7","592","","","","","","","1","0","0","0.1854631015","","0.6","0.4","0.8","0.2","","","","","0.4095849454","0.2456373749","0.1854631015","0.2105769377","","","","","","","","75","K","2","","","161","main_expt"
"","bandit","241","1300582","0.0-202.0-0.0","51837131","wem/bandit_either_2","A37SC1GEPN73AN","either","7","1441","","","","","","","0","0","1","","0.21229469","0.6","0.4","0.8","0.2","0.3978002783","0.2460125232","0.21229469","0.2006925765","","","","","","","","","","","","75","K","2","","","162","main_expt"
"","bandit","242","1303051","0.0-203.0-0.0","51837131","wem/bandit_either_2","A37SC1GEPN73AN","either","7","951","","","","","","","1","0","0","0.162194177","","0.6","0.4","0.8","0.2","","","","","0.4180552148","0.2013568893","0.162194177","0.2365124807","","","","","","","","75","K","2","","","163","main_expt"
"","bandit","243","1305027","0.0-204.0-0.0","51837131","wem/bandit_either_2","A37SC1GEPN73AN","either","7","460","","","","","","","1","0","0","0.1535707797","","0.6","0.4","0.8","0.2","","","","","0.4407560021","0.1933595846","0.1535707797","0.2157370886","","","","","","","","75","K","2","","","164","main_expt"
"","bandit","244","1307028","0.0-205.0-0.0","51837131","wem/bandit_either_2","A37SC1GEPN73AN","either","7","477","","","","","","","0","0","1","0.2315934193","","0.6","0.4","0.8","0.2","","","","","0.4582960521","0.167552211","0.2315934193","0.2166787898","","","","","","","","75","K","2","","","165","main_expt"
"","bandit","245","1309100","0.0-206.0-0.0","51837131","wem/bandit_either_2","A37SC1GEPN73AN","either","7","554","","","","","","","0","0","1","0.2579087381","","0.6","0.4","0.8","0.2","","","","","0.4337500892","0.1311237951","0.2579087381","0.1846262972","","","","","","","","75","K","2","","","166","main_expt"
"","bandit","246","1311203","0.0-207.0-0.0","51837131","wem/bandit_either_2","A37SC1GEPN73AN","either","7","570","","","","","","","0","0","1","0.2496457694","","0.6","0.4","0.8","0.2","","","","","0.4537582576","0.1714029316","0.2496457694","0.1888750078","","","","","","","","75","K","2","","","167","main_expt"
"","bandit","247","1313170","0.0-208.0-0.0","51837131","wem/bandit_either_2","A37SC1GEPN73AN","either","7","434","","","","","","","0","0","1","0.234558796","","0.6","0.4","0.8","0.2","","","","","0.4473485534","0.1494402723","0.234558796","0.2315683769","","","","","","","","75","K","2","","","168","main_expt"
"","bandit","248","1315089","0.0-209.0-0.0","51837131","wem/bandit_either_2","A37SC1GEPN73AN","either","7","385","","","","","","","1","0","0","0.2458600006","","0.6","0.4","0.8","0.2","","","","","0.4471591033","0.1819888556","0.2458600006","0.2018123945","","","","","","","","75","K","2","","","169","main_expt"
"","bandit","249","1317354","0.0-210.0-0.0","51837131","wem/bandit_either_2","A37SC1GEPN73AN","either","7","735","","","","","","","0","0","1","0.2214583157","","0.6","0.4","0.8","0.2","","","","","0.4581839475","0.2329206984","0.2214583157","0.139238222","","","","","","","","75","K","2","","","170","main_expt"
"","bandit","250","1319579","0.0-211.0-0.0","51837131","wem/bandit_either_2","A37SC1GEPN73AN","either","7","706","","","","","","","1","0","0","0.296208115","","0.6","0.4","0.8","0.2","","","","","0.4674995421","0.2000607923","0.296208115","0.1466511374","","","","","","","","75","K","2","","","171","main_expt"
"","bandit","251","1321735","0.0-212.0-0.0","51837131","wem/bandit_either_2","A37SC1GEPN73AN","either","7","632","","","","","","","1","0","0","0.3062379281","","0.6","0.4","0.8","0.2","","","","","0.4455620345","0.2342957318","0.3062379281","0.1348290388","","","","","","","","75","K","2","","","172","main_expt"
"","bandit","252","1324975","0.0-213.0-0.0","51837131","wem/bandit_either_2","A37SC1GEPN73AN","either","7","1722","","","","","","","0","0","1","0.2498067723","","0.6","0.4","0.8","0.2","","","","","0.4471610379","0.2189308077","0.2498067723","0.1521691919","","","","","","","","75","K","2","","","173","main_expt"
"","bandit","253","1328194","0.0-214.0-0.0","51837131","wem/bandit_either_2","A37SC1GEPN73AN","either","7","1695","","","","","","","0","0","1","0.1803522277","","0.6","0.4","0.8","0.2","","","","","0.4496576915","0.2373932689","0.1803522277","0.2191935525","","","","","","","","75","K","2","","","174","main_expt"
"","bandit","254","1331068","0.0-215.0-0.0","51837131","wem/bandit_either_2","A37SC1GEPN73AN","either","7","1344","","","","","","","1","0","0","0.2014319342","","0.6","0.4","0.8","0.2","","","","","0.4715297358","0.2160264752","0.2014319342","0.219961305","","","","","","","","75","K","2","","","175","main_expt"
"","bandit","255","1334530","0.0-216.0-0.0","51837131","wem/bandit_either_2","A37SC1GEPN73AN","either","7","1926","","","","","","","1","0","0","0.2122003168","","0.6","0.4","0.8","0.2","","","","","0.477956151","0.1990604306","0.2122003168","0.1882485239","","","","","","","","75","K","2","","","176","main_expt"
"","bandit","256","1336361","0.0-217.0-0.0","51837131","wem/bandit_either_2","A37SC1GEPN73AN","either","7","309","","","","","","","0","0","1","0.2629069455","","0.6","0.4","0.8","0.2","","","","","0.4563721206","0.1729978196","0.2629069455","0.1644902553","","","","","","","","75","K","2","","","177","main_expt"
"","bandit","257","1338103","0.0-218.0-0.0","51837131","wem/bandit_either_2","A37SC1GEPN73AN","either","7","196","","","","","","","0","0","1","0.2336104206","","0.6","0.4","0.8","0.2","","","","","0.4409869931","0.1633080779","0.2336104206","0.1713669852","","","","","","","","75","K","2","","","178","main_expt"
"","bandit","258","1340589","0.0-219.0-0.0","51837131","wem/bandit_either_2","A37SC1GEPN73AN","either","7","953","","","","","","","1","0","0","0.1887504226","","0.6","0.4","0.8","0.2","","","","","0.4243126063","0.1243251356","0.1887504226","0.2263400462","","","","","","","","75","K","2","","","179","main_expt"
"","bandit","259","1342291","0.0-220.0-0.0","51837131","wem/bandit_either_2","A37SC1GEPN73AN","either","7","181","","","","","","","0","0","1","0.138376641","","0.6","0.4","0.8","0.2","","","","","0.4312830743","0.1150149055","0.138376641","0.2036870175","","","","","","","","75","K","2","","","180","main_expt"
"","bandit","260","1343847","0.0-221.0-0.0","51837131","wem/bandit_either_2","A37SC1GEPN73AN","either","7","22","","","","","","","0","0","1","0.1883992559","","0.6","0.4","0.8","0.2","","","","","0.4433127893","0.1407924877","0.1883992559","0.1934599198","","","","","","","","75","K","2","","","181","main_expt"
"","bandit","261","1345935","0.0-222.0-0.0","51837131","wem/bandit_either_2","A37SC1GEPN73AN","either","7","570","","","","","","","0","0","1","0.128889003","","0.6","0.4","0.8","0.2","","","","","0.440136403","0.09672650852","0.128889003","0.2424515525","","","","","","","","75","K","2","","","182","main_expt"
"","bandit","262","1348457","0.0-223.0-0.0","51837131","wem/bandit_either_2","A37SC1GEPN73AN","either","7","1003","","","","","","","0","0","1","0.1748769843","","0.6","0.4","0.8","0.2","","","","","0.4347693449","0.09888002855","0.1748769843","0.1961777535","","","","","","","","75","K","2","","","183","main_expt"
"","bandit","263","1350878","0.0-224.0-0.0","51837131","wem/bandit_either_2","A37SC1GEPN73AN","either","7","875","","","","","","","0","0","1","0.1945994373","","0.6","0.4","0.8","0.2","","","","","0.4277130926","0.07200145298","0.1945994373","0.1489283113","","","","","","","","75","K","2","","","184","main_expt"
"","bandit","264","1352717","0.0-225.0-0.0","51837131","wem/bandit_either_2","A37SC1GEPN73AN","either","7","321","","","","","","","0","0","1","0.1644748654","","0.6","0.4","0.8","0.2","","","","","0.3956248437","0.09476413333","0.1644748654","0.1499965078","","","","","","","","75","K","2","","","185","main_expt"
"","bandit","265","1355594","0.0-226.0-0.0","51837131","wem/bandit_either_2","A37SC1GEPN73AN","either","7","1353","","","","","","","0","0","1","0.1504635592","","0.6","0.4","0.8","0.2","","","","","0.3748928266","0.06556422103","0.1504635592","0.2169832988","","","","","","","","75","K","2","","","186","main_expt"
"","bandit","266","1358867","0.0-227.0-0.0","51837131","wem/bandit_either_2","A37SC1GEPN73AN","either","7","1751","","","","","","","1","0","0","0.1760039214","","0.6","0.4","0.8","0.2","","","","","0.3848139325","0.08901149072","0.1760039214","0.2655186329","","","","","","","","75","K","2","","","187","main_expt"
"","bandit","267","1361067","0.0-228.0-0.0","51837131","wem/bandit_either_2","A37SC1GEPN73AN","either","7","682","","","","","","","0","0","1","0.1203267588","","0.6","0.4","0.8","0.2","","","","","0.3990176401","0.09471428588","0.1203267588","0.2738785118","","","","","","","","75","K","2","","","188","main_expt"
"","bandit","268","1362936","0.0-229.0-0.0","51837131","wem/bandit_either_2","A37SC1GEPN73AN","either","7","352","","","","","","","0","0","1","","0.1171540391","0.6","0.4","0.8","0.2","0.3581396838","0.05118235823","0.1171540391","0.3041874674","","","","","","","","","","","","75","K","2","","","189","main_expt"
"","bandit","269","1364826","0.0-230.0-0.0","51837131","wem/bandit_either_2","A37SC1GEPN73AN","either","7","371","","","","","","","1","0","0","0.1535230761","","0.6","0.4","0.8","0.2","","","","","0.2882972244","0.05788318751","0.1535230761","0.3229453735","","","","","","","","75","K","2","","","190","main_expt"
"","bandit","270","1366435","0.0-231.0-0.0","51837131","wem/bandit_either_2","A37SC1GEPN73AN","either","7","94","","","","","","","1","0","0","0.1372750947","","0.6","0.4","0.8","0.2","","","","","0.3145326233","0.08736915481","0.1372750947","0.3818249757","","","","","","","","75","K","2","","","191","main_expt"
"","bandit","271","1369397","0.0-232.0-0.0","51837131","wem/bandit_either_2","A37SC1GEPN73AN","either","7","1423","","","","","","","0","0","1","0.1047771501","","0.6","0.4","0.8","0.2","","","","","0.3270603702","0.08251019118","0.1047771501","0.4157726243","","","","","","","","75","K","2","","","192","main_expt"
"","bandit","272","1373463","0.0-233.0-0.0","51837131","wem/bandit_either_2","A37SC1GEPN73AN","either","7","2543","","","","","","","0","0","1","0.1100845432","","0.6","0.4","0.8","0.2","","","","","0.3604030797","0.06897628064","0.1100845432","0.4611608212","","","","","","","","75","K","2","","","193","main_expt"
"","bandit","273","1375531","0.0-234.0-0.0","51837131","wem/bandit_either_2","A37SC1GEPN73AN","either","7","543","","","","","","","0","0","1","0.1468163818","","0.6","0.4","0.8","0.2","","","","","0.357423186","0.06801266305","0.1468163818","0.4508818777","","","","","","","","75","K","2","","","194","main_expt"
"","bandit","274","1377432","0.0-235.0-0.0","51837131","wem/bandit_either_2","A37SC1GEPN73AN","either","7","381","","","","","","","0","0","1","","0.1495594621","0.6","0.4","0.8","0.2","0.3697779856","0.09923709358","0.1495594621","0.4278921451","","","","","","","","","","","","75","K","2","","","195","main_expt"
"","bandit","275","1380690","0.0-236.0-0.0","51837131","wem/bandit_either_2","A37SC1GEPN73AN","either","7","1737","","","","","","","0","0","1","0.2263220537","","0.6","0.4","0.8","0.2","","","","","0.3617177512","0.1103063831","0.2263220537","0.4256293003","","","","","","","","75","K","2","","","196","main_expt"
"","bandit","276","1388401","0.0-237.0-0.0","51837131","wem/bandit_either_2","A37SC1GEPN73AN","either","7","6181","","","","","","","1","0","0","0.2204718804","","0.6","0.4","0.8","0.2","","","","","0.3775990084","0.07377144043","0.2204718804","0.4476975038","","","","","","","","75","K","2","","","197","main_expt"
"","bandit","277","1390767","0.0-238.0-0.0","51837131","wem/bandit_either_2","A37SC1GEPN73AN","either","7","836","","","","","","","0","0","1","0.2401118457","","0.6","0.4","0.8","0.2","","","","","0.4144042571","0.08863448313","0.2401118457","0.4434357272","","","","","","","","75","K","2","","","198","main_expt"
"","bandit","278","1395048","0.0-239.0-0.0","51837131","wem/bandit_either_2","A37SC1GEPN73AN","either","7","2758","","","","","","","0","0","1","","0.2673724497","0.6","0.4","0.8","0.2","0.4081775392","0.1082179128","0.2673724497","0.4245114622","","","","","","","","","","","","75","K","2","","","199","main_expt"
"","bandit","279","1397817","0.0-240.0-0.0","51837131","wem/bandit_either_2","A37SC1GEPN73AN","either","7","1240","","","","","","","1","0","0","0.3125307902","","0.6","0.4","0.8","0.2","","","","","0.4166156547","0.09350688576","0.3125307902","0.4087100315","","","","","","","","75","K","2","","","200","main_expt"
"","bandit","280","1400142","0.0-241.0-0.0","51837131","wem/bandit_either_2","A37SC1GEPN73AN","either","7","801","","","","","","","0","0","1","","0.2914574258","0.6","0.4","0.8","0.2","0.4306537176","0.1036625099","0.2914574258","0.4361521275","","","","","","","","","","","","75","K","2","","","201","main_expt"
"","bandit","281","1402660","0.0-242.0-0.0","51837131","wem/bandit_either_2","A37SC1GEPN73AN","either","7","992","","","","","","","0","0","1","0.2550600684","","0.6","0.4","0.8","0.2","","","","","0.449382563","0.1216733889","0.2550600684","0.3332596158","","","","","","","","75","K","2","","","202","main_expt"
"","bandit","282","1404711","0.0-243.0-0.0","51837131","wem/bandit_either_2","A37SC1GEPN73AN","either","7","523","","","","","","","0","0","1","0.2769745997","","0.6","0.4","0.8","0.2","","","","","0.4506576586","0.120655788","0.2769745997","0.3581848779","","","","","","","","75","K","2","","","203","main_expt"
"","bandit","283","1406794","0.0-244.0-0.0","51837131","wem/bandit_either_2","A37SC1GEPN73AN","either","7","561","","","","","","","0","0","1","0.2752990059","","0.6","0.4","0.8","0.2","","","","","0.454839243","0.1082970726","0.2752990059","0.3597133043","","","","","","","","75","K","2","","","204","main_expt"
"","bandit","284","1409150","0.0-245.0-0.0","51837131","wem/bandit_either_2","A37SC1GEPN73AN","either","7","832","","","","","","","0","0","1","0.2901512169","","0.6","0.4","0.8","0.2","","","","","0.4512889682","0.09143681274","0.2901512169","0.3630183988","","","","","","","","75","K","2","","","205","main_expt"
"","bandit","285","1411105","0.0-246.0-0.0","51837131","wem/bandit_either_2","A37SC1GEPN73AN","either","7","427","","","","","","","0","0","1","0.2823763913","","0.6","0.4","0.8","0.2","","","","","0.4591490044","0.08377413986","0.2823763913","0.3737494834","","","","","","","","75","K","2","","","206","main_expt"
"","bandit","286","1413185","0.0-247.0-0.0","51837131","wem/bandit_either_2","A37SC1GEPN73AN","either","7","545","","","","","","","0","0","1","0.2708062506","","0.6","0.4","0.8","0.2","","","","","0.4650593633","0.1585073664","0.2708062506","0.3668784438","","","","","","","","75","K","2","","","207","main_expt"
"","bandit","287","1415732","0.0-248.0-0.0","51837131","wem/bandit_either_2","A37SC1GEPN73AN","either","7","1018","","","","","","","0","0","1","0.2641553663","","0.6","0.4","0.8","0.2","","","","","0.4641513068","0.162299901","0.2641553663","0.4045351895","","","","","","","","75","K","2","","","208","main_expt"
"","bandit","288","1417577","0.0-249.0-0.0","51837131","wem/bandit_either_2","A37SC1GEPN73AN","either","7","321","","","","","","","0","0","1","0.2704675845","","0.6","0.4","0.8","0.2","","","","","0.4567807332","0.1542266077","0.2704675845","0.4402386934","","","","","","","","75","K","2","","","209","main_expt"
"","bandit","289","1419877","0.0-250.0-0.0","51837131","wem/bandit_either_2","A37SC1GEPN73AN","either","7","777","","","","","","","1","0","0","0.3420868926","","0.6","0.4","0.8","0.2","","","","","0.428253188","0.1890415559","0.3420868926","0.4483623408","","","","","","","","75","K","2","","","210","main_expt"
"","bandit","290","1421946","0.0-251.0-0.0","51837131","wem/bandit_either_2","A37SC1GEPN73AN","either","7","552","","","","","","","0","0","1","0.3069688952","","0.6","0.4","0.8","0.2","","","","","0.410271385","0.1818133019","0.3069688952","0.4471415093","","","","","","","","75","K","2","","","211","main_expt"
"","bandit","291","1423818","0.0-252.0-0.0","51837131","wem/bandit_either_2","A37SC1GEPN73AN","either","7","349","","","","","","","0","0","1","0.3005379093","","0.6","0.4","0.8","0.2","","","","","0.4065587724","0.1782747956","0.3005379093","0.4374655127","","","","","","","","75","K","2","","","212","main_expt"
"","bandit","292","1425792","0.0-253.0-0.0","51837131","wem/bandit_either_2","A37SC1GEPN73AN","either","7","446","","","","","","","0","0","1","0.213882915","","0.6","0.4","0.8","0.2","","","","","0.4007116542","0.1935195711","0.213882915","0.4381457257","","","","","","","","75","K","2","","","213","main_expt"
"","bandit","293","1427979","0.0-254.0-0.0","51837131","wem/bandit_either_2","A37SC1GEPN73AN","either","7","659","","","","","","","0","0","1","0.2138557204","","0.6","0.4","0.8","0.2","","","","","0.4246209323","0.2421176173","0.2138557204","0.4643769008","","","","","","","","75","K","2","","","214","main_expt"
"","bandit","294","1429834","0.0-255.0-0.0","51837131","wem/bandit_either_2","A37SC1GEPN73AN","either","7","338","","","","","","","0","0","1","0.2142566612","","0.6","0.4","0.8","0.2","","","","","0.3993057066","0.2629876012","0.2142566612","0.4328812357","","","","","","","","75","K","2","","","215","main_expt"
"","bandit","295","1431875","0.0-256.0-0.0","51837131","wem/bandit_either_2","A37SC1GEPN73AN","either","7","514","","","","","","","0","0","1","0.1900351118","","0.6","0.4","0.8","0.2","","","","","0.3987772474","0.2977714141","0.1900351118","0.4064507999","","","","","","","","75","K","2","","","216","main_expt"
"","bandit","296","1434629","0.0-257.0-0.0","51837131","wem/bandit_either_2","A37SC1GEPN73AN","either","7","1229","","","","","","","0","0","1","0.2185169477","","0.6","0.4","0.8","0.2","","","","","0.4101433534","0.3017601552","0.2185169477","0.4197961641","","","","","","","","75","K","2","","","217","main_expt"
"","bandit","297","1436569","0.0-258.0-0.0","51837131","wem/bandit_either_2","A37SC1GEPN73AN","either","7","420","","","","","","","0","0","1","0.2240895604","","0.6","0.4","0.8","0.2","","","","","0.4448029092","0.2888566207","0.2240895604","0.4167397569","","","","","","","","75","K","2","","","218","main_expt"
"","bandit","298","1440995","0.0-259.0-0.0","51837131","wem/bandit_either_2","A37SC1GEPN73AN","either","7","2901","","","","","","","0","0","1","","0.1990808675","0.6","0.4","0.8","0.2","0.4454766299","0.2844008008","0.1990808675","0.4250944588","","","","","","","","","","","","75","K","2","","","219","main_expt"
"","bandit","299","1444996","0.0-260.0-0.0","51837131","wem/bandit_either_2","A37SC1GEPN73AN","either","7","2482","","","","","","","0","0","1","0.266602996","","0.6","0.4","0.8","0.2","","","","","0.4610997771","0.2225062479","0.266602996","0.4173336587","","","","","","","","75","K","2","","","220","main_expt"
"","bandit","300","1454525","0.0-261.0-0.0","51837131","wem/bandit_either_2","A37SC1GEPN73AN","either","7","8010","","","","","","","0","0","1","0.2443661227","","0.6","0.4","0.8","0.2","","","","","0.4642289789","0.2409900116","0.2443661227","0.3944711005","","","","","","","","75","K","2","","","221","main_expt"
"","bandit","301","1457536","0.0-262.0-0.0","51837131","wem/bandit_either_2","A37SC1GEPN73AN","either","7","1485","","","","","","","0","0","1","0.2205922116","","0.6","0.4","0.8","0.2","","","","","0.4641270597","0.1989678636","0.2205922116","0.3619306912","","","","","","","","75","K","2","","","222","main_expt"
"","bandit","302","1462877","0.0-263.0-0.0","51837131","wem/bandit_either_2","A37SC1GEPN73AN","either","7","3816","","","","","","","0","0","1","0.1861223506","","0.6","0.4","0.8","0.2","","","","","0.4697433819","0.1902867071","0.1861223506","0.4117842179","","","","","","","","75","K","2","","","223","main_expt"
"","bandit","303","1468428","0.0-264.0-0.0","51837131","wem/bandit_either_2","A37SC1GEPN73AN","either","7","4027","","","","","","","0","0","1","0.1668884863","","0.6","0.4","0.8","0.2","","","","","0.460898083","0.2076415522","0.1668884863","0.3965092367","","","","","","","","75","K","2","","","224","main_expt"
"","bandit","304","1470039","0.0-265.0-0.0","51837131","wem/bandit_either_2","A37SC1GEPN73AN","either","7","92","","","","","","","0","0","1","0.4084477862","","0.6","0.4","0.8","0.2","","","","","0.4394890665","0.2393469174","0.1481472712","0.4084477862","","","","","","","","76","L","3","","","225","main_expt"
"","bandit","305","1472235","0.0-266.0-0.0","51837131","wem/bandit_either_2","A37SC1GEPN73AN","either","7","675","","","","","","","0","1","0","","0.4104601526","0.6","0.4","0.8","0.2","0.4520955237","0.2425440376","0.1140846591","0.4104601526","","","","","","","","","","","","76","L","3","","","226","main_expt"
"","bandit","306","1474541","0.0-267.0-0.0","51837131","wem/bandit_either_2","A37SC1GEPN73AN","either","7","770","","","","","","","0","1","0","","0.3899733519","0.6","0.4","0.8","0.2","0.4324220164","0.2365603363","0.1074218354","0.3899733519","","","","","","","","","","","","76","L","3","","","227","main_expt"
"","bandit","307","1476485","0.0-268.0-0.0","51837131","wem/bandit_either_2","A37SC1GEPN73AN","either","7","424","","","","","","","1","0","0","0.3796730737","","0.6","0.4","0.8","0.2","","","","","0.4220482421","0.2127958296","0.08065165665","0.3796730737","","","","","","","","76","L","3","","","228","main_expt"
"","bandit","308","1478269","0.0-269.0-0.0","51837131","wem/bandit_either_2","A37SC1GEPN73AN","either","7","265","","","","","","","1","0","0","0.4046866514","","0.6","0.4","0.8","0.2","","","","","0.3885749154","0.2207861463","0.07774059362","0.4046866514","","","","","","","","76","L","3","","","229","main_expt"
"","bandit","309","1480102","0.0-270.0-0.0","51837131","wem/bandit_either_2","A37SC1GEPN73AN","either","7","292","","","","","","","0","0","1","","0.3988793555","0.6","0.4","0.8","0.2","0.4023755806","0.2589226453","0.1109483114","0.3988793555","","","","","","","","","","","","76","L","3","","","230","main_expt"
"","bandit","310","1481938","0.0-271.0-0.0","51837131","wem/bandit_either_2","A37SC1GEPN73AN","either","7","302","","","","","","","0","1","0","","0.3981898202","0.6","0.4","0.8","0.2","0.3768725222","0.2956158432","0.05902300203","0.3981898202","","","","","","","","","","","","76","L","3","","","231","main_expt"
"","bandit","311","1483765","0.0-272.0-0.0","51837131","wem/bandit_either_2","A37SC1GEPN73AN","either","7","308","","","","","","","0","0","1","","0.4411941832","0.6","0.4","0.8","0.2","0.3619917427","0.3202484073","0.06675855664","0.4411941832","","","","","","","","","","","","76","L","3","","","232","main_expt"
"","bandit","312","1485801","0.0-273.0-0.0","51837131","wem/bandit_either_2","A37SC1GEPN73AN","either","7","513","","","","","","","0","0","1","","0.42967461","0.6","0.4","0.8","0.2","0.3833578816","0.2933644042","0.06703699679","0.42967461","","","","","","","","","","","","76","L","3","","","233","main_expt"
"","bandit","313","1488119","0.0-274.0-0.0","51837131","wem/bandit_either_2","A37SC1GEPN73AN","either","7","795","","","","","","","0","1","0","","0.4242798354","0.6","0.4","0.8","0.2","0.3552131768","0.3106154811","0.05331023031","0.4242798354","","","","","","","","","","","","76","L","3","","","234","main_expt"
"","bandit","314","1490524","0.0-275.0-0.0","51837131","wem/bandit_either_2","A37SC1GEPN73AN","either","7","869","","","","","","","0","0","1","","0.4617388459","0.6","0.4","0.8","0.2","0.3135084543","0.3158990995","0.05187545802","0.4617388459","","","","","","","","","","","","76","L","3","","","235","main_expt"
"","bandit","315","1492611","0.0-276.0-0.0","51837131","wem/bandit_either_2","A37SC1GEPN73AN","either","7","564","","","","","","","0","1","0","","0.4619510484","0.6","0.4","0.8","0.2","0.244945467","0.3036927748","0.06939909985","0.4619510484","","","","","","","","","","","","76","L","3","","","236","main_expt"
"","bandit","316","1495532","0.0-277.0-0.0","51837131","wem/bandit_either_2","A37SC1GEPN73AN","either","7","1395","","","","","","","0","0","1","0.4482398789","","0.6","0.4","0.8","0.2","","","","","0.1823839079","0.3491021326","0.1210409879","0.4482398789","","","","","","","","76","L","3","","","237","main_expt"
"","bandit","317","1497722","0.0-278.0-0.0","51837131","wem/bandit_either_2","A37SC1GEPN73AN","either","7","660","","","","","","","0","0","1","","0.4193969143","0.6","0.4","0.8","0.2","0.1685050226","0.3939254097","0.1147840357","0.4193969143","","","","","","","","","","","","76","L","3","","","238","main_expt"
"","bandit","318","1499733","0.0-279.0-0.0","51837131","wem/bandit_either_2","A37SC1GEPN73AN","either","7","487","","","","","","","0","0","1","","0.4203848948","0.6","0.4","0.8","0.2","0.1606472637","0.379108978","0.1006463842","0.4203848948","","","","","","","","","","","","76","L","3","","","239","main_expt"
"","bandit","319","1501916","0.0-280.0-0.0","51837131","wem/bandit_either_2","A37SC1GEPN73AN","either","7","657","","","","","","","1","0","0","0.4489383263","","0.6","0.4","0.8","0.2","","","","","0.1512795466","0.3876209848","0.1008771133","0.4489383263","","","","","","","","76","L","3","","","240","main_expt"
"","bandit","320","1504595","0.0-281.0-0.0","51837131","wem/bandit_either_2","A37SC1GEPN73AN","either","7","1147","","","","","","","0","0","1","","0.4636195567","0.6","0.4","0.8","0.2","0.1916219391","0.3839625774","0.09981833296","0.4636195567","","","","","","","","","","","","76","L","3","","","241","main_expt"
"","bandit","321","1508545","0.0-282.0-0.0","51837131","wem/bandit_either_2","A37SC1GEPN73AN","either","7","2414","","","","","","","0","1","0","","0.4575307695","0.6","0.4","0.8","0.2","0.1641013935","0.3477958629","0.1171772993","0.4575307695","","","","","","","","","","","","76","L","3","","","242","main_expt"
"","bandit","322","1510356","0.0-283.0-0.0","51837131","wem/bandit_either_2","A37SC1GEPN73AN","either","7","288","","","","","","","0","1","0","","0.4449554393","0.6","0.4","0.8","0.2","0.2064320789","0.3500658948","0.1239984651","0.4449554393","","","","","","","","","","","","76","L","3","","","243","main_expt"
"","bandit","323","1512523","0.0-284.0-0.0","51837131","wem/bandit_either_2","A37SC1GEPN73AN","either","7","629","","","","","","","0","0","1","","0.4525763452","0.6","0.4","0.8","0.2","0.2205496082","0.3452717574","0.1126152289","0.4525763452","","","","","","","","","","","","76","L","3","","","244","main_expt"
"","bandit","324","1514490","0.0-285.0-0.0","51837131","wem/bandit_either_2","A37SC1GEPN73AN","either","7","443","","","","","","","0","0","1","","0.4753838692","0.6","0.4","0.8","0.2","0.214276823","0.3162288444","0.1524829061","0.4753838692","","","","","","","","","","","","76","L","3","","","245","main_expt"
"","bandit","325","1516631","0.0-286.0-0.0","51837131","wem/bandit_either_2","A37SC1GEPN73AN","either","7","602","","","","","","","0","0","1","0.4623654582","","0.6","0.4","0.8","0.2","","","","","0.2084567316","0.2894596967","0.1921750243","0.4623654582","","","","","","","","76","L","3","","","246","main_expt"
"","bandit","326","1519709","0.0-287.0-0.0","51837131","wem/bandit_either_2","A37SC1GEPN73AN","either","7","1551","","","","","","","0","0","1","","0.4331165165","0.6","0.4","0.8","0.2","0.2232303491","0.2642296388","0.1931065189","0.4331165165","","","","","","","","","","","","76","L","3","","","247","main_expt"
"","bandit","327","1522304","0.0-288.0-0.0","51837131","wem/bandit_either_2","A37SC1GEPN73AN","either","7","1067","","","","","","","0","0","1","","0.4401602984","0.6","0.4","0.8","0.2","0.2541796534","0.2534255255","0.2189994516","0.4401602984","","","","","","","","","","","","76","L","3","","","248","main_expt"
"","bandit","328","1524197","0.0-289.0-0.0","51837131","wem/bandit_either_2","A37SC1GEPN73AN","either","7","354","","","","","","","0","1","0","","0.430892824","0.6","0.4","0.8","0.2","0.232462199","0.2252980971","0.1989243371","0.430892824","","","","","","","","","","","","76","L","3","","","249","main_expt"
