"consent","trial_type","trial_index","time_elapsed","internal_node_id","subjID","study","MID","cond","drift","rt","responses","key_press","expt_phase","like","value","connected","gems","bombs","no_reward","GemPrChosen","BombPrChosen","GainOverPainPr_0","GainOverPainPr_1","GainOverPainPr_2","GainOverPainPr_3","LosePr_0","LosePr_1","LosePr_2","LosePr_3","WinPr_0","WinPr_1","WinPr_2","WinPr_3","Q0","Q1","Q2","gender","age","ethnicity","target","respCharCode","respKey","respChoiceNum","respChoice","practice","trial_counter","trial_label"
"INL_behavioral_consent_30min_online.html","consent","0","32666","0.0-0.0","52722333","wem/bandit_either_2","AK7LGB1QOGA1P","either","1","","","","","","","","","","","","","","","","","","","","","","","","","","","","","","","","","","","","","",""
"","survey-text","1","44638","0.0-1.0","52722333","wem/bandit_either_2","AK7LGB1QOGA1P","either","1","10966","{""Q0"":""AK7LGB1QOGA1P""}","","","","","","","","","","","","","","","","","","","","","","","","","","","","","","","","","","","",""
"","text","2","60671","0.0-2.0","52722333","wem/bandit_either_2","AK7LGB1QOGA1P","either","1","15031","","32","","","","","","","","","","","","","","","","","","","","","","","","","","","","","","","","","","",""
"","text","3","67099","0.0-3.0","52722333","wem/bandit_either_2","AK7LGB1QOGA1P","either","1","6426","","32","","","","","","","","","","","","","","","","","","","","","","","","","","","","","","","","","","",""
"","text","4","101324","0.0-4.0","52722333","wem/bandit_either_2","AK7LGB1QOGA1P","either","1","34223","","32","","","","","","","","","","","","","","","","","","","","","","","","","","","","","","","","","","",""
"","text","5","113472","0.0-5.0","52722333","wem/bandit_either_2","AK7LGB1QOGA1P","either","1","12148","","32","","","","","","","","","","","","","","","","","","","","","","","","","","","","","","","","","","",""
"","text","6","124241","0.0-6.0","52722333","wem/bandit_either_2","AK7LGB1QOGA1P","either","1","10767","","32","","","","","","","","","","","","","","","","","","","","","","","","","","","","","","","","","","",""
"","text","7","132131","0.0-7.0","52722333","wem/bandit_either_2","AK7LGB1QOGA1P","either","1","7889","","32","","","","","","","","","","","","","","","","","","","","","","","","","","","","","","","","","","",""
"","text","8","139059","0.0-8.0","52722333","wem/bandit_either_2","AK7LGB1QOGA1P","either","1","6927","","32","","","","","","","","","","","","","","","","","","","","","","","","","","","","","","","","","","",""
"","identification","9","153350","0.0-9.0-0.0","52722333","wem/bandit_either_2","AK7LGB1QOGA1P","either","1","14276","","","","5","5","5","","","","","","","","","","","","","","","","","","","","","","","","the village of Zur","","","","","","",""
"","identification","10","165646","0.0-9.0-1.0","52722333","wem/bandit_either_2","AK7LGB1QOGA1P","either","1","11283","","","","2","2","0","","","","","","","","","","","","","","","","","","","","","","","","the village of Nyx","","","","","","",""
"","text","11","171708","0.0-10.0","52722333","wem/bandit_either_2","AK7LGB1QOGA1P","either","1","5061","","32","","","","","","","","","","","","","","","","","","","","","","","","","","","","","","","","","","",""
"","text","12","176071","0.0-11.0","52722333","wem/bandit_either_2","AK7LGB1QOGA1P","either","1","4363","","32","","","","","","","","","","","","","","","","","","","","","","","","","","","","","","","","","","",""
"","text","13","178683","0.0-12.0","52722333","wem/bandit_either_2","AK7LGB1QOGA1P","either","1","2611","","32","","","","","","","","","","","","","","","","","","","","","","","","","","","","","","","","","","",""
"","text","14","183917","0.0-13.0","52722333","wem/bandit_either_2","AK7LGB1QOGA1P","either","1","5233","","32","","","","","","","","","","","","","","","","","","","","","","","","","","","","","","","","","","",""
"","bandit","15","188355","0.0-14.0-0.0","52722333","wem/bandit_either_2","AK7LGB1QOGA1P","either","1","2932","","","","","","","0","0","1","0","0","","","","","0","","","","0","","","","","","","","","","","74","J","0","img/none_selected_demo.jpg","true","0",""
"","bandit","16","191223","0.0-15.0-0.0","52722333","wem/bandit_either_2","AK7LGB1QOGA1P","either","1","1363","","","","","","","0","0","1","0","0","","","","","0","","","","0","","","","","","","","","","","75","K","0","img/none_selected_demo.jpg","true","0",""
"","text","17","198880","0.0-16.0","52722333","wem/bandit_either_2","AK7LGB1QOGA1P","either","1","7656","","32","","","","","","","","","","","","","","","","","","","","","","","","","","","","","","","","","","",""
"","text","18","208860","0.0-17.0","52722333","wem/bandit_either_2","AK7LGB1QOGA1P","either","1","9979","","32","","","","","","","","","","","","","","","","","","","","","","","","","","","","","","","","","","",""
"","text","19","216735","0.0-18.0","52722333","wem/bandit_either_2","AK7LGB1QOGA1P","either","1","7875","","32","","","","","","","","","","","","","","","","","","","","","","","","","","","","","","","","","","",""
"","text","20","221212","0.0-19.0","52722333","wem/bandit_either_2","AK7LGB1QOGA1P","either","1","4475","","32","","","","","","","","","","","","","","","","","","","","","","","","","","","","","","","","","","",""
"","bandit","21","224309","0.0-20.0-0.0","52722333","wem/bandit_either_2","AK7LGB1QOGA1P","either","1","1593","","","","","","","0","1","0","","0.8","0.5","0.5","","","0.8","0.2","","","","","","","","","","","","","","74","J","0","img/none_selected_demo.jpg","true","0","80_20_practice"
"","bandit","22","226884","0.0-20.0-1.0","52722333","wem/bandit_either_2","AK7LGB1QOGA1P","either","1","1072","","","","","","","1","0","0","0.2","","0.5","0.5","","","","","","","0.8","0.2","","","","","","","","","","75","K","1","","true","0","80_20_practice"
"","bandit","23","229050","0.0-20.0-2.0","52722333","wem/bandit_either_2","AK7LGB1QOGA1P","either","1","662","","","","","","","0","0","1","0.2","","0.5","0.5","","","","","","","0.8","0.2","","","","","","","","","","75","K","1","","true","0","80_20_practice"
"","bandit","24","231006","0.0-20.0-3.0","52722333","wem/bandit_either_2","AK7LGB1QOGA1P","either","1","452","","","","","","","0","0","1","0.2","","0.5","0.5","","","","","","","0.8","0.2","","","","","","","","","","75","K","1","","true","0","80_20_practice"
"","bandit","25","232923","0.0-20.0-4.0","52722333","wem/bandit_either_2","AK7LGB1QOGA1P","either","1","413","","","","","","","0","0","1","","0.2","0.5","0.5","","","0.8","0.2","","","","","","","","","","","","","","75","K","1","","true","0","80_20_practice"
"","bandit","26","234758","0.0-20.0-5.0","52722333","wem/bandit_either_2","AK7LGB1QOGA1P","either","1","332","","","","","","","0","0","1","","0.2","0.5","0.5","","","0.8","0.2","","","","","","","","","","","","","","75","K","1","","true","0","80_20_practice"
"","bandit","27","236647","0.0-20.0-6.0","52722333","wem/bandit_either_2","AK7LGB1QOGA1P","either","1","385","","","","","","","0","1","0","","0.8","0.5","0.5","","","0.8","0.2","","","","","","","","","","","","","","74","J","0","img/none_selected_demo.jpg","true","0","80_20_practice"
"","bandit","28","238519","0.0-20.0-7.0","52722333","wem/bandit_either_2","AK7LGB1QOGA1P","either","1","369","","","","","","","0","0","1","","0.8","0.5","0.5","","","0.8","0.2","","","","","","","","","","","","","","74","J","0","img/none_selected_demo.jpg","true","0","80_20_practice"
"","bandit","29","240352","0.0-20.0-8.0","52722333","wem/bandit_either_2","AK7LGB1QOGA1P","either","1","330","","","","","","","0","1","0","","0.8","0.5","0.5","","","0.8","0.2","","","","","","","","","","","","","","74","J","0","img/none_selected_demo.jpg","true","0","80_20_practice"
"","bandit","30","242372","0.0-20.0-9.0","52722333","wem/bandit_either_2","AK7LGB1QOGA1P","either","1","515","","","","","","","1","0","0","0.8","","0.5","0.5","","","","","","","0.8","0.2","","","","","","","","","","74","J","0","img/none_selected_demo.jpg","true","0","80_20_practice"
"","bandit","31","244295","0.0-20.0-10.0","52722333","wem/bandit_either_2","AK7LGB1QOGA1P","either","1","418","","","","","","","0","1","0","","0.8","0.5","0.5","","","0.8","0.2","","","","","","","","","","","","","","74","J","0","img/none_selected_demo.jpg","true","0","80_20_practice"
"","bandit","32","246148","0.0-20.0-11.0","52722333","wem/bandit_either_2","AK7LGB1QOGA1P","either","1","348","","","","","","","0","0","1","0.2","","0.5","0.5","","","","","","","0.8","0.2","","","","","","","","","","75","K","1","","true","0","80_20_practice"
"","bandit","33","247958","0.0-20.0-12.0","52722333","wem/bandit_either_2","AK7LGB1QOGA1P","either","1","305","","","","","","","1","0","0","0.8","","0.5","0.5","","","","","","","0.8","0.2","","","","","","","","","","74","J","0","img/none_selected_demo.jpg","true","0","80_20_practice"
"","bandit","34","250008","0.0-20.0-13.0","52722333","wem/bandit_either_2","AK7LGB1QOGA1P","either","1","545","","","","","","","1","0","0","0.8","","0.5","0.5","","","","","","","0.8","0.2","","","","","","","","","","74","J","0","img/none_selected_demo.jpg","true","0","80_20_practice"
"","bandit","35","252302","0.0-20.0-14.0","52722333","wem/bandit_either_2","AK7LGB1QOGA1P","either","1","789","","","","","","","0","0","1","","0.8","0.5","0.5","","","0.8","0.2","","","","","","","","","","","","","","74","J","0","img/none_selected_demo.jpg","true","0","80_20_practice"
"","bandit","36","254204","0.0-20.0-15.0","52722333","wem/bandit_either_2","AK7LGB1QOGA1P","either","1","399","","","","","","","0","1","0","","0.8","0.5","0.5","","","0.8","0.2","","","","","","","","","","","","","","74","J","0","img/none_selected_demo.jpg","true","0","80_20_practice"
"","bandit","37","256185","0.0-20.0-16.0","52722333","wem/bandit_either_2","AK7LGB1QOGA1P","either","1","476","","","","","","","0","0","1","","0.2","0.5","0.5","","","0.8","0.2","","","","","","","","","","","","","","75","K","1","","true","0","80_20_practice"
"","bandit","38","258014","0.0-20.0-17.0","52722333","wem/bandit_either_2","AK7LGB1QOGA1P","either","1","325","","","","","","","1","0","0","0.8","","0.5","0.5","","","","","","","0.8","0.2","","","","","","","","","","74","J","0","img/none_selected_demo.jpg","true","0","80_20_practice"
"","bandit","39","260213","0.0-20.0-18.0","52722333","wem/bandit_either_2","AK7LGB1QOGA1P","either","1","694","","","","","","","0","1","0","","0.8","0.5","0.5","","","0.8","0.2","","","","","","","","","","","","","","74","J","0","img/none_selected_demo.jpg","true","0","80_20_practice"
"","bandit","40","262312","0.0-20.0-19.0","52722333","wem/bandit_either_2","AK7LGB1QOGA1P","either","1","595","","","","","","","0","1","0","","0.8","0.5","0.5","","","0.8","0.2","","","","","","","","","","","","","","74","J","0","img/none_selected_demo.jpg","true","0","80_20_practice"
"","text","41","268028","0.0-21.0","52722333","wem/bandit_either_2","AK7LGB1QOGA1P","either","1","5714","","32","","","","","","","","","","","","","","","","","","","","","","","","","","","","","","","","","","",""
"","bandit","42","270807","0.0-22.0-0.0","52722333","wem/bandit_either_2","AK7LGB1QOGA1P","either","1","1276","","","","","","","1","0","0","1","0","","","","","0","1","","","1","0","","","","","","","","","","74","J","0","img/none_selected_demo.jpg","true","0",""
"","text","43","276346","0.0-23.0","52722333","wem/bandit_either_2","AK7LGB1QOGA1P","either","1","5538","","32","","","","","","","","","","","","","","","","","","","","","","","","","","","","","","","","","","",""
"","text","44","279629","0.0-24.0","52722333","wem/bandit_either_2","AK7LGB1QOGA1P","either","1","3282","","32","","","","","","","","","","","","","","","","","","","","","","","","","","","","","","","","","","",""
"","text","45","282752","0.0-25.0","52722333","wem/bandit_either_2","AK7LGB1QOGA1P","either","1","3121","","32","","","","","","","","","","","","","","","","","","","","","","","","","","","","","","","","","","",""
"","text","46","286395","0.0-26.0","52722333","wem/bandit_either_2","AK7LGB1QOGA1P","either","1","3642","","32","","","","","","","","","","","","","","","","","","","","","","","","","","","","","","","","","","",""
"","text","47","300005","0.0-27.0","52722333","wem/bandit_either_2","AK7LGB1QOGA1P","either","1","13608","","32","","","","","","","","","","","","","","","","","","","","","","","","","","","","","","","","","","",""
"","text","48","303940","0.0-28.0","52722333","wem/bandit_either_2","AK7LGB1QOGA1P","either","1","3934","","32","","","","","","","","","","","","","","","","","","","","","","","","","","","","","","","","","","",""
"","text","49","310209","0.0-29.0","52722333","wem/bandit_either_2","AK7LGB1QOGA1P","either","1","6267","","32","","","","","","","","","","","","","","","","","","","","","","","","","","","","","","","","","","",""
"","text","50","314041","0.0-30.0","52722333","wem/bandit_either_2","AK7LGB1QOGA1P","either","1","3830","","32","","","","","","","","","","","","","","","","","","","","","","","","","","","","","","","","","","",""
"","text","51","319223","0.0-31.0","52722333","wem/bandit_either_2","AK7LGB1QOGA1P","either","1","5181","","32","","","","","","","","","","","","","","","","","","","","","","","","","","","","","","","","","","",""
"","text","52","321835","0.0-32.0","52722333","wem/bandit_either_2","AK7LGB1QOGA1P","either","1","2611","","32","","","","","","","","","","","","","","","","","","","","","","","","","","","","","","","","","","",""
"","text","53","326146","0.0-33.0","52722333","wem/bandit_either_2","AK7LGB1QOGA1P","either","1","4310","","32","","","","","","","","","","","","","","","","","","","","","","","","","","","","","","","","","","",""
"","bandit","54","328757","0.0-34.0-0.0","52722333","wem/bandit_either_2","AK7LGB1QOGA1P","either","1","1106","","","","","","","1","0","0","0.8","","0.5","0.5","0.5","0.5","","","","","0.8","0.2","0.6","0.2","","","","","","","","72","H","0","img/none_selected.jpg","true","0","full_practice"
"","bandit","55","330742","0.0-34.0-1.0","52722333","wem/bandit_either_2","AK7LGB1QOGA1P","either","1","480","","","","","","","1","0","0","0.8","","0.5","0.5","0.5","0.5","","","","","0.8","0.2","0.6","0.2","","","","","","","","72","H","0","img/none_selected.jpg","true","0","full_practice"
"","bandit","56","332621","0.0-34.0-2.0","52722333","wem/bandit_either_2","AK7LGB1QOGA1P","either","1","375","","","","","","","1","0","0","0.8","","0.5","0.5","0.5","0.5","","","","","0.8","0.2","0.6","0.2","","","","","","","","72","H","0","img/none_selected.jpg","true","0","full_practice"
"","bandit","57","334515","0.0-34.0-3.0","52722333","wem/bandit_either_2","AK7LGB1QOGA1P","either","1","390","","","","","","","1","0","0","0.8","","0.5","0.5","0.5","0.5","","","","","0.8","0.2","0.6","0.2","","","","","","","","72","H","0","img/none_selected.jpg","true","0","full_practice"
"","bandit","58","336325","0.0-34.0-4.0","52722333","wem/bandit_either_2","AK7LGB1QOGA1P","either","1","306","","","","","","","1","0","0","0.8","","0.5","0.5","0.5","0.5","","","","","0.8","0.2","0.6","0.2","","","","","","","","72","H","0","img/none_selected.jpg","true","0","full_practice"
"","bandit","59","338194","0.0-34.0-5.0","52722333","wem/bandit_either_2","AK7LGB1QOGA1P","either","1","364","","","","","","","0","1","0","","0.8","0.5","0.5","0.5","0.5","0.8","0.2","0.6","0.2","","","","","","","","","","","","72","H","0","img/none_selected.jpg","true","0","full_practice"
"","bandit","60","340238","0.0-34.0-6.0","52722333","wem/bandit_either_2","AK7LGB1QOGA1P","either","1","540","","","","","","","0","1","0","","0.8","0.5","0.5","0.5","0.5","0.8","0.2","0.6","0.2","","","","","","","","","","","","72","H","0","img/none_selected.jpg","true","0","full_practice"
"","bandit","61","342336","0.0-34.0-7.0","52722333","wem/bandit_either_2","AK7LGB1QOGA1P","either","1","593","","","","","","","1","0","0","0.8","","0.5","0.5","0.5","0.5","","","","","0.8","0.2","0.6","0.2","","","","","","","","72","H","0","img/none_selected.jpg","true","0","full_practice"
"","bandit","62","344212","0.0-34.0-8.0","52722333","wem/bandit_either_2","AK7LGB1QOGA1P","either","1","372","","","","","","","0","1","0","","0.8","0.5","0.5","0.5","0.5","0.8","0.2","0.6","0.2","","","","","","","","","","","","72","H","0","img/none_selected.jpg","true","0","full_practice"
"","bandit","63","346247","0.0-34.0-9.0","52722333","wem/bandit_either_2","AK7LGB1QOGA1P","either","1","530","","","","","","","0","0","1","0.2","","0.5","0.5","0.5","0.5","","","","","0.8","0.2","0.6","0.2","","","","","","","","76","L","3","","true","0","full_practice"
"","bandit","64","348244","0.0-34.0-10.0","52722333","wem/bandit_either_2","AK7LGB1QOGA1P","either","1","493","","","","","","","0","0","1","","0.2","0.5","0.5","0.5","0.5","0.8","0.2","0.6","0.2","","","","","","","","","","","","76","L","3","","true","0","full_practice"
"","bandit","65","350230","0.0-34.0-11.0","52722333","wem/bandit_either_2","AK7LGB1QOGA1P","either","1","482","","","","","","","0","0","1","0.2","","0.5","0.5","0.5","0.5","","","","","0.8","0.2","0.6","0.2","","","","","","","","76","L","3","","true","0","full_practice"
"","bandit","66","352063","0.0-34.0-12.0","52722333","wem/bandit_either_2","AK7LGB1QOGA1P","either","1","328","","","","","","","1","0","0","0.6","","0.5","0.5","0.5","0.5","","","","","0.8","0.2","0.6","0.2","","","","","","","","75","K","2","","true","0","full_practice"
"","bandit","67","353937","0.0-34.0-13.0","52722333","wem/bandit_either_2","AK7LGB1QOGA1P","either","1","369","","","","","","","1","0","0","0.6","","0.5","0.5","0.5","0.5","","","","","0.8","0.2","0.6","0.2","","","","","","","","75","K","2","","true","0","full_practice"
"","bandit","68","355757","0.0-34.0-14.0","52722333","wem/bandit_either_2","AK7LGB1QOGA1P","either","1","315","","","","","","","0","0","1","0.6","","0.5","0.5","0.5","0.5","","","","","0.8","0.2","0.6","0.2","","","","","","","","75","K","2","","true","0","full_practice"
"","bandit","69","357642","0.0-34.0-15.0","52722333","wem/bandit_either_2","AK7LGB1QOGA1P","either","1","381","","","","","","","1","0","0","0.6","","0.5","0.5","0.5","0.5","","","","","0.8","0.2","0.6","0.2","","","","","","","","75","K","2","","true","0","full_practice"
"","bandit","70","359401","0.0-34.0-16.0","52722333","wem/bandit_either_2","AK7LGB1QOGA1P","either","1","254","","","","","","","0","0","1","0.2","","0.5","0.5","0.5","0.5","","","","","0.8","0.2","0.6","0.2","","","","","","","","74","J","1","","true","0","full_practice"
"","bandit","71","361252","0.0-34.0-17.0","52722333","wem/bandit_either_2","AK7LGB1QOGA1P","either","1","346","","","","","","","0","0","1","","0.2","0.5","0.5","0.5","0.5","0.8","0.2","0.6","0.2","","","","","","","","","","","","74","J","1","","true","0","full_practice"
"","bandit","72","363054","0.0-34.0-18.0","52722333","wem/bandit_either_2","AK7LGB1QOGA1P","either","1","297","","","","","","","0","0","1","0.2","","0.5","0.5","0.5","0.5","","","","","0.8","0.2","0.6","0.2","","","","","","","","74","J","1","","true","0","full_practice"
"","bandit","73","364859","0.0-34.0-19.0","52722333","wem/bandit_either_2","AK7LGB1QOGA1P","either","1","299","","","","","","","0","0","1","0.2","","0.5","0.5","0.5","0.5","","","","","0.8","0.2","0.6","0.2","","","","","","","","74","J","1","","true","0","full_practice"
"","text","74","368150","0.0-35.0","52722333","wem/bandit_either_2","AK7LGB1QOGA1P","either","1","3287","","32","","","","","","","","","","","","","","","","","","","","","","","","","","","","","","","","","","",""
"","text","75","383316","0.0-36.0","52722333","wem/bandit_either_2","AK7LGB1QOGA1P","either","1","14163","","32","","","","","","","","","","","","","","","","","","","","","","","","","","","","","","","","","","",""
"","text","76","394533","0.0-37.0","52722333","wem/bandit_either_2","AK7LGB1QOGA1P","either","1","11215","","32","","","","","","","","","","","","","","","","","","","","","","","","","","","","","","","","","","",""
"","text","77","400320","0.0-38.0","52722333","wem/bandit_either_2","AK7LGB1QOGA1P","either","1","5785","","32","","","","","","","","","","","","","","","","","","","","","","","","","","","","","","","","","","",""
"","text","78","407002","0.0-39.0","52722333","wem/bandit_either_2","AK7LGB1QOGA1P","either","1","6681","","32","","","","","","","","","","","","","","","","","","","","","","","","","","","","","","","","","","",""
"","text","79","414112","0.0-40.0","52722333","wem/bandit_either_2","AK7LGB1QOGA1P","either","1","7107","","32","","","","","","","","","","","","","","","","","","","","","","","","","","","","","","","","","","",""
"","bandit","80","417121","0.0-41.0-0.0","52722333","wem/bandit_either_2","AK7LGB1QOGA1P","either","1","1504","","","","","","","1","0","0","0.0798457429","","0.6","0.2","0.8","0.4","","","","","0.0798457429","0.3592836462","0.4269289603","0.02943109976","","","","","","","","72","H","0","img/none_selected.jpg","","1","main_expt"
"","bandit","81","419287","0.0-42.0-0.0","52722333","wem/bandit_either_2","AK7LGB1QOGA1P","either","1","661","","","","","","","0","0","1","0.07621336767","","0.6","0.2","0.8","0.4","","","","","0.07621336767","0.3454903542","0.4660243271","0.06336112212","","","","","","","","72","H","0","img/none_selected.jpg","","2","main_expt"
"","bandit","82","421232","0.0-43.0-0.0","52722333","wem/bandit_either_2","AK7LGB1QOGA1P","either","1","440","","","","","","","0","0","1","0.07476295528","","0.6","0.2","0.8","0.4","","","","","0.07476295528","0.2941512374","0.4738503749","0.07335687118","","","","","","","","72","H","0","img/none_selected.jpg","","3","main_expt"
"","bandit","83","423343","0.0-44.0-0.0","52722333","wem/bandit_either_2","AK7LGB1QOGA1P","either","1","606","","","","","","","0","0","1","0.06526985361","","0.6","0.2","0.8","0.4","","","","","0.06526985361","0.2851241965","0.4618500418","0.06156305515","","","","","","","","72","H","0","img/none_selected.jpg","","4","main_expt"
"","bandit","84","425193","0.0-45.0-0.0","52722333","wem/bandit_either_2","AK7LGB1QOGA1P","either","1","346","","","","","","","0","0","1","0.3172925843","","0.6","0.2","0.8","0.4","","","","","0.05487735528","0.3172925843","0.4488935273","0.08141194251","","","","","","","","74","J","1","","","5","main_expt"
"","bandit","85","427140","0.0-46.0-0.0","52722333","wem/bandit_either_2","AK7LGB1QOGA1P","either","1","443","","","","","","","0","1","0","","0.3319153021","0.6","0.2","0.8","0.4","0.04340015571","0.3319153021","0.4437832297","0.1104821702","","","","","","","","","","","","74","J","1","","","6","main_expt"
"","bandit","86","429046","0.0-47.0-0.0","52722333","wem/bandit_either_2","AK7LGB1QOGA1P","either","1","402","","","","","","","0","1","0","","0.3553039772","0.6","0.2","0.8","0.4","0.04575060371","0.3553039772","0.4310077805","0.1191408541","","","","","","","","","","","","74","J","1","","","7","main_expt"
"","bandit","87","430941","0.0-48.0-0.0","52722333","wem/bandit_either_2","AK7LGB1QOGA1P","either","1","391","","","","","","","0","0","1","","0.3868093767","0.6","0.2","0.8","0.4","0.06112087539","0.3868093767","0.4480386191","0.1517570037","","","","","","","","","","","","74","J","1","","","8","main_expt"
"","bandit","88","432754","0.0-49.0-0.0","52722333","wem/bandit_either_2","AK7LGB1QOGA1P","either","1","308","","","","","","","0","0","1","0.4460224538","","0.6","0.2","0.8","0.4","","","","","0.07854191076","0.3754406694","0.4460224538","0.1738087075","","","","","","","","75","K","2","","","9","main_expt"
"","bandit","89","434570","0.0-50.0-0.0","52722333","wem/bandit_either_2","AK7LGB1QOGA1P","either","1","312","","","","","","","0","0","1","0.3954493452","","0.6","0.2","0.8","0.4","","","","","0.06865483858","0.3537433427","0.3954493452","0.2033535465","","","","","","","","75","K","2","","","10","main_expt"
"","bandit","90","436436","0.0-51.0-0.0","52722333","wem/bandit_either_2","AK7LGB1QOGA1P","either","1","360","","","","","","","1","0","0","0.4064238371","","0.6","0.2","0.8","0.4","","","","","0.05083805298","0.3793358735","0.4064238371","0.1751631116","","","","","","","","75","K","2","","","11","main_expt"
"","bandit","91","438309","0.0-52.0-0.0","52722333","wem/bandit_either_2","AK7LGB1QOGA1P","either","1","369","","","","","","","1","0","0","0.3800839449","","0.6","0.2","0.8","0.4","","","","","0.1038792476","0.3800428212","0.3800839449","0.1787487179","","","","","","","","75","K","2","","","12","main_expt"
"","bandit","92","440118","0.0-53.0-0.0","52722333","wem/bandit_either_2","AK7LGB1QOGA1P","either","1","304","","","","","","","0","0","1","0.3866628193","","0.6","0.2","0.8","0.4","","","","","0.1197284353","0.3647981021","0.3866628193","0.1794712961","","","","","","","","75","K","2","","","13","main_expt"
"","bandit","93","441918","0.0-54.0-0.0","52722333","wem/bandit_either_2","AK7LGB1QOGA1P","either","1","294","","","","","","","0","1","0","","0.2482140722","0.6","0.2","0.8","0.4","0.135681701","0.3646471907","0.326509825","0.2482140722","","","","","","","","","","","","76","L","3","","","14","main_expt"
"","bandit","94","443737","0.0-55.0-0.0","52722333","wem/bandit_either_2","AK7LGB1QOGA1P","either","1","316","","","","","","","0","0","1","","0.2859415589","0.6","0.2","0.8","0.4","0.125153919","0.3549291363","0.2428529647","0.2859415589","","","","","","","","","","","","76","L","3","","","15","main_expt"
"","bandit","95","445567","0.0-56.0-0.0","52722333","wem/bandit_either_2","AK7LGB1QOGA1P","either","1","326","","","","","","","0","0","1","0.26587149","","0.6","0.2","0.8","0.4","","","","","0.1096891688","0.3727350689","0.2332962783","0.26587149","","","","","","","","76","L","3","","","16","main_expt"
"","bandit","96","447328","0.0-57.0-0.0","52722333","wem/bandit_either_2","AK7LGB1QOGA1P","either","1","256","","","","","","","0","0","1","0.2776265896","","0.6","0.2","0.8","0.4","","","","","0.1051581447","0.3112083829","0.2271032234","0.2776265896","","","","","","","","76","L","3","","","17","main_expt"
"","bandit","97","449164","0.0-58.0-0.0","52722333","wem/bandit_either_2","AK7LGB1QOGA1P","either","1","331","","","","","","","0","0","1","0.1701710303","","0.6","0.2","0.8","0.4","","","","","0.1437943492","0.2403081055","0.1701710303","0.3223387563","","","","","","","","75","K","2","","","18","main_expt"
"","bandit","98","451027","0.0-59.0-0.0","52722333","wem/bandit_either_2","AK7LGB1QOGA1P","either","1","359","","","","","","","0","0","1","","0.1405615485","0.6","0.2","0.8","0.4","0.1405615485","0.2377482675","0.2070198111","0.3192918255","","","","","","","","","","","","72","H","0","img/none_selected.jpg","","19","main_expt"
"","bandit","99","453003","0.0-60.0-0.0","52722333","wem/bandit_either_2","AK7LGB1QOGA1P","either","1","470","","","","","","","1","0","0","0.1063334751","","0.6","0.2","0.8","0.4","","","","","0.1063334751","0.2607530295","0.2412547966","0.2739159796","","","","","","","","72","H","0","img/none_selected.jpg","","20","main_expt"
"","bandit","100","454925","0.0-61.0-0.0","52722333","wem/bandit_either_2","AK7LGB1QOGA1P","either","1","416","","","","","","","0","0","1","0.07848250716","","0.6","0.2","0.8","0.4","","","","","0.07848250716","0.2919400674","0.2184758186","0.2454385858","","","","","","","","72","H","0","img/none_selected.jpg","","21","main_expt"
"","bandit","101","456803","0.0-62.0-0.0","52722333","wem/bandit_either_2","AK7LGB1QOGA1P","either","1","374","","","","","","","0","0","1","0.1849325376","","0.6","0.2","0.8","0.4","","","","","0.1005082742","0.2995681058","0.1849325376","0.2340842041","","","","","","","","75","K","2","","","22","main_expt"
"","bandit","102","458666","0.0-63.0-0.0","52722333","wem/bandit_either_2","AK7LGB1QOGA1P","either","1","357","","","","","","","0","0","1","0.0792694407","","0.6","0.2","0.8","0.4","","","","","0.0792694407","0.292554742","0.1521197653","0.1840173947","","","","","","","","72","H","0","img/none_selected.jpg","","23","main_expt"
"","bandit","103","460522","0.0-64.0-0.0","52722333","wem/bandit_either_2","AK7LGB1QOGA1P","either","1","352","","","","","","","0","0","1","0.1759403195","","0.6","0.2","0.8","0.4","","","","","0.07358699385","0.3616894364","0.1759403195","0.1745529383","","","","","","","","75","K","2","","","24","main_expt"
"","bandit","104","462344","0.0-65.0-0.0","52722333","wem/bandit_either_2","AK7LGB1QOGA1P","either","1","317","","","","","","","0","0","1","","0.3575757263","0.6","0.2","0.8","0.4","0.142208116","0.3575757263","0.09479311865","0.1756582033","","","","","","","","","","","","74","J","1","","","25","main_expt"
"","bandit","105","464098","0.0-66.0-0.0","52722333","wem/bandit_either_2","AK7LGB1QOGA1P","either","1","248","","","","","","","0","0","1","","0.2086365416","0.6","0.2","0.8","0.4","0.1245113583","0.3635346368","0.08156123497","0.2086365416","","","","","","","","","","","","76","L","3","","","26","main_expt"
"","bandit","106","465803","0.0-67.0-0.0","52722333","wem/bandit_either_2","AK7LGB1QOGA1P","either","1","201","","","","","","","0","0","1","0.118364605","","0.6","0.2","0.8","0.4","","","","","0.118364605","0.4109801844","0.1102307873","0.2139763749","","","","","","","","72","H","0","img/none_selected.jpg","","27","main_expt"
"","bandit","107","467631","0.0-68.0-0.0","52722333","wem/bandit_either_2","AK7LGB1QOGA1P","either","1","323","","","","","","","0","0","1","0.08274430796","","0.6","0.2","0.8","0.4","","","","","0.1105930361","0.3772962545","0.08274430796","0.1613483267","","","","","","","","75","K","2","","","28","main_expt"
"","bandit","108","469432","0.0-69.0-0.0","52722333","wem/bandit_either_2","AK7LGB1QOGA1P","either","1","297","","","","","","","0","0","1","","0.1118713044","0.6","0.2","0.8","0.4","0.1118713044","0.3875745016","0.1086911099","0.1712488152","","","","","","","","","","","","72","H","0","img/none_selected.jpg","","29","main_expt"
"","bandit","109","471178","0.0-70.0-0.0","52722333","wem/bandit_either_2","AK7LGB1QOGA1P","either","1","240","","","","","","","0","0","1","","0.3780019893","0.6","0.2","0.8","0.4","0.1914750456","0.3780019893","0.1116575632","0.1675524316","","","","","","","","","","","","74","J","1","","","30","main_expt"
"","bandit","110","472942","0.0-71.0-0.0","52722333","wem/bandit_either_2","AK7LGB1QOGA1P","either","1","259","","","","","","","0","0","1","0.140325158","","0.6","0.2","0.8","0.4","","","","","0.2367730164","0.416860241","0.07828091442","0.140325158","","","","","","","","76","L","3","","","31","main_expt"
"","bandit","111","474772","0.0-72.0-0.0","52722333","wem/bandit_either_2","AK7LGB1QOGA1P","either","1","326","","","","","","","0","0","1","","0.07550395781","0.6","0.2","0.8","0.4","0.2109574779","0.4242573056","0.07550395781","0.1553940025","","","","","","","","","","","","75","K","2","","","32","main_expt"
"","bandit","112","476639","0.0-73.0-0.0","52722333","wem/bandit_either_2","AK7LGB1QOGA1P","either","1","362","","","","","","","0","1","0","","0.2005542758","0.6","0.2","0.8","0.4","0.2005542758","0.4185546122","0.1445529326","0.1925614924","","","","","","","","","","","","72","H","0","img/none_selected.jpg","","33","main_expt"
"","bandit","113","478681","0.0-74.0-0.0","52722333","wem/bandit_either_2","AK7LGB1QOGA1P","either","1","536","","","","","","","0","0","1","0.180377021","","0.6","0.2","0.8","0.4","","","","","0.180377021","0.4268308419","0.1091775744","0.2150530123","","","","","","","","72","H","0","img/none_selected.jpg","","34","main_expt"
"","bandit","114","480544","0.0-75.0-0.0","52722333","wem/bandit_either_2","AK7LGB1QOGA1P","either","1","358","","","","","","","0","0","1","0.2111187229","","0.6","0.2","0.8","0.4","","","","","0.2111187229","0.4265642185","0.1297995116","0.2688968874","","","","","","","","72","H","0","img/none_selected.jpg","","35","main_expt"
"","bandit","115","482410","0.0-76.0-0.0","52722333","wem/bandit_either_2","AK7LGB1QOGA1P","either","1","360","","","","","","","0","0","1","","0.2119332756","0.6","0.2","0.8","0.4","0.2119332756","0.4066287969","0.09468550628","0.2977459964","","","","","","","","","","","","72","H","0","img/none_selected.jpg","","36","main_expt"
"","bandit","116","484232","0.0-77.0-0.0","52722333","wem/bandit_either_2","AK7LGB1QOGA1P","either","1","317","","","","","","","0","0","1","","0.2256131965","0.6","0.2","0.8","0.4","0.2256131965","0.4611471687","0.09396978408","0.2684429955","","","","","","","","","","","","72","H","0","img/none_selected.jpg","","37","main_expt"
"","bandit","117","486135","0.0-78.0-0.0","52722333","wem/bandit_either_2","AK7LGB1QOGA1P","either","1","397","","","","","","","0","0","1","0.1062257399","","0.6","0.2","0.8","0.4","","","","","0.1975147253","0.4482708269","0.1062257399","0.2490186117","","","","","","","","75","K","2","","","38","main_expt"
"","bandit","118","488102","0.0-79.0-0.0","52722333","wem/bandit_either_2","AK7LGB1QOGA1P","either","1","460","","","","","","","0","0","1","0.09676453159","","0.6","0.2","0.8","0.4","","","","","0.1595648847","0.4402774387","0.09676453159","0.2548033483","","","","","","","","75","K","2","","","39","main_expt"
"","bandit","119","490048","0.0-80.0-0.0","52722333","wem/bandit_either_2","AK7LGB1QOGA1P","either","1","442","","","","","","","0","0","1","0.08197179495","","0.6","0.2","0.8","0.4","","","","","0.1626610004","0.4385128538","0.08197179495","0.2688720753","","","","","","","","75","K","2","","","40","main_expt"
"","bandit","120","491900","0.0-81.0-0.0","52722333","wem/bandit_either_2","AK7LGB1QOGA1P","either","1","347","","","","","","","0","0","1","0.4380640779","","0.6","0.2","0.8","0.4","","","","","0.1982402655","0.4380640779","0.14416382","0.297778532","","","","","","","","74","J","1","","","41","main_expt"
"","bandit","121","493804","0.0-82.0-0.0","52722333","wem/bandit_either_2","AK7LGB1QOGA1P","either","1","400","","","","","","","0","1","0","","0.2449207522","0.6","0.2","0.8","0.4","0.1863610343","0.4265224768","0.1070927036","0.2449207522","","","","","","","","","","","","76","L","3","","","42","main_expt"
"","bandit","122","495663","0.0-83.0-0.0","52722333","wem/bandit_either_2","AK7LGB1QOGA1P","either","1","355","","","","","","","0","0","1","0.2457567503","","0.6","0.2","0.8","0.4","","","","","0.2418389683","0.435880106","0.1214526226","0.2457567503","","","","","","","","76","L","3","","","43","main_expt"
"","bandit","123","497501","0.0-84.0-0.0","52722333","wem/bandit_either_2","AK7LGB1QOGA1P","either","1","333","","","","","","","0","0","1","","0.2432732657","0.6","0.2","0.8","0.4","0.1943491227","0.4450576882","0.1450738833","0.2432732657","","","","","","","","","","","","76","L","3","","","44","main_expt"
"","bandit","124","499331","0.0-85.0-0.0","52722333","wem/bandit_either_2","AK7LGB1QOGA1P","either","1","325","","","","","","","0","0","1","0.1543250971","","0.6","0.2","0.8","0.4","","","","","0.1543250971","0.4382030275","0.09632230927","0.2656772236","","","","","","","","72","H","0","img/none_selected.jpg","","45","main_expt"
"","bandit","125","501258","0.0-86.0-0.0","52722333","wem/bandit_either_2","AK7LGB1QOGA1P","either","1","421","","","","","","","0","0","1","0.09719433791","","0.6","0.2","0.8","0.4","","","","","0.09719433791","0.4412369426","0.103211431","0.2432112423","","","","","","","","72","H","0","img/none_selected.jpg","","46","main_expt"
"","bandit","126","503210","0.0-87.0-0.0","52722333","wem/bandit_either_2","AK7LGB1QOGA1P","either","1","448","","","","","","","0","0","1","","0.1228880329","0.6","0.2","0.8","0.4","0.1228880329","0.4588863431","0.09916324924","0.2992745976","","","","","","","","","","","","72","H","0","img/none_selected.jpg","","47","main_expt"
"","bandit","127","505022","0.0-88.0-0.0","52722333","wem/bandit_either_2","AK7LGB1QOGA1P","either","1","308","","","","","","","0","0","1","0.1068532567","","0.6","0.2","0.8","0.4","","","","","0.1068532567","0.4408788818","0.1090242341","0.2594611615","","","","","","","","72","H","0","img/none_selected.jpg","","48","main_expt"
"","bandit","128","506716","0.0-89.0-0.0","52722333","wem/bandit_either_2","AK7LGB1QOGA1P","either","1","189","","","","","","","0","0","1","0.1265186769","","0.6","0.2","0.8","0.4","","","","","0.1044048509","0.4232064109","0.1265186769","0.2767916858","","","","","","","","75","K","2","","","49","main_expt"
"","bandit","129","508605","0.0-90.0-0.0","52722333","wem/bandit_either_2","AK7LGB1QOGA1P","either","1","384","","","","","","","0","0","1","0.1397440907","","0.6","0.2","0.8","0.4","","","","","0.1072026782","0.4210883962","0.1397440907","0.2762534014","","","","","","","","75","K","2","","","50","main_expt"
"","bandit","130","510461","0.0-91.0-0.0","52722333","wem/bandit_either_2","AK7LGB1QOGA1P","either","1","350","","","","","","","1","0","0","0.153600331","","0.6","0.2","0.8","0.4","","","","","0.1287882573","0.4225635581","0.153600331","0.3379376541","","","","","","","","75","K","2","","","51","main_expt"
"","bandit","131","512474","0.0-92.0-0.0","52722333","wem/bandit_either_2","AK7LGB1QOGA1P","either","1","507","","","","","","","0","0","1","","0.1718407591","0.6","0.2","0.8","0.4","0.1298059469","0.4146237098","0.1718407591","0.3395267946","","","","","","","","","","","","75","K","2","","","52","main_expt"
"","bandit","132","514301","0.0-93.0-0.0","52722333","wem/bandit_either_2","AK7LGB1QOGA1P","either","1","321","","","","","","","0","0","1","0.1945727614","","0.6","0.2","0.8","0.4","","","","","0.07423060895","0.3763623321","0.1945727614","0.29674647","","","","","","","","75","K","2","","","53","main_expt"
"","bandit","133","516139","0.0-94.0-0.0","52722333","wem/bandit_either_2","AK7LGB1QOGA1P","either","1","332","","","","","","","0","0","1","0.2450542523","","0.6","0.2","0.8","0.4","","","","","0.08562383645","0.3289081181","0.2450542523","0.3372955831","","","","","","","","75","K","2","","","54","main_expt"
"","bandit","134","517948","0.0-95.0-0.0","52722333","wem/bandit_either_2","AK7LGB1QOGA1P","either","1","304","","","","","","","0","0","1","","0.2547241938","0.6","0.2","0.8","0.4","0.0757818623","0.3025984711","0.2547241938","0.3506099842","","","","","","","","","","","","75","K","2","","","55","main_expt"
"","bandit","135","519659","0.0-96.0-0.0","52722333","wem/bandit_either_2","AK7LGB1QOGA1P","either","1","205","","","","","","","0","0","1","","0.09897923035","0.6","0.2","0.8","0.4","0.09897923035","0.2921333137","0.2595112895","0.3418029788","","","","","","","","","","","","72","H","0","img/none_selected.jpg","","56","main_expt"
"","bandit","136","521519","0.0-97.0-0.0","52722333","wem/bandit_either_2","AK7LGB1QOGA1P","either","1","356","","","","","","","0","0","1","","0.1160875525","0.6","0.2","0.8","0.4","0.1160875525","0.3317177772","0.2610276213","0.3162475816","","","","","","","","","","","","72","H","0","img/none_selected.jpg","","57","main_expt"
"","bandit","137","523258","0.0-98.0-0.0","52722333","wem/bandit_either_2","AK7LGB1QOGA1P","either","1","234","","","","","","","0","0","1","0.1134641846","","0.6","0.2","0.8","0.4","","","","","0.1134641846","0.3240244649","0.2354201416","0.3269881105","","","","","","","","72","H","0","img/none_selected.jpg","","58","main_expt"
"","bandit","138","525042","0.0-99.0-0.0","52722333","wem/bandit_either_2","AK7LGB1QOGA1P","either","1","281","","","","","","","0","0","1","","0.1177083384","0.6","0.2","0.8","0.4","0.1177083384","0.2988076671","0.2346370837","0.2901324944","","","","","","","","","","","","72","H","0","img/none_selected.jpg","","59","main_expt"
"","bandit","139","526847","0.0-100.0-0.0","52722333","wem/bandit_either_2","AK7LGB1QOGA1P","either","1","297","","","","","","","0","0","1","","0.3096792726","0.6","0.2","0.8","0.4","0.1125723432","0.3096792726","0.2315637733","0.289588464","","","","","","","","","","","","74","J","1","","","60","main_expt"
"","bandit","140","528647","0.0-101.0-0.0","52722333","wem/bandit_either_2","AK7LGB1QOGA1P","either","1","296","","","","","","","0","0","1","","0.2821336973","0.6","0.2","0.8","0.4","0.09911093426","0.2821336973","0.2599537756","0.2782845563","","","","","","","","","","","","74","J","1","","","61","main_expt"
"","bandit","141","530677","0.0-102.0-0.0","52722333","wem/bandit_either_2","AK7LGB1QOGA1P","either","1","524","","","","","","","0","0","1","","0.2414244345","0.6","0.2","0.8","0.4","0.09440438105","0.2414244345","0.2594941563","0.3165490401","","","","","","","","","","","","74","J","1","","","62","main_expt"
"","bandit","142","532436","0.0-103.0-0.0","52722333","wem/bandit_either_2","AK7LGB1QOGA1P","either","1","254","","","","","","","0","0","1","","0.213639373","0.6","0.2","0.8","0.4","0.1015409351","0.213639373","0.2660839385","0.3034564924","","","","","","","","","","","","74","J","1","","","63","main_expt"
"","bandit","143","534267","0.0-104.0-0.0","52722333","wem/bandit_either_2","AK7LGB1QOGA1P","either","1","326","","","","","","","0","0","1","","0.2506654962","0.6","0.2","0.8","0.4","0.07049798599","0.1876308072","0.2426585031","0.2506654962","","","","","","","","","","","","76","L","3","","","64","main_expt"
"","bandit","144","536090","0.0-105.0-0.0","52722333","wem/bandit_either_2","AK7LGB1QOGA1P","either","1","318","","","","","","","0","0","1","0.253414466","","0.6","0.2","0.8","0.4","","","","","0.05735603507","0.1841803182","0.2581047566","0.253414466","","","","","","","","76","L","3","","","65","main_expt"
"","bandit","145","537953","0.0-106.0-0.0","52722333","wem/bandit_either_2","AK7LGB1QOGA1P","either","1","357","","","","","","","0","0","1","","0.2836500186","0.6","0.2","0.8","0.4","0.0621258055","0.187417598","0.2872127433","0.2836500186","","","","","","","","","","","","76","L","3","","","66","main_expt"
"","bandit","146","539747","0.0-107.0-0.0","52722333","wem/bandit_either_2","AK7LGB1QOGA1P","either","1","289","","","","","","","0","0","1","","0.3217852231","0.6","0.2","0.8","0.4","0.06966106928","0.1395950637","0.3232337643","0.3217852231","","","","","","","","","","","","76","L","3","","","67","main_expt"
"","bandit","147","541586","0.0-108.0-0.0","52722333","wem/bandit_either_2","AK7LGB1QOGA1P","either","1","335","","","","","","","0","0","1","0.3376006622","","0.6","0.2","0.8","0.4","","","","","0.09965709916","0.1363519197","0.3376006622","0.3574581916","","","","","","","","75","K","2","","","68","main_expt"
"","bandit","148","543389","0.0-109.0-0.0","52722333","wem/bandit_either_2","AK7LGB1QOGA1P","either","1","298","","","","","","","0","0","1","0.2917609244","","0.6","0.2","0.8","0.4","","","","","0.1428217854","0.1117144852","0.2917609244","0.3884563005","","","","","","","","75","K","2","","","69","main_expt"
"","bandit","149","545202","0.0-110.0-0.0","52722333","wem/bandit_either_2","AK7LGB1QOGA1P","either","1","308","","","","","","","1","0","0","0.2218665627","","0.6","0.2","0.8","0.4","","","","","0.1866845388","0.09667493602","0.2218665627","0.3920047773","","","","","","","","75","K","2","","","70","main_expt"
"","bandit","150","547020","0.0-111.0-0.0","52722333","wem/bandit_either_2","AK7LGB1QOGA1P","either","1","314","","","","","","","0","0","1","0.2409383839","","0.6","0.2","0.8","0.4","","","","","0.1702545286","0.09186933139","0.2409383839","0.4066376731","","","","","","","","75","K","2","","","71","main_expt"
"","bandit","151","548841","0.0-112.0-0.0","52722333","wem/bandit_either_2","AK7LGB1QOGA1P","either","1","316","","","","","","","0","0","1","0.1920783453","","0.6","0.2","0.8","0.4","","","","","0.1836279043","0.09472009463","0.1920783453","0.3443789926","","","","","","","","75","K","2","","","72","main_expt"
"","bandit","152","550619","0.0-113.0-0.0","52722333","wem/bandit_either_2","AK7LGB1QOGA1P","either","1","272","","","","","","","0","0","1","","0.1905254877","0.6","0.2","0.8","0.4","0.1644348242","0.1167805336","0.1905254877","0.3227553012","","","","","","","","","","","","75","K","2","","","73","main_expt"
"","bandit","153","552362","0.0-114.0-0.0","52722333","wem/bandit_either_2","AK7LGB1QOGA1P","either","1","237","","","","","","","0","0","1","0.1833421201","","0.6","0.2","0.8","0.4","","","","","0.1833421201","0.1465151254","0.184198213","0.3336652139","","","","","","","","72","H","0","img/none_selected.jpg","","74","main_expt"
"","bandit","154","554119","0.0-115.0-0.0","52722333","wem/bandit_either_2","AK7LGB1QOGA1P","either","1","251","","","","","","","0","0","1","","0.1519653276","0.6","0.2","0.8","0.4","0.1519653276","0.123285719","0.1881920243","0.2890150868","","","","","","","","","","","","72","H","0","img/none_selected.jpg","","75","main_expt"
"","bandit","155","555835","0.0-116.0-0.0","52722333","wem/bandit_either_2","AK7LGB1QOGA1P","either","1","211","","","","","","","0","0","1","","0.1506622639","0.6","0.2","0.8","0.4","0.1506622639","0.1392606081","0.1988930589","0.2673490463","","","","","","","","","","","","72","H","0","img/none_selected.jpg","","76","main_expt"
"","bandit","156","557624","0.0-117.0-0.0","52722333","wem/bandit_either_2","AK7LGB1QOGA1P","either","1","282","","","","","","","0","0","1","","0.1860897766","0.6","0.2","0.8","0.4","0.1860897766","0.099337717","0.2255968657","0.2858541315","","","","","","","","","","","","72","H","0","img/none_selected.jpg","","77","main_expt"
"","bandit","157","559439","0.0-118.0-0.0","52722333","wem/bandit_either_2","AK7LGB1QOGA1P","either","1","309","","","","","","","0","0","1","0.1618556875","","0.6","0.2","0.8","0.4","","","","","0.1618556875","0.09666605973","0.1917014014","0.2639968829","","","","","","","","72","H","0","img/none_selected.jpg","","78","main_expt"
"","bandit","158","561262","0.0-119.0-0.0","52722333","wem/bandit_either_2","AK7LGB1QOGA1P","either","1","318","","","","","","","0","1","0","","0.1976853889","0.6","0.2","0.8","0.4","0.1976853889","0.09639353985","0.2092129429","0.2304888896","","","","","","","","","","","","72","H","0","img/none_selected.jpg","","79","main_expt"
"","bandit","159","563167","0.0-120.0-0.0","52722333","wem/bandit_either_2","AK7LGB1QOGA1P","either","1","398","","","","","","","0","0","1","0.2198838985","","0.6","0.2","0.8","0.4","","","","","0.2198838985","0.09566996791","0.1974306726","0.1991809665","","","","","","","","72","H","0","img/none_selected.jpg","","80","main_expt"
"","bandit","160","564987","0.0-121.0-0.0","52722333","wem/bandit_either_2","AK7LGB1QOGA1P","either","1","315","","","","","","","0","1","0","","0.2167005254","0.6","0.2","0.8","0.4","0.2167005254","0.07958501382","0.1414754506","0.1627434897","","","","","","","","","","","","72","H","0","img/none_selected.jpg","","81","main_expt"
"","bandit","161","566915","0.0-122.0-0.0","52722333","wem/bandit_either_2","AK7LGB1QOGA1P","either","1","423","","","","","","","1","0","0","0.2527486409","","0.6","0.2","0.8","0.4","","","","","0.2527486409","0.08833774835","0.1422587364","0.1624637972","","","","","","","","72","H","0","img/none_selected.jpg","","82","main_expt"
"","bandit","162","568746","0.0-123.0-0.0","52722333","wem/bandit_either_2","AK7LGB1QOGA1P","either","1","325","","","","","","","0","0","1","","0.2569721607","0.6","0.2","0.8","0.4","0.2569721607","0.09109006352","0.1079415531","0.1900332","","","","","","","","","","","","72","H","0","img/none_selected.jpg","","83","main_expt"
"","bandit","163","570597","0.0-124.0-0.0","52722333","wem/bandit_either_2","AK7LGB1QOGA1P","either","1","345","","","","","","","0","0","1","0.2535394321","","0.6","0.2","0.8","0.4","","","","","0.2535394321","0.05321730921","0.07696487024","0.1705646391","","","","","","","","72","H","0","img/none_selected.jpg","","84","main_expt"
"","bandit","164","572434","0.0-125.0-0.0","52722333","wem/bandit_either_2","AK7LGB1QOGA1P","either","1","332","","","","","","","0","0","1","","0.2255799186","0.6","0.2","0.8","0.4","0.2255799186","0.03321009489","0.08313016423","0.2053302659","","","","","","","","","","","","72","H","0","img/none_selected.jpg","","85","main_expt"
"","bandit","165","574265","0.0-126.0-0.0","52722333","wem/bandit_either_2","AK7LGB1QOGA1P","either","1","325","","","","","","","0","1","0","","0.2197080914","0.6","0.2","0.8","0.4","0.2197080914","0.04864990798","0.102083396","0.2128685413","","","","","","","","","","","","72","H","0","img/none_selected.jpg","","86","main_expt"
"","bandit","166","576172","0.0-127.0-0.0","52722333","wem/bandit_either_2","AK7LGB1QOGA1P","either","1","400","","","","","","","0","0","1","","0.2230338057","0.6","0.2","0.8","0.4","0.2230338057","0.07919268752","0.09067070718","0.213778815","","","","","","","","","","","","72","H","0","img/none_selected.jpg","","87","main_expt"
"","bandit","167","578082","0.0-128.0-0.0","52722333","wem/bandit_either_2","AK7LGB1QOGA1P","either","1","405","","","","","","","0","0","1","0.2484269739","","0.6","0.2","0.8","0.4","","","","","0.2484269739","0.05835116993","0.1421970704","0.2102340809","","","","","","","","72","H","0","img/none_selected.jpg","","88","main_expt"
"","bandit","168","579934","0.0-129.0-0.0","52722333","wem/bandit_either_2","AK7LGB1QOGA1P","either","1","344","","","","","","","0","0","1","","0.2733562597","0.6","0.2","0.8","0.4","0.2733562597","0.05115519592","0.219142046","0.1809358483","","","","","","","","","","","","72","H","0","img/none_selected.jpg","","89","main_expt"
"","bandit","169","581980","0.0-130.0-0.0","52722333","wem/bandit_either_2","AK7LGB1QOGA1P","either","1","539","","","","","","","0","0","1","","0.2973868449","0.6","0.2","0.8","0.4","0.2973868449","0.07819273649","0.2806923657","0.1293356972","","","","","","","","","","","","72","H","0","img/none_selected.jpg","","90","main_expt"
"","bandit","170","583809","0.0-131.0-0.0","52722333","wem/bandit_either_2","AK7LGB1QOGA1P","either","1","324","","","","","","","1","0","0","0.3067689268","","0.6","0.2","0.8","0.4","","","","","0.3067689268","0.05564661524","0.2819660137","0.1136224352","","","","","","","","72","H","0","img/none_selected.jpg","","91","main_expt"
"","bandit","171","585849","0.0-132.0-0.0","52722333","wem/bandit_either_2","AK7LGB1QOGA1P","either","1","535","","","","","","","0","0","1","0.2719776188","","0.6","0.2","0.8","0.4","","","","","0.2719776188","0.05914103421","0.3370305887","0.07539152519","","","","","","","","72","H","0","img/none_selected.jpg","","92","main_expt"
"","bandit","172","587738","0.0-133.0-0.0","52722333","wem/bandit_either_2","AK7LGB1QOGA1P","either","1","383","","","","","","","0","0","1","0.3081791896","","0.6","0.2","0.8","0.4","","","","","0.3081791896","0.03944324463","0.3722719914","0.08243558305","","","","","","","","72","H","0","img/none_selected.jpg","","93","main_expt"
"","bandit","173","589627","0.0-134.0-0.0","52722333","wem/bandit_either_2","AK7LGB1QOGA1P","either","1","384","","","","","","","1","0","0","0.356667856","","0.6","0.2","0.8","0.4","","","","","0.356667856","0.05023017475","0.3840030774","0.09807673793","","","","","","","","72","H","0","img/none_selected.jpg","","94","main_expt"
"","bandit","174","591509","0.0-135.0-0.0","52722333","wem/bandit_either_2","AK7LGB1QOGA1P","either","1","377","","","","","","","0","0","1","0.3300765204","","0.6","0.2","0.8","0.4","","","","","0.3300765204","0.07311956304","0.4050844552","0.09746204728","","","","","","","","72","H","0","img/none_selected.jpg","","95","main_expt"
"","bandit","175","593590","0.0-136.0-0.0","52722333","wem/bandit_either_2","AK7LGB1QOGA1P","either","1","576","","","","","","","0","0","1","0.3642735905","","0.6","0.2","0.8","0.4","","","","","0.3642735905","0.09573717159","0.4081076376","0.08559835745","","","","","","","","72","H","0","img/none_selected.jpg","","96","main_expt"
"","bandit","176","595500","0.0-137.0-0.0","52722333","wem/bandit_either_2","AK7LGB1QOGA1P","either","1","405","","","","","","","0","0","1","0.3885664579","","0.6","0.2","0.8","0.4","","","","","0.3885664579","0.1235519285","0.4142780263","0.0732645996","","","","","","","","72","H","0","img/none_selected.jpg","","97","main_expt"
"","bandit","177","597557","0.0-138.0-0.0","52722333","wem/bandit_either_2","AK7LGB1QOGA1P","either","1","552","","","","","","","0","0","1","","0.4162912028","0.6","0.2","0.8","0.4","0.4162912028","0.1274282425","0.4131193208","0.05343209845","","","","","","","","","","","","72","H","0","img/none_selected.jpg","","98","main_expt"
"","bandit","178","599394","0.0-139.0-0.0","52722333","wem/bandit_either_2","AK7LGB1QOGA1P","either","1","332","","","","","","","0","1","0","","0.4074153657","0.6","0.2","0.8","0.4","0.4074153657","0.1457321849","0.428944851","0.05144299931","","","","","","","","","","","","72","H","0","img/none_selected.jpg","","99","main_expt"
"","bandit","179","601537","0.0-140.0-0.0","52722333","wem/bandit_either_2","AK7LGB1QOGA1P","either","1","637","","","","","","","1","0","0","0.3349137267","","0.6","0.2","0.8","0.4","","","","","0.3349137267","0.1492128348","0.4279797645","0.03934302155","","","","","","","","72","H","0","img/none_selected.jpg","","100","main_expt"
"","bandit","180","603602","0.0-141.0-0.0","52722333","wem/bandit_either_2","AK7LGB1QOGA1P","either","1","560","","","","","","","1","0","0","0.2732947861","","0.6","0.2","0.8","0.4","","","","","0.2732947861","0.125019219","0.4189249443","0.05783306622","","","","","","","","72","H","0","img/none_selected.jpg","","101","main_expt"
"","bandit","181","605614","0.0-142.0-0.0","52722333","wem/bandit_either_2","AK7LGB1QOGA1P","either","1","506","","","","","","","0","0","1","","0.2584454073","0.6","0.2","0.8","0.4","0.2584454073","0.1008510245","0.4279241466","0.06484492547","","","","","","","","","","","","72","H","0","img/none_selected.jpg","","102","main_expt"
"","bandit","182","607462","0.0-143.0-0.0","52722333","wem/bandit_either_2","AK7LGB1QOGA1P","either","1","342","","","","","","","0","0","1","0.2143891894","","0.6","0.2","0.8","0.4","","","","","0.2143891894","0.1087281004","0.419390052","0.0701259157","","","","","","","","72","H","0","img/none_selected.jpg","","103","main_expt"
"","bandit","183","609391","0.0-144.0-0.0","52722333","wem/bandit_either_2","AK7LGB1QOGA1P","either","1","424","","","","","","","0","0","1","","0.1354346047","0.6","0.2","0.8","0.4","0.1354346047","0.143855427","0.3761202226","0.06922647753","","","","","","","","","","","","72","H","0","img/none_selected.jpg","","104","main_expt"
"","bandit","184","611286","0.0-145.0-0.0","52722333","wem/bandit_either_2","AK7LGB1QOGA1P","either","1","387","","","","","","","0","0","1","0.1615963473","","0.6","0.2","0.8","0.4","","","","","0.1615963473","0.1606853024","0.4229881466","0.07802312096","","","","","","","","72","H","0","img/none_selected.jpg","","105","main_expt"
"","bandit","185","613205","0.0-146.0-0.0","52722333","wem/bandit_either_2","AK7LGB1QOGA1P","either","1","414","","","","","","","0","0","1","","0.1612939645","0.6","0.2","0.8","0.4","0.1738621023","0.1612939645","0.4110558218","0.08930313369","","","","","","","","","","","","74","J","1","","","106","main_expt"
"","bandit","186","615048","0.0-147.0-0.0","52722333","wem/bandit_either_2","AK7LGB1QOGA1P","either","1","336","","","","","","","0","1","0","","0.1799671425","0.6","0.2","0.8","0.4","0.1799671425","0.1778053335","0.4176599015","0.1397733654","","","","","","","","","","","","72","H","0","img/none_selected.jpg","","107","main_expt"
"","bandit","187","617048","0.0-148.0-0.0","52722333","wem/bandit_either_2","AK7LGB1QOGA1P","either","1","493","","","","","","","0","0","1","","0.1844274074","0.6","0.2","0.8","0.4","0.1844274074","0.1826465361","0.4210396584","0.1505899732","","","","","","","","","","","","72","H","0","img/none_selected.jpg","","108","main_expt"
"","bandit","188","618739","0.0-149.0-0.0","52722333","wem/bandit_either_2","AK7LGB1QOGA1P","either","1","185","","","","","","","0","0","1","","0.1702708828","0.6","0.2","0.8","0.4","0.1702708828","0.1737022726","0.4328015469","0.1162436109","","","","","","","","","","","","72","H","0","img/none_selected.jpg","","109","main_expt"
"","bandit","189","620441","0.0-150.0-0.0","52722333","wem/bandit_either_2","AK7LGB1QOGA1P","either","1","197","","","","","","","1","0","0","0.1964407335","","0.6","0.2","0.8","0.4","","","","","0.1964407335","0.1658344406","0.4495585744","0.08267976014","","","","","","","","72","H","0","img/none_selected.jpg","","110","main_expt"
"","bandit","190","622371","0.0-151.0-0.0","52722333","wem/bandit_either_2","AK7LGB1QOGA1P","either","1","423","","","","","","","0","0","1","0.1777579569","","0.6","0.2","0.8","0.4","","","","","0.1777579569","0.240619448","0.4237631325","0.09389793805","","","","","","","","72","H","0","img/none_selected.jpg","","111","main_expt"
"","bandit","191","624163","0.0-152.0-0.0","52722333","wem/bandit_either_2","AK7LGB1QOGA1P","either","1","285","","","","","","","0","0","1","","0.1395994444","0.6","0.2","0.8","0.4","0.1395994444","0.1927397719","0.4521571561","0.07903418564","","","","","","","","","","","","72","H","0","img/none_selected.jpg","","112","main_expt"
"","bandit","192","625983","0.0-153.0-0.0","52722333","wem/bandit_either_2","AK7LGB1QOGA1P","either","1","313","","","","","","","0","0","1","0.1205999431","","0.6","0.2","0.8","0.4","","","","","0.1205999431","0.234725565","0.4350762846","0.05501139052","","","","","","","","72","H","0","img/none_selected.jpg","","113","main_expt"
"","bandit","193","627818","0.0-154.0-0.0","52722333","wem/bandit_either_2","AK7LGB1QOGA1P","either","1","329","","","","","","","0","0","1","0.09123355482","","0.6","0.2","0.8","0.4","","","","","0.09123355482","0.1950215869","0.4315824664","0.07627702456","","","","","","","","72","H","0","img/none_selected.jpg","","114","main_expt"
"","bandit","194","629637","0.0-155.0-0.0","52722333","wem/bandit_either_2","AK7LGB1QOGA1P","either","1","313","","","","","","","1","0","0","0.4127349624","","0.6","0.2","0.8","0.4","","","","","0.09554471192","0.2575833325","0.4127349624","0.03985247356","","","","","","","","75","K","2","","","115","main_expt"
"","bandit","195","631536","0.0-156.0-0.0","52722333","wem/bandit_either_2","AK7LGB1QOGA1P","either","1","392","","","","","","","1","0","0","0.4468356006","","0.6","0.2","0.8","0.4","","","","","0.1942182492","0.2296468005","0.4468356006","0.0683792979","","","","","","","","75","K","2","","","116","main_expt"
"","bandit","196","633379","0.0-157.0-0.0","52722333","wem/bandit_either_2","AK7LGB1QOGA1P","either","1","337","","","","","","","0","0","1","0.4458703805","","0.6","0.2","0.8","0.4","","","","","0.2208250117","0.2816483341","0.4458703805","0.03956212276","","","","","","","","75","K","2","","","117","main_expt"
"","bandit","197","635207","0.0-158.0-0.0","52722333","wem/bandit_either_2","AK7LGB1QOGA1P","either","1","322","","","","","","","1","0","0","0.4500370674","","0.6","0.2","0.8","0.4","","","","","0.1687975443","0.2626769985","0.4500370674","0.04459229253","","","","","","","","75","K","2","","","118","main_expt"
"","bandit","198","637019","0.0-159.0-0.0","52722333","wem/bandit_either_2","AK7LGB1QOGA1P","either","1","306","","","","","","","0","0","1","","0.4704359259","0.6","0.2","0.8","0.4","0.1546105485","0.2418090277","0.4704359259","0.03386957434","","","","","","","","","","","","75","K","2","","","119","main_expt"
"","bandit","199","638820","0.0-160.0-0.0","52722333","wem/bandit_either_2","AK7LGB1QOGA1P","either","1","294","","","","","","","1","0","0","0.4578798539","","0.6","0.2","0.8","0.4","","","","","0.143668411","0.2603236095","0.4578798539","0.03305427522","","","","","","","","75","K","2","","","120","main_expt"
"","bandit","200","640651","0.0-161.0-0.0","52722333","wem/bandit_either_2","AK7LGB1QOGA1P","either","1","325","","","","","","","0","1","0","","0.4591190262","0.6","0.2","0.8","0.4","0.1098317425","0.2381785671","0.4591190262","0.03146098963","","","","","","","","","","","","75","K","2","","","121","main_expt"
"","bandit","201","642467","0.0-162.0-0.0","52722333","wem/bandit_either_2","AK7LGB1QOGA1P","either","1","310","","","","","","","0","0","1","","0.4643737298","0.6","0.2","0.8","0.4","0.1097832873","0.2388462554","0.4643737298","0.02311797033","","","","","","","","","","","","75","K","2","","","122","main_expt"
"","bandit","202","644338","0.0-163.0-0.0","52722333","wem/bandit_either_2","AK7LGB1QOGA1P","either","1","366","","","","","","","0","0","1","0.451586091","","0.6","0.2","0.8","0.4","","","","","0.1145900252","0.2079929623","0.451586091","0.0171261738","","","","","","","","75","K","2","","","123","main_expt"
"","bandit","203","646149","0.0-164.0-0.0","52722333","wem/bandit_either_2","AK7LGB1QOGA1P","either","1","304","","","","","","","0","0","1","0.4456906556","","0.6","0.2","0.8","0.4","","","","","0.1137783892","0.2148400852","0.4456906556","0.03468299263","","","","","","","","75","K","2","","","124","main_expt"
"","bandit","204","648053","0.0-165.0-0.0","52722333","wem/bandit_either_2","AK7LGB1QOGA1P","either","1","399","","","","","","","0","1","0","","0.4240876494","0.6","0.2","0.8","0.4","0.145605256","0.2185056602","0.4240876494","0.02544516396","","","","","","","","","","","","75","K","2","","","125","main_expt"
"","bandit","205","650067","0.0-166.0-0.0","52722333","wem/bandit_either_2","AK7LGB1QOGA1P","either","1","508","","","","","","","0","0","1","","0.4008501573","0.6","0.2","0.8","0.4","0.1443839055","0.2152323899","0.4008501573","0.03059506073","","","","","","","","","","","","75","K","2","","","126","main_expt"
"","bandit","206","652112","0.0-167.0-0.0","52722333","wem/bandit_either_2","AK7LGB1QOGA1P","either","1","539","","","","","","","1","0","0","0.4066073101","","0.6","0.2","0.8","0.4","","","","","0.1434222382","0.1699446714","0.4066073101","0.0339638967","","","","","","","","75","K","2","","","127","main_expt"
"","bandit","207","654055","0.0-168.0-0.0","52722333","wem/bandit_either_2","AK7LGB1QOGA1P","either","1","437","","","","","","","0","0","1","0.4270302575","","0.6","0.2","0.8","0.4","","","","","0.1412168693","0.1299446217","0.4270302575","0.02632978063","","","","","","","","75","K","2","","","128","main_expt"
"","bandit","208","655966","0.0-169.0-0.0","52722333","wem/bandit_either_2","AK7LGB1QOGA1P","either","1","403","","","","","","","1","0","0","0.4401824822","","0.6","0.2","0.8","0.4","","","","","0.1086871361","0.1299487573","0.4401824822","0.02640977482","","","","","","","","75","K","2","","","129","main_expt"
"","bandit","209","657786","0.0-170.0-0.0","52722333","wem/bandit_either_2","AK7LGB1QOGA1P","either","1","315","","","","","","","0","0","1","","0.4160959849","0.6","0.2","0.8","0.4","0.1672766288","0.1172580566","0.4160959849","0.03646961518","","","","","","","","","","","","75","K","2","","","130","main_expt"
"","bandit","210","659623","0.0-171.0-0.0","52722333","wem/bandit_either_2","AK7LGB1QOGA1P","either","1","329","","","","","","","1","0","0","0.4374535298","","0.6","0.2","0.8","0.4","","","","","0.157110596","0.1289979545","0.4374535298","0.02171712127","","","","","","","","75","K","2","","","131","main_expt"
"","bandit","211","661477","0.0-172.0-0.0","52722333","wem/bandit_either_2","AK7LGB1QOGA1P","either","1","348","","","","","","","0","0","1","","0.4382483821","0.6","0.2","0.8","0.4","0.1338697581","0.1243754988","0.4382483821","0.01004766493","","","","","","","","","","","","75","K","2","","","132","main_expt"
"","bandit","212","663242","0.0-173.0-0.0","52722333","wem/bandit_either_2","AK7LGB1QOGA1P","either","1","259","","","","","","","1","0","0","0.3913946914","","0.6","0.2","0.8","0.4","","","","","0.1101669797","0.1189203389","0.3913946914","0.005153708139","","","","","","","","75","K","2","","","133","main_expt"
"","bandit","213","665004","0.0-174.0-0.0","52722333","wem/bandit_either_2","AK7LGB1QOGA1P","either","1","256","","","","","","","0","0","1","","0.4280120537","0.6","0.2","0.8","0.4","0.060775537","0.07075860378","0.4280120537","0.01308543257","","","","","","","","","","","","75","K","2","","","134","main_expt"
"","bandit","214","666769","0.0-175.0-0.0","52722333","wem/bandit_either_2","AK7LGB1QOGA1P","either","1","259","","","","","","","1","0","0","0.4385213509","","0.6","0.2","0.8","0.4","","","","","0.0714416082","0.1073185777","0.4385213509","0.02634180281","","","","","","","","75","K","2","","","135","main_expt"
"","bandit","215","668589","0.0-176.0-0.0","52722333","wem/bandit_either_2","AK7LGB1QOGA1P","either","1","314","","","","","","","0","0","1","0.4605212521","","0.6","0.2","0.8","0.4","","","","","0.1115096907","0.1001442491","0.4605212521","0.04122629063","","","","","","","","75","K","2","","","136","main_expt"
"","bandit","216","670411","0.0-177.0-0.0","52722333","wem/bandit_either_2","AK7LGB1QOGA1P","either","1","317","","","","","","","1","0","0","0.4729500637","","0.6","0.2","0.8","0.4","","","","","0.1307091067","0.1736681681","0.4729500637","0.05517648788","","","","","","","","75","K","2","","","137","main_expt"
"","bandit","217","672314","0.0-178.0-0.0","52722333","wem/bandit_either_2","AK7LGB1QOGA1P","either","1","395","","","","","","","1","0","0","0.4705425907","","0.6","0.2","0.8","0.4","","","","","0.1289533412","0.1839908368","0.4705425907","0.05929415862","","","","","","","","75","K","2","","","138","main_expt"
"","bandit","218","674088","0.0-179.0-0.0","52722333","wem/bandit_either_2","AK7LGB1QOGA1P","either","1","268","","","","","","","0","0","1","0.465423541","","0.6","0.2","0.8","0.4","","","","","0.1215972271","0.1500833973","0.465423541","0.05470710098","","","","","","","","75","K","2","","","139","main_expt"
"","bandit","219","675837","0.0-180.0-0.0","52722333","wem/bandit_either_2","AK7LGB1QOGA1P","either","1","241","","","","","","","0","0","1","","0.4486857012","0.6","0.2","0.8","0.4","0.1158179575","0.1718879457","0.4486857012","0.06062538604","","","","","","","","","","","","75","K","2","","","140","main_expt"
"","bandit","220","677718","0.0-181.0-0.0","52722333","wem/bandit_either_2","AK7LGB1QOGA1P","either","1","374","","","","","","","1","0","0","0.4053061298","","0.6","0.2","0.8","0.4","","","","","0.08691297649","0.2025036279","0.4053061298","0.05819772386","","","","","","","","75","K","2","","","141","main_expt"
"","bandit","221","679589","0.0-182.0-0.0","52722333","wem/bandit_either_2","AK7LGB1QOGA1P","either","1","365","","","","","","","1","0","0","0.3989731656","","0.6","0.2","0.8","0.4","","","","","0.1425267255","0.1872564568","0.3989731656","0.05329701838","","","","","","","","75","K","2","","","142","main_expt"
"","bandit","222","681390","0.0-183.0-0.0","52722333","wem/bandit_either_2","AK7LGB1QOGA1P","either","1","294","","","","","","","0","1","0","","0.3783570596","0.6","0.2","0.8","0.4","0.1425141192","0.1676641842","0.3783570596","0.06209903385","","","","","","","","","","","","75","K","2","","","143","main_expt"
"","bandit","223","683279","0.0-184.0-0.0","52722333","wem/bandit_either_2","AK7LGB1QOGA1P","either","1","384","","","","","","","0","0","1","0.3485663762","","0.6","0.2","0.8","0.4","","","","","0.1362652721","0.1502987652","0.3485663762","0.06954729647","","","","","","","","75","K","2","","","144","main_expt"
"","bandit","224","685204","0.0-185.0-0.0","52722333","wem/bandit_either_2","AK7LGB1QOGA1P","either","1","419","","","","","","","0","0","1","","0.3534190037","0.6","0.2","0.8","0.4","0.1335650053","0.1050568962","0.3534190037","0.062760129","","","","","","","","","","","","75","K","2","","","145","main_expt"
"","bandit","225","686976","0.0-186.0-0.0","52722333","wem/bandit_either_2","AK7LGB1QOGA1P","either","1","266","","","","","","","0","0","1","0.342282706","","0.6","0.2","0.8","0.4","","","","","0.1392461982","0.1266784727","0.342282706","0.05014677947","","","","","","","","75","K","2","","","146","main_expt"
"","bandit","226","688797","0.0-187.0-0.0","52722333","wem/bandit_either_2","AK7LGB1QOGA1P","either","1","312","","","","","","","0","0","1","0.3497384939","","0.6","0.2","0.8","0.4","","","","","0.1060810453","0.1121887101","0.3497384939","0.04801868921","","","","","","","","75","K","2","","","147","main_expt"
"","bandit","227","690607","0.0-188.0-0.0","52722333","wem/bandit_either_2","AK7LGB1QOGA1P","either","1","305","","","","","","","1","0","0","0.3507348305","","0.6","0.2","0.8","0.4","","","","","0.1076054289","0.1050077765","0.3507348305","0.05298179562","","","","","","","","75","K","2","","","148","main_expt"
"","bandit","228","692451","0.0-189.0-0.0","52722333","wem/bandit_either_2","AK7LGB1QOGA1P","either","1","337","","","","","","","1","0","0","0.306786392","","0.6","0.2","0.8","0.4","","","","","0.09143227578","0.08725679698","0.306786392","0.05271587927","","","","","","","","75","K","2","","","149","main_expt"
"","bandit","229","694263","0.0-190.0-0.0","52722333","wem/bandit_either_2","AK7LGB1QOGA1P","either","1","305","","","","","","","0","0","1","0.3289077467","","0.6","0.2","0.8","0.4","","","","","0.08361181256","0.04813781364","0.3289077467","0.06153260368","","","","","","","","75","K","2","","","150","main_expt"
"","bandit","230","696431","0.0-191.0-0.0","52722333","wem/bandit_either_2","AK7LGB1QOGA1P","either","1","662","","","","","","","0","0","1","0.2844912386","","0.6","0.2","0.8","0.4","","","","","0.1038450747","0.04690393958","0.2844912386","0.07716317934","","","","","","","","75","K","2","","","151","main_expt"
"","bandit","231","698251","0.0-192.0-0.0","52722333","wem/bandit_either_2","AK7LGB1QOGA1P","either","1","313","","","","","","","0","0","1","","0.3221551402","0.6","0.2","0.8","0.4","0.1311897928","0.05051779207","0.3221551402","0.08370894892","","","","","","","","","","","","75","K","2","","","152","main_expt"
"","bandit","232","700084","0.0-193.0-0.0","52722333","wem/bandit_either_2","AK7LGB1QOGA1P","either","1","324","","","","","","","0","0","1","0.288581716","","0.6","0.2","0.8","0.4","","","","","0.1106636196","0.0417019452","0.288581716","0.06235129306","","","","","","","","75","K","2","","","153","main_expt"
"","bandit","233","701937","0.0-194.0-0.0","52722333","wem/bandit_either_2","AK7LGB1QOGA1P","either","1","346","","","","","","","0","0","1","0.3674714493","","0.6","0.2","0.8","0.4","","","","","0.08044616817","0.04565059468","0.3674714493","0.08808261531","","","","","","","","75","K","2","","","154","main_expt"
"","bandit","234","703734","0.0-195.0-0.0","52722333","wem/bandit_either_2","AK7LGB1QOGA1P","either","1","291","","","","","","","1","0","0","0.3836765626","","0.6","0.2","0.8","0.4","","","","","0.09849608375","0.0249337719","0.3836765626","0.08415746701","","","","","","","","75","K","2","","","155","main_expt"
"","bandit","235","705621","0.0-196.0-0.0","52722333","wem/bandit_either_2","AK7LGB1QOGA1P","either","1","381","","","","","","","0","0","1","0.3499766022","","0.6","0.2","0.8","0.4","","","","","0.0679626842","0.0207568711","0.3499766022","0.1363215429","","","","","","","","75","K","2","","","156","main_expt"
"","bandit","236","707362","0.0-197.0-0.0","52722333","wem/bandit_either_2","AK7LGB1QOGA1P","either","1","233","","","","","","","0","1","0","","0.3083455354","0.6","0.2","0.8","0.4","0.06316877849","0.01044871803","0.3083455354","0.176329139","","","","","","","","","","","","75","K","2","","","157","main_expt"
"","bandit","237","709144","0.0-198.0-0.0","52722333","wem/bandit_either_2","AK7LGB1QOGA1P","either","1","275","","","","","","","0","0","1","","0.2780985587","0.6","0.2","0.8","0.4","0.06381796224","0.008486032171","0.2780985587","0.2239815039","","","","","","","","","","","","75","K","2","","","158","main_expt"
"","bandit","238","710882","0.0-199.0-0.0","52722333","wem/bandit_either_2","AK7LGB1QOGA1P","either","1","231","","","","","","","1","0","0","0.2721424699","","0.6","0.2","0.8","0.4","","","","","0.09986374221","0.006770001311","0.2721424699","0.1754735631","","","","","","","","75","K","2","","","159","main_expt"
"","bandit","239","712666","0.0-200.0-0.0","52722333","wem/bandit_either_2","AK7LGB1QOGA1P","either","1","278","","","","","","","1","0","0","0.3005636977","","0.6","0.2","0.8","0.4","","","","","0.08334790929","0.005009972043","0.3005636977","0.1820859676","","","","","","","","75","K","2","","","160","main_expt"
"","bandit","240","714467","0.0-201.0-0.0","52722333","wem/bandit_either_2","AK7LGB1QOGA1P","either","1","293","","","","","","","1","0","0","0.2481613967","","0.6","0.2","0.8","0.4","","","","","0.1094566723","0.003825417776","0.2481613967","0.1771527669","","","","","","","","75","K","2","","","161","main_expt"
"","bandit","241","716276","0.0-202.0-0.0","52722333","wem/bandit_either_2","AK7LGB1QOGA1P","either","1","303","","","","","","","0","0","1","0.2040880477","","0.6","0.2","0.8","0.4","","","","","0.1287108975","0.006458278423","0.2040880477","0.209245514","","","","","","","","75","K","2","","","162","main_expt"
"","bandit","242","718090","0.0-203.0-0.0","52722333","wem/bandit_either_2","AK7LGB1QOGA1P","either","1","308","","","","","","","0","0","1","0.256608811","","0.6","0.2","0.8","0.4","","","","","0.1811808859","0.01344146107","0.256608811","0.1864252411","","","","","","","","75","K","2","","","163","main_expt"
"","bandit","243","719903","0.0-204.0-0.0","52722333","wem/bandit_either_2","AK7LGB1QOGA1P","either","1","307","","","","","","","0","1","0","","0.2798468236","0.6","0.2","0.8","0.4","0.1374611454","0.004940614731","0.2798468236","0.1662237337","","","","","","","","","","","","75","K","2","","","164","main_expt"
"","bandit","244","721738","0.0-205.0-0.0","52722333","wem/bandit_either_2","AK7LGB1QOGA1P","either","1","327","","","","","","","1","0","0","0.2689568899","","0.6","0.2","0.8","0.4","","","","","0.1640313333","0.007349038951","0.2689568899","0.1375661656","","","","","","","","75","K","2","","","165","main_expt"
"","bandit","245","723551","0.0-206.0-0.0","52722333","wem/bandit_either_2","AK7LGB1QOGA1P","either","1","306","","","","","","","0","0","1","0.2786045926","","0.6","0.2","0.8","0.4","","","","","0.20052236","0.005679103294","0.2786045926","0.1416727521","","","","","","","","75","K","2","","","166","main_expt"
"","bandit","246","725341","0.0-207.0-0.0","52722333","wem/bandit_either_2","AK7LGB1QOGA1P","either","1","280","","","","","","","0","0","1","0.2507583434","","0.6","0.2","0.8","0.4","","","","","0.1945206589","0.004037182679","0.2507583434","0.1497541138","","","","","","","","75","K","2","","","167","main_expt"
"","bandit","247","727149","0.0-208.0-0.0","52722333","wem/bandit_either_2","AK7LGB1QOGA1P","either","1","300","","","","","","","0","0","1","0.1827624484","","0.6","0.2","0.8","0.4","","","","","0.1902154162","0.007111326723","0.1827624484","0.1761460581","","","","","","","","75","K","2","","","168","main_expt"
"","bandit","248","728875","0.0-209.0-0.0","52722333","wem/bandit_either_2","AK7LGB1QOGA1P","either","1","219","","","","","","","1","0","0","0.1558723634","","0.6","0.2","0.8","0.4","","","","","0.1931964682","0.01708305062","0.1558723634","0.2248215173","","","","","","","","75","K","2","","","169","main_expt"
"","bandit","249","730706","0.0-210.0-0.0","52722333","wem/bandit_either_2","AK7LGB1QOGA1P","either","1","323","","","","","","","0","0","1","","0.1757164868","0.6","0.2","0.8","0.4","0.236179436","0.02105388628","0.1757164868","0.2503105048","","","","","","","","","","","","75","K","2","","","170","main_expt"
"","bandit","250","732614","0.0-211.0-0.0","52722333","wem/bandit_either_2","AK7LGB1QOGA1P","either","1","401","","","","","","","0","0","1","0.1985597056","","0.6","0.2","0.8","0.4","","","","","0.2229285478","0.01477187034","0.1985597056","0.2515708499","","","","","","","","75","K","2","","","171","main_expt"
"","bandit","251","734391","0.0-212.0-0.0","52722333","wem/bandit_either_2","AK7LGB1QOGA1P","either","1","269","","","","","","","0","0","1","0.1725269859","","0.6","0.2","0.8","0.4","","","","","0.1805811295","0.00639283578","0.1725269859","0.2601117771","","","","","","","","75","K","2","","","172","main_expt"
"","bandit","252","736224","0.0-213.0-0.0","52722333","wem/bandit_either_2","AK7LGB1QOGA1P","either","1","325","","","","","","","0","0","1","","0.1955807132","0.6","0.2","0.8","0.4","0.2203049146","0.008503536177","0.1955807132","0.2277859889","","","","","","","","","","","","75","K","2","","","173","main_expt"
"","bandit","253","738041","0.0-214.0-0.0","52722333","wem/bandit_either_2","AK7LGB1QOGA1P","either","1","311","","","","","","","0","0","1","0.1712969398","","0.6","0.2","0.8","0.4","","","","","0.2079245196","0.01512836446","0.1712969398","0.204090619","","","","","","","","75","K","2","","","174","main_expt"
"","bandit","254","739831","0.0-215.0-0.0","52722333","wem/bandit_either_2","AK7LGB1QOGA1P","either","1","282","","","","","","","0","0","1","","0.2145566876","0.6","0.2","0.8","0.4","0.1904909119","0.034550241","0.2145566876","0.2264282848","","","","","","","","","","","","75","K","2","","","175","main_expt"
"","bandit","255","741657","0.0-216.0-0.0","52722333","wem/bandit_either_2","AK7LGB1QOGA1P","either","1","319","","","","","","","0","0","1","","0.1611975006","0.6","0.2","0.8","0.4","0.1611975006","0.01969997198","0.1987050603","0.2263436383","","","","","","","","","","","","72","H","0","img/none_selected.jpg","","176","main_expt"
"","bandit","256","743452","0.0-217.0-0.0","52722333","wem/bandit_either_2","AK7LGB1QOGA1P","either","1","288","","","","","","","0","0","1","0.1747210449","","0.6","0.2","0.8","0.4","","","","","0.1747210449","0.02558747067","0.2161967517","0.2449632337","","","","","","","","72","H","0","img/none_selected.jpg","","177","main_expt"
"","bandit","257","745240","0.0-218.0-0.0","52722333","wem/bandit_either_2","AK7LGB1QOGA1P","either","1","282","","","","","","","0","0","1","0.1667690144","","0.6","0.2","0.8","0.4","","","","","0.1667690144","0.02865462312","0.1790488899","0.1923885174","","","","","","","","72","H","0","img/none_selected.jpg","","178","main_expt"
"","bandit","258","747023","0.0-219.0-0.0","52722333","wem/bandit_either_2","AK7LGB1QOGA1P","either","1","277","","","","","","","0","1","0","","0.248539666","0.6","0.2","0.8","0.4","0.248539666","0.05873937836","0.1254539317","0.1791230597","","","","","","","","","","","","72","H","0","img/none_selected.jpg","","179","main_expt"
"","bandit","259","748848","0.0-220.0-0.0","52722333","wem/bandit_either_2","AK7LGB1QOGA1P","either","1","317","","","","","","","0","0","1","0.2393284063","","0.6","0.2","0.8","0.4","","","","","0.2393284063","0.04996702027","0.1761702366","0.1641305094","","","","","","","","72","H","0","img/none_selected.jpg","","180","main_expt"
"","bandit","260","750691","0.0-221.0-0.0","52722333","wem/bandit_either_2","AK7LGB1QOGA1P","either","1","337","","","","","","","0","0","1","0.2450765022","","0.6","0.2","0.8","0.4","","","","","0.2450765022","0.06192223509","0.2307221343","0.1567194189","","","","","","","","72","H","0","img/none_selected.jpg","","181","main_expt"
"","bandit","261","752462","0.0-222.0-0.0","52722333","wem/bandit_either_2","AK7LGB1QOGA1P","either","1","264","","","","","","","0","1","0","","0.2898963007","0.6","0.2","0.8","0.4","0.2898963007","0.07865608963","0.1656926355","0.1805899487","","","","","","","","","","","","72","H","0","img/none_selected.jpg","","182","main_expt"
"","bandit","262","754285","0.0-223.0-0.0","52722333","wem/bandit_either_2","AK7LGB1QOGA1P","either","1","315","","","","","","","0","0","1","0.337419987","","0.6","0.2","0.8","0.4","","","","","0.337419987","0.0695036973","0.1997223474","0.1381226487","","","","","","","","72","H","0","img/none_selected.jpg","","183","main_expt"
"","bandit","263","756131","0.0-224.0-0.0","52722333","wem/bandit_either_2","AK7LGB1QOGA1P","either","1","339","","","","","","","0","0","1","0.3334404967","","0.6","0.2","0.8","0.4","","","","","0.3334404967","0.09883674892","0.1936006223","0.1157029232","","","","","","","","72","H","0","img/none_selected.jpg","","184","main_expt"
"","bandit","264","757951","0.0-225.0-0.0","52722333","wem/bandit_either_2","AK7LGB1QOGA1P","either","1","313","","","","","","","0","0","1","0.3049781316","","0.6","0.2","0.8","0.4","","","","","0.3049781316","0.1344132801","0.1794548994","0.09007466759","","","","","","","","72","H","0","img/none_selected.jpg","","185","main_expt"
"","bandit","265","759805","0.0-226.0-0.0","52722333","wem/bandit_either_2","AK7LGB1QOGA1P","either","1","346","","","","","","","1","0","0","0.322039184","","0.6","0.2","0.8","0.4","","","","","0.322039184","0.1194183803","0.1679588243","0.07784091677","","","","","","","","72","H","0","img/none_selected.jpg","","186","main_expt"
"","bandit","266","761755","0.0-227.0-0.0","52722333","wem/bandit_either_2","AK7LGB1QOGA1P","either","1","443","","","","","","","0","1","0","","0.2898485093","0.6","0.2","0.8","0.4","0.2898485093","0.1456002269","0.1692259204","0.1332261693","","","","","","","","","","","","72","H","0","img/none_selected.jpg","","187","main_expt"
"","bandit","267","763626","0.0-228.0-0.0","52722333","wem/bandit_either_2","AK7LGB1QOGA1P","either","1","364","","","","","","","0","0","1","0.3046836684","","0.6","0.2","0.8","0.4","","","","","0.3046836684","0.1008589119","0.1796926114","0.1302169342","","","","","","","","72","H","0","img/none_selected.jpg","","188","main_expt"
"","bandit","268","765504","0.0-229.0-0.0","52722333","wem/bandit_either_2","AK7LGB1QOGA1P","either","1","370","","","","","","","1","0","0","0.3437642557","","0.6","0.2","0.8","0.4","","","","","0.3437642557","0.09109327247","0.1463090895","0.1459867673","","","","","","","","72","H","0","img/none_selected.jpg","","189","main_expt"
"","bandit","269","767320","0.0-230.0-0.0","52722333","wem/bandit_either_2","AK7LGB1QOGA1P","either","1","307","","","","","","","1","0","0","0.3685715368","","0.6","0.2","0.8","0.4","","","","","0.3685715368","0.133333279","0.1670442817","0.1930387326","","","","","","","","72","H","0","img/none_selected.jpg","","190","main_expt"
"","bandit","270","769152","0.0-231.0-0.0","52722333","wem/bandit_either_2","AK7LGB1QOGA1P","either","1","325","","","","","","","1","0","0","0.4063368095","","0.6","0.2","0.8","0.4","","","","","0.4063368095","0.1253338948","0.2148667481","0.1447045196","","","","","","","","72","H","0","img/none_selected.jpg","","191","main_expt"
"","bandit","271","770958","0.0-232.0-0.0","52722333","wem/bandit_either_2","AK7LGB1QOGA1P","either","1","300","","","","","","","1","0","0","0.4194789623","","0.6","0.2","0.8","0.4","","","","","0.4194789623","0.1371372983","0.1891029698","0.1521301445","","","","","","","","72","H","0","img/none_selected.jpg","","192","main_expt"
"","bandit","272","772759","0.0-233.0-0.0","52722333","wem/bandit_either_2","AK7LGB1QOGA1P","either","1","293","","","","","","","1","0","0","0.3914453041","","0.6","0.2","0.8","0.4","","","","","0.3914453041","0.1269519223","0.1818436489","0.1216552598","","","","","","","","72","H","0","img/none_selected.jpg","","193","main_expt"
"","bandit","273","774553","0.0-234.0-0.0","52722333","wem/bandit_either_2","AK7LGB1QOGA1P","either","1","286","","","","","","","0","1","0","","0.3988429791","0.6","0.2","0.8","0.4","0.3988429791","0.1253972088","0.2036833838","0.07681554104","","","","","","","","","","","","72","H","0","img/none_selected.jpg","","194","main_expt"
"","bandit","274","776337","0.0-235.0-0.0","52722333","wem/bandit_either_2","AK7LGB1QOGA1P","either","1","275","","","","","","","0","0","1","","0.4212514022","0.6","0.2","0.8","0.4","0.4212514022","0.1231557279","0.2189502041","0.07468822185","","","","","","","","","","","","72","H","0","img/none_selected.jpg","","195","main_expt"
"","bandit","275","778159","0.0-236.0-0.0","52722333","wem/bandit_either_2","AK7LGB1QOGA1P","either","1","315","","","","","","","0","1","0","","0.4128950903","0.6","0.2","0.8","0.4","0.4128950903","0.2304226507","0.2011136523","0.07634526252","","","","","","","","","","","","72","H","0","img/none_selected.jpg","","196","main_expt"
"","bandit","276","780017","0.0-237.0-0.0","52722333","wem/bandit_either_2","AK7LGB1QOGA1P","either","1","347","","","","","","","0","0","1","","0.3979973083","0.6","0.2","0.8","0.4","0.3979973083","0.3102822931","0.2295646827","0.06680697181","","","","","","","","","","","","72","H","0","img/none_selected.jpg","","197","main_expt"
"","bandit","277","781671","0.0-238.0-0.0","52722333","wem/bandit_either_2","AK7LGB1QOGA1P","either","1","148","","","","","","","1","0","0","0.3153467244","","0.6","0.2","0.8","0.4","","","","","0.3153467244","0.3222054514","0.2570874699","0.05107679344","","","","","","","","72","H","0","img/none_selected.jpg","","198","main_expt"
"","bandit","278","783513","0.0-239.0-0.0","52722333","wem/bandit_either_2","AK7LGB1QOGA1P","either","1","333","","","","","","","0","0","1","0.3121882746","","0.6","0.2","0.8","0.4","","","","","0.3121882746","0.3416159467","0.2215013189","0.06140804873","","","","","","","","72","H","0","img/none_selected.jpg","","199","main_expt"
"","bandit","279","785298","0.0-240.0-0.0","52722333","wem/bandit_either_2","AK7LGB1QOGA1P","either","1","279","","","","","","","0","1","0","","0.3789620948","0.6","0.2","0.8","0.4","0.3789620948","0.3826655938","0.1681318695","0.05697288244","","","","","","","","","","","","72","H","0","img/none_selected.jpg","","200","main_expt"
"","bandit","280","787121","0.0-241.0-0.0","52722333","wem/bandit_either_2","AK7LGB1QOGA1P","either","1","315","","","","","","","0","0","1","","0.3575696279","0.6","0.2","0.8","0.4","0.3575696279","0.4117435103","0.1787039029","0.04802221103","","","","","","","","","","","","72","H","0","img/none_selected.jpg","","201","main_expt"
"","bandit","281","788910","0.0-242.0-0.0","52722333","wem/bandit_either_2","AK7LGB1QOGA1P","either","1","281","","","","","","","0","0","1","","0.3937046418","0.6","0.2","0.8","0.4","0.3937046418","0.4023622846","0.2180442152","0.04583536071","","","","","","","","","","","","72","H","0","img/none_selected.jpg","","202","main_expt"
"","bandit","282","790707","0.0-243.0-0.0","52722333","wem/bandit_either_2","AK7LGB1QOGA1P","either","1","290","","","","","","","0","0","1","","0.3901943722","0.6","0.2","0.8","0.4","0.3901943722","0.4225273878","0.262784421","0.03655969434","","","","","","","","","","","","72","H","0","img/none_selected.jpg","","203","main_expt"
"","bandit","283","792474","0.0-244.0-0.0","52722333","wem/bandit_either_2","AK7LGB1QOGA1P","either","1","260","","","","","","","0","0","1","0.4099131859","","0.6","0.2","0.8","0.4","","","","","0.4099131859","0.4151046429","0.2843732649","0.05773518339","","","","","","","","72","H","0","img/none_selected.jpg","","204","main_expt"
"","bandit","284","794301","0.0-245.0-0.0","52722333","wem/bandit_either_2","AK7LGB1QOGA1P","either","1","319","","","","","","","0","0","1","0.4238238901","","0.6","0.2","0.8","0.4","","","","","0.4238238901","0.4288165897","0.2549063301","0.06616346658","","","","","","","","72","H","0","img/none_selected.jpg","","205","main_expt"
"","bandit","285","796151","0.0-246.0-0.0","52722333","wem/bandit_either_2","AK7LGB1QOGA1P","either","1","342","","","","","","","0","0","1","0.436745712","","0.6","0.2","0.8","0.4","","","","","0.4139837541","0.436745712","0.2982701688","0.09055598832","","","","","","","","74","J","1","","","206","main_expt"
"","bandit","286","798006","0.0-247.0-0.0","52722333","wem/bandit_either_2","AK7LGB1QOGA1P","either","1","348","","","","","","","0","1","0","","0.4484652972","0.6","0.2","0.8","0.4","0.3544894801","0.4484652972","0.3423773839","0.07583085731","","","","","","","","","","","","74","J","1","","","207","main_expt"
"","bandit","287","799869","0.0-248.0-0.0","52722333","wem/bandit_either_2","AK7LGB1QOGA1P","either","1","355","","","","","","","0","0","1","0.4516947584","","0.6","0.2","0.8","0.4","","","","","0.3703609936","0.4516947584","0.3321535101","0.09768014643","","","","","","","","74","J","1","","","208","main_expt"
"","bandit","288","801693","0.0-249.0-0.0","52722333","wem/bandit_either_2","AK7LGB1QOGA1P","either","1","317","","","","","","","0","0","1","0.4590139285","","0.6","0.2","0.8","0.4","","","","","0.3590511704","0.4590139285","0.3467721984","0.08389795445","","","","","","","","74","J","1","","","209","main_expt"
"","bandit","289","803540","0.0-250.0-0.0","52722333","wem/bandit_either_2","AK7LGB1QOGA1P","either","1","340","","","","","","","0","1","0","","0.4378910613","0.6","0.2","0.8","0.4","0.3781523972","0.4378910613","0.3513447539","0.07846525543","","","","","","","","","","","","74","J","1","","","210","main_expt"
"","bandit","290","805375","0.0-251.0-0.0","52722333","wem/bandit_either_2","AK7LGB1QOGA1P","either","1","327","","","","","","","0","0","1","","0.4139384991","0.6","0.2","0.8","0.4","0.3895188655","0.4139384991","0.4003692624","0.05906932722","","","","","","","","","","","","74","J","1","","","211","main_expt"
"","bandit","291","807219","0.0-252.0-0.0","52722333","wem/bandit_either_2","AK7LGB1QOGA1P","either","1","336","","","","","","","0","0","1","","0.3659234609","0.6","0.2","0.8","0.4","0.4075098947","0.3659234609","0.3949660502","0.04754192311","","","","","","","","","","","","74","J","1","","","212","main_expt"
"","bandit","292","808973","0.0-253.0-0.0","52722333","wem/bandit_either_2","AK7LGB1QOGA1P","either","1","248","","","","","","","0","0","1","","0.3180572988","0.6","0.2","0.8","0.4","0.4191075236","0.3180572988","0.4233479157","0.05481920189","","","","","","","","","","","","74","J","1","","","213","main_expt"
"","bandit","293","810768","0.0-254.0-0.0","52722333","wem/bandit_either_2","AK7LGB1QOGA1P","either","1","287","","","","","","","0","0","1","0.2611162072","","0.6","0.2","0.8","0.4","","","","","0.3799529118","0.2611162072","0.4182751871","0.07954578011","","","","","","","","74","J","1","","","214","main_expt"
"","bandit","294","812593","0.0-255.0-0.0","52722333","wem/bandit_either_2","AK7LGB1QOGA1P","either","1","318","","","","","","","0","0","1","","0.2331309726","0.6","0.2","0.8","0.4","0.3924699069","0.2331309726","0.3745823719","0.1078137614","","","","","","","","","","","","74","J","1","","","215","main_expt"
"","bandit","295","814417","0.0-256.0-0.0","52722333","wem/bandit_either_2","AK7LGB1QOGA1P","either","1","316","","","","","","","0","0","1","","0.1269525553","0.6","0.2","0.8","0.4","0.3556657658","0.2428402293","0.3809837923","0.1269525553","","","","","","","","","","","","76","L","3","","","216","main_expt"
"","bandit","296","816211","0.0-257.0-0.0","52722333","wem/bandit_either_2","AK7LGB1QOGA1P","either","1","287","","","","","","","0","0","1","0.1849794572","","0.6","0.2","0.8","0.4","","","","","0.3870416945","0.2317762644","0.4144294186","0.1849794572","","","","","","","","76","L","3","","","217","main_expt"
"","bandit","297","817971","0.0-258.0-0.0","52722333","wem/bandit_either_2","AK7LGB1QOGA1P","either","1","252","","","","","","","0","0","1","","0.1903787706","0.6","0.2","0.8","0.4","0.3944581396","0.204309912","0.4090742927","0.1903787706","","","","","","","","","","","","76","L","3","","","218","main_expt"
"","bandit","298","819904","0.0-259.0-0.0","52722333","wem/bandit_either_2","AK7LGB1QOGA1P","either","1","425","","","","","","","0","0","1","0.1768508397","","0.6","0.2","0.8","0.4","","","","","0.4256173987","0.1685596251","0.3869695378","0.1768508397","","","","","","","","76","L","3","","","219","main_expt"
"","bandit","299","821708","0.0-260.0-0.0","52722333","wem/bandit_either_2","AK7LGB1QOGA1P","either","1","294","","","","","","","1","0","0","0.2176561852","","0.6","0.2","0.8","0.4","","","","","0.4240862242","0.2488487331","0.3814250035","0.2176561852","","","","","","","","76","L","3","","","220","main_expt"
"","bandit","300","823624","0.0-261.0-0.0","52722333","wem/bandit_either_2","AK7LGB1QOGA1P","either","1","409","","","","","","","0","0","1","","0.2075488201","0.6","0.2","0.8","0.4","0.4364702466","0.2789816034","0.3560431311","0.2075488201","","","","","","","","","","","","76","L","3","","","221","main_expt"
"","bandit","301","825401","0.0-262.0-0.0","52722333","wem/bandit_either_2","AK7LGB1QOGA1P","either","1","269","","","","","","","0","0","1","","0.2260831429","0.6","0.2","0.8","0.4","0.4512924842","0.242729834","0.3424215647","0.2260831429","","","","","","","","","","","","76","L","3","","","222","main_expt"
"","bandit","302","827129","0.0-263.0-0.0","52722333","wem/bandit_either_2","AK7LGB1QOGA1P","either","1","220","","","","","","","0","0","1","","0.2512075751","0.6","0.2","0.8","0.4","0.4649948574","0.196538567","0.3118962833","0.2512075751","","","","","","","","","","","","76","L","3","","","223","main_expt"
"","bandit","303","828912","0.0-264.0-0.0","52722333","wem/bandit_either_2","AK7LGB1QOGA1P","either","1","275","","","","","","","0","0","1","","0.3072691987","0.6","0.2","0.8","0.4","0.4692106987","0.2189223785","0.261290028","0.3072691987","","","","","","","","","","","","76","L","3","","","224","main_expt"
"","bandit","304","830588","0.0-265.0-0.0","52722333","wem/bandit_either_2","AK7LGB1QOGA1P","either","1","168","","","","","","","1","0","0","0.3358063032","","0.6","0.2","0.8","0.4","","","","","0.4772226815","0.2131207899","0.2748104332","0.3358063032","","","","","","","","76","L","3","","","225","main_expt"
"","bandit","305","832420","0.0-266.0-0.0","52722333","wem/bandit_either_2","AK7LGB1QOGA1P","either","1","324","","","","","","","0","0","1","0.2112523614","","0.6","0.2","0.8","0.4","","","","","0.4828013869","0.187439681","0.2112523614","0.2994610032","","","","","","","","75","K","2","","","226","main_expt"
"","bandit","306","834225","0.0-267.0-0.0","52722333","wem/bandit_either_2","AK7LGB1QOGA1P","either","1","297","","","","","","","0","0","1","0.1879164098","","0.6","0.2","0.8","0.4","","","","","0.4805292857","0.1522087394","0.1879164098","0.2719992041","","","","","","","","75","K","2","","","227","main_expt"
"","bandit","307","835975","0.0-268.0-0.0","52722333","wem/bandit_either_2","AK7LGB1QOGA1P","either","1","243","","","","","","","0","0","1","0.1857646906","","0.6","0.2","0.8","0.4","","","","","0.4770879938","0.1975586059","0.1857646906","0.2601066631","","","","","","","","75","K","2","","","228","main_expt"
"","bandit","308","837709","0.0-269.0-0.0","52722333","wem/bandit_either_2","AK7LGB1QOGA1P","either","1","226","","","","","","","0","0","1","0.1608888173","","0.6","0.2","0.8","0.4","","","","","0.4830225504","0.2280604414","0.1608888173","0.2333982712","","","","","","","","75","K","2","","","229","main_expt"
"","bandit","309","839505","0.0-270.0-0.0","52722333","wem/bandit_either_2","AK7LGB1QOGA1P","either","1","288","","","","","","","0","0","1","0.1139945837","","0.6","0.2","0.8","0.4","","","","","0.4827210916","0.2120359748","0.1139945837","0.2179366985","","","","","","","","75","K","2","","","230","main_expt"
"","bandit","310","841444","0.0-271.0-0.0","52722333","wem/bandit_either_2","AK7LGB1QOGA1P","either","1","432","","","","","","","1","0","0","0.4764813513","","0.6","0.2","0.8","0.4","","","","","0.4764813513","0.2260377558","0.1071229599","0.210335649","","","","","","","","72","H","0","img/none_selected.jpg","","231","main_expt"
"","bandit","311","843268","0.0-272.0-0.0","52722333","wem/bandit_either_2","AK7LGB1QOGA1P","either","1","316","","","","","","","0","0","1","","0.4794978353","0.6","0.2","0.8","0.4","0.4794978353","0.2810037348","0.1250262501","0.2154905401","","","","","","","","","","","","72","H","0","img/none_selected.jpg","","232","main_expt"
"","bandit","312","845120","0.0-273.0-0.0","52722333","wem/bandit_either_2","AK7LGB1QOGA1P","either","1","344","","","","","","","0","0","1","0.4717583679","","0.6","0.2","0.8","0.4","","","","","0.4717583679","0.3371590923","0.1262657767","0.2199054097","","","","","","","","72","H","0","img/none_selected.jpg","","233","main_expt"
"","bandit","313","846948","0.0-274.0-0.0","52722333","wem/bandit_either_2","AK7LGB1QOGA1P","either","1","321","","","","","","","0","1","0","","0.4801470087","0.6","0.2","0.8","0.4","0.4801470087","0.2614597929","0.1436583916","0.2116885818","","","","","","","","","","","","72","H","0","img/none_selected.jpg","","234","main_expt"
"","bandit","314","848729","0.0-275.0-0.0","52722333","wem/bandit_either_2","AK7LGB1QOGA1P","either","1","273","","","","","","","0","0","1","","0.4698449305","0.6","0.2","0.8","0.4","0.4698449305","0.2855471023","0.1776605917","0.2037112673","","","","","","","","","","","","72","H","0","img/none_selected.jpg","","235","main_expt"
"","bandit","315","850534","0.0-276.0-0.0","52722333","wem/bandit_either_2","AK7LGB1QOGA1P","either","1","297","","","","","","","0","0","1","0.4750890902","","0.6","0.2","0.8","0.4","","","","","0.4750890902","0.2806831757","0.2039581082","0.2295670059","","","","","","","","72","H","0","img/none_selected.jpg","","236","main_expt"
"","bandit","316","852313","0.0-277.0-0.0","52722333","wem/bandit_either_2","AK7LGB1QOGA1P","either","1","271","","","","","","","0","1","0","","0.490873849","0.6","0.2","0.8","0.4","0.490873849","0.3314479917","0.1898025468","0.2602584061","","","","","","","","","","","","72","H","0","img/none_selected.jpg","","237","main_expt"
"","bandit","317","854141","0.0-278.0-0.0","52722333","wem/bandit_either_2","AK7LGB1QOGA1P","either","1","318","","","","","","","0","0","1","0.4658125052","","0.6","0.2","0.8","0.4","","","","","0.4658125052","0.3495093658","0.20274426","0.2505035884","","","","","","","","72","H","0","img/none_selected.jpg","","238","main_expt"
"","bandit","318","855743","0.0-279.0-0.0","52722333","wem/bandit_either_2","AK7LGB1QOGA1P","either","1","94","","","","","","","0","0","1","0.4717810478","","0.6","0.2","0.8","0.4","","","","","0.4717810478","0.3413466471","0.2051086292","0.209031891","","","","","","","","72","H","0","img/none_selected.jpg","","239","main_expt"
"","bandit","319","857598","0.0-280.0-0.0","52722333","wem/bandit_either_2","AK7LGB1QOGA1P","either","1","348","","","","","","","0","0","1","0.4751676635","","0.6","0.2","0.8","0.4","","","","","0.4751676635","0.3848911707","0.1823871945","0.2203826704","","","","","","","","72","H","0","img/none_selected.jpg","","240","main_expt"
"","bandit","320","859391","0.0-281.0-0.0","52722333","wem/bandit_either_2","AK7LGB1QOGA1P","either","1","286","","","","","","","0","0","1","","0.4782176083","0.6","0.2","0.8","0.4","0.4782176083","0.3352713547","0.2206124516","0.2502218434","","","","","","","","","","","","72","H","0","img/none_selected.jpg","","241","main_expt"
"","bandit","321","861218","0.0-282.0-0.0","52722333","wem/bandit_either_2","AK7LGB1QOGA1P","either","1","319","","","","","","","1","0","0","0.4842593171","","0.6","0.2","0.8","0.4","","","","","0.4842593171","0.3898112853","0.1822231347","0.2465850657","","","","","","","","72","H","0","img/none_selected.jpg","","242","main_expt"
"","bandit","322","863013","0.0-283.0-0.0","52722333","wem/bandit_either_2","AK7LGB1QOGA1P","either","1","287","","","","","","","1","0","0","0.4877308522","","0.6","0.2","0.8","0.4","","","","","0.4877308522","0.3746092993","0.1782216913","0.2768687636","","","","","","","","72","H","0","img/none_selected.jpg","","243","main_expt"
"","bandit","323","864958","0.0-284.0-0.0","52722333","wem/bandit_either_2","AK7LGB1QOGA1P","either","1","437","","","","","","","0","0","1","","0.4867000748","0.6","0.2","0.8","0.4","0.4867000748","0.3551642001","0.1683297066","0.3318130554","","","","","","","","","","","","72","H","0","img/none_selected.jpg","","244","main_expt"
"","bandit","324","866788","0.0-285.0-0.0","52722333","wem/bandit_either_2","AK7LGB1QOGA1P","either","1","323","","","","","","","0","0","1","0.4779689664","","0.6","0.2","0.8","0.4","","","","","0.4779689664","0.3556023966","0.2394915997","0.3549389872","","","","","","","","72","H","0","img/none_selected.jpg","","245","main_expt"
