"consent","trial_type","trial_index","time_elapsed","internal_node_id","subjID","study","MID","cond","drift","rt","responses","key_press","expt_phase","like","value","connected","gems","bombs","no_reward","GemPrChosen","BombPrChosen","GainOverPainPr_0","GainOverPainPr_1","GainOverPainPr_2","GainOverPainPr_3","LosePr_0","LosePr_1","LosePr_2","LosePr_3","WinPr_0","WinPr_1","WinPr_2","WinPr_3","Q0","Q1","Q2","gender","age","ethnicity","target","respCharCode","respKey","respChoiceNum","respChoice","practice","trial_counter","trial_label"
"INL_behavioral_consent_30min_online.html","consent","0","6249","0.0-0.0","55083781","wem/bandit_either_2","A1AO1LLP3INAZF","either","8","","","","","","","","","","","","","","","","","","","","","","","","","","","","","","","","","","","","","",""
"","survey-text","1","12574","0.0-1.0","55083781","wem/bandit_either_2","A1AO1LLP3INAZF","either","8","5316","{""Q0"":""A1AO1LLP3INAZF""}","","","","","","","","","","","","","","","","","","","","","","","","","","","","","","","","","","","",""
"","text","2","22952","0.0-2.0","55083781","wem/bandit_either_2","A1AO1LLP3INAZF","either","8","9373","","32","","","","","","","","","","","","","","","","","","","","","","","","","","","","","","","","","","",""
"","text","3","27742","0.0-3.0","55083781","wem/bandit_either_2","A1AO1LLP3INAZF","either","8","4788","","32","","","","","","","","","","","","","","","","","","","","","","","","","","","","","","","","","","",""
"","text","4","42847","0.0-4.0","55083781","wem/bandit_either_2","A1AO1LLP3INAZF","either","8","15102","","32","","","","","","","","","","","","","","","","","","","","","","","","","","","","","","","","","","",""
"","text","5","53392","0.0-5.0","55083781","wem/bandit_either_2","A1AO1LLP3INAZF","either","8","10542","","32","","","","","","","","","","","","","","","","","","","","","","","","","","","","","","","","","","",""
"","text","6","68383","0.0-6.0","55083781","wem/bandit_either_2","A1AO1LLP3INAZF","either","8","14989","","32","","","","","","","","","","","","","","","","","","","","","","","","","","","","","","","","","","",""
"","text","7","73833","0.0-7.0","55083781","wem/bandit_either_2","A1AO1LLP3INAZF","either","8","5448","","32","","","","","","","","","","","","","","","","","","","","","","","","","","","","","","","","","","",""
"","text","8","78309","0.0-8.0","55083781","wem/bandit_either_2","A1AO1LLP3INAZF","either","8","4474","","32","","","","","","","","","","","","","","","","","","","","","","","","","","","","","","","","","","",""
"","identification","9","83770","0.0-9.0-0.0","55083781","wem/bandit_either_2","A1AO1LLP3INAZF","either","8","5445","","","","6","6","6","","","","","","","","","","","","","","","","","","","","","","","","the village of Zur","","","","","","",""
"","identification","10","89674","0.0-9.0-1.0","55083781","wem/bandit_either_2","A1AO1LLP3INAZF","either","8","4886","","","","0","0","0","","","","","","","","","","","","","","","","","","","","","","","","the village of Nyx","","","","","","",""
"","text","11","98512","0.0-10.0","55083781","wem/bandit_either_2","A1AO1LLP3INAZF","either","8","7835","","32","","","","","","","","","","","","","","","","","","","","","","","","","","","","","","","","","","",""
"","text","12","102490","0.0-11.0","55083781","wem/bandit_either_2","A1AO1LLP3INAZF","either","8","3977","","32","","","","","","","","","","","","","","","","","","","","","","","","","","","","","","","","","","",""
"","text","13","105261","0.0-12.0","55083781","wem/bandit_either_2","A1AO1LLP3INAZF","either","8","2769","","32","","","","","","","","","","","","","","","","","","","","","","","","","","","","","","","","","","",""
"","text","14","110448","0.0-13.0","55083781","wem/bandit_either_2","A1AO1LLP3INAZF","either","8","5187","","32","","","","","","","","","","","","","","","","","","","","","","","","","","","","","","","","","","",""
"","bandit","15","114104","0.0-14.0-0.0","55083781","wem/bandit_either_2","A1AO1LLP3INAZF","either","8","2146","","","","","","","0","0","1","0","0","","","","","0","","","","0","","","","","","","","","","","74","J","0","img/none_selected_demo.jpg","true","0",""
"","bandit","16","117802","0.0-15.0-0.0","55083781","wem/bandit_either_2","A1AO1LLP3INAZF","either","8","2190","","","","","","","0","0","1","0","0","","","","","0","","","","0","","","","","","","","","","","75","K","0","img/none_selected_demo.jpg","true","0",""
"","text","17","124198","0.0-16.0","55083781","wem/bandit_either_2","A1AO1LLP3INAZF","either","8","6394","","32","","","","","","","","","","","","","","","","","","","","","","","","","","","","","","","","","","",""
"","text","18","133083","0.0-17.0","55083781","wem/bandit_either_2","A1AO1LLP3INAZF","either","8","8883","","32","","","","","","","","","","","","","","","","","","","","","","","","","","","","","","","","","","",""
"","text","19","139151","0.0-18.0","55083781","wem/bandit_either_2","A1AO1LLP3INAZF","either","8","6065","","32","","","","","","","","","","","","","","","","","","","","","","","","","","","","","","","","","","",""
"","text","20","142704","0.0-19.0","55083781","wem/bandit_either_2","A1AO1LLP3INAZF","either","8","3551","","32","","","","","","","","","","","","","","","","","","","","","","","","","","","","","","","","","","",""
"","bandit","21","145308","0.0-20.0-0.0","55083781","wem/bandit_either_2","A1AO1LLP3INAZF","either","8","1095","","","","","","","0","0","1","","0.8","0.5","0.5","","","0.8","0.2","","","","","","","","","","","","","","74","J","0","img/none_selected_demo.jpg","true","0","80_20_practice"
"","bandit","22","147496","0.0-20.0-1.0","55083781","wem/bandit_either_2","A1AO1LLP3INAZF","either","8","678","","","","","","","0","1","0","","0.8","0.5","0.5","","","0.8","0.2","","","","","","","","","","","","","","74","J","0","img/none_selected_demo.jpg","true","0","80_20_practice"
"","bandit","23","149719","0.0-20.0-2.0","55083781","wem/bandit_either_2","A1AO1LLP3INAZF","either","8","714","","","","","","","0","0","1","0.2","","0.5","0.5","","","","","","","0.8","0.2","","","","","","","","","","75","K","1","","true","0","80_20_practice"
"","bandit","24","151911","0.0-20.0-3.0","55083781","wem/bandit_either_2","A1AO1LLP3INAZF","either","8","683","","","","","","","0","0","1","","0.2","0.5","0.5","","","0.8","0.2","","","","","","","","","","","","","","75","K","1","","true","0","80_20_practice"
"","bandit","25","153857","0.0-20.0-4.0","55083781","wem/bandit_either_2","A1AO1LLP3INAZF","either","8","439","","","","","","","1","0","0","0.8","","0.5","0.5","","","","","","","0.8","0.2","","","","","","","","","","74","J","0","img/none_selected_demo.jpg","true","0","80_20_practice"
"","bandit","26","156083","0.0-20.0-5.0","55083781","wem/bandit_either_2","A1AO1LLP3INAZF","either","8","721","","","","","","","0","1","0","","0.8","0.5","0.5","","","0.8","0.2","","","","","","","","","","","","","","74","J","0","img/none_selected_demo.jpg","true","0","80_20_practice"
"","bandit","27","158249","0.0-20.0-6.0","55083781","wem/bandit_either_2","A1AO1LLP3INAZF","either","8","662","","","","","","","1","0","0","0.8","","0.5","0.5","","","","","","","0.8","0.2","","","","","","","","","","74","J","0","img/none_selected_demo.jpg","true","0","80_20_practice"
"","bandit","28","160098","0.0-20.0-7.0","55083781","wem/bandit_either_2","A1AO1LLP3INAZF","either","8","340","","","","","","","0","1","0","","0.8","0.5","0.5","","","0.8","0.2","","","","","","","","","","","","","","74","J","0","img/none_selected_demo.jpg","true","0","80_20_practice"
"","bandit","29","162074","0.0-20.0-8.0","55083781","wem/bandit_either_2","A1AO1LLP3INAZF","either","8","465","","","","","","","0","0","1","0.8","","0.5","0.5","","","","","","","0.8","0.2","","","","","","","","","","74","J","0","img/none_selected_demo.jpg","true","0","80_20_practice"
"","bandit","30","163912","0.0-20.0-9.0","55083781","wem/bandit_either_2","A1AO1LLP3INAZF","either","8","329","","","","","","","0","1","0","","0.8","0.5","0.5","","","0.8","0.2","","","","","","","","","","","","","","74","J","0","img/none_selected_demo.jpg","true","0","80_20_practice"
"","bandit","31","165911","0.0-20.0-10.0","55083781","wem/bandit_either_2","A1AO1LLP3INAZF","either","8","491","","","","","","","0","0","1","","0.8","0.5","0.5","","","0.8","0.2","","","","","","","","","","","","","","74","J","0","img/none_selected_demo.jpg","true","0","80_20_practice"
"","bandit","32","167748","0.0-20.0-11.0","55083781","wem/bandit_either_2","A1AO1LLP3INAZF","either","8","331","","","","","","","0","0","1","0.8","","0.5","0.5","","","","","","","0.8","0.2","","","","","","","","","","74","J","0","img/none_selected_demo.jpg","true","0","80_20_practice"
"","bandit","33","169506","0.0-20.0-12.0","55083781","wem/bandit_either_2","A1AO1LLP3INAZF","either","8","250","","","","","","","0","1","0","","0.8","0.5","0.5","","","0.8","0.2","","","","","","","","","","","","","","74","J","0","img/none_selected_demo.jpg","true","0","80_20_practice"
"","bandit","34","171504","0.0-20.0-13.0","55083781","wem/bandit_either_2","A1AO1LLP3INAZF","either","8","488","","","","","","","0","1","0","","0.8","0.5","0.5","","","0.8","0.2","","","","","","","","","","","","","","74","J","0","img/none_selected_demo.jpg","true","0","80_20_practice"
"","bandit","35","173381","0.0-20.0-14.0","55083781","wem/bandit_either_2","A1AO1LLP3INAZF","either","8","368","","","","","","","0","0","1","0.8","","0.5","0.5","","","","","","","0.8","0.2","","","","","","","","","","74","J","0","img/none_selected_demo.jpg","true","0","80_20_practice"
"","bandit","36","175219","0.0-20.0-15.0","55083781","wem/bandit_either_2","A1AO1LLP3INAZF","either","8","328","","","","","","","1","0","0","0.8","","0.5","0.5","","","","","","","0.8","0.2","","","","","","","","","","74","J","0","img/none_selected_demo.jpg","true","0","80_20_practice"
"","bandit","37","177336","0.0-20.0-16.0","55083781","wem/bandit_either_2","A1AO1LLP3INAZF","either","8","612","","","","","","","0","1","0","","0.8","0.5","0.5","","","0.8","0.2","","","","","","","","","","","","","","74","J","0","img/none_selected_demo.jpg","true","0","80_20_practice"
"","bandit","38","179235","0.0-20.0-17.0","55083781","wem/bandit_either_2","A1AO1LLP3INAZF","either","8","390","","","","","","","1","0","0","0.8","","0.5","0.5","","","","","","","0.8","0.2","","","","","","","","","","74","J","0","img/none_selected_demo.jpg","true","0","80_20_practice"
"","bandit","39","181116","0.0-20.0-18.0","55083781","wem/bandit_either_2","A1AO1LLP3INAZF","either","8","373","","","","","","","1","0","0","0.8","","0.5","0.5","","","","","","","0.8","0.2","","","","","","","","","","74","J","0","img/none_selected_demo.jpg","true","0","80_20_practice"
"","bandit","40","183199","0.0-20.0-19.0","55083781","wem/bandit_either_2","A1AO1LLP3INAZF","either","8","575","","","","","","","1","0","0","0.8","","0.5","0.5","","","","","","","0.8","0.2","","","","","","","","","","74","J","0","img/none_selected_demo.jpg","true","0","80_20_practice"
"","text","41","187869","0.0-21.0","55083781","wem/bandit_either_2","A1AO1LLP3INAZF","either","8","4666","","32","","","","","","","","","","","","","","","","","","","","","","","","","","","","","","","","","","",""
"","bandit","42","190372","0.0-22.0-0.0","55083781","wem/bandit_either_2","A1AO1LLP3INAZF","either","8","993","","","","","","","1","0","0","1","0","","","","","0","1","","","1","0","","","","","","","","","","74","J","0","img/none_selected_demo.jpg","true","0",""
"","text","43","196026","0.0-23.0","55083781","wem/bandit_either_2","A1AO1LLP3INAZF","either","8","5650","","32","","","","","","","","","","","","","","","","","","","","","","","","","","","","","","","","","","",""
"","text","44","200620","0.0-24.0","55083781","wem/bandit_either_2","A1AO1LLP3INAZF","either","8","4591","","32","","","","","","","","","","","","","","","","","","","","","","","","","","","","","","","","","","",""
"","text","45","204988","0.0-25.0","55083781","wem/bandit_either_2","A1AO1LLP3INAZF","either","8","4366","","32","","","","","","","","","","","","","","","","","","","","","","","","","","","","","","","","","","",""
"","text","46","209989","0.0-26.0","55083781","wem/bandit_either_2","A1AO1LLP3INAZF","either","8","5000","","32","","","","","","","","","","","","","","","","","","","","","","","","","","","","","","","","","","",""
"","text","47","218240","0.0-27.0","55083781","wem/bandit_either_2","A1AO1LLP3INAZF","either","8","8247","","32","","","","","","","","","","","","","","","","","","","","","","","","","","","","","","","","","","",""
"","text","48","222563","0.0-28.0","55083781","wem/bandit_either_2","A1AO1LLP3INAZF","either","8","4318","","32","","","","","","","","","","","","","","","","","","","","","","","","","","","","","","","","","","",""
"","text","49","227289","0.0-29.0","55083781","wem/bandit_either_2","A1AO1LLP3INAZF","either","8","4719","","32","","","","","","","","","","","","","","","","","","","","","","","","","","","","","","","","","","",""
"","text","50","230971","0.0-30.0","55083781","wem/bandit_either_2","A1AO1LLP3INAZF","either","8","3679","","32","","","","","","","","","","","","","","","","","","","","","","","","","","","","","","","","","","",""
"","text","51","237440","0.0-31.0","55083781","wem/bandit_either_2","A1AO1LLP3INAZF","either","8","6465","","32","","","","","","","","","","","","","","","","","","","","","","","","","","","","","","","","","","",""
"","text","52","242181","0.0-32.0","55083781","wem/bandit_either_2","A1AO1LLP3INAZF","either","8","4738","","32","","","","","","","","","","","","","","","","","","","","","","","","","","","","","","","","","","",""
"","text","53","245462","0.0-33.0","55083781","wem/bandit_either_2","A1AO1LLP3INAZF","either","8","3278","","32","","","","","","","","","","","","","","","","","","","","","","","","","","","","","","","","","","",""
"","bandit","54","247692","0.0-34.0-0.0","55083781","wem/bandit_either_2","A1AO1LLP3INAZF","either","8","722","","","","","","","0","0","1","","0.8","0.5","0.5","0.5","0.5","0.8","0.2","0.6","0.2","","","","","","","","","","","","72","H","0","img/none_selected.jpg","true","0","full_practice"
"","bandit","55","249758","0.0-34.0-1.0","55083781","wem/bandit_either_2","A1AO1LLP3INAZF","either","8","559","","","","","","","0","1","0","","0.8","0.5","0.5","0.5","0.5","0.8","0.2","0.6","0.2","","","","","","","","","","","","72","H","0","img/none_selected.jpg","true","0","full_practice"
"","bandit","56","251638","0.0-34.0-2.0","55083781","wem/bandit_either_2","A1AO1LLP3INAZF","either","8","374","","","","","","","1","0","0","0.8","","0.5","0.5","0.5","0.5","","","","","0.8","0.2","0.6","0.2","","","","","","","","72","H","0","img/none_selected.jpg","true","0","full_practice"
"","bandit","57","253511","0.0-34.0-3.0","55083781","wem/bandit_either_2","A1AO1LLP3INAZF","either","8","363","","","","","","","1","0","0","0.8","","0.5","0.5","0.5","0.5","","","","","0.8","0.2","0.6","0.2","","","","","","","","72","H","0","img/none_selected.jpg","true","0","full_practice"
"","bandit","58","255392","0.0-34.0-4.0","55083781","wem/bandit_either_2","A1AO1LLP3INAZF","either","8","374","","","","","","","0","0","1","0.8","","0.5","0.5","0.5","0.5","","","","","0.8","0.2","0.6","0.2","","","","","","","","72","H","0","img/none_selected.jpg","true","0","full_practice"
"","bandit","59","257222","0.0-34.0-5.0","55083781","wem/bandit_either_2","A1AO1LLP3INAZF","either","8","318","","","","","","","1","0","0","0.8","","0.5","0.5","0.5","0.5","","","","","0.8","0.2","0.6","0.2","","","","","","","","72","H","0","img/none_selected.jpg","true","0","full_practice"
"","bandit","60","259062","0.0-34.0-6.0","55083781","wem/bandit_either_2","A1AO1LLP3INAZF","either","8","330","","","","","","","0","0","1","","0.8","0.5","0.5","0.5","0.5","0.8","0.2","0.6","0.2","","","","","","","","","","","","72","H","0","img/none_selected.jpg","true","0","full_practice"
"","bandit","61","260826","0.0-34.0-7.0","55083781","wem/bandit_either_2","A1AO1LLP3INAZF","either","8","255","","","","","","","0","0","1","","0.2","0.5","0.5","0.5","0.5","0.8","0.2","0.6","0.2","","","","","","","","","","","","76","L","3","","true","0","full_practice"
"","bandit","62","262559","0.0-34.0-8.0","55083781","wem/bandit_either_2","A1AO1LLP3INAZF","either","8","224","","","","","","","0","0","1","","0.6","0.5","0.5","0.5","0.5","0.8","0.2","0.6","0.2","","","","","","","","","","","","75","K","2","","true","0","full_practice"
"","bandit","63","264317","0.0-34.0-9.0","55083781","wem/bandit_either_2","A1AO1LLP3INAZF","either","8","248","","","","","","","0","1","0","","0.2","0.5","0.5","0.5","0.5","0.8","0.2","0.6","0.2","","","","","","","","","","","","74","J","1","","true","0","full_practice"
"","bandit","64","266129","0.0-34.0-10.0","55083781","wem/bandit_either_2","A1AO1LLP3INAZF","either","8","301","","","","","","","0","1","0","","0.2","0.5","0.5","0.5","0.5","0.8","0.2","0.6","0.2","","","","","","","","","","","","74","J","1","","true","0","full_practice"
"","bandit","65","268030","0.0-34.0-11.0","55083781","wem/bandit_either_2","A1AO1LLP3INAZF","either","8","393","","","","","","","0","1","0","","0.8","0.5","0.5","0.5","0.5","0.8","0.2","0.6","0.2","","","","","","","","","","","","72","H","0","img/none_selected.jpg","true","0","full_practice"
"","bandit","66","269782","0.0-34.0-12.0","55083781","wem/bandit_either_2","A1AO1LLP3INAZF","either","8","242","","","","","","","0","0","1","","0.2","0.5","0.5","0.5","0.5","0.8","0.2","0.6","0.2","","","","","","","","","","","","74","J","1","","true","0","full_practice"
"","bandit","67","271551","0.0-34.0-13.0","55083781","wem/bandit_either_2","A1AO1LLP3INAZF","either","8","260","","","","","","","0","0","1","0.2","","0.5","0.5","0.5","0.5","","","","","0.8","0.2","0.6","0.2","","","","","","","","74","J","1","","true","0","full_practice"
"","bandit","68","273251","0.0-34.0-14.0","55083781","wem/bandit_either_2","A1AO1LLP3INAZF","either","8","190","","","","","","","1","0","0","0.8","","0.5","0.5","0.5","0.5","","","","","0.8","0.2","0.6","0.2","","","","","","","","72","H","0","img/none_selected.jpg","true","0","full_practice"
"","bandit","69","275220","0.0-34.0-15.0","55083781","wem/bandit_either_2","A1AO1LLP3INAZF","either","8","458","","","","","","","0","0","1","0.8","","0.5","0.5","0.5","0.5","","","","","0.8","0.2","0.6","0.2","","","","","","","","72","H","0","img/none_selected.jpg","true","0","full_practice"
"","bandit","70","276971","0.0-34.0-16.0","55083781","wem/bandit_either_2","A1AO1LLP3INAZF","either","8","241","","","","","","","0","1","0","","0.8","0.5","0.5","0.5","0.5","0.8","0.2","0.6","0.2","","","","","","","","","","","","72","H","0","img/none_selected.jpg","true","0","full_practice"
"","bandit","71","278794","0.0-34.0-17.0","55083781","wem/bandit_either_2","A1AO1LLP3INAZF","either","8","312","","","","","","","1","0","0","0.8","","0.5","0.5","0.5","0.5","","","","","0.8","0.2","0.6","0.2","","","","","","","","72","H","0","img/none_selected.jpg","true","0","full_practice"
"","bandit","72","280515","0.0-34.0-18.0","55083781","wem/bandit_either_2","A1AO1LLP3INAZF","either","8","213","","","","","","","0","0","1","","0.8","0.5","0.5","0.5","0.5","0.8","0.2","0.6","0.2","","","","","","","","","","","","72","H","0","img/none_selected.jpg","true","0","full_practice"
"","bandit","73","282080","0.0-34.0-19.0","55083781","wem/bandit_either_2","A1AO1LLP3INAZF","either","8","56","","","","","","","0","0","1","0.8","","0.5","0.5","0.5","0.5","","","","","0.8","0.2","0.6","0.2","","","","","","","","72","H","0","img/none_selected.jpg","true","0","full_practice"
"","text","74","284817","0.0-35.0","55083781","wem/bandit_either_2","A1AO1LLP3INAZF","either","8","2733","","32","","","","","","","","","","","","","","","","","","","","","","","","","","","","","","","","","","",""
"","text","75","299005","0.0-36.0","55083781","wem/bandit_either_2","A1AO1LLP3INAZF","either","8","13184","","32","","","","","","","","","","","","","","","","","","","","","","","","","","","","","","","","","","",""
"","text","76","307447","0.0-37.0","55083781","wem/bandit_either_2","A1AO1LLP3INAZF","either","8","8438","","32","","","","","","","","","","","","","","","","","","","","","","","","","","","","","","","","","","",""
"","text","77","313695","0.0-38.0","55083781","wem/bandit_either_2","A1AO1LLP3INAZF","either","8","6244","","32","","","","","","","","","","","","","","","","","","","","","","","","","","","","","","","","","","",""
"","text","78","319237","0.0-39.0","55083781","wem/bandit_either_2","A1AO1LLP3INAZF","either","8","5538","","32","","","","","","","","","","","","","","","","","","","","","","","","","","","","","","","","","","",""
"","text","79","323869","0.0-40.0","55083781","wem/bandit_either_2","A1AO1LLP3INAZF","either","8","4627","","32","","","","","","","","","","","","","","","","","","","","","","","","","","","","","","","","","","",""
"","bandit","80","326262","0.0-41.0-0.0","55083781","wem/bandit_either_2","A1AO1LLP3INAZF","either","8","885","","","","","","","0","0","1","","0.3540548627","0.2","0.6","0.4","0.8","0.2928194041","0.1351790469","0.3540548627","0.2637293772","","","","","","","","","","","","75","K","2","","","1","main_expt"
"","bandit","81","327772","0.0-42.0-0.0","55083781","wem/bandit_either_2","A1AO1LLP3INAZF","either","8","1","","","","","","","0","0","1","0.2760013096","","0.2","0.6","0.4","0.8","","","","","0.3040419902","0.125602744","0.3812516843","0.2760013096","","","","","","","","76","L","3","","","2","main_expt"
"","bandit","82","329396","0.0-43.0-0.0","55083781","wem/bandit_either_2","A1AO1LLP3INAZF","either","8","119","","","","","","","0","0","1","0.09574082279","","0.2","0.6","0.4","0.8","","","","","0.2875251023","0.09574082279","0.3901316494","0.3240499928","","","","","","","","74","J","1","","","3","main_expt"
"","bandit","83","331430","0.0-44.0-0.0","55083781","wem/bandit_either_2","A1AO1LLP3INAZF","either","8","524","","","","","","","0","0","1","","0.2965567903","0.2","0.6","0.4","0.8","0.2965567903","0.0913382225","0.3945399471","0.3510822359","","","","","","","","","","","","72","H","0","img/none_selected.jpg","","4","main_expt"
"","bandit","84","333138","0.0-45.0-0.0","55083781","wem/bandit_either_2","A1AO1LLP3INAZF","either","8","199","","","","","","","0","0","1","","0.3997977613","0.2","0.6","0.4","0.8","0.2681113314","0.106177601","0.3997977613","0.3522827721","","","","","","","","","","","","75","K","2","","","5","main_expt"
"","bandit","85","334787","0.0-46.0-0.0","55083781","wem/bandit_either_2","A1AO1LLP3INAZF","either","8","140","","","","","","","1","0","0","0.08998955495","","0.2","0.6","0.4","0.8","","","","","0.2330443498","0.08998955495","0.390783501","0.382674005","","","","","","","","74","J","1","","","6","main_expt"
"","bandit","86","336492","0.0-47.0-0.0","55083781","wem/bandit_either_2","A1AO1LLP3INAZF","either","8","199","","","","","","","0","0","1","0.1077526668","","0.2","0.6","0.4","0.8","","","","","0.1630509172","0.1077526668","0.3305693427","0.3998463606","","","","","","","","74","J","1","","","7","main_expt"
"","bandit","87","338123","0.0-48.0-0.0","55083781","wem/bandit_either_2","A1AO1LLP3INAZF","either","8","123","","","","","","","0","0","1","0.1243697388","","0.2","0.6","0.4","0.8","","","","","0.2002468685","0.1243697388","0.3056545716","0.3832029687","","","","","","","","74","J","1","","","8","main_expt"
"","bandit","88","339684","0.0-49.0-0.0","55083781","wem/bandit_either_2","A1AO1LLP3INAZF","either","8","51","","","","","","","0","0","1","","0.1698108096","0.2","0.6","0.4","0.8","0.1835034381","0.1698108096","0.3278889804","0.3796681134","","","","","","","","","","","","74","J","1","","","9","main_expt"
"","bandit","89","341333","0.0-50.0-0.0","55083781","wem/bandit_either_2","A1AO1LLP3INAZF","either","8","139","","","","","","","0","1","0","","0.3614311416","0.2","0.6","0.4","0.8","0.1939723001","0.221757114","0.3137855556","0.3614311416","","","","","","","","","","","","76","L","3","","","10","main_expt"
"","bandit","90","343051","0.0-51.0-0.0","55083781","wem/bandit_either_2","A1AO1LLP3INAZF","either","8","208","","","","","","","1","0","0","0.3938737051","","0.2","0.6","0.4","0.8","","","","","0.1949806013","0.1961062924","0.3253079181","0.3938737051","","","","","","","","76","L","3","","","11","main_expt"
"","bandit","91","344812","0.0-52.0-0.0","55083781","wem/bandit_either_2","A1AO1LLP3INAZF","either","8","252","","","","","","","1","0","0","0.3810544723","","0.2","0.6","0.4","0.8","","","","","0.2587943474","0.1907056259","0.3298150516","0.3810544723","","","","","","","","76","L","3","","","12","main_expt"
"","bandit","92","346523","0.0-53.0-0.0","55083781","wem/bandit_either_2","A1AO1LLP3INAZF","either","8","206","","","","","","","0","0","1","0.3707046684","","0.2","0.6","0.4","0.8","","","","","0.3085985727","0.2162865666","0.3673307406","0.3707046684","","","","","","","","76","L","3","","","13","main_expt"
"","bandit","93","348174","0.0-54.0-0.0","55083781","wem/bandit_either_2","A1AO1LLP3INAZF","either","8","145","","","","","","","1","0","0","0.3486531997","","0.2","0.6","0.4","0.8","","","","","0.2464992766","0.2399362825","0.3679224674","0.3486531997","","","","","","","","76","L","3","","","14","main_expt"
"","bandit","94","349942","0.0-55.0-0.0","55083781","wem/bandit_either_2","A1AO1LLP3INAZF","either","8","258","","","","","","","1","0","0","0.3263578384","","0.2","0.6","0.4","0.8","","","","","0.2474611475","0.1986859052","0.3062507314","0.3263578384","","","","","","","","76","L","3","","","15","main_expt"
"","bandit","95","351698","0.0-56.0-0.0","55083781","wem/bandit_either_2","A1AO1LLP3INAZF","either","8","248","","","","","","","0","0","1","0.3514189979","","0.2","0.6","0.4","0.8","","","","","0.2835538477","0.1865641621","0.2892976033","0.3514189979","","","","","","","","76","L","3","","","16","main_expt"
"","bandit","96","353298","0.0-57.0-0.0","55083781","wem/bandit_either_2","A1AO1LLP3INAZF","either","8","93","","","","","","","1","0","0","0.3532592314","","0.2","0.6","0.4","0.8","","","","","0.3256112075","0.2035525071","0.2861796528","0.3532592314","","","","","","","","76","L","3","","","17","main_expt"
"","bandit","97","355100","0.0-58.0-0.0","55083781","wem/bandit_either_2","A1AO1LLP3INAZF","either","8","292","","","","","","","0","0","1","0.3858608091","","0.2","0.6","0.4","0.8","","","","","0.3802227677","0.2039336531","0.2958570682","0.3858608091","","","","","","","","76","L","3","","","18","main_expt"
"","bandit","98","359167","0.0-59.0-0.0","55083781","wem/bandit_either_2","A1AO1LLP3INAZF","either","8","2557","","","","","","","1","0","0","0.3837638756","","0.2","0.6","0.4","0.8","","","","","0.360566968","0.1598579642","0.3353028819","0.3837638756","","","","","","","","76","L","3","","","19","main_expt"
"","bandit","99","360857","0.0-60.0-0.0","55083781","wem/bandit_either_2","A1AO1LLP3INAZF","either","8","180","","","","","","","1","0","0","0.2872100501","","0.2","0.6","0.4","0.8","","","","","0.3696799013","0.1437622327","0.3139704528","0.2872100501","","","","","","","","76","L","3","","","20","main_expt"
"","bandit","100","362614","0.0-61.0-0.0","55083781","wem/bandit_either_2","A1AO1LLP3INAZF","either","8","249","","","","","","","1","0","0","0.2975414498","","0.2","0.6","0.4","0.8","","","","","0.4006907501","0.07974703335","0.2524707143","0.2975414498","","","","","","","","76","L","3","","","21","main_expt"
"","bandit","101","364374","0.0-62.0-0.0","55083781","wem/bandit_either_2","A1AO1LLP3INAZF","either","8","253","","","","","","","0","0","1","0.2741965999","","0.2","0.6","0.4","0.8","","","","","0.4081217326","0.1361132429","0.248326021","0.2741965999","","","","","","","","76","L","3","","","22","main_expt"
"","bandit","102","366044","0.0-63.0-0.0","55083781","wem/bandit_either_2","A1AO1LLP3INAZF","either","8","162","","","","","","","0","0","1","0.2379064449","","0.2","0.6","0.4","0.8","","","","","0.3740207531","0.1705973249","0.2937153481","0.2379064449","","","","","","","","76","L","3","","","23","main_expt"
"","bandit","103","367674","0.0-64.0-0.0","55083781","wem/bandit_either_2","A1AO1LLP3INAZF","either","8","122","","","","","","","0","0","1","","0.2078598572","0.2","0.6","0.4","0.8","0.3913756451","0.1392759225","0.2625315469","0.2078598572","","","","","","","","","","","","76","L","3","","","24","main_expt"
"","bandit","104","369230","0.0-65.0-0.0","55083781","wem/bandit_either_2","A1AO1LLP3INAZF","either","8","48","","","","","","","0","0","1","0.2405651368","","0.2","0.6","0.4","0.8","","","","","0.4100905738","0.1800538527","0.2405651368","0.2764850733","","","","","","","","75","K","2","","","25","main_expt"
"","bandit","105","370847","0.0-66.0-0.0","55083781","wem/bandit_either_2","A1AO1LLP3INAZF","either","8","107","","","","","","","0","0","1","","0.3600668969","0.2","0.6","0.4","0.8","0.3600668969","0.2146400533","0.2503350336","0.3080191348","","","","","","","","","","","","72","H","0","img/none_selected.jpg","","26","main_expt"
"","bandit","106","372568","0.0-67.0-0.0","55083781","wem/bandit_either_2","A1AO1LLP3INAZF","either","8","211","","","","","","","0","1","0","","0.3703096079","0.2","0.6","0.4","0.8","0.3703096079","0.1948367851","0.354091838","0.3606197488","","","","","","","","","","","","72","H","0","img/none_selected.jpg","","27","main_expt"
"","bandit","107","374320","0.0-68.0-0.0","55083781","wem/bandit_either_2","A1AO1LLP3INAZF","either","8","238","","","","","","","0","0","1","","0.3527269899","0.2","0.6","0.4","0.8","0.3527269899","0.2282666016","0.3419366675","0.3696097963","","","","","","","","","","","","72","H","0","img/none_selected.jpg","","28","main_expt"
"","bandit","108","376029","0.0-69.0-0.0","55083781","wem/bandit_either_2","A1AO1LLP3INAZF","either","8","197","","","","","","","0","0","1","","0.2854860911","0.2","0.6","0.4","0.8","0.2854860911","0.1842618798","0.361896517","0.3434444954","","","","","","","","","","","","72","H","0","img/none_selected.jpg","","29","main_expt"
"","bandit","109","377996","0.0-70.0-0.0","55083781","wem/bandit_either_2","A1AO1LLP3INAZF","either","8","458","","","","","","","0","1","0","","0.3701160785","0.2","0.6","0.4","0.8","0.2971434158","0.1930267653","0.3701160785","0.3528183973","","","","","","","","","","","","75","K","2","","","30","main_expt"
"","bandit","110","379860","0.0-71.0-0.0","55083781","wem/bandit_either_2","A1AO1LLP3INAZF","either","8","355","","","","","","","1","0","0","0.3602312343","","0.2","0.6","0.4","0.8","","","","","0.3192935598","0.2279264959","0.3602312343","0.3436926249","","","","","","","","75","K","2","","","31","main_expt"
"","bandit","111","381603","0.0-72.0-0.0","55083781","wem/bandit_either_2","A1AO1LLP3INAZF","either","8","233","","","","","","","0","0","1","0.3550043818","","0.2","0.6","0.4","0.8","","","","","0.2910845839","0.1922668126","0.3550043818","0.3392376576","","","","","","","","75","K","2","","","32","main_expt"
"","bandit","112","383213","0.0-73.0-0.0","55083781","wem/bandit_either_2","A1AO1LLP3INAZF","either","8","100","","","","","","","0","0","1","","0.3927862597","0.2","0.6","0.4","0.8","0.2956883229","0.1503247695","0.3927862597","0.2524106513","","","","","","","","","","","","75","K","2","","","33","main_expt"
"","bandit","113","384839","0.0-74.0-0.0","55083781","wem/bandit_either_2","A1AO1LLP3INAZF","either","8","116","","","","","","","0","1","0","","0.4185963197","0.2","0.6","0.4","0.8","0.2918182698","0.1875072744","0.4185963197","0.2378308988","","","","","","","","","","","","75","K","2","","","34","main_expt"
"","bandit","114","386594","0.0-75.0-0.0","55083781","wem/bandit_either_2","A1AO1LLP3INAZF","either","8","246","","","","","","","0","0","1","","0.441983755","0.2","0.6","0.4","0.8","0.3063909307","0.2135507624","0.441983755","0.2683654211","","","","","","","","","","","","75","K","2","","","35","main_expt"
"","bandit","115","388112","0.0-76.0-0.0","55083781","wem/bandit_either_2","A1AO1LLP3INAZF","either","8","8","","","","","","","0","0","1","","0.2042402853","0.2","0.6","0.4","0.8","0.2820805085","0.2042402853","0.4352827683","0.2645223933","","","","","","","","","","","","74","J","1","","","36","main_expt"
"","bandit","116","389769","0.0-77.0-0.0","55083781","wem/bandit_either_2","A1AO1LLP3INAZF","either","8","146","","","","","","","1","0","0","0.2360561858","","0.2","0.6","0.4","0.8","","","","","0.2610370824","0.2024605481","0.450520142","0.2360561858","","","","","","","","76","L","3","","","37","main_expt"
"","bandit","117","391657","0.0-78.0-0.0","55083781","wem/bandit_either_2","A1AO1LLP3INAZF","either","8","380","","","","","","","0","0","1","0.2001865083","","0.2","0.6","0.4","0.8","","","","","0.1896233007","0.1677713785","0.4681224698","0.2001865083","","","","","","","","76","L","3","","","38","main_expt"
"","bandit","118","393352","0.0-79.0-0.0","55083781","wem/bandit_either_2","A1AO1LLP3INAZF","either","8","187","","","","","","","0","0","1","0.1687915361","","0.2","0.6","0.4","0.8","","","","","0.168851025","0.221779122","0.4711022053","0.1687915361","","","","","","","","76","L","3","","","39","main_expt"
"","bandit","119","395085","0.0-80.0-0.0","55083781","wem/bandit_either_2","A1AO1LLP3INAZF","either","8","225","","","","","","","0","0","1","","0.4559447699","0.2","0.6","0.4","0.8","0.1615787635","0.2722397218","0.4559447699","0.1503151413","","","","","","","","","","","","75","K","2","","","40","main_expt"
"","bandit","120","396797","0.0-81.0-0.0","55083781","wem/bandit_either_2","A1AO1LLP3INAZF","either","8","204","","","","","","","0","1","0","","0.1472326003","0.2","0.6","0.4","0.8","0.1472326003","0.3298230943","0.4412687596","0.08168262283","","","","","","","","","","","","72","H","0","img/none_selected.jpg","","41","main_expt"
"","bandit","121","398517","0.0-82.0-0.0","55083781","wem/bandit_either_2","A1AO1LLP3INAZF","either","8","210","","","","","","","0","0","1","","0.1533480506","0.2","0.6","0.4","0.8","0.1533480506","0.3104885444","0.4457751761","0.07668629145","","","","","","","","","","","","72","H","0","img/none_selected.jpg","","42","main_expt"
"","bandit","122","400192","0.0-83.0-0.0","55083781","wem/bandit_either_2","A1AO1LLP3INAZF","either","8","161","","","","","","","0","0","1","","0.1414351437","0.2","0.6","0.4","0.8","0.1414351437","0.3005355489","0.4298378352","0.07394587158","","","","","","","","","","","","72","H","0","img/none_selected.jpg","","43","main_expt"
"","bandit","123","402110","0.0-84.0-0.0","55083781","wem/bandit_either_2","A1AO1LLP3INAZF","either","8","409","","","","","","","0","1","0","","0.4416915379","0.2","0.6","0.4","0.8","0.1067646429","0.2456242138","0.4416915379","0.1192337685","","","","","","","","","","","","75","K","2","","","44","main_expt"
"","bandit","124","403836","0.0-85.0-0.0","55083781","wem/bandit_either_2","A1AO1LLP3INAZF","either","8","219","","","","","","","1","0","0","0.3915522423","","0.2","0.6","0.4","0.8","","","","","0.1250796286","0.2839901561","0.3915522423","0.1285724119","","","","","","","","75","K","2","","","45","main_expt"
"","bandit","125","405546","0.0-86.0-0.0","55083781","wem/bandit_either_2","A1AO1LLP3INAZF","either","8","200","","","","","","","0","1","0","","0.4318427431","0.2","0.6","0.4","0.8","0.1927264636","0.2353621531","0.4318427431","0.1112684106","","","","","","","","","","","","75","K","2","","","46","main_expt"
"","bandit","126","407226","0.0-87.0-0.0","55083781","wem/bandit_either_2","A1AO1LLP3INAZF","either","8","170","","","","","","","0","1","0","","0.4395998441","0.2","0.6","0.4","0.8","0.1804488412","0.2405257196","0.4395998441","0.1207340475","","","","","","","","","","","","75","K","2","","","47","main_expt"
"","bandit","127","408827","0.0-88.0-0.0","55083781","wem/bandit_either_2","A1AO1LLP3INAZF","either","8","91","","","","","","","0","1","0","","0.4630443269","0.2","0.6","0.4","0.8","0.168268176","0.2629408555","0.4630443269","0.1182533935","","","","","","","","","","","","75","K","2","","","48","main_expt"
"","bandit","128","410373","0.0-89.0-0.0","55083781","wem/bandit_either_2","A1AO1LLP3INAZF","either","8","37","","","","","","","1","0","0","0.4794982466","","0.2","0.6","0.4","0.8","","","","","0.1466838001","0.2902453213","0.4794982466","0.1460801474","","","","","","","","75","K","2","","","49","main_expt"
"","bandit","129","412076","0.0-90.0-0.0","55083781","wem/bandit_either_2","A1AO1LLP3INAZF","either","8","197","","","","","","","1","0","0","0.4562783041","","0.2","0.6","0.4","0.8","","","","","0.1336340117","0.3033715012","0.4562783041","0.1765155983","","","","","","","","75","K","2","","","50","main_expt"
"","bandit","130","413701","0.0-91.0-0.0","55083781","wem/bandit_either_2","A1AO1LLP3INAZF","either","8","116","","","","","","","0","0","1","0.4515646323","","0.2","0.6","0.4","0.8","","","","","0.1067821754","0.3536831403","0.4515646323","0.1614266163","","","","","","","","75","K","2","","","51","main_expt"
"","bandit","131","415310","0.0-92.0-0.0","55083781","wem/bandit_either_2","A1AO1LLP3INAZF","either","8","96","","","","","","","0","0","1","","0.4344137529","0.2","0.6","0.4","0.8","0.07294577227","0.3058792917","0.4344137529","0.1938643747","","","","","","","","","","","","75","K","2","","","52","main_expt"
"","bandit","132","416883","0.0-93.0-0.0","55083781","wem/bandit_either_2","A1AO1LLP3INAZF","either","8","63","","","","","","","0","1","0","","0.4421766306","0.2","0.6","0.4","0.8","0.07676454597","0.3466820038","0.4421766306","0.1721886996","","","","","","","","","","","","75","K","2","","","53","main_expt"
"","bandit","133","418490","0.0-94.0-0.0","55083781","wem/bandit_either_2","A1AO1LLP3INAZF","either","8","96","","","","","","","0","1","0","","0.4591875032","0.2","0.6","0.4","0.8","0.07707135067","0.3159173384","0.4591875032","0.1542880765","","","","","","","","","","","","75","K","2","","","54","main_expt"
"","bandit","134","420129","0.0-95.0-0.0","55083781","wem/bandit_either_2","A1AO1LLP3INAZF","either","8","128","","","","","","","0","0","1","","0.4455250987","0.2","0.6","0.4","0.8","0.08227932488","0.3205246683","0.4455250987","0.2155598061","","","","","","","","","","","","75","K","2","","","55","main_expt"
"","bandit","135","422192","0.0-96.0-0.0","55083781","wem/bandit_either_2","A1AO1LLP3INAZF","either","8","553","","","","","","","0","0","1","","0.199350645","0.2","0.6","0.4","0.8","0.09013031375","0.3067659888","0.4200701886","0.199350645","","","","","","","","","","","","76","L","3","","","56","main_expt"
"","bandit","136","423854","0.0-97.0-0.0","55083781","wem/bandit_either_2","A1AO1LLP3INAZF","either","8","155","","","","","","","0","0","1","","0.3786279545","0.2","0.6","0.4","0.8","0.106866739","0.3786279545","0.3635567377","0.1991981904","","","","","","","","","","","","74","J","1","","","57","main_expt"
"","bandit","137","425808","0.0-98.0-0.0","55083781","wem/bandit_either_2","A1AO1LLP3INAZF","either","8","443","","","","","","","0","0","1","","0.0915584437","0.2","0.6","0.4","0.8","0.0915584437","0.3796022377","0.3647217687","0.1307276253","","","","","","","","","","","","72","H","0","img/none_selected.jpg","","58","main_expt"
"","bandit","138","427718","0.0-99.0-0.0","55083781","wem/bandit_either_2","A1AO1LLP3INAZF","either","8","399","","","","","","","1","0","0","0.3975499765","","0.2","0.6","0.4","0.8","","","","","0.1036540812","0.3570845549","0.3975499765","0.1540949786","","","","","","","","75","K","2","","","59","main_expt"
"","bandit","139","429430","0.0-100.0-0.0","55083781","wem/bandit_either_2","A1AO1LLP3INAZF","either","8","201","","","","","","","0","1","0","","0.376383165","0.2","0.6","0.4","0.8","0.07948280662","0.398525789","0.376383165","0.1187181044","","","","","","","","","","","","75","K","2","","","60","main_expt"
"","bandit","140","431115","0.0-101.0-0.0","55083781","wem/bandit_either_2","A1AO1LLP3INAZF","either","8","175","","","","","","","0","0","1","0.3384437455","","0.2","0.6","0.4","0.8","","","","","0.0685056185","0.380986593","0.3384437455","0.1734870435","","","","","","","","75","K","2","","","61","main_expt"
"","bandit","141","432655","0.0-102.0-0.0","55083781","wem/bandit_either_2","A1AO1LLP3INAZF","either","8","31","","","","","","","0","0","1","0.3086389155","","0.2","0.6","0.4","0.8","","","","","0.04196312691","0.3928002855","0.3086389155","0.2056999461","","","","","","","","75","K","2","","","62","main_expt"
"","bandit","142","434236","0.0-103.0-0.0","55083781","wem/bandit_either_2","A1AO1LLP3INAZF","either","8","71","","","","","","","0","1","0","","0.3098998428","0.2","0.6","0.4","0.8","0.06524357318","0.4097838671","0.3098998428","0.2421495796","","","","","","","","","","","","75","K","2","","","63","main_expt"
"","bandit","143","435828","0.0-104.0-0.0","55083781","wem/bandit_either_2","A1AO1LLP3INAZF","either","8","83","","","","","","","1","0","0","0.2859800092","","0.2","0.6","0.4","0.8","","","","","0.04599317762","0.3942475769","0.2859800092","0.2678986655","","","","","","","","75","K","2","","","64","main_expt"
"","bandit","144","437378","0.0-105.0-0.0","55083781","wem/bandit_either_2","A1AO1LLP3INAZF","either","8","41","","","","","","","0","0","1","0.2780623804","","0.2","0.6","0.4","0.8","","","","","0.04738713632","0.3756823908","0.2780623804","0.2780805564","","","","","","","","75","K","2","","","65","main_expt"
"","bandit","145","438932","0.0-106.0-0.0","55083781","wem/bandit_either_2","A1AO1LLP3INAZF","either","8","44","","","","","","","1","0","0","0.3780323226","","0.2","0.6","0.4","0.8","","","","","0.02873144913","0.3780323226","0.2740889186","0.2923516192","","","","","","","","74","J","1","","","66","main_expt"
"","bandit","146","440569","0.0-107.0-0.0","55083781","wem/bandit_either_2","A1AO1LLP3INAZF","either","8","129","","","","","","","0","0","1","0.382091886","","0.2","0.6","0.4","0.8","","","","","0.0355516853","0.382091886","0.3122756929","0.3481747094","","","","","","","","74","J","1","","","67","main_expt"
"","bandit","147","442222","0.0-108.0-0.0","55083781","wem/bandit_either_2","A1AO1LLP3INAZF","either","8","138","","","","","","","0","0","1","0.4080562953","","0.2","0.6","0.4","0.8","","","","","0.04483006882","0.4080562953","0.3004294993","0.3540590834","","","","","","","","74","J","1","","","68","main_expt"
"","bandit","148","443826","0.0-109.0-0.0","55083781","wem/bandit_either_2","A1AO1LLP3INAZF","either","8","92","","","","","","","0","0","1","0.419826639","","0.2","0.6","0.4","0.8","","","","","0.04300650393","0.419826639","0.3312842332","0.3348318208","","","","","","","","74","J","1","","","69","main_expt"
"","bandit","149","445434","0.0-110.0-0.0","55083781","wem/bandit_either_2","A1AO1LLP3INAZF","either","8","98","","","","","","","0","0","1","","0.2362018798","0.2","0.6","0.4","0.8","0.03960880855","0.3889643965","0.2362018798","0.3844983113","","","","","","","","","","","","75","K","2","","","70","main_expt"
"","bandit","150","447102","0.0-111.0-0.0","55083781","wem/bandit_either_2","A1AO1LLP3INAZF","either","8","160","","","","","","","0","0","1","0.1838323472","","0.2","0.6","0.4","0.8","","","","","0.02401392238","0.3492343966","0.1838323472","0.3753843975","","","","","","","","75","K","2","","","71","main_expt"
"","bandit","151","448787","0.0-112.0-0.0","55083781","wem/bandit_either_2","A1AO1LLP3INAZF","either","8","173","","","","","","","0","0","1","","0.1749810972","0.2","0.6","0.4","0.8","0.008756159955","0.3502155883","0.1749810972","0.3861429343","","","","","","","","","","","","75","K","2","","","72","main_expt"
"","bandit","152","450321","0.0-113.0-0.0","55083781","wem/bandit_either_2","A1AO1LLP3INAZF","either","8","24","","","","","","","0","0","1","","0.006257651783","0.2","0.6","0.4","0.8","0.006257651783","0.3568691787","0.1664097112","0.3978436086","","","","","","","","","","","","72","H","0","img/none_selected.jpg","","73","main_expt"
"","bandit","153","451948","0.0-114.0-0.0","55083781","wem/bandit_either_2","A1AO1LLP3INAZF","either","8","119","","","","","","","0","0","1","","0.004732084297","0.2","0.6","0.4","0.8","0.004732084297","0.3303653739","0.2001176207","0.3847979518","","","","","","","","","","","","72","H","0","img/none_selected.jpg","","74","main_expt"
"","bandit","154","453515","0.0-115.0-0.0","55083781","wem/bandit_either_2","A1AO1LLP3INAZF","either","8","58","","","","","","","0","0","1","0.3974319157","","0.2","0.6","0.4","0.8","","","","","0.006967558871","0.3353283381","0.1848717924","0.3974319157","","","","","","","","76","L","3","","","75","main_expt"
"","bandit","155","455267","0.0-116.0-0.0","55083781","wem/bandit_either_2","A1AO1LLP3INAZF","either","8","246","","","","","","","0","0","1","0.3987985884","","0.2","0.6","0.4","0.8","","","","","0.004525860487","0.3009524994","0.1510178238","0.3987985884","","","","","","","","76","L","3","","","76","main_expt"
"","bandit","156","456921","0.0-117.0-0.0","55083781","wem/bandit_either_2","A1AO1LLP3INAZF","either","8","147","","","","","","","0","0","1","0.007245535115","","0.2","0.6","0.4","0.8","","","","","0.007245535115","0.3316028908","0.2089633591","0.4127312768","","","","","","","","72","H","0","img/none_selected.jpg","","77","main_expt"
"","bandit","157","458441","0.0-118.0-0.0","55083781","wem/bandit_either_2","A1AO1LLP3INAZF","either","8","6","","","","","","","0","0","1","0.2285147345","","0.2","0.6","0.4","0.8","","","","","0.00483057751","0.3571024926","0.2285147345","0.4257675477","","","","","","","","75","K","2","","","78","main_expt"
"","bandit","158","460322","0.0-119.0-0.0","55083781","wem/bandit_either_2","A1AO1LLP3INAZF","either","8","369","","","","","","","0","0","1","0.3542776451","","0.2","0.6","0.4","0.8","","","","","0.005956317848","0.3542776451","0.2246975601","0.4331167668","","","","","","","","74","J","1","","","79","main_expt"
"","bandit","159","462035","0.0-120.0-0.0","55083781","wem/bandit_either_2","A1AO1LLP3INAZF","either","8","204","","","","","","","0","0","1","","0.3201174307","0.2","0.6","0.4","0.8","0.0076590047","0.3201174307","0.1878766281","0.4294395537","","","","","","","","","","","","74","J","1","","","80","main_expt"
"","bandit","160","463604","0.0-121.0-0.0","55083781","wem/bandit_either_2","A1AO1LLP3INAZF","either","8","60","","","","","","","0","0","1","","0.2436254364","0.2","0.6","0.4","0.8","0.009115568074","0.3503003334","0.2436254364","0.4234249918","","","","","","","","","","","","75","K","2","","","81","main_expt"
"","bandit","161","465200","0.0-122.0-0.0","55083781","wem/bandit_either_2","A1AO1LLP3INAZF","either","8","88","","","","","","","1","0","0","0.2627531714","","0.2","0.6","0.4","0.8","","","","","0.01382977225","0.3509066846","0.2627531714","0.3956977209","","","","","","","","75","K","2","","","82","main_expt"
"","bandit","162","466808","0.0-123.0-0.0","55083781","wem/bandit_either_2","A1AO1LLP3INAZF","either","8","96","","","","","","","0","1","0","","0.2672212524","0.2","0.6","0.4","0.8","0.01500629599","0.3951868033","0.2672212524","0.4248650233","","","","","","","","","","","","75","K","2","","","83","main_expt"
"","bandit","163","468510","0.0-124.0-0.0","55083781","wem/bandit_either_2","A1AO1LLP3INAZF","either","8","190","","","","","","","0","1","0","","0.2817484998","0.2","0.6","0.4","0.8","0.02310127573","0.4131477378","0.2817484998","0.4196907627","","","","","","","","","","","","75","K","2","","","84","main_expt"
"","bandit","164","470261","0.0-125.0-0.0","55083781","wem/bandit_either_2","A1AO1LLP3INAZF","either","8","239","","","","","","","0","0","1","0.3074775227","","0.2","0.6","0.4","0.8","","","","","0.02639065846","0.3889697292","0.3074775227","0.435633498","","","","","","","","75","K","2","","","85","main_expt"
"","bandit","165","472434","0.0-126.0-0.0","55083781","wem/bandit_either_2","A1AO1LLP3INAZF","either","8","662","","","","","","","1","0","0","0.2717847629","","0.2","0.6","0.4","0.8","","","","","0.01746441632","0.3885636443","0.2717847629","0.4322222521","","","","","","","","75","K","2","","","86","main_expt"
"","bandit","166","474129","0.0-127.0-0.0","55083781","wem/bandit_either_2","A1AO1LLP3INAZF","either","8","184","","","","","","","0","1","0","","0.2183858348","0.2","0.6","0.4","0.8","0.01256144444","0.4028282504","0.2183858348","0.4476119451","","","","","","","","","","","","75","K","2","","","87","main_expt"
"","bandit","167","475667","0.0-128.0-0.0","55083781","wem/bandit_either_2","A1AO1LLP3INAZF","either","8","22","","","","","","","0","0","1","0.2054961256","","0.2","0.6","0.4","0.8","","","","","0.01178158386","0.4306890759","0.2054961256","0.4073123198","","","","","","","","75","K","2","","","88","main_expt"
"","bandit","168","477191","0.0-129.0-0.0","55083781","wem/bandit_either_2","A1AO1LLP3INAZF","either","8","12","","","","","","","0","0","1","","0.1452714398","0.2","0.6","0.4","0.8","0.008722555822","0.4103738654","0.1452714398","0.3862301724","","","","","","","","","","","","75","K","2","","","89","main_expt"
"","bandit","169","478747","0.0-130.0-0.0","55083781","wem/bandit_either_2","A1AO1LLP3INAZF","either","8","47","","","","","","","0","1","0","","0.3980827974","0.2","0.6","0.4","0.8","0.008232471735","0.3980827974","0.1077779513","0.3596745144","","","","","","","","","","","","74","J","1","","","90","main_expt"
"","bandit","170","480456","0.0-131.0-0.0","55083781","wem/bandit_either_2","A1AO1LLP3INAZF","either","8","198","","","","","","","0","0","1","","0.4040531024","0.2","0.6","0.4","0.8","0.01249180717","0.4040531024","0.1308407065","0.3082854458","","","","","","","","","","","","74","J","1","","","91","main_expt"
"","bandit","171","482010","0.0-132.0-0.0","55083781","wem/bandit_either_2","A1AO1LLP3INAZF","either","8","47","","","","","","","0","0","1","","0.01470986316","0.2","0.6","0.4","0.8","0.01470986316","0.3462944796","0.1652322036","0.312225492","","","","","","","","","","","","72","H","0","img/none_selected.jpg","","92","main_expt"
"","bandit","172","483603","0.0-133.0-0.0","55083781","wem/bandit_either_2","A1AO1LLP3INAZF","either","8","86","","","","","","","0","0","1","0.3411451966","","0.2","0.6","0.4","0.8","","","","","0.02655281846","0.3411451966","0.1344678182","0.3671658277","","","","","","","","74","J","1","","","93","main_expt"
"","bandit","173","485207","0.0-134.0-0.0","55083781","wem/bandit_either_2","A1AO1LLP3INAZF","either","8","92","","","","","","","1","0","0","0.3401731108","","0.2","0.6","0.4","0.8","","","","","0.02575246025","0.3384154489","0.1301314301","0.3401731108","","","","","","","","76","L","3","","","94","main_expt"
"","bandit","174","486951","0.0-135.0-0.0","55083781","wem/bandit_either_2","A1AO1LLP3INAZF","either","8","229","","","","","","","1","0","0","0.3413923724","","0.2","0.6","0.4","0.8","","","","","0.02262355665","0.3126988266","0.1746055711","0.3413923724","","","","","","","","76","L","3","","","95","main_expt"
"","bandit","175","488514","0.0-136.0-0.0","55083781","wem/bandit_either_2","A1AO1LLP3INAZF","either","8","51","","","","","","","1","0","0","0.3570420485","","0.2","0.6","0.4","0.8","","","","","0.02047181149","0.3800019137","0.1994244555","0.3570420485","","","","","","","","76","L","3","","","96","main_expt"
"","bandit","176","490230","0.0-137.0-0.0","55083781","wem/bandit_either_2","A1AO1LLP3INAZF","either","8","205","","","","","","","0","0","1","0.3435474977","","0.2","0.6","0.4","0.8","","","","","0.0207754381","0.3328121005","0.1834602947","0.3435474977","","","","","","","","76","L","3","","","97","main_expt"
"","bandit","177","491872","0.0-138.0-0.0","55083781","wem/bandit_either_2","A1AO1LLP3INAZF","either","8","132","","","","","","","0","0","1","0.3614714926","","0.2","0.6","0.4","0.8","","","","","0.02955834597","0.332228596","0.1719221531","0.3614714926","","","","","","","","76","L","3","","","98","main_expt"
"","bandit","178","493529","0.0-139.0-0.0","55083781","wem/bandit_either_2","A1AO1LLP3INAZF","either","8","147","","","","","","","0","0","1","","0.1183399241","0.2","0.6","0.4","0.8","0.0383131093","0.2843854285","0.1183399241","0.3176405447","","","","","","","","","","","","75","K","2","","","99","main_expt"
"","bandit","179","495041","0.0-140.0-0.0","55083781","wem/bandit_either_2","A1AO1LLP3INAZF","either","8","2","","","","","","","0","0","1","0.309751149","","0.2","0.6","0.4","0.8","","","","","0.03580757471","0.309751149","0.1558635017","0.3586553183","","","","","","","","74","J","1","","","100","main_expt"
"","bandit","180","496739","0.0-141.0-0.0","55083781","wem/bandit_either_2","A1AO1LLP3INAZF","either","8","183","","","","","","","0","0","1","0.1389665978","","0.2","0.6","0.4","0.8","","","","","0.04899620691","0.2993195944","0.1389665978","0.2951503345","","","","","","","","75","K","2","","","101","main_expt"
"","bandit","181","498390","0.0-142.0-0.0","55083781","wem/bandit_either_2","A1AO1LLP3INAZF","either","8","140","","","","","","","0","0","1","0.2998391809","","0.2","0.6","0.4","0.8","","","","","0.08055650644","0.3551890872","0.1377203561","0.2998391809","","","","","","","","76","L","3","","","102","main_expt"
"","bandit","182","500114","0.0-143.0-0.0","55083781","wem/bandit_either_2","A1AO1LLP3INAZF","either","8","212","","","","","","","0","0","1","","0.1285548106","0.2","0.6","0.4","0.8","0.1040447627","0.3148404956","0.1285548106","0.2791823827","","","","","","","","","","","","75","K","2","","","103","main_expt"
"","bandit","183","501742","0.0-144.0-0.0","55083781","wem/bandit_either_2","A1AO1LLP3INAZF","either","8","114","","","","","","","0","0","1","0.3382769334","","0.2","0.6","0.4","0.8","","","","","0.1143547335","0.3286912191","0.1555523735","0.3382769334","","","","","","","","76","L","3","","","104","main_expt"
"","bandit","184","503712","0.0-145.0-0.0","55083781","wem/bandit_either_2","A1AO1LLP3INAZF","either","8","460","","","","","","","0","0","1","0.298340497","","0.2","0.6","0.4","0.8","","","","","0.1487676438","0.298340497","0.1775592141","0.3339697125","","","","","","","","74","J","1","","","105","main_expt"
"","bandit","185","505357","0.0-146.0-0.0","55083781","wem/bandit_either_2","A1AO1LLP3INAZF","either","8","128","","","","","","","0","0","1","","0.2263451353","0.2","0.6","0.4","0.8","0.152088545","0.3504464386","0.2263451353","0.3124129253","","","","","","","","","","","","75","K","2","","","106","main_expt"
"","bandit","186","507101","0.0-147.0-0.0","55083781","wem/bandit_either_2","A1AO1LLP3INAZF","either","8","236","","","","","","","0","0","1","","0.2406734145","0.2","0.6","0.4","0.8","0.2406734145","0.3510410077","0.1679769802","0.3400683723","","","","","","","","","","","","72","H","0","img/none_selected.jpg","","107","main_expt"
"","bandit","187","508756","0.0-148.0-0.0","55083781","wem/bandit_either_2","A1AO1LLP3INAZF","either","8","144","","","","","","","0","0","1","0.3282766846","","0.2","0.6","0.4","0.8","","","","","0.3048040024","0.3282766846","0.1999870147","0.3557340834","","","","","","","","74","J","1","","","108","main_expt"
"","bandit","188","510307","0.0-149.0-0.0","55083781","wem/bandit_either_2","A1AO1LLP3INAZF","either","8","39","","","","","","","0","0","1","","0.208992856","0.2","0.6","0.4","0.8","0.3418503096","0.3561186451","0.208992856","0.3846418901","","","","","","","","","","","","75","K","2","","","109","main_expt"
"","bandit","189","511932","0.0-150.0-0.0","55083781","wem/bandit_either_2","A1AO1LLP3INAZF","either","8","114","","","","","","","0","0","1","0.4057962062","","0.2","0.6","0.4","0.8","","","","","0.3198501315","0.3576445865","0.1716040471","0.4057962062","","","","","","","","76","L","3","","","110","main_expt"
"","bandit","190","513697","0.0-151.0-0.0","55083781","wem/bandit_either_2","A1AO1LLP3INAZF","either","8","254","","","","","","","0","0","1","0.08984071331","","0.2","0.6","0.4","0.8","","","","","0.3681534847","0.3377543854","0.08984071331","0.3692451483","","","","","","","","75","K","2","","","111","main_expt"
"","bandit","191","515243","0.0-152.0-0.0","55083781","wem/bandit_either_2","A1AO1LLP3INAZF","either","8","32","","","","","","","0","0","1","","0.286234052","0.2","0.6","0.4","0.8","0.3757830796","0.286234052","0.1243463141","0.3577317973","","","","","","","","","","","","74","J","1","","","112","main_expt"
"","bandit","192","516846","0.0-153.0-0.0","55083781","wem/bandit_either_2","A1AO1LLP3INAZF","either","8","91","","","","","","","0","0","1","","0.1932674395","0.2","0.6","0.4","0.8","0.3838999828","0.1932674395","0.1433440675","0.3328808086","","","","","","","","","","","","74","J","1","","","113","main_expt"
"","bandit","193","518435","0.0-154.0-0.0","55083781","wem/bandit_either_2","A1AO1LLP3INAZF","either","8","79","","","","","","","0","0","1","","0.4157938717","0.2","0.6","0.4","0.8","0.4157938717","0.2403040534","0.1510662198","0.3416979579","","","","","","","","","","","","72","H","0","img/none_selected.jpg","","114","main_expt"
"","bandit","194","519996","0.0-155.0-0.0","55083781","wem/bandit_either_2","A1AO1LLP3INAZF","either","8","48","","","","","","","0","1","0","","0.4055870595","0.2","0.6","0.4","0.8","0.4055870595","0.254937398","0.09845245139","0.3377137281","","","","","","","","","","","","72","H","0","img/none_selected.jpg","","115","main_expt"
"","bandit","195","521689","0.0-156.0-0.0","55083781","wem/bandit_either_2","A1AO1LLP3INAZF","either","8","182","","","","","","","0","0","1","","0.4161015278","0.2","0.6","0.4","0.8","0.4161015278","0.2605063941","0.107393795","0.3039448029","","","","","","","","","","","","72","H","0","img/none_selected.jpg","","116","main_expt"
"","bandit","196","523364","0.0-157.0-0.0","55083781","wem/bandit_either_2","A1AO1LLP3INAZF","either","8","164","","","","","","","1","0","0","0.414877819","","0.2","0.6","0.4","0.8","","","","","0.414877819","0.2161328783","0.07879800556","0.2974336912","","","","","","","","72","H","0","img/none_selected.jpg","","117","main_expt"
"","bandit","197","525094","0.0-158.0-0.0","55083781","wem/bandit_either_2","A1AO1LLP3INAZF","either","8","214","","","","","","","0","0","1","","0.3968259953","0.2","0.6","0.4","0.8","0.3968259953","0.1931197841","0.08383735875","0.2651867246","","","","","","","","","","","","72","H","0","img/none_selected.jpg","","118","main_expt"
"","bandit","198","526653","0.0-159.0-0.0","55083781","wem/bandit_either_2","A1AO1LLP3INAZF","either","8","48","","","","","","","0","0","1","","0.4198241006","0.2","0.6","0.4","0.8","0.4198241006","0.1638183597","0.1392474383","0.3131666206","","","","","","","","","","","","72","H","0","img/none_selected.jpg","","119","main_expt"
"","bandit","199","528259","0.0-160.0-0.0","55083781","wem/bandit_either_2","A1AO1LLP3INAZF","either","8","94","","","","","","","0","1","0","","0.4286088018","0.2","0.6","0.4","0.8","0.4286088018","0.1893282748","0.1649404926","0.358829095","","","","","","","","","","","","72","H","0","img/none_selected.jpg","","120","main_expt"
"","bandit","200","529900","0.0-161.0-0.0","55083781","wem/bandit_either_2","A1AO1LLP3INAZF","either","8","132","","","","","","","0","0","1","","0.4253829576","0.2","0.6","0.4","0.8","0.4253829576","0.2290368179","0.1764152442","0.3189860171","","","","","","","","","","","","72","H","0","img/none_selected.jpg","","121","main_expt"
"","bandit","201","531470","0.0-162.0-0.0","55083781","wem/bandit_either_2","A1AO1LLP3INAZF","either","8","56","","","","","","","0","0","1","","0.4235175979","0.2","0.6","0.4","0.8","0.4235175979","0.2445441383","0.2092397698","0.3011672979","","","","","","","","","","","","72","H","0","img/none_selected.jpg","","122","main_expt"
"","bandit","202","533092","0.0-163.0-0.0","55083781","wem/bandit_either_2","A1AO1LLP3INAZF","either","8","111","","","","","","","0","1","0","","0.4182090072","0.2","0.6","0.4","0.8","0.4182090072","0.2091075756","0.1884058447","0.3037948063","","","","","","","","","","","","72","H","0","img/none_selected.jpg","","123","main_expt"
"","bandit","203","534685","0.0-164.0-0.0","55083781","wem/bandit_either_2","A1AO1LLP3INAZF","either","8","82","","","","","","","0","0","1","0.4356016004","","0.2","0.6","0.4","0.8","","","","","0.4356016004","0.2216111921","0.1876417206","0.2446200253","","","","","","","","72","H","0","img/none_selected.jpg","","124","main_expt"
"","bandit","204","536194","0.0-165.0-0.0","55083781","wem/bandit_either_2","A1AO1LLP3INAZF","either","8","0","","","","","","","0","0","1","0.1622020501","","0.2","0.6","0.4","0.8","","","","","0.403953628","0.1622020501","0.1890564589","0.2464628806","","","","","","","","74","J","1","","","125","main_expt"
"","bandit","205","537757","0.0-166.0-0.0","55083781","wem/bandit_either_2","A1AO1LLP3INAZF","either","8","53","","","","","","","1","0","0","0.173533554","","0.2","0.6","0.4","0.8","","","","","0.4020675328","0.173533554","0.1659850756","0.281169445","","","","","","","","74","J","1","","","126","main_expt"
"","bandit","206","539356","0.0-167.0-0.0","55083781","wem/bandit_either_2","A1AO1LLP3INAZF","either","8","88","","","","","","","0","0","1","0.189829559","","0.2","0.6","0.4","0.8","","","","","0.338443572","0.189829559","0.2006343121","0.290080064","","","","","","","","74","J","1","","","127","main_expt"
"","bandit","207","540943","0.0-168.0-0.0","55083781","wem/bandit_either_2","A1AO1LLP3INAZF","either","8","69","","","","","","","0","0","1","0.1764696366","","0.2","0.6","0.4","0.8","","","","","0.323123489","0.1764696366","0.2637444583","0.3280989756","","","","","","","","74","J","1","","","128","main_expt"
"","bandit","208","542469","0.0-169.0-0.0","55083781","wem/bandit_either_2","A1AO1LLP3INAZF","either","8","10","","","","","","","0","0","1","","0.2783394686","0.2","0.6","0.4","0.8","0.3615310162","0.172709194","0.2783394686","0.3052704822","","","","","","","","","","","","75","K","2","","","129","main_expt"
"","bandit","209","544126","0.0-170.0-0.0","55083781","wem/bandit_either_2","A1AO1LLP3INAZF","either","8","146","","","","","","","1","0","0","0.2674474002","","0.2","0.6","0.4","0.8","","","","","0.3667448715","0.1407460215","0.2674474002","0.314718742","","","","","","","","75","K","2","","","130","main_expt"
"","bandit","210","545827","0.0-171.0-0.0","55083781","wem/bandit_either_2","A1AO1LLP3INAZF","either","8","190","","","","","","","1","0","0","0.2122920843","","0.2","0.6","0.4","0.8","","","","","0.341745941","0.143826562","0.2122920843","0.2492347367","","","","","","","","75","K","2","","","131","main_expt"
"","bandit","211","547502","0.0-172.0-0.0","55083781","wem/bandit_either_2","A1AO1LLP3INAZF","either","8","164","","","","","","","0","0","1","","0.1969346152","0.2","0.6","0.4","0.8","0.2615325727","0.1862992663","0.1969346152","0.2495736985","","","","","","","","","","","","75","K","2","","","132","main_expt"
"","bandit","212","549162","0.0-173.0-0.0","55083781","wem/bandit_either_2","A1AO1LLP3INAZF","either","8","150","","","","","","","0","0","1","0.1390835973","","0.2","0.6","0.4","0.8","","","","","0.27905624","0.185648564","0.1390835973","0.2487120015","","","","","","","","75","K","2","","","133","main_expt"
"","bandit","213","550776","0.0-174.0-0.0","55083781","wem/bandit_either_2","A1AO1LLP3INAZF","either","8","105","","","","","","","0","0","1","","0.1437640715","0.2","0.6","0.4","0.8","0.2751163123","0.2002276213","0.1437640715","0.3239420422","","","","","","","","","","","","75","K","2","","","134","main_expt"
"","bandit","214","552419","0.0-175.0-0.0","55083781","wem/bandit_either_2","A1AO1LLP3INAZF","either","8","135","","","","","","","0","0","1","0.3903525049","","0.2","0.6","0.4","0.8","","","","","0.2586507773","0.2474552851","0.1175999949","0.3903525049","","","","","","","","76","L","3","","","135","main_expt"
"","bandit","215","554090","0.0-176.0-0.0","55083781","wem/bandit_either_2","A1AO1LLP3INAZF","either","8","162","","","","","","","0","0","1","0.3703049055","","0.2","0.6","0.4","0.8","","","","","0.2385277364","0.2454982057","0.1108499649","0.3703049055","","","","","","","","76","L","3","","","136","main_expt"
"","bandit","216","555827","0.0-177.0-0.0","55083781","wem/bandit_either_2","A1AO1LLP3INAZF","either","8","226","","","","","","","0","0","1","0.3657944308","","0.2","0.6","0.4","0.8","","","","","0.1935782534","0.2708690816","0.1208727618","0.3657944308","","","","","","","","76","L","3","","","137","main_expt"
"","bandit","217","557421","0.0-178.0-0.0","55083781","wem/bandit_either_2","A1AO1LLP3INAZF","either","8","76","","","","","","","0","0","1","","0.1098805161","0.2","0.6","0.4","0.8","0.14087624","0.2219039101","0.1098805161","0.3452946514","","","","","","","","","","","","75","K","2","","","138","main_expt"
"","bandit","218","558937","0.0-179.0-0.0","55083781","wem/bandit_either_2","A1AO1LLP3INAZF","either","8","6","","","","","","","0","0","1","0.1359731218","","0.2","0.6","0.4","0.8","","","","","0.1340930794","0.2485571535","0.1359731218","0.3225052804","","","","","","","","75","K","2","","","139","main_expt"
"","bandit","219","560642","0.0-180.0-0.0","55083781","wem/bandit_either_2","A1AO1LLP3INAZF","either","8","196","","","","","","","0","0","1","","0.1419248406","0.2","0.6","0.4","0.8","0.1170750994","0.2605640439","0.1419248406","0.2997250911","","","","","","","","","","","","75","K","2","","","140","main_expt"
"","bandit","220","562537","0.0-181.0-0.0","55083781","wem/bandit_either_2","A1AO1LLP3INAZF","either","8","376","","","","","","","0","0","1","","0.2260680923","0.2","0.6","0.4","0.8","0.1316830279","0.2260680923","0.1269577117","0.311933389","","","","","","","","","","","","74","J","1","","","141","main_expt"
"","bandit","221","564263","0.0-182.0-0.0","55083781","wem/bandit_either_2","A1AO1LLP3INAZF","either","8","216","","","","","","","0","0","1","0.2354846983","","0.2","0.6","0.4","0.8","","","","","0.09490366034","0.2354846983","0.1073819056","0.3442568425","","","","","","","","74","J","1","","","142","main_expt"
"","bandit","222","565831","0.0-183.0-0.0","55083781","wem/bandit_either_2","A1AO1LLP3INAZF","either","8","57","","","","","","","0","0","1","0.1246024154","","0.2","0.6","0.4","0.8","","","","","0.1246024154","0.2089358464","0.1152767294","0.3117203045","","","","","","","","72","H","0","img/none_selected.jpg","","143","main_expt"
"","bandit","223","567558","0.0-184.0-0.0","55083781","wem/bandit_either_2","A1AO1LLP3INAZF","either","8","216","","","","","","","0","0","1","","0.1179874238","0.2","0.6","0.4","0.8","0.1179874238","0.1844607625","0.1317444946","0.3080771123","","","","","","","","","","","","72","H","0","img/none_selected.jpg","","144","main_expt"
"","bandit","224","569441","0.0-185.0-0.0","55083781","wem/bandit_either_2","A1AO1LLP3INAZF","either","8","365","","","","","","","0","0","1","0.1940384654","","0.2","0.6","0.4","0.8","","","","","0.1211842963","0.1940384654","0.1058600218","0.3146876691","","","","","","","","74","J","1","","","145","main_expt"
"","bandit","225","571117","0.0-186.0-0.0","55083781","wem/bandit_either_2","A1AO1LLP3INAZF","either","8","165","","","","","","","0","0","1","","0.2532022814","0.2","0.6","0.4","0.8","0.06212451067","0.2532022814","0.1862633901","0.3526806189","","","","","","","","","","","","74","J","1","","","146","main_expt"
"","bandit","226","572779","0.0-187.0-0.0","55083781","wem/bandit_either_2","A1AO1LLP3INAZF","either","8","155","","","","","","","0","0","1","","0.05826033827","0.2","0.6","0.4","0.8","0.05826033827","0.272856749","0.1944793183","0.3859334927","","","","","","","","","","","","72","H","0","img/none_selected.jpg","","147","main_expt"
"","bandit","227","574395","0.0-188.0-0.0","55083781","wem/bandit_either_2","A1AO1LLP3INAZF","either","8","105","","","","","","","0","0","1","","0.04847575149","0.2","0.6","0.4","0.8","0.04847575149","0.2441255329","0.1572605535","0.4089873985","","","","","","","","","","","","72","H","0","img/none_selected.jpg","","148","main_expt"
"","bandit","228","575907","0.0-189.0-0.0","55083781","wem/bandit_either_2","A1AO1LLP3INAZF","either","8","1","","","","","","","0","0","1","","0.1632070519","0.2","0.6","0.4","0.8","0.07397138717","0.2304797635","0.1632070519","0.3317076441","","","","","","","","","","","","75","K","2","","","149","main_expt"
"","bandit","229","577448","0.0-190.0-0.0","55083781","wem/bandit_either_2","A1AO1LLP3INAZF","either","8","30","","","","","","","0","0","1","","0.2162169298","0.2","0.6","0.4","0.8","0.1178437277","0.2645424191","0.2162169298","0.2514439341","","","","","","","","","","","","75","K","2","","","150","main_expt"
"","bandit","230","579070","0.0-191.0-0.0","55083781","wem/bandit_either_2","A1AO1LLP3INAZF","either","8","110","","","","","","","0","0","1","","0.2806681102","0.2","0.6","0.4","0.8","0.1116740648","0.2919476008","0.2806681102","0.2209696772","","","","","","","","","","","","75","K","2","","","151","main_expt"
"","bandit","231","580801","0.0-192.0-0.0","55083781","wem/bandit_either_2","A1AO1LLP3INAZF","either","8","220","","","","","","","0","0","1","0.2004300668","","0.2","0.6","0.4","0.8","","","","","0.09681320826","0.3004198658","0.25223767","0.2004300668","","","","","","","","76","L","3","","","152","main_expt"
"","bandit","232","582467","0.0-193.0-0.0","55083781","wem/bandit_either_2","A1AO1LLP3INAZF","either","8","151","","","","","","","0","0","1","0.1803159607","","0.2","0.6","0.4","0.8","","","","","0.1162344283","0.2910243242","0.2259503681","0.1803159607","","","","","","","","76","L","3","","","153","main_expt"
"","bandit","233","584208","0.0-194.0-0.0","55083781","wem/bandit_either_2","A1AO1LLP3INAZF","either","8","230","","","","","","","0","0","1","0.1793353988","","0.2","0.6","0.4","0.8","","","","","0.1441765144","0.2858680692","0.2520515582","0.1793353988","","","","","","","","76","L","3","","","154","main_expt"
"","bandit","234","586044","0.0-195.0-0.0","55083781","wem/bandit_either_2","A1AO1LLP3INAZF","either","8","324","","","","","","","0","0","1","","0.276906037","0.2","0.6","0.4","0.8","0.1506434262","0.276906037","0.246895917","0.175125938","","","","","","","","","","","","74","J","1","","","155","main_expt"
"","bandit","235","587774","0.0-196.0-0.0","55083781","wem/bandit_either_2","A1AO1LLP3INAZF","either","8","214","","","","","","","0","0","1","0.3087514371","","0.2","0.6","0.4","0.8","","","","","0.1691825384","0.3087514371","0.2067462234","0.19004546","","","","","","","","74","J","1","","","156","main_expt"
"","bandit","236","589310","0.0-197.0-0.0","55083781","wem/bandit_either_2","A1AO1LLP3INAZF","either","8","26","","","","","","","1","0","0","0.3400763937","","0.2","0.6","0.4","0.8","","","","","0.1465267651","0.3400763937","0.1736677602","0.1538528063","","","","","","","","74","J","1","","","157","main_expt"
"","bandit","237","590919","0.0-198.0-0.0","55083781","wem/bandit_either_2","A1AO1LLP3INAZF","either","8","101","","","","","","","0","0","1","0.3388441277","","0.2","0.6","0.4","0.8","","","","","0.1517260174","0.3388441277","0.2437422656","0.1624419901","","","","","","","","74","J","1","","","158","main_expt"
"","bandit","238","592520","0.0-199.0-0.0","55083781","wem/bandit_either_2","A1AO1LLP3INAZF","either","8","91","","","","","","","0","0","1","0.3496437485","","0.2","0.6","0.4","0.8","","","","","0.143579764","0.3496437485","0.2627628197","0.1749682205","","","","","","","","74","J","1","","","159","main_expt"
"","bandit","239","594157","0.0-200.0-0.0","55083781","wem/bandit_either_2","A1AO1LLP3INAZF","either","8","120","","","","","","","0","0","1","","0.1701049762","0.2","0.6","0.4","0.8","0.1701049762","0.3347491532","0.2532756584","0.2227833177","","","","","","","","","","","","72","H","0","img/none_selected.jpg","","160","main_expt"
"","bandit","240","595798","0.0-201.0-0.0","55083781","wem/bandit_either_2","A1AO1LLP3INAZF","either","8","125","","","","","","","0","1","0","","0.1596038406","0.2","0.6","0.4","0.8","0.1596038406","0.3036625801","0.2846030245","0.1616195486","","","","","","","","","","","","72","H","0","img/none_selected.jpg","","161","main_expt"
"","bandit","241","597504","0.0-202.0-0.0","55083781","wem/bandit_either_2","A1AO1LLP3INAZF","either","8","194","","","","","","","0","0","1","","0.1186271452","0.2","0.6","0.4","0.8","0.1186271452","0.2735804545","0.2480450928","0.1440802068","","","","","","","","","","","","72","H","0","img/none_selected.jpg","","162","main_expt"
"","bandit","242","599086","0.0-203.0-0.0","55083781","wem/bandit_either_2","A1AO1LLP3INAZF","either","8","71","","","","","","","0","0","1","","0.1460830151","0.2","0.6","0.4","0.8","0.1460830151","0.2219233964","0.3217860246","0.1349250059","","","","","","","","","","","","72","H","0","img/none_selected.jpg","","163","main_expt"
"","bandit","243","600794","0.0-204.0-0.0","55083781","wem/bandit_either_2","A1AO1LLP3INAZF","either","8","198","","","","","","","0","0","1","0.1924179555","","0.2","0.6","0.4","0.8","","","","","0.1924179555","0.2489701673","0.3528623486","0.1482528248","","","","","","","","72","H","0","img/none_selected.jpg","","164","main_expt"
"","bandit","244","602745","0.0-205.0-0.0","55083781","wem/bandit_either_2","A1AO1LLP3INAZF","either","8","441","","","","","","","0","0","1","","0.2424219606","0.2","0.6","0.4","0.8","0.1909643941","0.2424219606","0.3113737792","0.1444116863","","","","","","","","","","","","74","J","1","","","165","main_expt"
"","bandit","245","604390","0.0-206.0-0.0","55083781","wem/bandit_either_2","A1AO1LLP3INAZF","either","8","130","","","","","","","0","0","1","","0.1899742571","0.2","0.6","0.4","0.8","0.1917506842","0.1899742571","0.2820045276","0.1621449425","","","","","","","","","","","","74","J","1","","","166","main_expt"
"","bandit","246","606073","0.0-207.0-0.0","55083781","wem/bandit_either_2","A1AO1LLP3INAZF","either","8","170","","","","","","","0","0","1","0.2298880826","","0.2","0.6","0.4","0.8","","","","","0.2238056512","0.2298880826","0.2539690707","0.1695256229","","","","","","","","74","J","1","","","167","main_expt"
"","bandit","247","607617","0.0-208.0-0.0","55083781","wem/bandit_either_2","A1AO1LLP3INAZF","either","8","33","","","","","","","0","0","1","","0.2177565821","0.2","0.6","0.4","0.8","0.2132240521","0.241220494","0.2177565821","0.1712445676","","","","","","","","","","","","75","K","2","","","168","main_expt"
"","bandit","248","609294","0.0-209.0-0.0","55083781","wem/bandit_either_2","A1AO1LLP3INAZF","either","8","168","","","","","","","0","0","1","","0.183214586","0.2","0.6","0.4","0.8","0.1363713625","0.2113351254","0.183214586","0.191079104","","","","","","","","","","","","75","K","2","","","169","main_expt"
"","bandit","249","610863","0.0-210.0-0.0","55083781","wem/bandit_either_2","A1AO1LLP3INAZF","either","8","51","","","","","","","0","0","1","","0.1757282231","0.2","0.6","0.4","0.8","0.2007690262","0.2224744884","0.1757282231","0.2227666825","","","","","","","","","","","","75","K","2","","","170","main_expt"
"","bandit","250","612512","0.0-211.0-0.0","55083781","wem/bandit_either_2","A1AO1LLP3INAZF","either","8","130","","","","","","","0","0","1","0.2719914804","","0.2","0.6","0.4","0.8","","","","","0.1238998316","0.262177911","0.1679331046","0.2719914804","","","","","","","","76","L","3","","","171","main_expt"
"","bandit","251","614139","0.0-212.0-0.0","55083781","wem/bandit_either_2","A1AO1LLP3INAZF","either","8","116","","","","","","","0","0","1","0.2330128459","","0.2","0.6","0.4","0.8","","","","","0.09746419185","0.2822992514","0.14560319","0.2330128459","","","","","","","","76","L","3","","","172","main_expt"
"","bandit","252","615744","0.0-213.0-0.0","55083781","wem/bandit_either_2","A1AO1LLP3INAZF","either","8","95","","","","","","","0","1","0","","0.2840251313","0.2","0.6","0.4","0.8","0.1018164217","0.2545762091","0.1341549344","0.2840251313","","","","","","","","","","","","76","L","3","","","173","main_expt"
"","bandit","253","617432","0.0-214.0-0.0","55083781","wem/bandit_either_2","A1AO1LLP3INAZF","either","8","180","","","","","","","0","0","1","0.2739042306","","0.2","0.6","0.4","0.8","","","","","0.1401689619","0.2838184637","0.1471305278","0.2739042306","","","","","","","","76","L","3","","","174","main_expt"
"","bandit","254","618945","0.0-215.0-0.0","55083781","wem/bandit_either_2","A1AO1LLP3INAZF","either","8","2","","","","","","","0","0","1","0.3002790513","","0.2","0.6","0.4","0.8","","","","","0.1697524679","0.3002790513","0.173963405","0.3444735506","","","","","","","","74","J","1","","","175","main_expt"
"","bandit","255","620474","0.0-216.0-0.0","55083781","wem/bandit_either_2","A1AO1LLP3INAZF","either","8","22","","","","","","","0","0","1","","0.3771690292","0.2","0.6","0.4","0.8","0.1896898672","0.3771690292","0.1821857965","0.3223017316","","","","","","","","","","","","74","J","1","","","176","main_expt"
"","bandit","256","622028","0.0-217.0-0.0","55083781","wem/bandit_either_2","A1AO1LLP3INAZF","either","8","42","","","","","","","1","0","0","0.1444884472","","0.2","0.6","0.4","0.8","","","","","0.2441254625","0.4047809956","0.1444884472","0.2964924158","","","","","","","","75","K","2","","","177","main_expt"
"","bandit","257","623728","0.0-218.0-0.0","55083781","wem/bandit_either_2","A1AO1LLP3INAZF","either","8","180","","","","","","","0","0","1","","0.1207783293","0.2","0.6","0.4","0.8","0.2427722412","0.4344960837","0.1207783293","0.2780576925","","","","","","","","","","","","75","K","2","","","178","main_expt"
"","bandit","258","625413","0.0-219.0-0.0","55083781","wem/bandit_either_2","A1AO1LLP3INAZF","either","8","173","","","","","","","0","1","0","","0.111585665","0.2","0.6","0.4","0.8","0.2284650367","0.4287912686","0.111585665","0.2859751729","","","","","","","","","","","","75","K","2","","","179","main_expt"
"","bandit","259","627062","0.0-220.0-0.0","55083781","wem/bandit_either_2","A1AO1LLP3INAZF","either","8","137","","","","","","","0","0","1","","0.06891525065","0.2","0.6","0.4","0.8","0.2694081366","0.4294180747","0.06891525065","0.283533164","","","","","","","","","","","","75","K","2","","","180","main_expt"
"","bandit","260","628636","0.0-221.0-0.0","55083781","wem/bandit_either_2","A1AO1LLP3INAZF","either","8","61","","","","","","","0","0","1","","0.07407739619","0.2","0.6","0.4","0.8","0.2471628034","0.3887332701","0.07407739619","0.2430023428","","","","","","","","","","","","75","K","2","","","181","main_expt"
"","bandit","261","630219","0.0-222.0-0.0","55083781","wem/bandit_either_2","A1AO1LLP3INAZF","either","8","71","","","","","","","0","0","1","","0.07501704201","0.2","0.6","0.4","0.8","0.275372354","0.3910635387","0.07501704201","0.223254837","","","","","","","","","","","","75","K","2","","","182","main_expt"
"","bandit","262","631735","0.0-223.0-0.0","55083781","wem/bandit_either_2","A1AO1LLP3INAZF","either","8","1","","","","","","","0","0","1","","0.09354103142","0.2","0.6","0.4","0.8","0.2378950907","0.3957792538","0.09354103142","0.2274286797","","","","","","","","","","","","75","K","2","","","183","main_expt"
"","bandit","263","633373","0.0-224.0-0.0","55083781","wem/bandit_either_2","A1AO1LLP3INAZF","either","8","127","","","","","","","0","0","1","0.2485964068","","0.2","0.6","0.4","0.8","","","","","0.2611999536","0.3777829694","0.06673830493","0.2485964068","","","","","","","","76","L","3","","","184","main_expt"
"","bandit","264","634939","0.0-225.0-0.0","55083781","wem/bandit_either_2","A1AO1LLP3INAZF","either","8","53","","","","","","","0","0","1","","0.2080173303","0.2","0.6","0.4","0.8","0.2799245071","0.4130939835","0.08617836821","0.2080173303","","","","","","","","","","","","76","L","3","","","185","main_expt"
"","bandit","265","636576","0.0-226.0-0.0","55083781","wem/bandit_either_2","A1AO1LLP3INAZF","either","8","124","","","","","","","0","0","1","0.2538883687","","0.2","0.6","0.4","0.8","","","","","0.2275386122","0.376930599","0.05054014018","0.2538883687","","","","","","","","76","L","3","","","186","main_expt"
"","bandit","266","638175","0.0-227.0-0.0","55083781","wem/bandit_either_2","A1AO1LLP3INAZF","either","8","87","","","","","","","1","0","0","0.3934592684","","0.2","0.6","0.4","0.8","","","","","0.2558518805","0.3934592684","0.1101456656","0.2267652077","","","","","","","","74","J","1","","","187","main_expt"
"","bandit","267","639799","0.0-228.0-0.0","55083781","wem/bandit_either_2","A1AO1LLP3INAZF","either","8","113","","","","","","","0","0","1","0.4086060551","","0.2","0.6","0.4","0.8","","","","","0.2757393749","0.4086060551","0.1076418148","0.2583789709","","","","","","","","74","J","1","","","188","main_expt"
"","bandit","268","641429","0.0-229.0-0.0","55083781","wem/bandit_either_2","A1AO1LLP3INAZF","either","8","117","","","","","","","0","1","0","","0.447145564","0.2","0.6","0.4","0.8","0.3326758055","0.447145564","0.1230456027","0.2329768584","","","","","","","","","","","","74","J","1","","","189","main_expt"
"","bandit","269","643083","0.0-230.0-0.0","55083781","wem/bandit_either_2","A1AO1LLP3INAZF","either","8","139","","","","","","","0","0","1","0.386091063","","0.2","0.6","0.4","0.8","","","","","0.332927569","0.386091063","0.1872873117","0.2002510669","","","","","","","","74","J","1","","","190","main_expt"
"","bandit","270","644663","0.0-231.0-0.0","55083781","wem/bandit_either_2","A1AO1LLP3INAZF","either","8","63","","","","","","","0","0","1","","0.4221145333","0.2","0.6","0.4","0.8","0.3859199101","0.4221145333","0.1413073252","0.2182600554","","","","","","","","","","","","74","J","1","","","191","main_expt"
"","bandit","271","646272","0.0-232.0-0.0","55083781","wem/bandit_either_2","A1AO1LLP3INAZF","either","8","99","","","","","","","1","0","0","0.3913199708","","0.2","0.6","0.4","0.8","","","","","0.392668484","0.3913199708","0.1868627967","0.2681613901","","","","","","","","74","J","1","","","192","main_expt"
"","bandit","272","647989","0.0-233.0-0.0","55083781","wem/bandit_either_2","A1AO1LLP3INAZF","either","8","204","","","","","","","1","0","0","0.4013624592","","0.2","0.6","0.4","0.8","","","","","0.3789843676","0.4013624592","0.2312719224","0.3035027483","","","","","","","","74","J","1","","","193","main_expt"
"","bandit","273","649566","0.0-234.0-0.0","55083781","wem/bandit_either_2","A1AO1LLP3INAZF","either","8","67","","","","","","","0","0","1","","0.3668237699","0.2","0.6","0.4","0.8","0.3689216281","0.3668237699","0.2585201677","0.275531754","","","","","","","","","","","","74","J","1","","","194","main_expt"
"","bandit","274","651685","0.0-235.0-0.0","55083781","wem/bandit_either_2","A1AO1LLP3INAZF","either","8","610","","","","","","","0","0","1","","0.3856266791","0.2","0.6","0.4","0.8","0.4136905162","0.3856266791","0.2786104129","0.2716401532","","","","","","","","","","","","74","J","1","","","195","main_expt"
"","bandit","275","653813","0.0-236.0-0.0","55083781","wem/bandit_either_2","A1AO1LLP3INAZF","either","8","616","","","","","","","0","0","1","0.3702439493","","0.2","0.6","0.4","0.8","","","","","0.4258575101","0.3702439493","0.2407834285","0.2814611543","","","","","","","","74","J","1","","","196","main_expt"
"","bandit","276","655616","0.0-237.0-0.0","55083781","wem/bandit_either_2","A1AO1LLP3INAZF","either","8","292","","","","","","","1","0","0","0.3665926528","","0.2","0.6","0.4","0.8","","","","","0.3976178043","0.3665926528","0.2550568011","0.2588010394","","","","","","","","74","J","1","","","197","main_expt"
"","bandit","277","657430","0.0-238.0-0.0","55083781","wem/bandit_either_2","A1AO1LLP3INAZF","either","8","293","","","","","","","0","0","1","","0.3432124584","0.2","0.6","0.4","0.8","0.3802378075","0.3432124584","0.3094863904","0.3094610495","","","","","","","","","","","","74","J","1","","","198","main_expt"
"","bandit","278","659151","0.0-239.0-0.0","55083781","wem/bandit_either_2","A1AO1LLP3INAZF","either","8","208","","","","","","","1","0","0","0.4096574544","","0.2","0.6","0.4","0.8","","","","","0.3926800246","0.4096574544","0.3012985694","0.3139278769","","","","","","","","74","J","1","","","199","main_expt"
"","bandit","279","660994","0.0-240.0-0.0","55083781","wem/bandit_either_2","A1AO1LLP3INAZF","either","8","332","","","","","","","0","1","0","","0.3799023259","0.2","0.6","0.4","0.8","0.3814844917","0.3799023259","0.3149132519","0.3459706187","","","","","","","","","","","","74","J","1","","","200","main_expt"
"","bandit","280","662851","0.0-241.0-0.0","55083781","wem/bandit_either_2","A1AO1LLP3INAZF","either","8","345","","","","","","","1","0","0","0.3513783521","","0.2","0.6","0.4","0.8","","","","","0.3831630738","0.3513783521","0.3236307962","0.3038365479","","","","","","","","74","J","1","","","201","main_expt"
"","bandit","281","664725","0.0-242.0-0.0","55083781","wem/bandit_either_2","A1AO1LLP3INAZF","either","8","356","","","","","","","0","0","1","0.3439351057","","0.2","0.6","0.4","0.8","","","","","0.3957430938","0.3439351057","0.3163717903","0.2964599608","","","","","","","","74","J","1","","","202","main_expt"
"","bandit","282","666440","0.0-243.0-0.0","55083781","wem/bandit_either_2","A1AO1LLP3INAZF","either","8","204","","","","","","","0","1","0","","0.2615327891","0.2","0.6","0.4","0.8","0.4175506619","0.2615327891","0.3165936227","0.280336616","","","","","","","","","","","","74","J","1","","","203","main_expt"
"","bandit","283","668177","0.0-244.0-0.0","55083781","wem/bandit_either_2","A1AO1LLP3INAZF","either","8","226","","","","","","","0","0","1","","0.2211517471","0.2","0.6","0.4","0.8","0.4356800279","0.2211517471","0.3166231072","0.262900641","","","","","","","","","","","","74","J","1","","","204","main_expt"
"","bandit","284","669887","0.0-245.0-0.0","55083781","wem/bandit_either_2","A1AO1LLP3INAZF","either","8","198","","","","","","","0","0","1","","0.1955747294","0.2","0.6","0.4","0.8","0.4342993254","0.1955747294","0.2983153058","0.3403150927","","","","","","","","","","","","74","J","1","","","205","main_expt"
"","bandit","285","671498","0.0-246.0-0.0","55083781","wem/bandit_either_2","A1AO1LLP3INAZF","either","8","92","","","","","","","0","0","1","","0.3137251184","0.2","0.6","0.4","0.8","0.4515967499","0.3137251184","0.255573156","0.3407188883","","","","","","","","","","","","74","J","1","","","206","main_expt"
"","bandit","286","673109","0.0-247.0-0.0","55083781","wem/bandit_either_2","A1AO1LLP3INAZF","either","8","98","","","","","","","0","1","0","","0.4559700358","0.2","0.6","0.4","0.8","0.4559700358","0.2982459604","0.2816724171","0.2955601217","","","","","","","","","","","","72","H","0","img/none_selected.jpg","","207","main_expt"
"","bandit","287","674822","0.0-248.0-0.0","55083781","wem/bandit_either_2","A1AO1LLP3INAZF","either","8","202","","","","","","","0","0","1","","0.4711787588","0.2","0.6","0.4","0.8","0.4711787588","0.2359404152","0.2462622089","0.2832193826","","","","","","","","","","","","72","H","0","img/none_selected.jpg","","208","main_expt"
"","bandit","288","676564","0.0-249.0-0.0","55083781","wem/bandit_either_2","A1AO1LLP3INAZF","either","8","228","","","","","","","0","1","0","","0.4859779177","0.2","0.6","0.4","0.8","0.4859779177","0.2396635106","0.2608633631","0.25637755","","","","","","","","","","","","72","H","0","img/none_selected.jpg","","209","main_expt"
"","bandit","289","678249","0.0-250.0-0.0","55083781","wem/bandit_either_2","A1AO1LLP3INAZF","either","8","175","","","","","","","0","0","1","","0.4798195452","0.2","0.6","0.4","0.8","0.4798195452","0.2320506775","0.2649708152","0.2500912527","","","","","","","","","","","","72","H","0","img/none_selected.jpg","","210","main_expt"
"","bandit","290","679960","0.0-251.0-0.0","55083781","wem/bandit_either_2","A1AO1LLP3INAZF","either","8","201","","","","","","","0","0","1","","0.4754072522","0.2","0.6","0.4","0.8","0.4754072522","0.1894847828","0.2658594566","0.2481129288","","","","","","","","","","","","72","H","0","img/none_selected.jpg","","211","main_expt"
"","bandit","291","681699","0.0-252.0-0.0","55083781","wem/bandit_either_2","A1AO1LLP3INAZF","either","8","226","","","","","","","0","1","0","","0.4780703898","0.2","0.6","0.4","0.8","0.4780703898","0.2330804604","0.2648449814","0.3192168596","","","","","","","","","","","","72","H","0","img/none_selected.jpg","","212","main_expt"
"","bandit","292","683474","0.0-253.0-0.0","55083781","wem/bandit_either_2","A1AO1LLP3INAZF","either","8","255","","","","","","","0","1","0","","0.4883488692","0.2","0.6","0.4","0.8","0.4883488692","0.2484053244","0.286492297","0.2361953268","","","","","","","","","","","","72","H","0","img/none_selected.jpg","","213","main_expt"
"","bandit","293","685185","0.0-254.0-0.0","55083781","wem/bandit_either_2","A1AO1LLP3INAZF","either","8","197","","","","","","","0","1","0","","0.4872562331","0.2","0.6","0.4","0.8","0.4872562331","0.2182548364","0.2540339129","0.2308921763","","","","","","","","","","","","72","H","0","img/none_selected.jpg","","214","main_expt"
"","bandit","294","686934","0.0-255.0-0.0","55083781","wem/bandit_either_2","A1AO1LLP3INAZF","either","8","234","","","","","","","0","0","1","","0.4749609167","0.2","0.6","0.4","0.8","0.4749609167","0.1824073789","0.254651127","0.2161033537","","","","","","","","","","","","72","H","0","img/none_selected.jpg","","215","main_expt"
"","bandit","295","688896","0.0-256.0-0.0","55083781","wem/bandit_either_2","A1AO1LLP3INAZF","either","8","451","","","","","","","0","0","1","","0.1923730387","0.2","0.6","0.4","0.8","0.4798413464","0.1923730387","0.3140517816","0.1896756427","","","","","","","","","","","","74","J","1","","","216","main_expt"
"","bandit","296","690553","0.0-257.0-0.0","55083781","wem/bandit_either_2","A1AO1LLP3INAZF","either","8","146","","","","","","","0","0","1","","0.3338676317","0.2","0.6","0.4","0.8","0.4865144435","0.2266612446","0.3338676317","0.1724286307","","","","","","","","","","","","75","K","2","","","217","main_expt"
"","bandit","297","692225","0.0-258.0-0.0","55083781","wem/bandit_either_2","A1AO1LLP3INAZF","either","8","157","","","","","","","0","1","0","","0.4789145001","0.2","0.6","0.4","0.8","0.4789145001","0.1702705737","0.3397001125","0.161168334","","","","","","","","","","","","72","H","0","img/none_selected.jpg","","218","main_expt"
"","bandit","298","693806","0.0-259.0-0.0","55083781","wem/bandit_either_2","A1AO1LLP3INAZF","either","8","69","","","","","","","0","1","0","","0.4834748692","0.2","0.6","0.4","0.8","0.4834748692","0.1159766116","0.2982528089","0.2021763003","","","","","","","","","","","","72","H","0","img/none_selected.jpg","","219","main_expt"
"","bandit","299","695420","0.0-260.0-0.0","55083781","wem/bandit_either_2","A1AO1LLP3INAZF","either","8","102","","","","","","","0","1","0","","0.4722371777","0.2","0.6","0.4","0.8","0.4722371777","0.09529473055","0.2770934022","0.2142164272","","","","","","","","","","","","72","H","0","img/none_selected.jpg","","220","main_expt"
"","bandit","300","697113","0.0-261.0-0.0","55083781","wem/bandit_either_2","A1AO1LLP3INAZF","either","8","182","","","","","","","0","0","1","0.4654689219","","0.2","0.6","0.4","0.8","","","","","0.4654689219","0.09060922323","0.2696770889","0.189068297","","","","","","","","72","H","0","img/none_selected.jpg","","221","main_expt"
"","bandit","301","698767","0.0-262.0-0.0","55083781","wem/bandit_either_2","A1AO1LLP3INAZF","either","8","143","","","","","","","0","0","1","","0.4533789701","0.2","0.6","0.4","0.8","0.4533789701","0.1250772464","0.3103502417","0.2120997892","","","","","","","","","","","","72","H","0","img/none_selected.jpg","","222","main_expt"
"","bandit","302","700443","0.0-263.0-0.0","55083781","wem/bandit_either_2","A1AO1LLP3INAZF","either","8","156","","","","","","","0","1","0","","0.4473019993","0.2","0.6","0.4","0.8","0.4473019993","0.1177235221","0.3477728299","0.1937664477","","","","","","","","","","","","72","H","0","img/none_selected.jpg","","223","main_expt"
"","bandit","303","702181","0.0-264.0-0.0","55083781","wem/bandit_either_2","A1AO1LLP3INAZF","either","8","224","","","","","","","1","0","0","0.4651086175","","0.2","0.6","0.4","0.8","","","","","0.4651086175","0.1589673504","0.3230244909","0.2195846313","","","","","","","","72","H","0","img/none_selected.jpg","","224","main_expt"
"","bandit","304","703917","0.0-265.0-0.0","55083781","wem/bandit_either_2","A1AO1LLP3INAZF","either","8","224","","","","","","","0","0","1","","0.4704934375","0.2","0.6","0.4","0.8","0.4704934375","0.1582937281","0.3641913847","0.1973587738","","","","","","","","","","","","72","H","0","img/none_selected.jpg","","225","main_expt"
"","bandit","305","705626","0.0-266.0-0.0","55083781","wem/bandit_either_2","A1AO1LLP3INAZF","either","8","200","","","","","","","0","0","1","","0.4545632724","0.2","0.6","0.4","0.8","0.4545632724","0.1585786296","0.3211822138","0.2029059012","","","","","","","","","","","","72","H","0","img/none_selected.jpg","","226","main_expt"
"","bandit","306","707271","0.0-267.0-0.0","55083781","wem/bandit_either_2","A1AO1LLP3INAZF","either","8","132","","","","","","","0","0","1","","0.4313330006","0.2","0.6","0.4","0.8","0.4313330006","0.1614007709","0.3318596792","0.1677618241","","","","","","","","","","","","72","H","0","img/none_selected.jpg","","227","main_expt"
"","bandit","307","708863","0.0-268.0-0.0","55083781","wem/bandit_either_2","A1AO1LLP3INAZF","either","8","76","","","","","","","0","0","1","","0.4253897179","0.2","0.6","0.4","0.8","0.4253897179","0.1160982884","0.3715738924","0.2079318551","","","","","","","","","","","","72","H","0","img/none_selected.jpg","","228","main_expt"
"","bandit","308","710413","0.0-269.0-0.0","55083781","wem/bandit_either_2","A1AO1LLP3INAZF","either","8","38","","","","","","","0","0","1","","0.1327168588","0.2","0.6","0.4","0.8","0.4416009531","0.1327168588","0.3571583743","0.1860779256","","","","","","","","","","","","74","J","1","","","229","main_expt"
"","bandit","309","712105","0.0-270.0-0.0","55083781","wem/bandit_either_2","A1AO1LLP3INAZF","either","8","181","","","","","","","0","0","1","0.1751239199","","0.2","0.6","0.4","0.8","","","","","0.4612445757","0.1751239199","0.3455313741","0.1294985144","","","","","","","","74","J","1","","","230","main_expt"
"","bandit","310","713678","0.0-271.0-0.0","55083781","wem/bandit_either_2","A1AO1LLP3INAZF","either","8","60","","","","","","","0","0","1","0.2080149414","","0.2","0.6","0.4","0.8","","","","","0.4455927364","0.2080149414","0.3114256563","0.1424139305","","","","","","","","74","J","1","","","231","main_expt"
"","bandit","311","715338","0.0-272.0-0.0","55083781","wem/bandit_either_2","A1AO1LLP3INAZF","either","8","148","","","","","","","1","0","0","0.1777617008","","0.2","0.6","0.4","0.8","","","","","0.4449483857","0.2305008548","0.3127001645","0.1777617008","","","","","","","","76","L","3","","","232","main_expt"
"","bandit","312","716930","0.0-273.0-0.0","55083781","wem/bandit_either_2","A1AO1LLP3INAZF","either","8","80","","","","","","","0","0","1","0.1408291819","","0.2","0.6","0.4","0.8","","","","","0.4570404202","0.2331895239","0.2953609795","0.1408291819","","","","","","","","76","L","3","","","233","main_expt"
"","bandit","313","718642","0.0-274.0-0.0","55083781","wem/bandit_either_2","A1AO1LLP3INAZF","either","8","190","","","","","","","0","0","1","0.09563300426","","0.2","0.6","0.4","0.8","","","","","0.4785018613","0.2007149185","0.2743769666","0.09563300426","","","","","","","","76","L","3","","","234","main_expt"
"","bandit","314","720221","0.0-275.0-0.0","55083781","wem/bandit_either_2","A1AO1LLP3INAZF","either","8","67","","","","","","","0","0","1","","0.06508254785","0.2","0.6","0.4","0.8","0.4708517218","0.1428876463","0.2842570603","0.06508254785","","","","","","","","","","","","76","L","3","","","235","main_expt"
"","bandit","315","721847","0.0-276.0-0.0","55083781","wem/bandit_either_2","A1AO1LLP3INAZF","either","8","114","","","","","","","0","0","1","0.05272484418","","0.2","0.6","0.4","0.8","","","","","0.4721911582","0.1327756685","0.3536106974","0.05272484418","","","","","","","","76","L","3","","","236","main_expt"
"","bandit","316","723437","0.0-277.0-0.0","55083781","wem/bandit_either_2","A1AO1LLP3INAZF","either","8","82","","","","","","","0","0","1","","0.05000735717","0.2","0.6","0.4","0.8","0.4567984566","0.1969646424","0.3777879982","0.05000735717","","","","","","","","","","","","76","L","3","","","237","main_expt"
"","bandit","317","725321","0.0-278.0-0.0","55083781","wem/bandit_either_2","A1AO1LLP3INAZF","either","8","372","","","","","","","0","0","1","0.3819628943","","0.2","0.6","0.4","0.8","","","","","0.4601910044","0.2040955009","0.3819628943","0.03409798278","","","","","","","","75","K","2","","","238","main_expt"
"","bandit","318","727091","0.0-279.0-0.0","55083781","wem/bandit_either_2","A1AO1LLP3INAZF","either","8","258","","","","","","","0","0","1","","0.3590612953","0.2","0.6","0.4","0.8","0.4663275819","0.1885012088","0.3590612953","0.03555143528","","","","","","","","","","","","75","K","2","","","239","main_expt"
"","bandit","319","728683","0.0-280.0-0.0","55083781","wem/bandit_either_2","A1AO1LLP3INAZF","either","8","80","","","","","","","0","0","1","","0.3943681209","0.2","0.6","0.4","0.8","0.4781926851","0.1779850251","0.3943681209","0.06633834621","","","","","","","","","","","","75","K","2","","","240","main_expt"
"","bandit","320","730414","0.0-281.0-0.0","55083781","wem/bandit_either_2","A1AO1LLP3INAZF","either","8","218","","","","","","","0","1","0","","0.4178476804","0.2","0.6","0.4","0.8","0.4813407325","0.2132761508","0.4178476804","0.0332650027","","","","","","","","","","","","75","K","2","","","241","main_expt"
"","bandit","321","732099","0.0-282.0-0.0","55083781","wem/bandit_either_2","A1AO1LLP3INAZF","either","8","171","","","","","","","0","0","1","0.4083523659","","0.2","0.6","0.4","0.8","","","","","0.4758201438","0.2181708985","0.4083523659","0.03674005559","","","","","","","","75","K","2","","","242","main_expt"
"","bandit","322","733732","0.0-283.0-0.0","55083781","wem/bandit_either_2","A1AO1LLP3INAZF","either","8","119","","","","","","","0","0","1","","0.4107673147","0.2","0.6","0.4","0.8","0.4739127226","0.1880751836","0.4107673147","0.02732183546","","","","","","","","","","","","75","K","2","","","243","main_expt"
"","bandit","323","735287","0.0-284.0-0.0","55083781","wem/bandit_either_2","A1AO1LLP3INAZF","either","8","42","","","","","","","0","0","1","0.2693527465","","0.2","0.6","0.4","0.8","","","","","0.4467527753","0.2693527465","0.3914084711","0.02742276317","","","","","","","","74","J","1","","","244","main_expt"
"","bandit","324","736823","0.0-285.0-0.0","55083781","wem/bandit_either_2","A1AO1LLP3INAZF","either","8","24","","","","","","","0","0","1","","0.4492118003","0.2","0.6","0.4","0.8","0.4492118003","0.2474629182","0.4117032301","0.03322496416","","","","","","","","","","","","72","H","0","img/none_selected.jpg","","245","main_expt"
"","bandit","325","738432","0.0-286.0-0.0","55083781","wem/bandit_either_2","A1AO1LLP3INAZF","either","8","86","","","","","","","0","1","0","","0.3019125269","0.2","0.6","0.4","0.8","0.4702058379","0.3019125269","0.4225436654","0.0538648904","","","","","","","","","","","","74","J","1","","","246","main_expt"
"","bandit","326","740054","0.0-287.0-0.0","55083781","wem/bandit_either_2","A1AO1LLP3INAZF","either","8","111","","","","","","","1","0","0","0.3013832462","","0.2","0.6","0.4","0.8","","","","","0.4717010128","0.3013832462","0.4327875568","0.05538537946","","","","","","","","74","J","1","","","247","main_expt"
