"consent","trial_type","trial_index","time_elapsed","internal_node_id","subjID","study","MID","cond","drift","rt","responses","key_press","expt_phase","like","value","connected","gems","bombs","no_reward","GemPrChosen","BombPrChosen","GainOverPainPr_0","GainOverPainPr_1","GainOverPainPr_2","GainOverPainPr_3","LosePr_0","LosePr_1","LosePr_2","LosePr_3","WinPr_0","WinPr_1","WinPr_2","WinPr_3","Q0","Q1","Q2","gender","age","ethnicity","target","respCharCode","respKey","respChoiceNum","respChoice","practice","trial_counter","trial_label"
"INL_behavioral_consent_30min_online.html","consent","0","21652","0.0-0.0","56768179","wem/bandit_either_2","A2PXJTMWGUE5DC","either","7","","","","","","","","","","","","","","","","","","","","","","","","","","","","","","","","","","","","","",""
"","survey-text","1","29614","0.0-1.0","56768179","wem/bandit_either_2","A2PXJTMWGUE5DC","either","7","6941","{""Q0"":""A2PXJTMWGUE5DC""}","","","","","","","","","","","","","","","","","","","","","","","","","","","","","","","","","","","",""
"","text","2","53099","0.0-2.0","56768179","wem/bandit_either_2","A2PXJTMWGUE5DC","either","7","22478","","32","","","","","","","","","","","","","","","","","","","","","","","","","","","","","","","","","","",""
"","text","3","62041","0.0-3.0","56768179","wem/bandit_either_2","A2PXJTMWGUE5DC","either","7","8940","","32","","","","","","","","","","","","","","","","","","","","","","","","","","","","","","","","","","",""
"","text","4","95595","0.0-4.0","56768179","wem/bandit_either_2","A2PXJTMWGUE5DC","either","7","33552","","32","","","","","","","","","","","","","","","","","","","","","","","","","","","","","","","","","","",""
"","text","5","112187","0.0-5.0","56768179","wem/bandit_either_2","A2PXJTMWGUE5DC","either","7","16590","","32","","","","","","","","","","","","","","","","","","","","","","","","","","","","","","","","","","",""
"","text","6","136955","0.0-6.0","56768179","wem/bandit_either_2","A2PXJTMWGUE5DC","either","7","24766","","32","","","","","","","","","","","","","","","","","","","","","","","","","","","","","","","","","","",""
"","text","7","147227","0.0-7.0","56768179","wem/bandit_either_2","A2PXJTMWGUE5DC","either","7","10270","","32","","","","","","","","","","","","","","","","","","","","","","","","","","","","","","","","","","",""
"","text","8","153354","0.0-8.0","56768179","wem/bandit_either_2","A2PXJTMWGUE5DC","either","7","6125","","32","","","","","","","","","","","","","","","","","","","","","","","","","","","","","","","","","","",""
"","identification","9","168900","0.0-9.0-0.0","56768179","wem/bandit_either_2","A2PXJTMWGUE5DC","either","7","15501","","","","6","6","6","","","","","","","","","","","","","","","","","","","","","","","","the village of Zur","","","","","","",""
"","identification","10","176064","0.0-9.0-1.0","56768179","wem/bandit_either_2","A2PXJTMWGUE5DC","either","7","6132","","","","0","0","0","","","","","","","","","","","","","","","","","","","","","","","","the village of Nyx","","","","","","",""
"","text","11","189379","0.0-10.0","56768179","wem/bandit_either_2","A2PXJTMWGUE5DC","either","7","12313","","32","","","","","","","","","","","","","","","","","","","","","","","","","","","","","","","","","","",""
"","text","12","195346","0.0-11.0","56768179","wem/bandit_either_2","A2PXJTMWGUE5DC","either","7","5965","","32","","","","","","","","","","","","","","","","","","","","","","","","","","","","","","","","","","",""
"","text","13","200003","0.0-12.0","56768179","wem/bandit_either_2","A2PXJTMWGUE5DC","either","7","4655","","32","","","","","","","","","","","","","","","","","","","","","","","","","","","","","","","","","","",""
"","text","14","205920","0.0-13.0","56768179","wem/bandit_either_2","A2PXJTMWGUE5DC","either","7","5916","","32","","","","","","","","","","","","","","","","","","","","","","","","","","","","","","","","","","",""
"","bandit","15","210690","0.0-14.0-0.0","56768179","wem/bandit_either_2","A2PXJTMWGUE5DC","either","7","3258","","","","","","","0","0","1","0","0","","","","","0","","","","0","","","","","","","","","","","74","J","0","img/none_selected_demo.jpg","true","0",""
"","bandit","16","215601","0.0-15.0-0.0","56768179","wem/bandit_either_2","A2PXJTMWGUE5DC","either","7","3401","","","","","","","0","0","1","0","0","","","","","0","","","","0","","","","","","","","","","","75","K","0","img/none_selected_demo.jpg","true","0",""
"","text","17","224810","0.0-16.0","56768179","wem/bandit_either_2","A2PXJTMWGUE5DC","either","7","9207","","32","","","","","","","","","","","","","","","","","","","","","","","","","","","","","","","","","","",""
"","text","18","253817","0.0-17.0","56768179","wem/bandit_either_2","A2PXJTMWGUE5DC","either","7","29005","","32","","","","","","","","","","","","","","","","","","","","","","","","","","","","","","","","","","",""
"","text","19","264676","0.0-18.0","56768179","wem/bandit_either_2","A2PXJTMWGUE5DC","either","7","10856","","32","","","","","","","","","","","","","","","","","","","","","","","","","","","","","","","","","","",""
"","text","20","270353","0.0-19.0","56768179","wem/bandit_either_2","A2PXJTMWGUE5DC","either","7","5676","","32","","","","","","","","","","","","","","","","","","","","","","","","","","","","","","","","","","",""
"","bandit","21","273266","0.0-20.0-0.0","56768179","wem/bandit_either_2","A2PXJTMWGUE5DC","either","7","1404","","","","","","","0","0","1","0.8","","0.5","0.5","","","","","","","0.8","0.2","","","","","","","","","","74","J","0","img/none_selected_demo.jpg","true","0","80_20_practice"
"","bandit","22","275681","0.0-20.0-1.0","56768179","wem/bandit_either_2","A2PXJTMWGUE5DC","either","7","907","","","","","","","0","1","0","","0.2","0.5","0.5","","","0.8","0.2","","","","","","","","","","","","","","75","K","1","","true","0","80_20_practice"
"","bandit","23","278058","0.0-20.0-2.0","56768179","wem/bandit_either_2","A2PXJTMWGUE5DC","either","7","870","","","","","","","0","0","1","0.2","","0.5","0.5","","","","","","","0.8","0.2","","","","","","","","","","75","K","1","","true","0","80_20_practice"
"","bandit","24","281040","0.0-20.0-3.0","56768179","wem/bandit_either_2","A2PXJTMWGUE5DC","either","7","1476","","","","","","","0","0","1","0.2","","0.5","0.5","","","","","","","0.8","0.2","","","","","","","","","","75","K","1","","true","0","80_20_practice"
"","bandit","25","283168","0.0-20.0-4.0","56768179","wem/bandit_either_2","A2PXJTMWGUE5DC","either","7","622","","","","","","","1","0","0","0.8","","0.5","0.5","","","","","","","0.8","0.2","","","","","","","","","","74","J","0","img/none_selected_demo.jpg","true","0","80_20_practice"
"","bandit","26","285328","0.0-20.0-5.0","56768179","wem/bandit_either_2","A2PXJTMWGUE5DC","either","7","654","","","","","","","1","0","0","0.8","","0.5","0.5","","","","","","","0.8","0.2","","","","","","","","","","74","J","0","img/none_selected_demo.jpg","true","0","80_20_practice"
"","bandit","27","287489","0.0-20.0-6.0","56768179","wem/bandit_either_2","A2PXJTMWGUE5DC","either","7","653","","","","","","","0","1","0","","0.8","0.5","0.5","","","0.8","0.2","","","","","","","","","","","","","","74","J","0","img/none_selected_demo.jpg","true","0","80_20_practice"
"","bandit","28","289665","0.0-20.0-7.0","56768179","wem/bandit_either_2","A2PXJTMWGUE5DC","either","7","669","","","","","","","0","1","0","","0.8","0.5","0.5","","","0.8","0.2","","","","","","","","","","","","","","74","J","0","img/none_selected_demo.jpg","true","0","80_20_practice"
"","bandit","29","291731","0.0-20.0-8.0","56768179","wem/bandit_either_2","A2PXJTMWGUE5DC","either","7","554","","","","","","","0","0","1","","0.8","0.5","0.5","","","0.8","0.2","","","","","","","","","","","","","","74","J","0","img/none_selected_demo.jpg","true","0","80_20_practice"
"","bandit","30","293863","0.0-20.0-9.0","56768179","wem/bandit_either_2","A2PXJTMWGUE5DC","either","7","626","","","","","","","0","1","0","","0.8","0.5","0.5","","","0.8","0.2","","","","","","","","","","","","","","74","J","0","img/none_selected_demo.jpg","true","0","80_20_practice"
"","bandit","31","295935","0.0-20.0-10.0","56768179","wem/bandit_either_2","A2PXJTMWGUE5DC","either","7","567","","","","","","","1","0","0","0.8","","0.5","0.5","","","","","","","0.8","0.2","","","","","","","","","","74","J","0","img/none_selected_demo.jpg","true","0","80_20_practice"
"","bandit","32","297928","0.0-20.0-11.0","56768179","wem/bandit_either_2","A2PXJTMWGUE5DC","either","7","483","","","","","","","0","1","0","","0.8","0.5","0.5","","","0.8","0.2","","","","","","","","","","","","","","74","J","0","img/none_selected_demo.jpg","true","0","80_20_practice"
"","bandit","33","299979","0.0-20.0-12.0","56768179","wem/bandit_either_2","A2PXJTMWGUE5DC","either","7","543","","","","","","","0","0","1","0.8","","0.5","0.5","","","","","","","0.8","0.2","","","","","","","","","","74","J","0","img/none_selected_demo.jpg","true","0","80_20_practice"
"","bandit","34","301984","0.0-20.0-13.0","56768179","wem/bandit_either_2","A2PXJTMWGUE5DC","either","7","498","","","","","","","0","1","0","","0.8","0.5","0.5","","","0.8","0.2","","","","","","","","","","","","","","74","J","0","img/none_selected_demo.jpg","true","0","80_20_practice"
"","bandit","35","303959","0.0-20.0-14.0","56768179","wem/bandit_either_2","A2PXJTMWGUE5DC","either","7","465","","","","","","","0","1","0","","0.8","0.5","0.5","","","0.8","0.2","","","","","","","","","","","","","","74","J","0","img/none_selected_demo.jpg","true","0","80_20_practice"
"","bandit","36","305976","0.0-20.0-15.0","56768179","wem/bandit_either_2","A2PXJTMWGUE5DC","either","7","511","","","","","","","1","0","0","0.8","","0.5","0.5","","","","","","","0.8","0.2","","","","","","","","","","74","J","0","img/none_selected_demo.jpg","true","0","80_20_practice"
"","bandit","37","307896","0.0-20.0-16.0","56768179","wem/bandit_either_2","A2PXJTMWGUE5DC","either","7","413","","","","","","","0","1","0","","0.8","0.5","0.5","","","0.8","0.2","","","","","","","","","","","","","","74","J","0","img/none_selected_demo.jpg","true","0","80_20_practice"
"","bandit","38","309834","0.0-20.0-17.0","56768179","wem/bandit_either_2","A2PXJTMWGUE5DC","either","7","430","","","","","","","0","0","1","0.8","","0.5","0.5","","","","","","","0.8","0.2","","","","","","","","","","74","J","0","img/none_selected_demo.jpg","true","0","80_20_practice"
"","bandit","39","311761","0.0-20.0-18.0","56768179","wem/bandit_either_2","A2PXJTMWGUE5DC","either","7","421","","","","","","","1","0","0","0.8","","0.5","0.5","","","","","","","0.8","0.2","","","","","","","","","","74","J","0","img/none_selected_demo.jpg","true","0","80_20_practice"
"","bandit","40","313689","0.0-20.0-19.0","56768179","wem/bandit_either_2","A2PXJTMWGUE5DC","either","7","421","","","","","","","0","0","1","","0.8","0.5","0.5","","","0.8","0.2","","","","","","","","","","","","","","74","J","0","img/none_selected_demo.jpg","true","0","80_20_practice"
"","text","41","321674","0.0-21.0","56768179","wem/bandit_either_2","A2PXJTMWGUE5DC","either","7","7982","","32","","","","","","","","","","","","","","","","","","","","","","","","","","","","","","","","","","",""
"","bandit","42","324887","0.0-22.0-0.0","56768179","wem/bandit_either_2","A2PXJTMWGUE5DC","either","7","1708","","","","","","","1","0","0","1","0","","","","","0","1","","","1","0","","","","","","","","","","74","J","0","img/none_selected_demo.jpg","true","0",""
"","text","43","332946","0.0-23.0","56768179","wem/bandit_either_2","A2PXJTMWGUE5DC","either","7","8055","","32","","","","","","","","","","","","","","","","","","","","","","","","","","","","","","","","","","",""
"","text","44","343466","0.0-24.0","56768179","wem/bandit_either_2","A2PXJTMWGUE5DC","either","7","10517","","32","","","","","","","","","","","","","","","","","","","","","","","","","","","","","","","","","","",""
"","text","45","347473","0.0-25.0","56768179","wem/bandit_either_2","A2PXJTMWGUE5DC","either","7","4003","","32","","","","","","","","","","","","","","","","","","","","","","","","","","","","","","","","","","",""
"","text","46","352440","0.0-26.0","56768179","wem/bandit_either_2","A2PXJTMWGUE5DC","either","7","4964","","32","","","","","","","","","","","","","","","","","","","","","","","","","","","","","","","","","","",""
"","text","47","363162","0.0-27.0","56768179","wem/bandit_either_2","A2PXJTMWGUE5DC","either","7","10719","","32","","","","","","","","","","","","","","","","","","","","","","","","","","","","","","","","","","",""
"","text","48","367609","0.0-28.0","56768179","wem/bandit_either_2","A2PXJTMWGUE5DC","either","7","4443","","32","","","","","","","","","","","","","","","","","","","","","","","","","","","","","","","","","","",""
"","text","49","373089","0.0-29.0","56768179","wem/bandit_either_2","A2PXJTMWGUE5DC","either","7","5477","","32","","","","","","","","","","","","","","","","","","","","","","","","","","","","","","","","","","",""
"","text","50","377618","0.0-30.0","56768179","wem/bandit_either_2","A2PXJTMWGUE5DC","either","7","4526","","32","","","","","","","","","","","","","","","","","","","","","","","","","","","","","","","","","","",""
"","text","51","385106","0.0-31.0","56768179","wem/bandit_either_2","A2PXJTMWGUE5DC","either","7","7485","","32","","","","","","","","","","","","","","","","","","","","","","","","","","","","","","","","","","",""
"","text","52","387995","0.0-32.0","56768179","wem/bandit_either_2","A2PXJTMWGUE5DC","either","7","2886","","32","","","","","","","","","","","","","","","","","","","","","","","","","","","","","","","","","","",""
"","text","53","400601","0.0-33.0","56768179","wem/bandit_either_2","A2PXJTMWGUE5DC","either","7","12604","","32","","","","","","","","","","","","","","","","","","","","","","","","","","","","","","","","","","",""
"","bandit","54","404241","0.0-34.0-0.0","56768179","wem/bandit_either_2","A2PXJTMWGUE5DC","either","7","2130","","","","","","","0","1","0","","0.6","0.5","0.5","0.5","0.5","0.8","0.2","0.6","0.2","","","","","","","","","","","","75","K","2","","true","0","full_practice"
"","bandit","55","406529","0.0-34.0-1.0","56768179","wem/bandit_either_2","A2PXJTMWGUE5DC","either","7","779","","","","","","","0","1","0","","0.6","0.5","0.5","0.5","0.5","0.8","0.2","0.6","0.2","","","","","","","","","","","","75","K","2","","true","0","full_practice"
"","bandit","56","408984","0.0-34.0-2.0","56768179","wem/bandit_either_2","A2PXJTMWGUE5DC","either","7","945","","","","","","","0","0","1","","0.6","0.5","0.5","0.5","0.5","0.8","0.2","0.6","0.2","","","","","","","","","","","","75","K","2","","true","0","full_practice"
"","bandit","57","411419","0.0-34.0-3.0","56768179","wem/bandit_either_2","A2PXJTMWGUE5DC","either","7","925","","","","","","","0","0","1","0.2","","0.5","0.5","0.5","0.5","","","","","0.8","0.2","0.6","0.2","","","","","","","","74","J","1","","true","0","full_practice"
"","bandit","58","413801","0.0-34.0-4.0","56768179","wem/bandit_either_2","A2PXJTMWGUE5DC","either","7","873","","","","","","","0","0","1","0.2","","0.5","0.5","0.5","0.5","","","","","0.8","0.2","0.6","0.2","","","","","","","","74","J","1","","true","0","full_practice"
"","bandit","59","416168","0.0-34.0-5.0","56768179","wem/bandit_either_2","A2PXJTMWGUE5DC","either","7","859","","","","","","","1","0","0","0.8","","0.5","0.5","0.5","0.5","","","","","0.8","0.2","0.6","0.2","","","","","","","","72","H","0","img/none_selected.jpg","true","0","full_practice"
"","bandit","60","418353","0.0-34.0-6.0","56768179","wem/bandit_either_2","A2PXJTMWGUE5DC","either","7","677","","","","","","","0","0","1","","0.8","0.5","0.5","0.5","0.5","0.8","0.2","0.6","0.2","","","","","","","","","","","","72","H","0","img/none_selected.jpg","true","0","full_practice"
"","bandit","61","420697","0.0-34.0-7.0","56768179","wem/bandit_either_2","A2PXJTMWGUE5DC","either","7","836","","","","","","","0","1","0","","0.8","0.5","0.5","0.5","0.5","0.8","0.2","0.6","0.2","","","","","","","","","","","","72","H","0","img/none_selected.jpg","true","0","full_practice"
"","bandit","62","422954","0.0-34.0-8.0","56768179","wem/bandit_either_2","A2PXJTMWGUE5DC","either","7","747","","","","","","","0","1","0","","0.8","0.5","0.5","0.5","0.5","0.8","0.2","0.6","0.2","","","","","","","","","","","","72","H","0","img/none_selected.jpg","true","0","full_practice"
"","bandit","63","425153","0.0-34.0-9.0","56768179","wem/bandit_either_2","A2PXJTMWGUE5DC","either","7","690","","","","","","","0","1","0","","0.8","0.5","0.5","0.5","0.5","0.8","0.2","0.6","0.2","","","","","","","","","","","","72","H","0","img/none_selected.jpg","true","0","full_practice"
"","bandit","64","427280","0.0-34.0-10.0","56768179","wem/bandit_either_2","A2PXJTMWGUE5DC","either","7","619","","","","","","","0","1","0","","0.8","0.5","0.5","0.5","0.5","0.8","0.2","0.6","0.2","","","","","","","","","","","","72","H","0","img/none_selected.jpg","true","0","full_practice"
"","bandit","65","429410","0.0-34.0-11.0","56768179","wem/bandit_either_2","A2PXJTMWGUE5DC","either","7","618","","","","","","","1","0","0","0.8","","0.5","0.5","0.5","0.5","","","","","0.8","0.2","0.6","0.2","","","","","","","","72","H","0","img/none_selected.jpg","true","0","full_practice"
"","bandit","66","431476","0.0-34.0-12.0","56768179","wem/bandit_either_2","A2PXJTMWGUE5DC","either","7","554","","","","","","","0","1","0","","0.8","0.5","0.5","0.5","0.5","0.8","0.2","0.6","0.2","","","","","","","","","","","","72","H","0","img/none_selected.jpg","true","0","full_practice"
"","bandit","67","433473","0.0-34.0-13.0","56768179","wem/bandit_either_2","A2PXJTMWGUE5DC","either","7","490","","","","","","","1","0","0","0.8","","0.5","0.5","0.5","0.5","","","","","0.8","0.2","0.6","0.2","","","","","","","","72","H","0","img/none_selected.jpg","true","0","full_practice"
"","bandit","68","435639","0.0-34.0-14.0","56768179","wem/bandit_either_2","A2PXJTMWGUE5DC","either","7","659","","","","","","","0","1","0","","0.8","0.5","0.5","0.5","0.5","0.8","0.2","0.6","0.2","","","","","","","","","","","","72","H","0","img/none_selected.jpg","true","0","full_practice"
"","bandit","69","437552","0.0-34.0-15.0","56768179","wem/bandit_either_2","A2PXJTMWGUE5DC","either","7","408","","","","","","","0","1","0","","0.8","0.5","0.5","0.5","0.5","0.8","0.2","0.6","0.2","","","","","","","","","","","","72","H","0","img/none_selected.jpg","true","0","full_practice"
"","bandit","70","439497","0.0-34.0-16.0","56768179","wem/bandit_either_2","A2PXJTMWGUE5DC","either","7","436","","","","","","","0","1","0","","0.8","0.5","0.5","0.5","0.5","0.8","0.2","0.6","0.2","","","","","","","","","","","","72","H","0","img/none_selected.jpg","true","0","full_practice"
"","bandit","71","441464","0.0-34.0-17.0","56768179","wem/bandit_either_2","A2PXJTMWGUE5DC","either","7","457","","","","","","","1","0","0","0.8","","0.5","0.5","0.5","0.5","","","","","0.8","0.2","0.6","0.2","","","","","","","","72","H","0","img/none_selected.jpg","true","0","full_practice"
"","bandit","72","443386","0.0-34.0-18.0","56768179","wem/bandit_either_2","A2PXJTMWGUE5DC","either","7","410","","","","","","","1","0","0","0.8","","0.5","0.5","0.5","0.5","","","","","0.8","0.2","0.6","0.2","","","","","","","","72","H","0","img/none_selected.jpg","true","0","full_practice"
"","bandit","73","445353","0.0-34.0-19.0","56768179","wem/bandit_either_2","A2PXJTMWGUE5DC","either","7","458","","","","","","","1","0","0","0.8","","0.5","0.5","0.5","0.5","","","","","0.8","0.2","0.6","0.2","","","","","","","","72","H","0","img/none_selected.jpg","true","0","full_practice"
"","text","74","450970","0.0-35.0","56768179","wem/bandit_either_2","A2PXJTMWGUE5DC","either","7","5605","","32","","","","","","","","","","","","","","","","","","","","","","","","","","","","","","","","","","",""
"","text","75","468395","0.0-36.0","56768179","wem/bandit_either_2","A2PXJTMWGUE5DC","either","7","16420","","32","","","","","","","","","","","","","","","","","","","","","","","","","","","","","","","","","","",""
"","text","76","481763","0.0-37.0","56768179","wem/bandit_either_2","A2PXJTMWGUE5DC","either","7","13364","","32","","","","","","","","","","","","","","","","","","","","","","","","","","","","","","","","","","",""
"","text","77","489722","0.0-38.0","56768179","wem/bandit_either_2","A2PXJTMWGUE5DC","either","7","7955","","32","","","","","","","","","","","","","","","","","","","","","","","","","","","","","","","","","","",""
"","text","78","497843","0.0-39.0","56768179","wem/bandit_either_2","A2PXJTMWGUE5DC","either","7","8117","","32","","","","","","","","","","","","","","","","","","","","","","","","","","","","","","","","","","",""
"","text","79","505953","0.0-40.0","56768179","wem/bandit_either_2","A2PXJTMWGUE5DC","either","7","8106","","32","","","","","","","","","","","","","","","","","","","","","","","","","","","","","","","","","","",""
"","bandit","80","508552","0.0-41.0-0.0","56768179","wem/bandit_either_2","A2PXJTMWGUE5DC","either","7","1093","","","","","","","0","0","1","0.1480066451","","0.6","0.2","0.4","0.8","","","","","0.1952616071","0.06530018083","0.01738065524","0.1480066451","","","","","","","","76","L","3","","","1","main_expt"
"","bandit","81","510610","0.0-42.0-0.0","56768179","wem/bandit_either_2","A2PXJTMWGUE5DC","either","7","548","","","","","","","0","0","1","","0.1053714073","0.6","0.2","0.4","0.8","0.1652234336","0.1011701763","0.0196943787","0.1053714073","","","","","","","","","","","","76","L","3","","","2","main_expt"
"","bandit","82","512648","0.0-43.0-0.0","56768179","wem/bandit_either_2","A2PXJTMWGUE5DC","either","7","527","","","","","","","0","0","1","0.01678573497","","0.6","0.2","0.4","0.8","","","","","0.1347382479","0.09486719381","0.01678573497","0.1460078221","","","","","","","","75","K","2","","","3","main_expt"
"","bandit","83","514625","0.0-44.0-0.0","56768179","wem/bandit_either_2","A2PXJTMWGUE5DC","either","7","468","","","","","","","0","0","1","0.02981965743","","0.6","0.2","0.4","0.8","","","","","0.1684625442","0.06705802814","0.02981965743","0.1866138214","","","","","","","","75","K","2","","","4","main_expt"
"","bandit","84","516665","0.0-45.0-0.0","56768179","wem/bandit_either_2","A2PXJTMWGUE5DC","either","7","527","","","","","","","0","0","1","","0.0822298525","0.6","0.2","0.4","0.8","0.1792029032","0.0822298525","0.02600208211","0.2445348717","","","","","","","","","","","","74","J","1","","","5","main_expt"
"","bandit","85","518696","0.0-46.0-0.0","56768179","wem/bandit_either_2","A2PXJTMWGUE5DC","either","7","524","","","","","","","0","1","0","","0.09162209411","0.6","0.2","0.4","0.8","0.2153873139","0.09162209411","0.02332436933","0.2546962146","","","","","","","","","","","","74","J","1","","","6","main_expt"
"","bandit","86","520762","0.0-47.0-0.0","56768179","wem/bandit_either_2","A2PXJTMWGUE5DC","either","7","555","","","","","","","0","1","0","","0.1028820098","0.6","0.2","0.4","0.8","0.1757762721","0.1028820098","0.02864040813","0.2344841702","","","","","","","","","","","","74","J","1","","","7","main_expt"
"","bandit","87","522815","0.0-48.0-0.0","56768179","wem/bandit_either_2","A2PXJTMWGUE5DC","either","7","546","","","","","","","0","0","1","","0.1532270122","0.6","0.2","0.4","0.8","0.2241229746","0.1532270122","0.02951264166","0.2473344203","","","","","","","","","","","","74","J","1","","","8","main_expt"
"","bandit","88","525232","0.0-49.0-0.0","56768179","wem/bandit_either_2","A2PXJTMWGUE5DC","either","7","906","","","","","","","0","0","1","","0.2131450397","0.6","0.2","0.4","0.8","0.2199426203","0.2131450397","0.02997011939","0.2642160399","","","","","","","","","","","","74","J","1","","","9","main_expt"
"","bandit","89","527201","0.0-50.0-0.0","56768179","wem/bandit_either_2","A2PXJTMWGUE5DC","either","7","460","","","","","","","0","0","1","","0.1520686932","0.6","0.2","0.4","0.8","0.1520686932","0.2985754635","0.02489651457","0.2104627424","","","","","","","","","","","","72","H","0","img/none_selected.jpg","","10","main_expt"
"","bandit","90","529169","0.0-51.0-0.0","56768179","wem/bandit_either_2","A2PXJTMWGUE5DC","either","7","458","","","","","","","0","0","1","0.2013349999","","0.6","0.2","0.4","0.8","","","","","0.2013349999","0.2924640086","0.01651058827","0.219372878","","","","","","","","72","H","0","img/none_selected.jpg","","11","main_expt"
"","bandit","91","531058","0.0-52.0-0.0","56768179","wem/bandit_either_2","A2PXJTMWGUE5DC","either","7","380","","","","","","","0","1","0","","0.3264291113","0.6","0.2","0.4","0.8","0.2156800105","0.3264291113","0.02341729431","0.2105839871","","","","","","","","","","","","74","J","1","","","12","main_expt"
"","bandit","92","533034","0.0-53.0-0.0","56768179","wem/bandit_either_2","A2PXJTMWGUE5DC","either","7","465","","","","","","","0","0","1","","0.3254913314","0.6","0.2","0.4","0.8","0.1833947696","0.3254913314","0.0257410372","0.2511698571","","","","","","","","","","","","74","J","1","","","13","main_expt"
"","bandit","93","535521","0.0-54.0-0.0","56768179","wem/bandit_either_2","A2PXJTMWGUE5DC","either","7","978","","","","","","","0","0","1","","0.3428504842","0.6","0.2","0.4","0.8","0.243643366","0.3428504842","0.02570014082","0.2158977649","","","","","","","","","","","","74","J","1","","","14","main_expt"
"","bandit","94","537561","0.0-55.0-0.0","56768179","wem/bandit_either_2","A2PXJTMWGUE5DC","either","7","529","","","","","","","0","1","0","","0.3244047679","0.6","0.2","0.4","0.8","0.2265365198","0.3244047679","0.04268316416","0.2762480727","","","","","","","","","","","","74","J","1","","","15","main_expt"
"","bandit","95","539571","0.0-56.0-0.0","56768179","wem/bandit_either_2","A2PXJTMWGUE5DC","either","7","498","","","","","","","0","0","1","","0.3025313629","0.6","0.2","0.4","0.8","0.2484951132","0.3025313629","0.04667408308","0.3202890724","","","","","","","","","","","","74","J","1","","","16","main_expt"
"","bandit","96","541553","0.0-57.0-0.0","56768179","wem/bandit_either_2","A2PXJTMWGUE5DC","either","7","473","","","","","","","0","1","0","","0.3291216938","0.6","0.2","0.4","0.8","0.2570267238","0.3291216938","0.0506688767","0.3680552247","","","","","","","","","","","","74","J","1","","","17","main_expt"
"","bandit","97","543544","0.0-58.0-0.0","56768179","wem/bandit_either_2","A2PXJTMWGUE5DC","either","7","481","","","","","","","0","0","1","","0.2987881532","0.6","0.2","0.4","0.8","0.287418789","0.2987881532","0.02988526167","0.3968593921","","","","","","","","","","","","74","J","1","","","18","main_expt"
"","bandit","98","545433","0.0-59.0-0.0","56768179","wem/bandit_either_2","A2PXJTMWGUE5DC","either","7","379","","","","","","","0","0","1","","0.281207523","0.6","0.2","0.4","0.8","0.2338710899","0.281207523","0.03476350355","0.4192996399","","","","","","","","","","","","74","J","1","","","19","main_expt"
"","bandit","99","547481","0.0-60.0-0.0","56768179","wem/bandit_either_2","A2PXJTMWGUE5DC","either","7","539","","","","","","","0","0","1","0.0233687216","","0.6","0.2","0.4","0.8","","","","","0.2335293464","0.291129981","0.0233687216","0.4362768361","","","","","","","","75","K","2","","","20","main_expt"
"","bandit","100","549425","0.0-61.0-0.0","56768179","wem/bandit_either_2","A2PXJTMWGUE5DC","either","7","434","","","","","","","0","0","1","0.01272547494","","0.6","0.2","0.4","0.8","","","","","0.2434826965","0.2729578326","0.01272547494","0.4599691003","","","","","","","","75","K","2","","","21","main_expt"
"","bandit","101","551424","0.0-62.0-0.0","56768179","wem/bandit_either_2","A2PXJTMWGUE5DC","either","7","488","","","","","","","1","0","0","0.44353765","","0.6","0.2","0.4","0.8","","","","","0.2702300591","0.2805141014","0.01739491555","0.44353765","","","","","","","","76","L","3","","","22","main_expt"
"","bandit","102","553491","0.0-63.0-0.0","56768179","wem/bandit_either_2","A2PXJTMWGUE5DC","either","7","556","","","","","","","0","0","1","0.4105594395","","0.6","0.2","0.4","0.8","","","","","0.2424740502","0.3016389313","0.006692102231","0.4105594395","","","","","","","","76","L","3","","","23","main_expt"
"","bandit","103","555769","0.0-64.0-0.0","56768179","wem/bandit_either_2","A2PXJTMWGUE5DC","either","7","765","","","","","","","1","0","0","0.4243351486","","0.6","0.2","0.4","0.8","","","","","0.1754503809","0.2475621169","0.01209419849","0.4243351486","","","","","","","","76","L","3","","","24","main_expt"
"","bandit","104","557761","0.0-65.0-0.0","56768179","wem/bandit_either_2","A2PXJTMWGUE5DC","either","7","482","","","","","","","0","0","1","0.4172780312","","0.6","0.2","0.4","0.8","","","","","0.2023019753","0.2607476102","0.009734580702","0.4172780312","","","","","","","","76","L","3","","","25","main_expt"
"","bandit","105","560018","0.0-66.0-0.0","56768179","wem/bandit_either_2","A2PXJTMWGUE5DC","either","7","746","","","","","","","0","0","1","0.3981062588","","0.6","0.2","0.4","0.8","","","","","0.1887270612","0.292589008","0.008596148908","0.3981062588","","","","","","","","76","L","3","","","26","main_expt"
"","bandit","106","562081","0.0-67.0-0.0","56768179","wem/bandit_either_2","A2PXJTMWGUE5DC","either","7","552","","","","","","","1","0","0","0.3889188119","","0.6","0.2","0.4","0.8","","","","","0.2526986378","0.2978950393","0.01380650739","0.3889188119","","","","","","","","76","L","3","","","27","main_expt"
"","bandit","107","564108","0.0-68.0-0.0","56768179","wem/bandit_either_2","A2PXJTMWGUE5DC","either","7","516","","","","","","","1","0","0","0.3699095679","","0.6","0.2","0.4","0.8","","","","","0.2536033627","0.337392419","0.01160852189","0.3699095679","","","","","","","","76","L","3","","","28","main_expt"
"","bandit","108","566474","0.0-69.0-0.0","56768179","wem/bandit_either_2","A2PXJTMWGUE5DC","either","7","857","","","","","","","0","0","1","0.4087832773","","0.6","0.2","0.4","0.8","","","","","0.258258936","0.3830759015","0.02858314752","0.4087832773","","","","","","","","76","L","3","","","29","main_expt"
"","bandit","109","568800","0.0-70.0-0.0","56768179","wem/bandit_either_2","A2PXJTMWGUE5DC","either","7","816","","","","","","","0","1","0","","0.3778881599","0.6","0.2","0.4","0.8","0.3152574144","0.3778881599","0.0265596094","0.4162513677","","","","","","","","","","","","74","J","1","","","30","main_expt"
"","bandit","110","571074","0.0-71.0-0.0","56768179","wem/bandit_either_2","A2PXJTMWGUE5DC","either","7","762","","","","","","","0","0","1","","0.3585458117","0.6","0.2","0.4","0.8","0.3508579725","0.3585458117","0.02828816112","0.43337534","","","","","","","","","","","","74","J","1","","","31","main_expt"
"","bandit","111","573424","0.0-72.0-0.0","56768179","wem/bandit_either_2","A2PXJTMWGUE5DC","either","7","838","","","","","","","0","1","0","","0.3511664436","0.6","0.2","0.4","0.8","0.3902021543","0.3511664436","0.03857304495","0.4399105216","","","","","","","","","","","","74","J","1","","","32","main_expt"
"","bandit","112","575609","0.0-73.0-0.0","56768179","wem/bandit_either_2","A2PXJTMWGUE5DC","either","7","674","","","","","","","0","0","1","0.3859623535","","0.6","0.2","0.4","0.8","","","","","0.4112626521","0.3924960189","0.02642959278","0.3859623535","","","","","","","","76","L","3","","","33","main_expt"
"","bandit","113","577713","0.0-74.0-0.0","56768179","wem/bandit_either_2","A2PXJTMWGUE5DC","either","7","595","","","","","","","0","0","1","0.4231921331","","0.6","0.2","0.4","0.8","","","","","0.3912589523","0.3713907517","0.06800028167","0.4231921331","","","","","","","","76","L","3","","","34","main_expt"
"","bandit","114","579800","0.0-75.0-0.0","56768179","wem/bandit_either_2","A2PXJTMWGUE5DC","either","7","577","","","","","","","0","0","1","0.3929004689","","0.6","0.2","0.4","0.8","","","","","0.3663646496","0.3929004689","0.05710280771","0.3950458867","","","","","","","","74","J","1","","","35","main_expt"
"","bandit","115","581905","0.0-76.0-0.0","56768179","wem/bandit_either_2","A2PXJTMWGUE5DC","either","7","594","","","","","","","0","0","1","","0.3820467604","0.6","0.2","0.4","0.8","0.3045225128","0.3820467604","0.07756943076","0.4005306787","","","","","","","","","","","","74","J","1","","","36","main_expt"
"","bandit","116","584096","0.0-77.0-0.0","56768179","wem/bandit_either_2","A2PXJTMWGUE5DC","either","7","684","","","","","","","0","0","1","0.2806474599","","0.6","0.2","0.4","0.8","","","","","0.2806474599","0.3948022939","0.06074629621","0.3972735937","","","","","","","","72","H","0","img/none_selected.jpg","","37","main_expt"
"","bandit","117","586194","0.0-78.0-0.0","56768179","wem/bandit_either_2","A2PXJTMWGUE5DC","either","7","588","","","","","","","0","0","1","","0.3558759705","0.6","0.2","0.4","0.8","0.3558759705","0.3769579019","0.07063042774","0.38339591","","","","","","","","","","","","72","H","0","img/none_selected.jpg","","38","main_expt"
"","bandit","118","588292","0.0-79.0-0.0","56768179","wem/bandit_either_2","A2PXJTMWGUE5DC","either","7","586","","","","","","","0","0","1","","0.4030344636","0.6","0.2","0.4","0.8","0.3194138052","0.4030344636","0.06209293178","0.3906354184","","","","","","","","","","","","74","J","1","","","39","main_expt"
"","bandit","119","590290","0.0-80.0-0.0","56768179","wem/bandit_either_2","A2PXJTMWGUE5DC","either","7","487","","","","","","","0","0","1","","0.06952578958","0.6","0.2","0.4","0.8","0.3549086085","0.3622335218","0.06952578958","0.3623676206","","","","","","","","","","","","75","K","2","","","40","main_expt"
"","bandit","120","592319","0.0-81.0-0.0","56768179","wem/bandit_either_2","A2PXJTMWGUE5DC","either","7","519","","","","","","","0","1","0","","0.1291245709","0.6","0.2","0.4","0.8","0.3452113815","0.3911596719","0.1291245709","0.3873704927","","","","","","","","","","","","75","K","2","","","41","main_expt"
"","bandit","121","594465","0.0-82.0-0.0","56768179","wem/bandit_either_2","A2PXJTMWGUE5DC","either","7","632","","","","","","","0","1","0","","0.1174523948","0.6","0.2","0.4","0.8","0.3522960267","0.3921858285","0.1174523948","0.359823116","","","","","","","","","","","","75","K","2","","","42","main_expt"
"","bandit","122","596657","0.0-83.0-0.0","56768179","wem/bandit_either_2","A2PXJTMWGUE5DC","either","7","682","","","","","","","0","0","1","","0.1201484523","0.6","0.2","0.4","0.8","0.3093122096","0.3831213528","0.1201484523","0.3710191411","","","","","","","","","","","","75","K","2","","","43","main_expt"
"","bandit","123","598760","0.0-84.0-0.0","56768179","wem/bandit_either_2","A2PXJTMWGUE5DC","either","7","595","","","","","","","0","1","0","","0.09958360536","0.6","0.2","0.4","0.8","0.3026159556","0.3518708159","0.09958360536","0.3874065465","","","","","","","","","","","","75","K","2","","","44","main_expt"
"","bandit","124","601194","0.0-85.0-0.0","56768179","wem/bandit_either_2","A2PXJTMWGUE5DC","either","7","922","","","","","","","0","0","1","0.05173655998","","0.6","0.2","0.4","0.8","","","","","0.3336294247","0.3122870636","0.05173655998","0.3851533971","","","","","","","","75","K","2","","","45","main_expt"
"","bandit","125","603200","0.0-86.0-0.0","56768179","wem/bandit_either_2","A2PXJTMWGUE5DC","either","7","495","","","","","","","0","0","1","0.05945041096","","0.6","0.2","0.4","0.8","","","","","0.3400222736","0.2635721956","0.05945041096","0.4055883719","","","","","","","","75","K","2","","","46","main_expt"
"","bandit","126","605353","0.0-87.0-0.0","56768179","wem/bandit_either_2","A2PXJTMWGUE5DC","either","7","641","","","","","","","0","0","1","0.04375763727","","0.6","0.2","0.4","0.8","","","","","0.328707825","0.2856785865","0.04375763727","0.3671593179","","","","","","","","75","K","2","","","47","main_expt"
"","bandit","127","607370","0.0-88.0-0.0","56768179","wem/bandit_either_2","A2PXJTMWGUE5DC","either","7","504","","","","","","","0","0","1","","0.2649087478","0.6","0.2","0.4","0.8","0.3307690822","0.2649087478","0.0666370861","0.3198203038","","","","","","","","","","","","74","J","1","","","48","main_expt"
"","bandit","128","609417","0.0-89.0-0.0","56768179","wem/bandit_either_2","A2PXJTMWGUE5DC","either","7","535","","","","","","","0","0","1","","0.2462979357","0.6","0.2","0.4","0.8","0.3438067684","0.2462979357","0.08266213623","0.3111357295","","","","","","","","","","","","74","J","1","","","49","main_expt"
"","bandit","129","611489","0.0-90.0-0.0","56768179","wem/bandit_either_2","A2PXJTMWGUE5DC","either","7","559","","","","","","","0","0","1","0.3196682981","","0.6","0.2","0.4","0.8","","","","","0.4037002216","0.2490076798","0.08795051988","0.3196682981","","","","","","","","76","L","3","","","50","main_expt"
"","bandit","130","613579","0.0-91.0-0.0","56768179","wem/bandit_either_2","A2PXJTMWGUE5DC","either","7","575","","","","","","","0","0","1","0.3088596379","","0.6","0.2","0.4","0.8","","","","","0.3557518394","0.305209751","0.07533366945","0.3088596379","","","","","","","","76","L","3","","","51","main_expt"
"","bandit","131","615579","0.0-92.0-0.0","56768179","wem/bandit_either_2","A2PXJTMWGUE5DC","either","7","487","","","","","","","0","0","1","","0.06506638851","0.6","0.2","0.4","0.8","0.3254324358","0.3087204988","0.06506638851","0.3060924957","","","","","","","","","","","","75","K","2","","","52","main_expt"
"","bandit","132","617586","0.0-93.0-0.0","56768179","wem/bandit_either_2","A2PXJTMWGUE5DC","either","7","490","","","","","","","0","0","1","","0.06562792832","0.6","0.2","0.4","0.8","0.2952150256","0.2984188648","0.06562792832","0.3229319808","","","","","","","","","","","","75","K","2","","","53","main_expt"
"","bandit","133","619537","0.0-94.0-0.0","56768179","wem/bandit_either_2","A2PXJTMWGUE5DC","either","7","438","","","","","","","1","0","0","0.300320608","","0.6","0.2","0.4","0.8","","","","","0.300320608","0.3353917468","0.04630081711","0.3280138586","","","","","","","","72","H","0","img/none_selected.jpg","","54","main_expt"
"","bandit","134","621505","0.0-95.0-0.0","56768179","wem/bandit_either_2","A2PXJTMWGUE5DC","either","7","454","","","","","","","0","0","1","0.2985084879","","0.6","0.2","0.4","0.8","","","","","0.2985084879","0.3259144651","0.03868373719","0.2777260571","","","","","","","","72","H","0","img/none_selected.jpg","","55","main_expt"
"","bandit","135","623673","0.0-96.0-0.0","56768179","wem/bandit_either_2","A2PXJTMWGUE5DC","either","7","655","","","","","","","0","1","0","","0.2607009345","0.6","0.2","0.4","0.8","0.2607009345","0.3259049121","0.06235362297","0.1791004868","","","","","","","","","","","","72","H","0","img/none_selected.jpg","","56","main_expt"
"","bandit","136","625777","0.0-97.0-0.0","56768179","wem/bandit_either_2","A2PXJTMWGUE5DC","either","7","596","","","","","","","1","0","0","0.2565854794","","0.6","0.2","0.4","0.8","","","","","0.2565854794","0.3687904078","0.04639461243","0.2182265394","","","","","","","","72","H","0","img/none_selected.jpg","","57","main_expt"
"","bandit","137","628314","0.0-98.0-0.0","56768179","wem/bandit_either_2","A2PXJTMWGUE5DC","either","7","1025","","","","","","","0","0","1","0.319121847","","0.6","0.2","0.4","0.8","","","","","0.319121847","0.3422038875","0.08954448139","0.2970860181","","","","","","","","72","H","0","img/none_selected.jpg","","58","main_expt"
"","bandit","138","630457","0.0-99.0-0.0","56768179","wem/bandit_either_2","A2PXJTMWGUE5DC","either","7","629","","","","","","","0","0","1","0.3269923399","","0.6","0.2","0.4","0.8","","","","","0.3269923399","0.3771421139","0.07390342289","0.3249685468","","","","","","","","72","H","0","img/none_selected.jpg","","59","main_expt"
"","bandit","139","632767","0.0-100.0-0.0","56768179","wem/bandit_either_2","A2PXJTMWGUE5DC","either","7","800","","","","","","","1","0","0","0.3150968823","","0.6","0.2","0.4","0.8","","","","","0.3150968823","0.3620124399","0.05801548519","0.2931470039","","","","","","","","72","H","0","img/none_selected.jpg","","60","main_expt"
"","bandit","140","635025","0.0-101.0-0.0","56768179","wem/bandit_either_2","A2PXJTMWGUE5DC","either","7","744","","","","","","","0","1","0","","0.324539239","0.6","0.2","0.4","0.8","0.324539239","0.3958116198","0.07333263924","0.2646536279","","","","","","","","","","","","72","H","0","img/none_selected.jpg","","61","main_expt"
"","bandit","141","637625","0.0-102.0-0.0","56768179","wem/bandit_either_2","A2PXJTMWGUE5DC","either","7","1089","","","","","","","0","0","1","0.3066306166","","0.6","0.2","0.4","0.8","","","","","0.3066306166","0.3615218546","0.07563430262","0.242461968","","","","","","","","72","H","0","img/none_selected.jpg","","62","main_expt"
"","bandit","142","639953","0.0-103.0-0.0","56768179","wem/bandit_either_2","A2PXJTMWGUE5DC","either","7","816","","","","","","","1","0","0","0.3068900116","","0.6","0.2","0.4","0.8","","","","","0.3068900116","0.3574266064","0.06826526778","0.2206683029","","","","","","","","72","H","0","img/none_selected.jpg","","63","main_expt"
"","bandit","143","642177","0.0-104.0-0.0","56768179","wem/bandit_either_2","A2PXJTMWGUE5DC","either","7","710","","","","","","","0","0","1","","0.2936494982","0.6","0.2","0.4","0.8","0.2936494982","0.3541915859","0.1175271989","0.2288959862","","","","","","","","","","","","72","H","0","img/none_selected.jpg","","64","main_expt"
"","bandit","144","644272","0.0-105.0-0.0","56768179","wem/bandit_either_2","A2PXJTMWGUE5DC","either","7","585","","","","","","","0","1","0","","0.290236101","0.6","0.2","0.4","0.8","0.290236101","0.3339820985","0.1273865191","0.2346523549","","","","","","","","","","","","72","H","0","img/none_selected.jpg","","65","main_expt"
"","bandit","145","646889","0.0-106.0-0.0","56768179","wem/bandit_either_2","A2PXJTMWGUE5DC","either","7","1103","","","","","","","0","0","1","","0.2512036594","0.6","0.2","0.4","0.8","0.2512036594","0.3195467083","0.09075088943","0.1881688105","","","","","","","","","","","","72","H","0","img/none_selected.jpg","","66","main_expt"
"","bandit","146","648969","0.0-107.0-0.0","56768179","wem/bandit_either_2","A2PXJTMWGUE5DC","either","7","565","","","","","","","0","0","1","0.263747572","","0.6","0.2","0.4","0.8","","","","","0.263747572","0.3477383846","0.08077075725","0.231043846","","","","","","","","72","H","0","img/none_selected.jpg","","67","main_expt"
"","bandit","147","651092","0.0-108.0-0.0","56768179","wem/bandit_either_2","A2PXJTMWGUE5DC","either","7","607","","","","","","","0","0","1","0.2892519303","","0.6","0.2","0.4","0.8","","","","","0.2892519303","0.3365352069","0.08810311296","0.2576664243","","","","","","","","72","H","0","img/none_selected.jpg","","68","main_expt"
"","bandit","148","653105","0.0-109.0-0.0","56768179","wem/bandit_either_2","A2PXJTMWGUE5DC","either","7","502","","","","","","","0","0","1","","0.3148812039","0.6","0.2","0.4","0.8","0.2383664846","0.3148812039","0.1260156682","0.2183283259","","","","","","","","","","","","74","J","1","","","69","main_expt"
"","bandit","149","655225","0.0-110.0-0.0","56768179","wem/bandit_either_2","A2PXJTMWGUE5DC","either","7","606","","","","","","","0","0","1","","0.08773951932","0.6","0.2","0.4","0.8","0.2497111545","0.3154014692","0.08773951932","0.2260484764","","","","","","","","","","","","75","K","2","","","70","main_expt"
"","bandit","150","657447","0.0-111.0-0.0","56768179","wem/bandit_either_2","A2PXJTMWGUE5DC","either","7","711","","","","","","","0","0","1","0.3196469567","","0.6","0.2","0.4","0.8","","","","","0.2095843002","0.219815459","0.1154304285","0.3196469567","","","","","","","","76","L","3","","","71","main_expt"
"","bandit","151","659728","0.0-112.0-0.0","56768179","wem/bandit_either_2","A2PXJTMWGUE5DC","either","7","770","","","","","","","0","1","0","","0.3644141189","0.6","0.2","0.4","0.8","0.1972488467","0.2623730272","0.10097247","0.3644141189","","","","","","","","","","","","76","L","3","","","72","main_expt"
"","bandit","152","662218","0.0-113.0-0.0","56768179","wem/bandit_either_2","A2PXJTMWGUE5DC","either","7","977","","","","","","","0","0","1","0.4081842109","","0.6","0.2","0.4","0.8","","","","","0.15494396","0.2639805735","0.0746930591","0.4081842109","","","","","","","","76","L","3","","","73","main_expt"
"","bandit","153","664385","0.0-114.0-0.0","56768179","wem/bandit_either_2","A2PXJTMWGUE5DC","either","7","652","","","","","","","0","1","0","","0.4506698749","0.6","0.2","0.4","0.8","0.1324790415","0.2770925356","0.1124392477","0.4506698749","","","","","","","","","","","","76","L","3","","","74","main_expt"
"","bandit","154","666689","0.0-115.0-0.0","56768179","wem/bandit_either_2","A2PXJTMWGUE5DC","either","7","790","","","","","","","1","0","0","0.454520075","","0.6","0.2","0.4","0.8","","","","","0.179195356","0.2796652475","0.113494578","0.454520075","","","","","","","","76","L","3","","","75","main_expt"
"","bandit","155","668953","0.0-116.0-0.0","56768179","wem/bandit_either_2","A2PXJTMWGUE5DC","either","7","752","","","","","","","1","0","0","0.466199952","","0.6","0.2","0.4","0.8","","","","","0.215808919","0.3153427244","0.1469344428","0.466199952","","","","","","","","76","L","3","","","76","main_expt"
"","bandit","156","671072","0.0-117.0-0.0","56768179","wem/bandit_either_2","A2PXJTMWGUE5DC","either","7","606","","","","","","","0","0","1","0.4402141775","","0.6","0.2","0.4","0.8","","","","","0.2312347408","0.3676911864","0.2152215887","0.4402141775","","","","","","","","76","L","3","","","77","main_expt"
"","bandit","157","673306","0.0-118.0-0.0","56768179","wem/bandit_either_2","A2PXJTMWGUE5DC","either","7","721","","","","","","","0","1","0","","0.4525957793","0.6","0.2","0.4","0.8","0.2197025874","0.3434277392","0.2055177618","0.4525957793","","","","","","","","","","","","76","L","3","","","78","main_expt"
"","bandit","158","675682","0.0-119.0-0.0","56768179","wem/bandit_either_2","A2PXJTMWGUE5DC","either","7","853","","","","","","","0","0","1","0.4630799716","","0.6","0.2","0.4","0.8","","","","","0.2227420924","0.3758616161","0.222262525","0.4630799716","","","","","","","","76","L","3","","","79","main_expt"
"","bandit","159","677714","0.0-120.0-0.0","56768179","wem/bandit_either_2","A2PXJTMWGUE5DC","either","7","517","","","","","","","0","0","1","0.423693353","","0.6","0.2","0.4","0.8","","","","","0.2283057493","0.3862393514","0.2700860438","0.423693353","","","","","","","","76","L","3","","","80","main_expt"
"","bandit","160","680113","0.0-121.0-0.0","56768179","wem/bandit_either_2","A2PXJTMWGUE5DC","either","7","883","","","","","","","0","0","1","0.2642688004","","0.6","0.2","0.4","0.8","","","","","0.2721525977","0.3593770893","0.2642688004","0.4319112677","","","","","","","","75","K","2","","","81","main_expt"
"","bandit","161","682122","0.0-122.0-0.0","56768179","wem/bandit_either_2","A2PXJTMWGUE5DC","either","7","495","","","","","","","0","1","0","","0.2824164754","0.6","0.2","0.4","0.8","0.2850237184","0.4035110645","0.2824164754","0.441827487","","","","","","","","","","","","75","K","2","","","82","main_expt"
"","bandit","162","684282","0.0-123.0-0.0","56768179","wem/bandit_either_2","A2PXJTMWGUE5DC","either","7","646","","","","","","","0","1","0","","0.2819095575","0.6","0.2","0.4","0.8","0.3236436683","0.3719627038","0.2819095575","0.4288861504","","","","","","","","","","","","75","K","2","","","83","main_expt"
"","bandit","163","686498","0.0-124.0-0.0","56768179","wem/bandit_either_2","A2PXJTMWGUE5DC","either","7","701","","","","","","","0","0","1","0.2589745902","","0.6","0.2","0.4","0.8","","","","","0.3339638593","0.3349288927","0.2589745902","0.4350385517","","","","","","","","75","K","2","","","84","main_expt"
"","bandit","164","688496","0.0-125.0-0.0","56768179","wem/bandit_either_2","A2PXJTMWGUE5DC","either","7","484","","","","","","","0","1","0","","0.3626504113","0.6","0.2","0.4","0.8","0.3795022601","0.3247899262","0.3626504113","0.4255505645","","","","","","","","","","","","75","K","2","","","85","main_expt"
"","bandit","165","690785","0.0-126.0-0.0","56768179","wem/bandit_either_2","A2PXJTMWGUE5DC","either","7","776","","","","","","","0","0","1","","0.3598915268","0.6","0.2","0.4","0.8","0.3835523064","0.3443557019","0.3598915268","0.4330938692","","","","","","","","","","","","75","K","2","","","86","main_expt"
"","bandit","166","692991","0.0-127.0-0.0","56768179","wem/bandit_either_2","A2PXJTMWGUE5DC","either","7","692","","","","","","","0","0","1","","0.3433052933","0.6","0.2","0.4","0.8","0.3772514457","0.3648776167","0.3433052933","0.4548398529","","","","","","","","","","","","75","K","2","","","87","main_expt"
"","bandit","167","695172","0.0-128.0-0.0","56768179","wem/bandit_either_2","A2PXJTMWGUE5DC","either","7","665","","","","","","","0","0","1","0.4022938878","","0.6","0.2","0.4","0.8","","","","","0.3766830519","0.3609631839","0.4022938878","0.4493124031","","","","","","","","75","K","2","","","88","main_expt"
"","bandit","168","697226","0.0-129.0-0.0","56768179","wem/bandit_either_2","A2PXJTMWGUE5DC","either","7","535","","","","","","","0","0","1","","0.3636167192","0.6","0.2","0.4","0.8","0.3537755119","0.3636167192","0.4141493151","0.4161110063","","","","","","","","","","","","74","J","1","","","89","main_expt"
"","bandit","169","699232","0.0-130.0-0.0","56768179","wem/bandit_either_2","A2PXJTMWGUE5DC","either","7","493","","","","","","","0","0","1","0.3563441379","","0.6","0.2","0.4","0.8","","","","","0.3014761449","0.3563441379","0.4136124289","0.405260856","","","","","","","","74","J","1","","","90","main_expt"
"","bandit","170","701368","0.0-131.0-0.0","56768179","wem/bandit_either_2","A2PXJTMWGUE5DC","either","7","628","","","","","","","0","0","1","","0.3389138503","0.6","0.2","0.4","0.8","0.2694038268","0.3389138503","0.4184852842","0.3827048226","","","","","","","","","","","","74","J","1","","","91","main_expt"
"","bandit","171","703409","0.0-132.0-0.0","56768179","wem/bandit_either_2","A2PXJTMWGUE5DC","either","7","526","","","","","","","1","0","0","0.2651536323","","0.6","0.2","0.4","0.8","","","","","0.2651536323","0.3263360165","0.4456808576","0.3552182969","","","","","","","","72","H","0","img/none_selected.jpg","","92","main_expt"
"","bandit","172","705441","0.0-133.0-0.0","56768179","wem/bandit_either_2","A2PXJTMWGUE5DC","either","7","520","","","","","","","0","0","1","","0.1997208586","0.6","0.2","0.4","0.8","0.1997208586","0.2844131911","0.4355219805","0.3286897504","","","","","","","","","","","","72","H","0","img/none_selected.jpg","","93","main_expt"
"","bandit","173","707544","0.0-134.0-0.0","56768179","wem/bandit_either_2","A2PXJTMWGUE5DC","either","7","590","","","","","","","0","0","1","0.2442555344","","0.6","0.2","0.4","0.8","","","","","0.2442555344","0.2978465223","0.4609821192","0.3422490236","","","","","","","","72","H","0","img/none_selected.jpg","","94","main_expt"
"","bandit","174","709705","0.0-135.0-0.0","56768179","wem/bandit_either_2","A2PXJTMWGUE5DC","either","7","648","","","","","","","0","0","1","0.2638839348","","0.6","0.2","0.4","0.8","","","","","0.2638839348","0.2638723705","0.4419374505","0.3160161054","","","","","","","","72","H","0","img/none_selected.jpg","","95","main_expt"
"","bandit","175","711953","0.0-136.0-0.0","56768179","wem/bandit_either_2","A2PXJTMWGUE5DC","either","7","735","","","","","","","0","0","1","","0.2945538732","0.6","0.2","0.4","0.8","0.2265245807","0.2276010735","0.39438674","0.2945538732","","","","","","","","","","","","76","L","3","","","96","main_expt"
"","bandit","176","714121","0.0-137.0-0.0","56768179","wem/bandit_either_2","A2PXJTMWGUE5DC","either","7","652","","","","","","","0","0","1","","0.1969189177","0.6","0.2","0.4","0.8","0.1969189177","0.2045446072","0.3617668419","0.393563827","","","","","","","","","","","","72","H","0","img/none_selected.jpg","","97","main_expt"
"","bandit","177","716226","0.0-138.0-0.0","56768179","wem/bandit_either_2","A2PXJTMWGUE5DC","either","7","593","","","","","","","0","0","1","0.4046254927","","0.6","0.2","0.4","0.8","","","","","0.1761144245","0.2436418828","0.3737913853","0.4046254927","","","","","","","","76","L","3","","","98","main_expt"
"","bandit","178","718433","0.0-139.0-0.0","56768179","wem/bandit_either_2","A2PXJTMWGUE5DC","either","7","694","","","","","","","0","0","1","","0.2473144087","0.6","0.2","0.4","0.8","0.1211630765","0.2473144087","0.4221129479","0.3659012549","","","","","","","","","","","","74","J","1","","","99","main_expt"
"","bandit","179","720385","0.0-140.0-0.0","56768179","wem/bandit_either_2","A2PXJTMWGUE5DC","either","7","436","","","","","","","0","1","0","","0.3857893684","0.6","0.2","0.4","0.8","0.1257326749","0.2707360286","0.3857893684","0.400368336","","","","","","","","","","","","75","K","2","","","100","main_expt"
"","bandit","180","722488","0.0-141.0-0.0","56768179","wem/bandit_either_2","A2PXJTMWGUE5DC","either","7","589","","","","","","","0","1","0","","0.3635527264","0.6","0.2","0.4","0.8","0.09975532208","0.3250409822","0.3635527264","0.4367931528","","","","","","","","","","","","75","K","2","","","101","main_expt"
"","bandit","181","724938","0.0-142.0-0.0","56768179","wem/bandit_either_2","A2PXJTMWGUE5DC","either","7","941","","","","","","","0","1","0","","0.3738375489","0.6","0.2","0.4","0.8","0.1127414424","0.3088580598","0.3738375489","0.4371155326","","","","","","","","","","","","75","K","2","","","102","main_expt"
"","bandit","182","727522","0.0-143.0-0.0","56768179","wem/bandit_either_2","A2PXJTMWGUE5DC","either","7","1069","","","","","","","0","0","1","0.3860163181","","0.6","0.2","0.4","0.8","","","","","0.1232600734","0.2901001995","0.3860163181","0.388648264","","","","","","","","75","K","2","","","103","main_expt"
"","bandit","183","729952","0.0-144.0-0.0","56768179","wem/bandit_either_2","A2PXJTMWGUE5DC","either","7","918","","","","","","","0","1","0","","0.390692362","0.6","0.2","0.4","0.8","0.08156843846","0.309645936","0.390692362","0.3718469433","","","","","","","","","","","","75","K","2","","","104","main_expt"
"","bandit","184","732338","0.0-145.0-0.0","56768179","wem/bandit_either_2","A2PXJTMWGUE5DC","either","7","870","","","","","","","0","0","1","","0.4139082553","0.6","0.2","0.4","0.8","0.08245659199","0.3386062745","0.4139082553","0.3920304628","","","","","","","","","","","","75","K","2","","","105","main_expt"
"","bandit","185","734337","0.0-146.0-0.0","56768179","wem/bandit_either_2","A2PXJTMWGUE5DC","either","7","484","","","","","","","0","0","1","0.3295275825","","0.6","0.2","0.4","0.8","","","","","0.1276639339","0.3827539061","0.3295275825","0.3733497125","","","","","","","","75","K","2","","","106","main_expt"
"","bandit","186","736619","0.0-147.0-0.0","56768179","wem/bandit_either_2","A2PXJTMWGUE5DC","either","7","767","","","","","","","0","0","1","","0.3499712774","0.6","0.2","0.4","0.8","0.1812689745","0.3401355396","0.3499712774","0.3878439861","","","","","","","","","","","","75","K","2","","","107","main_expt"
"","bandit","187","738602","0.0-148.0-0.0","56768179","wem/bandit_either_2","A2PXJTMWGUE5DC","either","7","468","","","","","","","0","1","0","","0.3258039352","0.6","0.2","0.4","0.8","0.2187982558","0.3258039352","0.2666891207","0.3529013302","","","","","","","","","","","","74","J","1","","","108","main_expt"
"","bandit","188","740896","0.0-149.0-0.0","56768179","wem/bandit_either_2","A2PXJTMWGUE5DC","either","7","779","","","","","","","0","0","1","","0.374919859","0.6","0.2","0.4","0.8","0.2201216928","0.374919859","0.2575067634","0.3457683734","","","","","","","","","","","","74","J","1","","","109","main_expt"
"","bandit","189","742992","0.0-150.0-0.0","56768179","wem/bandit_either_2","A2PXJTMWGUE5DC","either","7","583","","","","","","","1","0","0","0.3656186065","","0.6","0.2","0.4","0.8","","","","","0.1789817232","0.3656186065","0.2664913793","0.3316873257","","","","","","","","74","J","1","","","110","main_expt"
"","bandit","190","745752","0.0-151.0-0.0","56768179","wem/bandit_either_2","A2PXJTMWGUE5DC","either","7","1246","","","","","","","0","1","0","","0.3649701027","0.6","0.2","0.4","0.8","0.2404947452","0.3649701027","0.2233446911","0.3434945318","","","","","","","","","","","","74","J","1","","","111","main_expt"
"","bandit","191","747834","0.0-152.0-0.0","56768179","wem/bandit_either_2","A2PXJTMWGUE5DC","either","7","563","","","","","","","0","0","1","","0.3371716456","0.6","0.2","0.4","0.8","0.2959558532","0.3371716456","0.2170082082","0.2729480053","","","","","","","","","","","","74","J","1","","","112","main_expt"
"","bandit","192","750034","0.0-153.0-0.0","56768179","wem/bandit_either_2","A2PXJTMWGUE5DC","either","7","684","","","","","","","0","0","1","","0.2587224119","0.6","0.2","0.4","0.8","0.2966985553","0.2587224119","0.1912277411","0.2579672073","","","","","","","","","","","","74","J","1","","","113","main_expt"
"","bandit","193","752144","0.0-154.0-0.0","56768179","wem/bandit_either_2","A2PXJTMWGUE5DC","either","7","595","","","","","","","0","0","1","","0.3289730608","0.6","0.2","0.4","0.8","0.3289730608","0.2384324947","0.1691995451","0.24654084","","","","","","","","","","","","72","H","0","img/none_selected.jpg","","114","main_expt"
"","bandit","194","754097","0.0-155.0-0.0","56768179","wem/bandit_either_2","A2PXJTMWGUE5DC","either","7","436","","","","","","","1","0","0","0.2705755989","","0.6","0.2","0.4","0.8","","","","","0.2783705844","0.2705755989","0.1263730162","0.246649757","","","","","","","","74","J","1","","","115","main_expt"
"","bandit","195","756279","0.0-156.0-0.0","56768179","wem/bandit_either_2","A2PXJTMWGUE5DC","either","7","668","","","","","","","0","0","1","","0.2666822","0.6","0.2","0.4","0.8","0.2990421824","0.2666822","0.1130092975","0.2190482835","","","","","","","","","","","","74","J","1","","","116","main_expt"
"","bandit","196","758634","0.0-157.0-0.0","56768179","wem/bandit_either_2","A2PXJTMWGUE5DC","either","7","837","","","","","","","0","0","1","","0.2664749026","0.6","0.2","0.4","0.8","0.3214730448","0.2664749026","0.1317362661","0.1860086181","","","","","","","","","","","","74","J","1","","","117","main_expt"
"","bandit","197","760658","0.0-158.0-0.0","56768179","wem/bandit_either_2","A2PXJTMWGUE5DC","either","7","508","","","","","","","0","1","0","","0.3996160597","0.6","0.2","0.4","0.8","0.3996160597","0.285497096","0.08460291254","0.1765749983","","","","","","","","","","","","72","H","0","img/none_selected.jpg","","118","main_expt"
"","bandit","198","762784","0.0-159.0-0.0","56768179","wem/bandit_either_2","A2PXJTMWGUE5DC","either","7","613","","","","","","","1","0","0","0.4143362638","","0.6","0.2","0.4","0.8","","","","","0.4143362638","0.3004427434","0.09168363065","0.1840588368","","","","","","","","72","H","0","img/none_selected.jpg","","119","main_expt"
"","bandit","199","764977","0.0-160.0-0.0","56768179","wem/bandit_either_2","A2PXJTMWGUE5DC","either","7","683","","","","","","","0","0","1","0.372340151","","0.6","0.2","0.4","0.8","","","","","0.372340151","0.2419855731","0.06729372802","0.1988357929","","","","","","","","72","H","0","img/none_selected.jpg","","120","main_expt"
"","bandit","200","767935","0.0-161.0-0.0","56768179","wem/bandit_either_2","A2PXJTMWGUE5DC","either","7","1443","","","","","","","1","0","0","0.3910424524","","0.6","0.2","0.4","0.8","","","","","0.3910424524","0.3054132847","0.08346408207","0.2315674","","","","","","","","72","H","0","img/none_selected.jpg","","121","main_expt"
"","bandit","201","770233","0.0-162.0-0.0","56768179","wem/bandit_either_2","A2PXJTMWGUE5DC","either","7","789","","","","","","","1","0","0","0.3813410711","","0.6","0.2","0.4","0.8","","","","","0.3813410711","0.2473202095","0.05632743158","0.2041322171","","","","","","","","72","H","0","img/none_selected.jpg","","122","main_expt"
"","bandit","202","772353","0.0-163.0-0.0","56768179","wem/bandit_either_2","A2PXJTMWGUE5DC","either","7","605","","","","","","","0","0","1","0.4247291795","","0.6","0.2","0.4","0.8","","","","","0.4247291795","0.2909195989","0.05516745574","0.1945268209","","","","","","","","72","H","0","img/none_selected.jpg","","123","main_expt"
"","bandit","203","774585","0.0-164.0-0.0","56768179","wem/bandit_either_2","A2PXJTMWGUE5DC","either","7","718","","","","","","","1","0","0","0.4311179713","","0.6","0.2","0.4","0.8","","","","","0.4311179713","0.3493750294","0.05528311039","0.2206749142","","","","","","","","72","H","0","img/none_selected.jpg","","124","main_expt"
"","bandit","204","776905","0.0-165.0-0.0","56768179","wem/bandit_either_2","A2PXJTMWGUE5DC","either","7","804","","","","","","","1","0","0","0.4085782939","","0.6","0.2","0.4","0.8","","","","","0.4085782939","0.3883668019","0.07149807259","0.212012295","","","","","","","","72","H","0","img/none_selected.jpg","","125","main_expt"
"","bandit","205","779057","0.0-166.0-0.0","56768179","wem/bandit_either_2","A2PXJTMWGUE5DC","either","7","638","","","","","","","0","0","1","","0.4110861309","0.6","0.2","0.4","0.8","0.4110861309","0.3888129637","0.1137803622","0.1656684785","","","","","","","","","","","","72","H","0","img/none_selected.jpg","","126","main_expt"
"","bandit","206","781314","0.0-167.0-0.0","56768179","wem/bandit_either_2","A2PXJTMWGUE5DC","either","7","742","","","","","","","0","0","1","","0.4214671818","0.6","0.2","0.4","0.8","0.4214671818","0.3659195129","0.1003054442","0.1685301808","","","","","","","","","","","","72","H","0","img/none_selected.jpg","","127","main_expt"
"","bandit","207","783769","0.0-168.0-0.0","56768179","wem/bandit_either_2","A2PXJTMWGUE5DC","either","7","938","","","","","","","0","0","1","0.1378169536","","0.6","0.2","0.4","0.8","","","","","0.36889317","0.3689954399","0.1378169536","0.1703551811","","","","","","","","75","K","2","","","128","main_expt"
"","bandit","208","785705","0.0-169.0-0.0","56768179","wem/bandit_either_2","A2PXJTMWGUE5DC","either","7","418","","","","","","","0","0","1","","0.3600340942","0.6","0.2","0.4","0.8","0.3840267129","0.3600340942","0.1333081235","0.1624753709","","","","","","","","","","","","74","J","1","","","129","main_expt"
"","bandit","209","787713","0.0-170.0-0.0","56768179","wem/bandit_either_2","A2PXJTMWGUE5DC","either","7","494","","","","","","","0","0","1","","0.2335662737","0.6","0.2","0.4","0.8","0.3809677701","0.3580797835","0.1682212827","0.2335662737","","","","","","","","","","","","76","L","3","","","130","main_expt"
"","bandit","210","789777","0.0-171.0-0.0","56768179","wem/bandit_either_2","A2PXJTMWGUE5DC","either","7","544","","","","","","","0","0","1","0.2193829955","","0.6","0.2","0.4","0.8","","","","","0.3681933818","0.3785893338","0.2193829955","0.240441026","","","","","","","","75","K","2","","","131","main_expt"
"","bandit","211","791849","0.0-172.0-0.0","56768179","wem/bandit_either_2","A2PXJTMWGUE5DC","either","7","555","","","","","","","0","0","1","0.3764735404","","0.6","0.2","0.4","0.8","","","","","0.3664045944","0.3764735404","0.2693349046","0.2266699971","","","","","","","","74","J","1","","","132","main_expt"
"","bandit","212","793473","0.0-173.0-0.0","56768179","wem/bandit_either_2","A2PXJTMWGUE5DC","either","7","107","","","","","","","1","0","0","0.4046437197","","0.6","0.2","0.4","0.8","","","","","0.4046437197","0.3433534211","0.2576546077","0.1994193025","","","","","","","","72","H","0","img/none_selected.jpg","","133","main_expt"
"","bandit","213","795778","0.0-174.0-0.0","56768179","wem/bandit_either_2","A2PXJTMWGUE5DC","either","7","790","","","","","","","0","0","1","0.364490756","","0.6","0.2","0.4","0.8","","","","","0.364490756","0.3606247271","0.2412372273","0.1891464922","","","","","","","","72","H","0","img/none_selected.jpg","","134","main_expt"
"","bandit","214","797960","0.0-175.0-0.0","56768179","wem/bandit_either_2","A2PXJTMWGUE5DC","either","7","666","","","","","","","0","0","1","","0.3268624306","0.6","0.2","0.4","0.8","0.311914316","0.3268624306","0.2198641054","0.1614798668","","","","","","","","","","","","74","J","1","","","135","main_expt"
"","bandit","215","799976","0.0-176.0-0.0","56768179","wem/bandit_either_2","A2PXJTMWGUE5DC","either","7","507","","","","","","","0","0","1","0.2653901568","","0.6","0.2","0.4","0.8","","","","","0.2653901568","0.2854606769","0.2504132697","0.1880386222","","","","","","","","72","H","0","img/none_selected.jpg","","136","main_expt"
"","bandit","216","802144","0.0-177.0-0.0","56768179","wem/bandit_either_2","A2PXJTMWGUE5DC","either","7","659","","","","","","","0","0","1","0.1912230989","","0.6","0.2","0.4","0.8","","","","","0.2413295316","0.3311747399","0.1912230989","0.1961818793","","","","","","","","75","K","2","","","137","main_expt"
"","bandit","217","804313","0.0-178.0-0.0","56768179","wem/bandit_either_2","A2PXJTMWGUE5DC","either","7","651","","","","","","","0","0","1","0.2857678963","","0.6","0.2","0.4","0.8","","","","","0.2060295423","0.2570785188","0.1576256809","0.2857678963","","","","","","","","76","L","3","","","138","main_expt"
"","bandit","218","806276","0.0-179.0-0.0","56768179","wem/bandit_either_2","A2PXJTMWGUE5DC","either","7","445","","","","","","","0","0","1","0.3449131854","","0.6","0.2","0.4","0.8","","","","","0.1809645164","0.2858060749","0.1019788138","0.3449131854","","","","","","","","76","L","3","","","139","main_expt"
"","bandit","219","808225","0.0-180.0-0.0","56768179","wem/bandit_either_2","A2PXJTMWGUE5DC","either","7","432","","","","","","","0","0","1","","0.07754087054","0.6","0.2","0.4","0.8","0.1843216893","0.2975559752","0.07754087054","0.2537716732","","","","","","","","","","","","75","K","2","","","140","main_expt"
"","bandit","220","810256","0.0-181.0-0.0","56768179","wem/bandit_either_2","A2PXJTMWGUE5DC","either","7","514","","","","","","","0","0","1","","0.09489610577","0.6","0.2","0.4","0.8","0.1651876155","0.2802168405","0.09489610577","0.2858111263","","","","","","","","","","","","75","K","2","","","141","main_expt"
"","bandit","221","812295","0.0-182.0-0.0","56768179","wem/bandit_either_2","A2PXJTMWGUE5DC","either","7","523","","","","","","","0","1","0","","0.2231986748","0.6","0.2","0.4","0.8","0.1536427928","0.2231986748","0.09601428546","0.303049367","","","","","","","","","","","","74","J","1","","","142","main_expt"
"","bandit","222","814471","0.0-183.0-0.0","56768179","wem/bandit_either_2","A2PXJTMWGUE5DC","either","7","657","","","","","","","0","0","1","","0.2032880393","0.6","0.2","0.4","0.8","0.1546140226","0.2032880393","0.08301142993","0.2969419413","","","","","","","","","","","","74","J","1","","","143","main_expt"
"","bandit","223","816497","0.0-184.0-0.0","56768179","wem/bandit_either_2","A2PXJTMWGUE5DC","either","7","508","","","","","","","0","0","1","","0.1967741464","0.6","0.2","0.4","0.8","0.1746031107","0.1967741464","0.09599686985","0.3128690494","","","","","","","","","","","","74","J","1","","","144","main_expt"
"","bandit","224","818536","0.0-185.0-0.0","56768179","wem/bandit_either_2","A2PXJTMWGUE5DC","either","7","521","","","","","","","0","1","0","","0.2283154954","0.6","0.2","0.4","0.8","0.2021387556","0.2283154954","0.07499383622","0.2991796355","","","","","","","","","","","","74","J","1","","","145","main_expt"
"","bandit","225","820712","0.0-186.0-0.0","56768179","wem/bandit_either_2","A2PXJTMWGUE5DC","either","7","661","","","","","","","0","1","0","","0.2118700154","0.6","0.2","0.4","0.8","0.2504344391","0.2118700154","0.09566861","0.3163763193","","","","","","","","","","","","74","J","1","","","146","main_expt"
"","bandit","226","822793","0.0-187.0-0.0","56768179","wem/bandit_either_2","A2PXJTMWGUE5DC","either","7","570","","","","","","","0","0","1","","0.210437557","0.6","0.2","0.4","0.8","0.2437718569","0.210437557","0.08578591382","0.3198025905","","","","","","","","","","","","74","J","1","","","147","main_expt"
"","bandit","227","824888","0.0-188.0-0.0","56768179","wem/bandit_either_2","A2PXJTMWGUE5DC","either","7","578","","","","","","","0","1","0","","0.2370661354","0.6","0.2","0.4","0.8","0.2446677265","0.2370661354","0.1147887709","0.2588245921","","","","","","","","","","","","74","J","1","","","148","main_expt"
"","bandit","228","827129","0.0-189.0-0.0","56768179","wem/bandit_either_2","A2PXJTMWGUE5DC","either","7","726","","","","","","","0","0","1","","0.2430363771","0.6","0.2","0.4","0.8","0.2911002833","0.2430363771","0.1378203382","0.248712437","","","","","","","","","","","","74","J","1","","","149","main_expt"
"","bandit","229","829152","0.0-190.0-0.0","56768179","wem/bandit_either_2","A2PXJTMWGUE5DC","either","7","505","","","","","","","0","1","0","","0.2242182381","0.6","0.2","0.4","0.8","0.3529655025","0.2242182381","0.1414499273","0.179144869","","","","","","","","","","","","74","J","1","","","150","main_expt"
"","bandit","230","831351","0.0-191.0-0.0","56768179","wem/bandit_either_2","A2PXJTMWGUE5DC","either","7","685","","","","","","","0","0","1","0.1997145133","","0.6","0.2","0.4","0.8","","","","","0.3885741111","0.1997145133","0.07852348772","0.1545669956","","","","","","","","74","J","1","","","151","main_expt"
"","bandit","231","833463","0.0-192.0-0.0","56768179","wem/bandit_either_2","A2PXJTMWGUE5DC","either","7","596","","","","","","","0","0","1","0.2195927633","","0.6","0.2","0.4","0.8","","","","","0.3690499696","0.2195927633","0.08485793113","0.1651714415","","","","","","","","74","J","1","","","152","main_expt"
"","bandit","232","835471","0.0-193.0-0.0","56768179","wem/bandit_either_2","A2PXJTMWGUE5DC","either","7","491","","","","","","","0","0","1","0.3710492515","","0.6","0.2","0.4","0.8","","","","","0.3710492515","0.2121816628","0.1083789561","0.2396245514","","","","","","","","72","H","0","img/none_selected.jpg","","153","main_expt"
"","bandit","233","837458","0.0-194.0-0.0","56768179","wem/bandit_either_2","A2PXJTMWGUE5DC","either","7","467","","","","","","","0","0","1","","0.1830588608","0.6","0.2","0.4","0.8","0.3483335413","0.1830588608","0.109098481","0.2085838567","","","","","","","","","","","","74","J","1","","","154","main_expt"
"","bandit","234","839743","0.0-195.0-0.0","56768179","wem/bandit_either_2","A2PXJTMWGUE5DC","either","7","769","","","","","","","1","0","0","0.1864274254","","0.6","0.2","0.4","0.8","","","","","0.3343760247","0.2031423662","0.1758262092","0.1864274254","","","","","","","","76","L","3","","","155","main_expt"
"","bandit","235","841761","0.0-196.0-0.0","56768179","wem/bandit_either_2","A2PXJTMWGUE5DC","either","7","498","","","","","","","0","0","1","0.1750870897","","0.6","0.2","0.4","0.8","","","","","0.3742013553","0.2022731065","0.2046597001","0.1750870897","","","","","","","","76","L","3","","","156","main_expt"
"","bandit","236","844009","0.0-197.0-0.0","56768179","wem/bandit_either_2","A2PXJTMWGUE5DC","either","7","730","","","","","","","0","0","1","0.1321985386","","0.6","0.2","0.4","0.8","","","","","0.3620366094","0.1826661219","0.1774751899","0.1321985386","","","","","","","","76","L","3","","","157","main_expt"
"","bandit","237","846113","0.0-198.0-0.0","56768179","wem/bandit_either_2","A2PXJTMWGUE5DC","either","7","584","","","","","","","0","0","1","0.1341899746","","0.6","0.2","0.4","0.8","","","","","0.3671714071","0.1658993888","0.1612033886","0.1341899746","","","","","","","","76","L","3","","","158","main_expt"
"","bandit","238","848185","0.0-199.0-0.0","56768179","wem/bandit_either_2","A2PXJTMWGUE5DC","either","7","555","","","","","","","0","0","1","0.1586838935","","0.6","0.2","0.4","0.8","","","","","0.4015988616","0.1620079643","0.1586838935","0.1567784951","","","","","","","","75","K","2","","","159","main_expt"
"","bandit","239","850128","0.0-200.0-0.0","56768179","wem/bandit_either_2","A2PXJTMWGUE5DC","either","7","425","","","","","","","0","0","1","","0.2159944071","0.6","0.2","0.4","0.8","0.4004877553","0.2453635642","0.2159944071","0.1615549635","","","","","","","","","","","","75","K","2","","","160","main_expt"
"","bandit","240","852064","0.0-201.0-0.0","56768179","wem/bandit_either_2","A2PXJTMWGUE5DC","either","7","419","","","","","","","0","0","1","","0.2456373749","0.6","0.2","0.4","0.8","0.4095849454","0.2456373749","0.2105769377","0.1854631015","","","","","","","","","","","","74","J","1","","","161","main_expt"
"","bandit","241","854024","0.0-202.0-0.0","56768179","wem/bandit_either_2","A2PXJTMWGUE5DC","either","7","443","","","","","","","0","1","0","","0.2460125232","0.6","0.2","0.4","0.8","0.3978002783","0.2460125232","0.2006925765","0.21229469","","","","","","","","","","","","74","J","1","","","162","main_expt"
"","bandit","242","856103","0.0-203.0-0.0","56768179","wem/bandit_either_2","A2PXJTMWGUE5DC","either","7","563","","","","","","","0","0","1","","0.2013568893","0.6","0.2","0.4","0.8","0.4180552148","0.2013568893","0.2365124807","0.162194177","","","","","","","","","","","","74","J","1","","","163","main_expt"
"","bandit","243","858016","0.0-204.0-0.0","56768179","wem/bandit_either_2","A2PXJTMWGUE5DC","either","7","393","","","","","","","0","0","1","","0.1933595846","0.6","0.2","0.4","0.8","0.4407560021","0.1933595846","0.2157370886","0.1535707797","","","","","","","","","","","","74","J","1","","","164","main_expt"
"","bandit","244","860002","0.0-205.0-0.0","56768179","wem/bandit_either_2","A2PXJTMWGUE5DC","either","7","469","","","","","","","1","0","0","0.4582960521","","0.6","0.2","0.4","0.8","","","","","0.4582960521","0.167552211","0.2166787898","0.2315934193","","","","","","","","72","H","0","img/none_selected.jpg","","165","main_expt"
"","bandit","245","861960","0.0-206.0-0.0","56768179","wem/bandit_either_2","A2PXJTMWGUE5DC","either","7","438","","","","","","","0","1","0","","0.4337500892","0.6","0.2","0.4","0.8","0.4337500892","0.1311237951","0.1846262972","0.2579087381","","","","","","","","","","","","72","H","0","img/none_selected.jpg","","166","main_expt"
"","bandit","246","864105","0.0-207.0-0.0","56768179","wem/bandit_either_2","A2PXJTMWGUE5DC","either","7","626","","","","","","","1","0","0","0.4537582576","","0.6","0.2","0.4","0.8","","","","","0.4537582576","0.1714029316","0.1888750078","0.2496457694","","","","","","","","72","H","0","img/none_selected.jpg","","167","main_expt"
"","bandit","247","866384","0.0-208.0-0.0","56768179","wem/bandit_either_2","A2PXJTMWGUE5DC","either","7","760","","","","","","","0","0","1","0.4473485534","","0.6","0.2","0.4","0.8","","","","","0.4473485534","0.1494402723","0.2315683769","0.234558796","","","","","","","","72","H","0","img/none_selected.jpg","","168","main_expt"
"","bandit","248","868466","0.0-209.0-0.0","56768179","wem/bandit_either_2","A2PXJTMWGUE5DC","either","7","564","","","","","","","1","0","0","0.4471591033","","0.6","0.2","0.4","0.8","","","","","0.4471591033","0.1819888556","0.2018123945","0.2458600006","","","","","","","","72","H","0","img/none_selected.jpg","","169","main_expt"
"","bandit","249","870619","0.0-210.0-0.0","56768179","wem/bandit_either_2","A2PXJTMWGUE5DC","either","7","635","","","","","","","0","1","0","","0.4581839475","0.6","0.2","0.4","0.8","0.4581839475","0.2329206984","0.139238222","0.2214583157","","","","","","","","","","","","72","H","0","img/none_selected.jpg","","170","main_expt"
"","bandit","250","872687","0.0-211.0-0.0","56768179","wem/bandit_either_2","A2PXJTMWGUE5DC","either","7","550","","","","","","","0","0","1","0.4674995421","","0.6","0.2","0.4","0.8","","","","","0.4674995421","0.2000607923","0.1466511374","0.296208115","","","","","","","","72","H","0","img/none_selected.jpg","","171","main_expt"
"","bandit","251","874745","0.0-212.0-0.0","56768179","wem/bandit_either_2","A2PXJTMWGUE5DC","either","7","544","","","","","","","0","0","1","","0.4455620345","0.6","0.2","0.4","0.8","0.4455620345","0.2342957318","0.1348290388","0.3062379281","","","","","","","","","","","","72","H","0","img/none_selected.jpg","","172","main_expt"
"","bandit","252","876881","0.0-213.0-0.0","56768179","wem/bandit_either_2","A2PXJTMWGUE5DC","either","7","619","","","","","","","1","0","0","0.4471610379","","0.6","0.2","0.4","0.8","","","","","0.4471610379","0.2189308077","0.1521691919","0.2498067723","","","","","","","","72","H","0","img/none_selected.jpg","","173","main_expt"
"","bandit","253","879104","0.0-214.0-0.0","56768179","wem/bandit_either_2","A2PXJTMWGUE5DC","either","7","706","","","","","","","0","0","1","","0.4496576915","0.6","0.2","0.4","0.8","0.4496576915","0.2373932689","0.2191935525","0.1803522277","","","","","","","","","","","","72","H","0","img/none_selected.jpg","","174","main_expt"
"","bandit","254","881145","0.0-215.0-0.0","56768179","wem/bandit_either_2","A2PXJTMWGUE5DC","either","7","532","","","","","","","0","0","1","","0.4715297358","0.6","0.2","0.4","0.8","0.4715297358","0.2160264752","0.219961305","0.2014319342","","","","","","","","","","","","72","H","0","img/none_selected.jpg","","175","main_expt"
"","bandit","255","883263","0.0-216.0-0.0","56768179","wem/bandit_either_2","A2PXJTMWGUE5DC","either","7","602","","","","","","","0","0","1","0.477956151","","0.6","0.2","0.4","0.8","","","","","0.477956151","0.1990604306","0.1882485239","0.2122003168","","","","","","","","72","H","0","img/none_selected.jpg","","176","main_expt"
"","bandit","256","885185","0.0-217.0-0.0","56768179","wem/bandit_either_2","A2PXJTMWGUE5DC","either","7","413","","","","","","","0","0","1","","0.1729978196","0.6","0.2","0.4","0.8","0.4563721206","0.1729978196","0.1644902553","0.2629069455","","","","","","","","","","","","74","J","1","","","177","main_expt"
"","bandit","257","887209","0.0-218.0-0.0","56768179","wem/bandit_either_2","A2PXJTMWGUE5DC","either","7","503","","","","","","","0","0","1","","0.1633080779","0.6","0.2","0.4","0.8","0.4409869931","0.1633080779","0.1713669852","0.2336104206","","","","","","","","","","","","74","J","1","","","178","main_expt"
"","bandit","258","889218","0.0-219.0-0.0","56768179","wem/bandit_either_2","A2PXJTMWGUE5DC","either","7","488","","","","","","","0","1","0","","0.2263400462","0.6","0.2","0.4","0.8","0.4243126063","0.1243251356","0.2263400462","0.1887504226","","","","","","","","","","","","75","K","2","","","179","main_expt"
"","bandit","259","891384","0.0-220.0-0.0","56768179","wem/bandit_either_2","A2PXJTMWGUE5DC","either","7","649","","","","","","","0","0","1","","0.2036870175","0.6","0.2","0.4","0.8","0.4312830743","0.1150149055","0.2036870175","0.138376641","","","","","","","","","","","","75","K","2","","","180","main_expt"
"","bandit","260","893481","0.0-221.0-0.0","56768179","wem/bandit_either_2","A2PXJTMWGUE5DC","either","7","578","","","","","","","0","0","1","0.1934599198","","0.6","0.2","0.4","0.8","","","","","0.4433127893","0.1407924877","0.1934599198","0.1883992559","","","","","","","","75","K","2","","","181","main_expt"
"","bandit","261","895441","0.0-222.0-0.0","56768179","wem/bandit_either_2","A2PXJTMWGUE5DC","either","7","442","","","","","","","0","0","1","0.128889003","","0.6","0.2","0.4","0.8","","","","","0.440136403","0.09672650852","0.2424515525","0.128889003","","","","","","","","76","L","3","","","182","main_expt"
"","bandit","262","897378","0.0-223.0-0.0","56768179","wem/bandit_either_2","A2PXJTMWGUE5DC","either","7","419","","","","","","","0","0","1","0.1748769843","","0.6","0.2","0.4","0.8","","","","","0.4347693449","0.09888002855","0.1961777535","0.1748769843","","","","","","","","76","L","3","","","183","main_expt"
"","bandit","263","899561","0.0-224.0-0.0","56768179","wem/bandit_either_2","A2PXJTMWGUE5DC","either","7","663","","","","","","","0","0","1","","0.07200145298","0.6","0.2","0.4","0.8","0.4277130926","0.07200145298","0.1489283113","0.1945994373","","","","","","","","","","","","74","J","1","","","184","main_expt"
"","bandit","264","901596","0.0-225.0-0.0","56768179","wem/bandit_either_2","A2PXJTMWGUE5DC","either","7","514","","","","","","","0","0","1","","0.1499965078","0.6","0.2","0.4","0.8","0.3956248437","0.09476413333","0.1499965078","0.1644748654","","","","","","","","","","","","75","K","2","","","185","main_expt"
"","bandit","265","903586","0.0-226.0-0.0","56768179","wem/bandit_either_2","A2PXJTMWGUE5DC","either","7","469","","","","","","","0","1","0","","0.3748928266","0.6","0.2","0.4","0.8","0.3748928266","0.06556422103","0.2169832988","0.1504635592","","","","","","","","","","","","72","H","0","img/none_selected.jpg","","186","main_expt"
"","bandit","266","905673","0.0-227.0-0.0","56768179","wem/bandit_either_2","A2PXJTMWGUE5DC","either","7","569","","","","","","","0","0","1","0.3848139325","","0.6","0.2","0.4","0.8","","","","","0.3848139325","0.08901149072","0.2655186329","0.1760039214","","","","","","","","72","H","0","img/none_selected.jpg","","187","main_expt"
"","bandit","267","907649","0.0-228.0-0.0","56768179","wem/bandit_either_2","A2PXJTMWGUE5DC","either","7","455","","","","","","","0","1","0","","0.3990176401","0.6","0.2","0.4","0.8","0.3990176401","0.09471428588","0.2738785118","0.1203267588","","","","","","","","","","","","72","H","0","img/none_selected.jpg","","188","main_expt"
"","bandit","268","909873","0.0-229.0-0.0","56768179","wem/bandit_either_2","A2PXJTMWGUE5DC","either","7","701","","","","","","","0","0","1","","0.3581396838","0.6","0.2","0.4","0.8","0.3581396838","0.05118235823","0.3041874674","0.1171540391","","","","","","","","","","","","72","H","0","img/none_selected.jpg","","189","main_expt"
"","bandit","269","911971","0.0-230.0-0.0","56768179","wem/bandit_either_2","A2PXJTMWGUE5DC","either","7","577","","","","","","","0","0","1","0.2882972244","","0.6","0.2","0.4","0.8","","","","","0.2882972244","0.05788318751","0.3229453735","0.1535230761","","","","","","","","72","H","0","img/none_selected.jpg","","190","main_expt"
"","bandit","270","914697","0.0-231.0-0.0","56768179","wem/bandit_either_2","A2PXJTMWGUE5DC","either","7","1208","","","","","","","0","0","1","0.1372750947","","0.6","0.2","0.4","0.8","","","","","0.3145326233","0.08736915481","0.3818249757","0.1372750947","","","","","","","","76","L","3","","","191","main_expt"
"","bandit","271","916712","0.0-232.0-0.0","56768179","wem/bandit_either_2","A2PXJTMWGUE5DC","either","7","506","","","","","","","0","0","1","0.3270603702","","0.6","0.2","0.4","0.8","","","","","0.3270603702","0.08251019118","0.4157726243","0.1047771501","","","","","","","","72","H","0","img/none_selected.jpg","","192","main_expt"
"","bandit","272","918681","0.0-233.0-0.0","56768179","wem/bandit_either_2","A2PXJTMWGUE5DC","either","7","452","","","","","","","0","0","1","","0.06897628064","0.6","0.2","0.4","0.8","0.3604030797","0.06897628064","0.4611608212","0.1100845432","","","","","","","","","","","","74","J","1","","","193","main_expt"
"","bandit","273","920688","0.0-234.0-0.0","56768179","wem/bandit_either_2","A2PXJTMWGUE5DC","either","7","490","","","","","","","0","0","1","","0.4508818777","0.6","0.2","0.4","0.8","0.357423186","0.06801266305","0.4508818777","0.1468163818","","","","","","","","","","","","75","K","2","","","194","main_expt"
"","bandit","274","922394","0.0-235.0-0.0","56768179","wem/bandit_either_2","A2PXJTMWGUE5DC","either","7","186","","","","","","","0","0","1","0.3697779856","","0.6","0.2","0.4","0.8","","","","","0.3697779856","0.09923709358","0.4278921451","0.1495594621","","","","","","","","72","H","0","img/none_selected.jpg","","195","main_expt"
"","bandit","275","924299","0.0-236.0-0.0","56768179","wem/bandit_either_2","A2PXJTMWGUE5DC","either","7","383","","","","","","","0","0","1","","0.1103063831","0.6","0.2","0.4","0.8","0.3617177512","0.1103063831","0.4256293003","0.2263220537","","","","","","","","","","","","74","J","1","","","196","main_expt"
"","bandit","276","926040","0.0-237.0-0.0","56768179","wem/bandit_either_2","A2PXJTMWGUE5DC","either","7","221","","","","","","","1","0","0","0.3775990084","","0.6","0.2","0.4","0.8","","","","","0.3775990084","0.07377144043","0.4476975038","0.2204718804","","","","","","","","72","H","0","img/none_selected.jpg","","197","main_expt"
"","bandit","277","928064","0.0-238.0-0.0","56768179","wem/bandit_either_2","A2PXJTMWGUE5DC","either","7","505","","","","","","","0","0","1","","0.4144042571","0.6","0.2","0.4","0.8","0.4144042571","0.08863448313","0.4434357272","0.2401118457","","","","","","","","","","","","72","H","0","img/none_selected.jpg","","198","main_expt"
"","bandit","278","930728","0.0-239.0-0.0","56768179","wem/bandit_either_2","A2PXJTMWGUE5DC","either","7","1148","","","","","","","0","0","1","0.4081775392","","0.6","0.2","0.4","0.8","","","","","0.4081775392","0.1082179128","0.4245114622","0.2673724497","","","","","","","","72","H","0","img/none_selected.jpg","","199","main_expt"
"","bandit","279","932706","0.0-240.0-0.0","56768179","wem/bandit_either_2","A2PXJTMWGUE5DC","either","7","456","","","","","","","1","0","0","0.4166156547","","0.6","0.2","0.4","0.8","","","","","0.4166156547","0.09350688576","0.4087100315","0.3125307902","","","","","","","","72","H","0","img/none_selected.jpg","","200","main_expt"
"","bandit","280","934905","0.0-241.0-0.0","56768179","wem/bandit_either_2","A2PXJTMWGUE5DC","either","7","679","","","","","","","0","0","1","0.4306537176","","0.6","0.2","0.4","0.8","","","","","0.4306537176","0.1036625099","0.4361521275","0.2914574258","","","","","","","","72","H","0","img/none_selected.jpg","","201","main_expt"
"","bandit","281","937241","0.0-242.0-0.0","56768179","wem/bandit_either_2","A2PXJTMWGUE5DC","either","7","816","","","","","","","0","0","1","","0.1216733889","0.6","0.2","0.4","0.8","0.449382563","0.1216733889","0.3332596158","0.2550600684","","","","","","","","","","","","74","J","1","","","202","main_expt"
"","bandit","282","939160","0.0-243.0-0.0","56768179","wem/bandit_either_2","A2PXJTMWGUE5DC","either","7","401","","","","","","","0","0","1","","0.3581848779","0.6","0.2","0.4","0.8","0.4506576586","0.120655788","0.3581848779","0.2769745997","","","","","","","","","","","","75","K","2","","","203","main_expt"
"","bandit","283","941153","0.0-244.0-0.0","56768179","wem/bandit_either_2","A2PXJTMWGUE5DC","either","7","468","","","","","","","0","0","1","0.2752990059","","0.6","0.2","0.4","0.8","","","","","0.454839243","0.1082970726","0.3597133043","0.2752990059","","","","","","","","76","L","3","","","204","main_expt"
"","bandit","284","943209","0.0-245.0-0.0","56768179","wem/bandit_either_2","A2PXJTMWGUE5DC","either","7","537","","","","","","","0","0","1","","0.4512889682","0.6","0.2","0.4","0.8","0.4512889682","0.09143681274","0.3630183988","0.2901512169","","","","","","","","","","","","72","H","0","img/none_selected.jpg","","205","main_expt"
"","bandit","285","945265","0.0-246.0-0.0","56768179","wem/bandit_either_2","A2PXJTMWGUE5DC","either","7","535","","","","","","","0","0","1","0.4591490044","","0.6","0.2","0.4","0.8","","","","","0.4591490044","0.08377413986","0.3737494834","0.2823763913","","","","","","","","72","H","0","img/none_selected.jpg","","206","main_expt"
"","bandit","286","947352","0.0-247.0-0.0","56768179","wem/bandit_either_2","A2PXJTMWGUE5DC","either","7","568","","","","","","","0","0","1","","0.1585073664","0.6","0.2","0.4","0.8","0.4650593633","0.1585073664","0.3668784438","0.2708062506","","","","","","","","","","","","74","J","1","","","207","main_expt"
"","bandit","287","949280","0.0-248.0-0.0","56768179","wem/bandit_either_2","A2PXJTMWGUE5DC","either","7","408","","","","","","","0","0","1","","0.162299901","0.6","0.2","0.4","0.8","0.4641513068","0.162299901","0.4045351895","0.2641553663","","","","","","","","","","","","74","J","1","","","208","main_expt"
"","bandit","288","951281","0.0-249.0-0.0","56768179","wem/bandit_either_2","A2PXJTMWGUE5DC","either","7","483","","","","","","","0","1","0","","0.4402386934","0.6","0.2","0.4","0.8","0.4567807332","0.1542266077","0.4402386934","0.2704675845","","","","","","","","","","","","75","K","2","","","209","main_expt"
"","bandit","289","953369","0.0-250.0-0.0","56768179","wem/bandit_either_2","A2PXJTMWGUE5DC","either","7","569","","","","","","","0","0","1","0.4483623408","","0.6","0.2","0.4","0.8","","","","","0.428253188","0.1890415559","0.4483623408","0.3420868926","","","","","","","","75","K","2","","","210","main_expt"
"","bandit","290","955424","0.0-251.0-0.0","56768179","wem/bandit_either_2","A2PXJTMWGUE5DC","either","7","535","","","","","","","0","0","1","0.4471415093","","0.6","0.2","0.4","0.8","","","","","0.410271385","0.1818133019","0.4471415093","0.3069688952","","","","","","","","75","K","2","","","211","main_expt"
"","bandit","291","957729","0.0-252.0-0.0","56768179","wem/bandit_either_2","A2PXJTMWGUE5DC","either","7","785","","","","","","","0","0","1","0.4374655127","","0.6","0.2","0.4","0.8","","","","","0.4065587724","0.1782747956","0.4374655127","0.3005379093","","","","","","","","75","K","2","","","212","main_expt"
"","bandit","292","960250","0.0-253.0-0.0","56768179","wem/bandit_either_2","A2PXJTMWGUE5DC","either","7","1001","","","","","","","0","0","1","","0.4007116542","0.6","0.2","0.4","0.8","0.4007116542","0.1935195711","0.4381457257","0.213882915","","","","","","","","","","","","72","H","0","img/none_selected.jpg","","213","main_expt"
"","bandit","293","962248","0.0-254.0-0.0","56768179","wem/bandit_either_2","A2PXJTMWGUE5DC","either","7","480","","","","","","","0","0","1","0.2138557204","","0.6","0.2","0.4","0.8","","","","","0.4246209323","0.2421176173","0.4643769008","0.2138557204","","","","","","","","76","L","3","","","214","main_expt"
"","bandit","294","964250","0.0-255.0-0.0","56768179","wem/bandit_either_2","A2PXJTMWGUE5DC","either","7","481","","","","","","","0","1","0","","0.4328812357","0.6","0.2","0.4","0.8","0.3993057066","0.2629876012","0.4328812357","0.2142566612","","","","","","","","","","","","75","K","2","","","215","main_expt"
"","bandit","295","966753","0.0-256.0-0.0","56768179","wem/bandit_either_2","A2PXJTMWGUE5DC","either","7","984","","","","","","","1","0","0","0.4064507999","","0.6","0.2","0.4","0.8","","","","","0.3987772474","0.2977714141","0.4064507999","0.1900351118","","","","","","","","75","K","2","","","216","main_expt"
"","bandit","296","969072","0.0-257.0-0.0","56768179","wem/bandit_either_2","A2PXJTMWGUE5DC","either","7","800","","","","","","","0","1","0","","0.4197961641","0.6","0.2","0.4","0.8","0.4101433534","0.3017601552","0.4197961641","0.2185169477","","","","","","","","","","","","75","K","2","","","217","main_expt"
"","bandit","297","971626","0.0-258.0-0.0","56768179","wem/bandit_either_2","A2PXJTMWGUE5DC","either","7","1032","","","","","","","0","0","1","0.4167397569","","0.6","0.2","0.4","0.8","","","","","0.4448029092","0.2888566207","0.4167397569","0.2240895604","","","","","","","","75","K","2","","","218","main_expt"
"","bandit","298","973731","0.0-259.0-0.0","56768179","wem/bandit_either_2","A2PXJTMWGUE5DC","either","7","584","","","","","","","0","0","1","","0.4250944588","0.6","0.2","0.4","0.8","0.4454766299","0.2844008008","0.4250944588","0.1990808675","","","","","","","","","","","","75","K","2","","","219","main_expt"
"","bandit","299","975979","0.0-260.0-0.0","56768179","wem/bandit_either_2","A2PXJTMWGUE5DC","either","7","729","","","","","","","0","1","0","","0.4173336587","0.6","0.2","0.4","0.8","0.4610997771","0.2225062479","0.4173336587","0.266602996","","","","","","","","","","","","75","K","2","","","220","main_expt"
"","bandit","300","978056","0.0-261.0-0.0","56768179","wem/bandit_either_2","A2PXJTMWGUE5DC","either","7","560","","","","","","","0","1","0","","0.3944711005","0.6","0.2","0.4","0.8","0.4642289789","0.2409900116","0.3944711005","0.2443661227","","","","","","","","","","","","75","K","2","","","221","main_expt"
"","bandit","301","980176","0.0-262.0-0.0","56768179","wem/bandit_either_2","A2PXJTMWGUE5DC","either","7","599","","","","","","","0","1","0","","0.3619306912","0.6","0.2","0.4","0.8","0.4641270597","0.1989678636","0.3619306912","0.2205922116","","","","","","","","","","","","75","K","2","","","222","main_expt"
"","bandit","302","982305","0.0-263.0-0.0","56768179","wem/bandit_either_2","A2PXJTMWGUE5DC","either","7","607","","","","","","","0","0","1","","0.4117842179","0.6","0.2","0.4","0.8","0.4697433819","0.1902867071","0.4117842179","0.1861223506","","","","","","","","","","","","75","K","2","","","223","main_expt"
"","bandit","303","984481","0.0-264.0-0.0","56768179","wem/bandit_either_2","A2PXJTMWGUE5DC","either","7","656","","","","","","","1","0","0","0.3965092367","","0.6","0.2","0.4","0.8","","","","","0.460898083","0.2076415522","0.3965092367","0.1668884863","","","","","","","","75","K","2","","","224","main_expt"
"","bandit","304","986921","0.0-265.0-0.0","56768179","wem/bandit_either_2","A2PXJTMWGUE5DC","either","7","916","","","","","","","0","1","0","","0.4084477862","0.6","0.2","0.4","0.8","0.4394890665","0.2393469174","0.4084477862","0.1481472712","","","","","","","","","","","","75","K","2","","","225","main_expt"
"","bandit","305","989097","0.0-266.0-0.0","56768179","wem/bandit_either_2","A2PXJTMWGUE5DC","either","7","655","","","","","","","0","1","0","","0.4104601526","0.6","0.2","0.4","0.8","0.4520955237","0.2425440376","0.4104601526","0.1140846591","","","","","","","","","","","","75","K","2","","","226","main_expt"
"","bandit","306","991160","0.0-267.0-0.0","56768179","wem/bandit_either_2","A2PXJTMWGUE5DC","either","7","543","","","","","","","1","0","0","0.3899733519","","0.6","0.2","0.4","0.8","","","","","0.4324220164","0.2365603363","0.3899733519","0.1074218354","","","","","","","","75","K","2","","","227","main_expt"
"","bandit","307","993312","0.0-268.0-0.0","56768179","wem/bandit_either_2","A2PXJTMWGUE5DC","either","7","633","","","","","","","0","0","1","","0.3796730737","0.6","0.2","0.4","0.8","0.4220482421","0.2127958296","0.3796730737","0.08065165665","","","","","","","","","","","","75","K","2","","","228","main_expt"
"","bandit","308","995544","0.0-269.0-0.0","56768179","wem/bandit_either_2","A2PXJTMWGUE5DC","either","7","711","","","","","","","0","1","0","","0.4046866514","0.6","0.2","0.4","0.8","0.3885749154","0.2207861463","0.4046866514","0.07774059362","","","","","","","","","","","","75","K","2","","","229","main_expt"
"","bandit","309","997689","0.0-270.0-0.0","56768179","wem/bandit_either_2","A2PXJTMWGUE5DC","either","7","624","","","","","","","1","0","0","0.3988793555","","0.6","0.2","0.4","0.8","","","","","0.4023755806","0.2589226453","0.3988793555","0.1109483114","","","","","","","","75","K","2","","","230","main_expt"
"","bandit","310","1000160","0.0-271.0-0.0","56768179","wem/bandit_either_2","A2PXJTMWGUE5DC","either","7","947","","","","","","","0","0","1","0.3981898202","","0.6","0.2","0.4","0.8","","","","","0.3768725222","0.2956158432","0.3981898202","0.05902300203","","","","","","","","75","K","2","","","231","main_expt"
"","bandit","311","1002424","0.0-272.0-0.0","56768179","wem/bandit_either_2","A2PXJTMWGUE5DC","either","7","743","","","","","","","0","1","0","","0.4411941832","0.6","0.2","0.4","0.8","0.3619917427","0.3202484073","0.4411941832","0.06675855664","","","","","","","","","","","","75","K","2","","","232","main_expt"
"","bandit","312","1004648","0.0-273.0-0.0","56768179","wem/bandit_either_2","A2PXJTMWGUE5DC","either","7","704","","","","","","","0","1","0","","0.42967461","0.6","0.2","0.4","0.8","0.3833578816","0.2933644042","0.42967461","0.06703699679","","","","","","","","","","","","75","K","2","","","233","main_expt"
"","bandit","313","1006711","0.0-274.0-0.0","56768179","wem/bandit_either_2","A2PXJTMWGUE5DC","either","7","542","","","","","","","0","0","1","","0.4242798354","0.6","0.2","0.4","0.8","0.3552131768","0.3106154811","0.4242798354","0.05331023031","","","","","","","","","","","","75","K","2","","","234","main_expt"
"","bandit","314","1008938","0.0-275.0-0.0","56768179","wem/bandit_either_2","A2PXJTMWGUE5DC","either","7","707","","","","","","","1","0","0","0.4617388459","","0.6","0.2","0.4","0.8","","","","","0.3135084543","0.3158990995","0.4617388459","0.05187545802","","","","","","","","75","K","2","","","235","main_expt"
"","bandit","315","1011280","0.0-276.0-0.0","56768179","wem/bandit_either_2","A2PXJTMWGUE5DC","either","7","820","","","","","","","1","0","0","0.4619510484","","0.6","0.2","0.4","0.8","","","","","0.244945467","0.3036927748","0.4619510484","0.06939909985","","","","","","","","75","K","2","","","236","main_expt"
"","bandit","316","1013335","0.0-277.0-0.0","56768179","wem/bandit_either_2","A2PXJTMWGUE5DC","either","7","534","","","","","","","0","1","0","","0.4482398789","0.6","0.2","0.4","0.8","0.1823839079","0.3491021326","0.4482398789","0.1210409879","","","","","","","","","","","","75","K","2","","","237","main_expt"
"","bandit","317","1015481","0.0-278.0-0.0","56768179","wem/bandit_either_2","A2PXJTMWGUE5DC","either","7","624","","","","","","","0","0","1","","0.4193969143","0.6","0.2","0.4","0.8","0.1685050226","0.3939254097","0.4193969143","0.1147840357","","","","","","","","","","","","75","K","2","","","238","main_expt"
"","bandit","318","1017552","0.0-279.0-0.0","56768179","wem/bandit_either_2","A2PXJTMWGUE5DC","either","7","548","","","","","","","0","0","1","","0.4203848948","0.6","0.2","0.4","0.8","0.1606472637","0.379108978","0.4203848948","0.1006463842","","","","","","","","","","","","75","K","2","","","239","main_expt"
"","bandit","319","1019730","0.0-280.0-0.0","56768179","wem/bandit_either_2","A2PXJTMWGUE5DC","either","7","654","","","","","","","0","0","1","","0.4489383263","0.6","0.2","0.4","0.8","0.1512795466","0.3876209848","0.4489383263","0.1008771133","","","","","","","","","","","","75","K","2","","","240","main_expt"
"","bandit","320","1021880","0.0-281.0-0.0","56768179","wem/bandit_either_2","A2PXJTMWGUE5DC","either","7","630","","","","","","","0","0","1","0.4636195567","","0.6","0.2","0.4","0.8","","","","","0.1916219391","0.3839625774","0.4636195567","0.09981833296","","","","","","","","75","K","2","","","241","main_expt"
"","bandit","321","1023873","0.0-282.0-0.0","56768179","wem/bandit_either_2","A2PXJTMWGUE5DC","either","7","470","","","","","","","1","0","0","0.3477958629","","0.6","0.2","0.4","0.8","","","","","0.1641013935","0.3477958629","0.4575307695","0.1171772993","","","","","","","","74","J","1","","","242","main_expt"
"","bandit","322","1025975","0.0-283.0-0.0","56768179","wem/bandit_either_2","A2PXJTMWGUE5DC","either","7","580","","","","","","","0","0","1","","0.3500658948","0.6","0.2","0.4","0.8","0.2064320789","0.3500658948","0.4449554393","0.1239984651","","","","","","","","","","","","74","J","1","","","243","main_expt"
"","bandit","323","1028040","0.0-284.0-0.0","56768179","wem/bandit_either_2","A2PXJTMWGUE5DC","either","7","546","","","","","","","0","0","1","","0.3452717574","0.6","0.2","0.4","0.8","0.2205496082","0.3452717574","0.4525763452","0.1126152289","","","","","","","","","","","","74","J","1","","","244","main_expt"
"","bandit","324","1030170","0.0-285.0-0.0","56768179","wem/bandit_either_2","A2PXJTMWGUE5DC","either","7","607","","","","","","","0","1","0","","0.3162288444","0.6","0.2","0.4","0.8","0.214276823","0.3162288444","0.4753838692","0.1524829061","","","","","","","","","","","","74","J","1","","","245","main_expt"
"","bandit","325","1032480","0.0-286.0-0.0","56768179","wem/bandit_either_2","A2PXJTMWGUE5DC","either","7","787","","","","","","","1","0","0","0.2894596967","","0.6","0.2","0.4","0.8","","","","","0.2084567316","0.2894596967","0.4623654582","0.1921750243","","","","","","","","74","J","1","","","246","main_expt"
