"consent","trial_type","trial_index","time_elapsed","internal_node_id","subjID","study","MID","cond","drift","rt","responses","key_press","expt_phase","like","value","connected","gems","bombs","no_reward","GemPrChosen","BombPrChosen","GainOverPainPr_0","GainOverPainPr_1","GainOverPainPr_2","GainOverPainPr_3","LosePr_0","LosePr_1","LosePr_2","LosePr_3","WinPr_0","WinPr_1","WinPr_2","WinPr_3","Q0","Q1","Q2","gender","age","ethnicity","target","respCharCode","respKey","respChoiceNum","respChoice","practice","trial_counter","trial_label"
"INL_behavioral_consent_30min_online.html","consent","0","11271","0.0-0.0","57525664","wem/bandit_either_2","A2EOOF9D135HQ1","either","7","","","","","","","","","","","","","","","","","","","","","","","","","","","","","","","","","","","","","",""
"","survey-text","1","19861","0.0-1.0","57525664","wem/bandit_either_2","A2EOOF9D135HQ1","either","7","7429","{""Q0"":""A2EOOF9D135HQ1""}","","","","","","","","","","","","","","","","","","","","","","","","","","","","","","","","","","","",""
"","text","2","244674","0.0-2.0","57525664","wem/bandit_either_2","A2EOOF9D135HQ1","either","7","223800","","32","","","","","","","","","","","","","","","","","","","","","","","","","","","","","","","","","","",""
"","text","3","258771","0.0-3.0","57525664","wem/bandit_either_2","A2EOOF9D135HQ1","either","7","14092","","32","","","","","","","","","","","","","","","","","","","","","","","","","","","","","","","","","","",""
"","text","4","726998","0.0-4.0","57525664","wem/bandit_either_2","A2EOOF9D135HQ1","either","7","468223","","32","","","","","","","","","","","","","","","","","","","","","","","","","","","","","","","","","","",""
"","text","5","921815","0.0-5.0","57525664","wem/bandit_either_2","A2EOOF9D135HQ1","either","7","194812","","32","","","","","","","","","","","","","","","","","","","","","","","","","","","","","","","","","","",""
"","text","6","960415","0.0-6.0","57525664","wem/bandit_either_2","A2EOOF9D135HQ1","either","7","38596","","32","","","","","","","","","","","","","","","","","","","","","","","","","","","","","","","","","","",""
"","text","7","976257","0.0-7.0","57525664","wem/bandit_either_2","A2EOOF9D135HQ1","either","7","15835","","32","","","","","","","","","","","","","","","","","","","","","","","","","","","","","","","","","","",""
"","text","8","984359","0.0-8.0","57525664","wem/bandit_either_2","A2EOOF9D135HQ1","either","7","8097","","32","","","","","","","","","","","","","","","","","","","","","","","","","","","","","","","","","","",""
"","identification","9","999792","0.0-9.0-0.0","57525664","wem/bandit_either_2","A2EOOF9D135HQ1","either","7","15375","","","","6","6","6","","","","","","","","","","","","","","","","","","","","","","","","the village of Zur","","","","","","",""
"","identification","10","1033357","0.0-9.0-1.0","57525664","wem/bandit_either_2","A2EOOF9D135HQ1","either","7","32522","","","","0","0","0","","","","","","","","","","","","","","","","","","","","","","","","the village of Nyx","","","","","","",""
"","text","11","1041902","0.0-10.0","57525664","wem/bandit_either_2","A2EOOF9D135HQ1","either","7","7514","","32","","","","","","","","","","","","","","","","","","","","","","","","","","","","","","","","","","",""
"","text","12","1049319","0.0-11.0","57525664","wem/bandit_either_2","A2EOOF9D135HQ1","either","7","7413","","32","","","","","","","","","","","","","","","","","","","","","","","","","","","","","","","","","","",""
"","text","13","1051757","0.0-12.0","57525664","wem/bandit_either_2","A2EOOF9D135HQ1","either","7","2435","","32","","","","","","","","","","","","","","","","","","","","","","","","","","","","","","","","","","",""
"","text","14","1057797","0.0-13.0","57525664","wem/bandit_either_2","A2EOOF9D135HQ1","either","7","6036","","32","","","","","","","","","","","","","","","","","","","","","","","","","","","","","","","","","","",""
"","bandit","15","1063991","0.0-14.0-0.0","57525664","wem/bandit_either_2","A2EOOF9D135HQ1","either","7","4669","","","","","","","0","0","1","0","0","","","","","0","","","","0","","","","","","","","","","","74","J","0","img/none_selected_demo.jpg","true","0",""
"","bandit","16","1068771","0.0-15.0-0.0","57525664","wem/bandit_either_2","A2EOOF9D135HQ1","either","7","3258","","","","","","","0","0","1","0","0","","","","","0","","","","0","","","","","","","","","","","75","K","0","img/none_selected_demo.jpg","true","0",""
"","text","17","1076773","0.0-16.0","57525664","wem/bandit_either_2","A2EOOF9D135HQ1","either","7","7999","","32","","","","","","","","","","","","","","","","","","","","","","","","","","","","","","","","","","",""
"","text","18","1105485","0.0-17.0","57525664","wem/bandit_either_2","A2EOOF9D135HQ1","either","7","28706","","32","","","","","","","","","","","","","","","","","","","","","","","","","","","","","","","","","","",""
"","text","19","1126761","0.0-18.0","57525664","wem/bandit_either_2","A2EOOF9D135HQ1","either","7","21267","","32","","","","","","","","","","","","","","","","","","","","","","","","","","","","","","","","","","",""
"","text","20","1130046","0.0-19.0","57525664","wem/bandit_either_2","A2EOOF9D135HQ1","either","7","3280","","32","","","","","","","","","","","","","","","","","","","","","","","","","","","","","","","","","","",""
"","bandit","21","1132929","0.0-20.0-0.0","57525664","wem/bandit_either_2","A2EOOF9D135HQ1","either","7","1275","","","","","","","0","0","1","0.8","","0.5","0.5","","","","","","","0.8","0.2","","","","","","","","","","74","J","0","img/none_selected_demo.jpg","true","0","80_20_practice"
"","bandit","22","1134732","0.0-20.0-1.0","57525664","wem/bandit_either_2","A2EOOF9D135HQ1","either","7","282","","","","","","","0","0","1","","0.8","0.5","0.5","","","0.8","0.2","","","","","","","","","","","","","","74","J","0","img/none_selected_demo.jpg","true","0","80_20_practice"
"","bandit","23","1136606","0.0-20.0-2.0","57525664","wem/bandit_either_2","A2EOOF9D135HQ1","either","7","340","","","","","","","0","0","1","0.8","","0.5","0.5","","","","","","","0.8","0.2","","","","","","","","","","74","J","0","img/none_selected_demo.jpg","true","0","80_20_practice"
"","bandit","24","1138537","0.0-20.0-3.0","57525664","wem/bandit_either_2","A2EOOF9D135HQ1","either","7","353","","","","","","","1","0","0","0.8","","0.5","0.5","","","","","","","0.8","0.2","","","","","","","","","","74","J","0","img/none_selected_demo.jpg","true","0","80_20_practice"
"","bandit","25","1140657","0.0-20.0-4.0","57525664","wem/bandit_either_2","A2EOOF9D135HQ1","either","7","597","","","","","","","0","0","1","","0.8","0.5","0.5","","","0.8","0.2","","","","","","","","","","","","","","74","J","0","img/none_selected_demo.jpg","true","0","80_20_practice"
"","bandit","26","1142674","0.0-20.0-5.0","57525664","wem/bandit_either_2","A2EOOF9D135HQ1","either","7","421","","","","","","","0","0","1","0.8","","0.5","0.5","","","","","","","0.8","0.2","","","","","","","","","","74","J","0","img/none_selected_demo.jpg","true","0","80_20_practice"
"","bandit","27","1144884","0.0-20.0-6.0","57525664","wem/bandit_either_2","A2EOOF9D135HQ1","either","7","321","","","","","","","1","0","0","0.8","","0.5","0.5","","","","","","","0.8","0.2","","","","","","","","","","74","J","0","img/none_selected_demo.jpg","true","0","80_20_practice"
"","bandit","28","1146912","0.0-20.0-7.0","57525664","wem/bandit_either_2","A2EOOF9D135HQ1","either","7","489","","","","","","","0","1","0","","0.8","0.5","0.5","","","0.8","0.2","","","","","","","","","","","","","","74","J","0","img/none_selected_demo.jpg","true","0","80_20_practice"
"","bandit","29","1149673","0.0-20.0-8.0","57525664","wem/bandit_either_2","A2EOOF9D135HQ1","either","7","1235","","","","","","","0","0","1","0.2","","0.5","0.5","","","","","","","0.8","0.2","","","","","","","","","","75","K","1","","true","0","80_20_practice"
"","bandit","30","1151484","0.0-20.0-9.0","57525664","wem/bandit_either_2","A2EOOF9D135HQ1","either","7","286","","","","","","","1","0","0","0.2","","0.5","0.5","","","","","","","0.8","0.2","","","","","","","","","","75","K","1","","true","0","80_20_practice"
"","bandit","31","1153323","0.0-20.0-10.0","57525664","wem/bandit_either_2","A2EOOF9D135HQ1","either","7","285","","","","","","","0","0","1","0.2","","0.5","0.5","","","","","","","0.8","0.2","","","","","","","","","","75","K","1","","true","0","80_20_practice"
"","bandit","32","1155106","0.0-20.0-11.0","57525664","wem/bandit_either_2","A2EOOF9D135HQ1","either","7","266","","","","","","","0","0","1","0.2","","0.5","0.5","","","","","","","0.8","0.2","","","","","","","","","","75","K","1","","true","0","80_20_practice"
"","bandit","33","1156995","0.0-20.0-12.0","57525664","wem/bandit_either_2","A2EOOF9D135HQ1","either","7","370","","","","","","","0","0","1","","0.2","0.5","0.5","","","0.8","0.2","","","","","","","","","","","","","","75","K","1","","true","0","80_20_practice"
"","bandit","34","1158824","0.0-20.0-13.0","57525664","wem/bandit_either_2","A2EOOF9D135HQ1","either","7","314","","","","","","","0","0","1","0.2","","0.5","0.5","","","","","","","0.8","0.2","","","","","","","","","","75","K","1","","true","0","80_20_practice"
"","bandit","35","1160714","0.0-20.0-14.0","57525664","wem/bandit_either_2","A2EOOF9D135HQ1","either","7","356","","","","","","","0","1","0","","0.2","0.5","0.5","","","0.8","0.2","","","","","","","","","","","","","","75","K","1","","true","0","80_20_practice"
"","bandit","36","1162452","0.0-20.0-15.0","57525664","wem/bandit_either_2","A2EOOF9D135HQ1","either","7","225","","","","","","","0","0","1","","0.2","0.5","0.5","","","0.8","0.2","","","","","","","","","","","","","","75","K","1","","true","0","80_20_practice"
"","bandit","37","1164486","0.0-20.0-16.0","57525664","wem/bandit_either_2","A2EOOF9D135HQ1","either","7","273","","","","","","","0","0","1","0.2","","0.5","0.5","","","","","","","0.8","0.2","","","","","","","","","","75","K","1","","true","0","80_20_practice"
"","bandit","38","1166215","0.0-20.0-17.0","57525664","wem/bandit_either_2","A2EOOF9D135HQ1","either","7","213","","","","","","","1","0","0","0.2","","0.5","0.5","","","","","","","0.8","0.2","","","","","","","","","","75","K","1","","true","0","80_20_practice"
"","bandit","39","1168018","0.0-20.0-18.0","57525664","wem/bandit_either_2","A2EOOF9D135HQ1","either","7","287","","","","","","","0","0","1","","0.2","0.5","0.5","","","0.8","0.2","","","","","","","","","","","","","","75","K","1","","true","0","80_20_practice"
"","bandit","40","1169721","0.0-20.0-19.0","57525664","wem/bandit_either_2","A2EOOF9D135HQ1","either","7","187","","","","","","","0","0","1","0.2","","0.5","0.5","","","","","","","0.8","0.2","","","","","","","","","","75","K","1","","true","0","80_20_practice"
"","text","41","1179103","0.0-21.0","57525664","wem/bandit_either_2","A2EOOF9D135HQ1","either","7","9376","","32","","","","","","","","","","","","","","","","","","","","","","","","","","","","","","","","","","",""
"","bandit","42","1183698","0.0-22.0-0.0","57525664","wem/bandit_either_2","A2EOOF9D135HQ1","either","7","3076","","","","","","","0","1","0","0","1","","","","","0","1","","","1","0","","","","","","","","","","75","K","1","","true","0",""
"","text","43","1197318","0.0-23.0","57525664","wem/bandit_either_2","A2EOOF9D135HQ1","either","7","13616","","32","","","","","","","","","","","","","","","","","","","","","","","","","","","","","","","","","","",""
"","text","44","1201326","0.0-24.0","57525664","wem/bandit_either_2","A2EOOF9D135HQ1","either","7","4001","","32","","","","","","","","","","","","","","","","","","","","","","","","","","","","","","","","","","",""
"","text","45","1207347","0.0-25.0","57525664","wem/bandit_either_2","A2EOOF9D135HQ1","either","7","6018","","32","","","","","","","","","","","","","","","","","","","","","","","","","","","","","","","","","","",""
"","text","46","1220496","0.0-26.0","57525664","wem/bandit_either_2","A2EOOF9D135HQ1","either","7","13144","","32","","","","","","","","","","","","","","","","","","","","","","","","","","","","","","","","","","",""
"","text","47","1288231","0.0-27.0","57525664","wem/bandit_either_2","A2EOOF9D135HQ1","either","7","67726","","32","","","","","","","","","","","","","","","","","","","","","","","","","","","","","","","","","","",""
"","text","48","1294455","0.0-28.0","57525664","wem/bandit_either_2","A2EOOF9D135HQ1","either","7","6216","","32","","","","","","","","","","","","","","","","","","","","","","","","","","","","","","","","","","",""
"","text","49","1301974","0.0-29.0","57525664","wem/bandit_either_2","A2EOOF9D135HQ1","either","7","7509","","32","","","","","","","","","","","","","","","","","","","","","","","","","","","","","","","","","","",""
"","text","50","1308108","0.0-30.0","57525664","wem/bandit_either_2","A2EOOF9D135HQ1","either","7","6126","","32","","","","","","","","","","","","","","","","","","","","","","","","","","","","","","","","","","",""
"","text","51","1317054","0.0-31.0","57525664","wem/bandit_either_2","A2EOOF9D135HQ1","either","7","8941","","32","","","","","","","","","","","","","","","","","","","","","","","","","","","","","","","","","","",""
"","text","52","1320175","0.0-32.0","57525664","wem/bandit_either_2","A2EOOF9D135HQ1","either","7","3113","","32","","","","","","","","","","","","","","","","","","","","","","","","","","","","","","","","","","",""
"","text","53","1323640","0.0-33.0","57525664","wem/bandit_either_2","A2EOOF9D135HQ1","either","7","3461","","32","","","","","","","","","","","","","","","","","","","","","","","","","","","","","","","","","","",""
"","bandit","54","1326811","0.0-34.0-0.0","57525664","wem/bandit_either_2","A2EOOF9D135HQ1","either","7","1652","","","","","","","0","0","1","0.8","","0.5","0.5","0.5","0.5","","","","","0.8","0.2","0.6","0.2","","","","","","","","72","H","0","img/none_selected.jpg","true","0","full_practice"
"","bandit","55","1328637","0.0-34.0-1.0","57525664","wem/bandit_either_2","A2EOOF9D135HQ1","either","7","305","","","","","","","1","0","0","0.8","","0.5","0.5","0.5","0.5","","","","","0.8","0.2","0.6","0.2","","","","","","","","72","H","0","img/none_selected.jpg","true","0","full_practice"
"","bandit","56","1330491","0.0-34.0-2.0","57525664","wem/bandit_either_2","A2EOOF9D135HQ1","either","7","339","","","","","","","0","0","1","0.2","","0.5","0.5","0.5","0.5","","","","","0.8","0.2","0.6","0.2","","","","","","","","74","J","1","","true","0","full_practice"
"","bandit","57","1332322","0.0-34.0-3.0","57525664","wem/bandit_either_2","A2EOOF9D135HQ1","either","7","294","","","","","","","0","0","1","0.2","","0.5","0.5","0.5","0.5","","","","","0.8","0.2","0.6","0.2","","","","","","","","74","J","1","","true","0","full_practice"
"","bandit","58","1334199","0.0-34.0-4.0","57525664","wem/bandit_either_2","A2EOOF9D135HQ1","either","7","360","","","","","","","1","0","0","0.6","","0.5","0.5","0.5","0.5","","","","","0.8","0.2","0.6","0.2","","","","","","","","75","K","2","","true","0","full_practice"
"","bandit","59","1336027","0.0-34.0-5.0","57525664","wem/bandit_either_2","A2EOOF9D135HQ1","either","7","270","","","","","","","0","1","0","","0.6","0.5","0.5","0.5","0.5","0.8","0.2","0.6","0.2","","","","","","","","","","","","75","K","2","","true","0","full_practice"
"","bandit","60","1337847","0.0-34.0-6.0","57525664","wem/bandit_either_2","A2EOOF9D135HQ1","either","7","305","","","","","","","0","0","1","","0.2","0.5","0.5","0.5","0.5","0.8","0.2","0.6","0.2","","","","","","","","","","","","76","L","3","","true","0","full_practice"
"","bandit","61","1339665","0.0-34.0-7.0","57525664","wem/bandit_either_2","A2EOOF9D135HQ1","either","7","286","","","","","","","0","0","1","","0.2","0.5","0.5","0.5","0.5","0.8","0.2","0.6","0.2","","","","","","","","","","","","76","L","3","","true","0","full_practice"
"","bandit","62","1341362","0.0-34.0-8.0","57525664","wem/bandit_either_2","A2EOOF9D135HQ1","either","7","182","","","","","","","0","1","0","","0.8","0.5","0.5","0.5","0.5","0.8","0.2","0.6","0.2","","","","","","","","","","","","72","H","0","img/none_selected.jpg","true","0","full_practice"
"","bandit","63","1343429","0.0-34.0-9.0","57525664","wem/bandit_either_2","A2EOOF9D135HQ1","either","7","470","","","","","","","0","1","0","","0.8","0.5","0.5","0.5","0.5","0.8","0.2","0.6","0.2","","","","","","","","","","","","72","H","0","img/none_selected.jpg","true","0","full_practice"
"","bandit","64","1345614","0.0-34.0-10.0","57525664","wem/bandit_either_2","A2EOOF9D135HQ1","either","7","540","","","","","","","1","0","0","0.2","","0.5","0.5","0.5","0.5","","","","","0.8","0.2","0.6","0.2","","","","","","","","74","J","1","","true","0","full_practice"
"","bandit","65","1347934","0.0-34.0-11.0","57525664","wem/bandit_either_2","A2EOOF9D135HQ1","either","7","260","","","","","","","0","0","1","0.2","","0.5","0.5","0.5","0.5","","","","","0.8","0.2","0.6","0.2","","","","","","","","74","J","1","","true","0","full_practice"
"","bandit","66","1349743","0.0-34.0-12.0","57525664","wem/bandit_either_2","A2EOOF9D135HQ1","either","7","140","","","","","","","0","0","1","","0.6","0.5","0.5","0.5","0.5","0.8","0.2","0.6","0.2","","","","","","","","","","","","75","K","2","","true","0","full_practice"
"","bandit","67","1351441","0.0-34.0-13.0","57525664","wem/bandit_either_2","A2EOOF9D135HQ1","either","7","180","","","","","","","0","1","0","","0.6","0.5","0.5","0.5","0.5","0.8","0.2","0.6","0.2","","","","","","","","","","","","75","K","2","","true","0","full_practice"
"","bandit","68","1353250","0.0-34.0-14.0","57525664","wem/bandit_either_2","A2EOOF9D135HQ1","either","7","284","","","","","","","0","0","1","0.2","","0.5","0.5","0.5","0.5","","","","","0.8","0.2","0.6","0.2","","","","","","","","76","L","3","","true","0","full_practice"
"","bandit","69","1355455","0.0-34.0-15.0","57525664","wem/bandit_either_2","A2EOOF9D135HQ1","either","7","687","","","","","","","0","0","1","","0.2","0.5","0.5","0.5","0.5","0.8","0.2","0.6","0.2","","","","","","","","","","","","76","L","3","","true","0","full_practice"
"","bandit","70","1357150","0.0-34.0-16.0","57525664","wem/bandit_either_2","A2EOOF9D135HQ1","either","7","176","","","","","","","0","0","1","0.6","","0.5","0.5","0.5","0.5","","","","","0.8","0.2","0.6","0.2","","","","","","","","75","K","2","","true","0","full_practice"
"","bandit","71","1359110","0.0-34.0-17.0","57525664","wem/bandit_either_2","A2EOOF9D135HQ1","either","7","314","","","","","","","0","1","0","","0.6","0.5","0.5","0.5","0.5","0.8","0.2","0.6","0.2","","","","","","","","","","","","75","K","2","","true","0","full_practice"
"","bandit","72","1360961","0.0-34.0-18.0","57525664","wem/bandit_either_2","A2EOOF9D135HQ1","either","7","331","","","","","","","0","0","1","","0.2","0.5","0.5","0.5","0.5","0.8","0.2","0.6","0.2","","","","","","","","","","","","74","J","1","","true","0","full_practice"
"","bandit","73","1362755","0.0-34.0-19.0","57525664","wem/bandit_either_2","A2EOOF9D135HQ1","either","7","275","","","","","","","0","0","1","0.2","","0.5","0.5","0.5","0.5","","","","","0.8","0.2","0.6","0.2","","","","","","","","74","J","1","","true","0","full_practice"
"","text","74","1367804","0.0-35.0","57525664","wem/bandit_either_2","A2EOOF9D135HQ1","either","7","5030","","32","","","","","","","","","","","","","","","","","","","","","","","","","","","","","","","","","","",""
"","text","75","1387822","0.0-36.0","57525664","wem/bandit_either_2","A2EOOF9D135HQ1","either","7","18963","","32","","","","","","","","","","","","","","","","","","","","","","","","","","","","","","","","","","",""
"","text","76","1412089","0.0-37.0","57525664","wem/bandit_either_2","A2EOOF9D135HQ1","either","7","24257","","32","","","","","","","","","","","","","","","","","","","","","","","","","","","","","","","","","","",""
"","text","77","1425448","0.0-38.0","57525664","wem/bandit_either_2","A2EOOF9D135HQ1","either","7","13349","","32","","","","","","","","","","","","","","","","","","","","","","","","","","","","","","","","","","",""
"","text","78","1437182","0.0-39.0","57525664","wem/bandit_either_2","A2EOOF9D135HQ1","either","7","11719","","32","","","","","","","","","","","","","","","","","","","","","","","","","","","","","","","","","","",""
"","text","79","1448814","0.0-40.0","57525664","wem/bandit_either_2","A2EOOF9D135HQ1","either","7","11622","","32","","","","","","","","","","","","","","","","","","","","","","","","","","","","","","","","","","",""
"","bandit","80","1451681","0.0-41.0-0.0","57525664","wem/bandit_either_2","A2EOOF9D135HQ1","either","7","1247","","","","","","","0","0","1","0.01738065524","","0.2","0.8","0.6","0.4","","","","","0.01738065524","0.06530018083","0.1952616071","0.1480066451","","","","","","","","72","H","0","img/none_selected.jpg","","1","main_expt"
"","bandit","81","1453627","0.0-42.0-0.0","57525664","wem/bandit_either_2","A2EOOF9D135HQ1","either","7","376","","","","","","","0","0","1","0.0196943787","","0.2","0.8","0.6","0.4","","","","","0.0196943787","0.1011701763","0.1652234336","0.1053714073","","","","","","","","72","H","0","img/none_selected.jpg","","2","main_expt"
"","bandit","82","1455418","0.0-43.0-0.0","57525664","wem/bandit_either_2","A2EOOF9D135HQ1","either","7","274","","","","","","","0","0","1","0.09486719381","","0.2","0.8","0.6","0.4","","","","","0.01678573497","0.09486719381","0.1347382479","0.1460078221","","","","","","","","74","J","1","","","3","main_expt"
"","bandit","83","1457239","0.0-44.0-0.0","57525664","wem/bandit_either_2","A2EOOF9D135HQ1","either","7","305","","","","","","","0","0","1","0.06705802814","","0.2","0.8","0.6","0.4","","","","","0.02981965743","0.06705802814","0.1684625442","0.1866138214","","","","","","","","74","J","1","","","4","main_expt"
"","bandit","84","1459126","0.0-45.0-0.0","57525664","wem/bandit_either_2","A2EOOF9D135HQ1","either","7","367","","","","","","","0","0","1","","0.1792029032","0.2","0.8","0.6","0.4","0.02600208211","0.0822298525","0.1792029032","0.2445348717","","","","","","","","","","","","75","K","2","","","5","main_expt"
"","bandit","85","1460984","0.0-46.0-0.0","57525664","wem/bandit_either_2","A2EOOF9D135HQ1","either","7","301","","","","","","","0","0","1","0.2153873139","","0.2","0.8","0.6","0.4","","","","","0.02332436933","0.09162209411","0.2153873139","0.2546962146","","","","","","","","75","K","2","","","6","main_expt"
"","bandit","86","1462809","0.0-47.0-0.0","57525664","wem/bandit_either_2","A2EOOF9D135HQ1","either","7","272","","","","","","","0","0","1","0.2344841702","","0.2","0.8","0.6","0.4","","","","","0.02864040813","0.1028820098","0.1757762721","0.2344841702","","","","","","","","76","L","3","","","7","main_expt"
"","bandit","87","1464627","0.0-48.0-0.0","57525664","wem/bandit_either_2","A2EOOF9D135HQ1","either","7","295","","","","","","","0","0","1","","0.2473344203","0.2","0.8","0.6","0.4","0.02951264166","0.1532270122","0.2241229746","0.2473344203","","","","","","","","","","","","76","L","3","","","8","main_expt"
"","bandit","88","1466399","0.0-49.0-0.0","57525664","wem/bandit_either_2","A2EOOF9D135HQ1","either","7","252","","","","","","","0","1","0","","0.2642160399","0.2","0.8","0.6","0.4","0.02997011939","0.2131450397","0.2199426203","0.2642160399","","","","","","","","","","","","76","L","3","","","9","main_expt"
"","bandit","89","1468199","0.0-50.0-0.0","57525664","wem/bandit_either_2","A2EOOF9D135HQ1","either","7","281","","","","","","","0","0","1","","0.2104627424","0.2","0.8","0.6","0.4","0.02489651457","0.2985754635","0.1520686932","0.2104627424","","","","","","","","","","","","76","L","3","","","10","main_expt"
"","bandit","90","1470063","0.0-51.0-0.0","57525664","wem/bandit_either_2","A2EOOF9D135HQ1","either","7","343","","","","","","","0","0","1","","0.219372878","0.2","0.8","0.6","0.4","0.01651058827","0.2924640086","0.2013349999","0.219372878","","","","","","","","","","","","76","L","3","","","11","main_expt"
"","bandit","91","1472542","0.0-52.0-0.0","57525664","wem/bandit_either_2","A2EOOF9D135HQ1","either","7","937","","","","","","","0","1","0","","0.2156800105","0.2","0.8","0.6","0.4","0.02341729431","0.3264291113","0.2156800105","0.2105839871","","","","","","","","","","","","75","K","2","","","12","main_expt"
"","bandit","92","1474100","0.0-53.0-0.0","57525664","wem/bandit_either_2","A2EOOF9D135HQ1","either","7","0","","","","","","","1","0","0","0.1833947696","","0.2","0.8","0.6","0.4","","","","","0.0257410372","0.3254913314","0.1833947696","0.2511698571","","","","","","","","75","K","2","","","13","main_expt"
"","bandit","93","1475902","0.0-54.0-0.0","57525664","wem/bandit_either_2","A2EOOF9D135HQ1","either","7","286","","","","","","","0","0","1","","0.243643366","0.2","0.8","0.6","0.4","0.02570014082","0.3428504842","0.243643366","0.2158977649","","","","","","","","","","","","75","K","2","","","14","main_expt"
"","bandit","94","1477628","0.0-55.0-0.0","57525664","wem/bandit_either_2","A2EOOF9D135HQ1","either","7","187","","","","","","","0","0","1","0.2265365198","","0.2","0.8","0.6","0.4","","","","","0.04268316416","0.3244047679","0.2265365198","0.2762480727","","","","","","","","75","K","2","","","15","main_expt"
"","bandit","95","1479812","0.0-56.0-0.0","57525664","wem/bandit_either_2","A2EOOF9D135HQ1","either","7","657","","","","","","","1","0","0","0.2484951132","","0.2","0.8","0.6","0.4","","","","","0.04667408308","0.3025313629","0.2484951132","0.3202890724","","","","","","","","75","K","2","","","16","main_expt"
"","bandit","96","1481410","0.0-57.0-0.0","57525664","wem/bandit_either_2","A2EOOF9D135HQ1","either","7","28","","","","","","","0","0","1","0.2570267238","","0.2","0.8","0.6","0.4","","","","","0.0506688767","0.3291216938","0.2570267238","0.3680552247","","","","","","","","75","K","2","","","17","main_expt"
"","bandit","97","1485783","0.0-58.0-0.0","57525664","wem/bandit_either_2","A2EOOF9D135HQ1","either","7","1714","","","","","","","0","1","0","","0.287418789","0.2","0.8","0.6","0.4","0.02988526167","0.2987881532","0.287418789","0.3968593921","","","","","","","","","","","","75","K","2","","","18","main_expt"
"","bandit","98","1487822","0.0-59.0-0.0","57525664","wem/bandit_either_2","A2EOOF9D135HQ1","either","7","12","","","","","","","0","0","1","","0.2338710899","0.2","0.8","0.6","0.4","0.03476350355","0.281207523","0.2338710899","0.4192996399","","","","","","","","","","","","75","K","2","","","19","main_expt"
"","bandit","99","1490187","0.0-60.0-0.0","57525664","wem/bandit_either_2","A2EOOF9D135HQ1","either","7","790","","","","","","","0","0","1","0.2335293464","","0.2","0.8","0.6","0.4","","","","","0.0233687216","0.291129981","0.2335293464","0.4362768361","","","","","","","","75","K","2","","","20","main_expt"
"","bandit","100","1492526","0.0-61.0-0.0","57525664","wem/bandit_either_2","A2EOOF9D135HQ1","either","7","810","","","","","","","0","0","1","0.2729578326","","0.2","0.8","0.6","0.4","","","","","0.01272547494","0.2729578326","0.2434826965","0.4599691003","","","","","","","","74","J","1","","","21","main_expt"
"","bandit","101","1494429","0.0-62.0-0.0","57525664","wem/bandit_either_2","A2EOOF9D135HQ1","either","7","368","","","","","","","0","0","1","0.2805141014","","0.2","0.8","0.6","0.4","","","","","0.01739491555","0.2805141014","0.2702300591","0.44353765","","","","","","","","74","J","1","","","22","main_expt"
"","bandit","102","1496428","0.0-63.0-0.0","57525664","wem/bandit_either_2","A2EOOF9D135HQ1","either","7","450","","","","","","","0","0","1","0.3016389313","","0.2","0.8","0.6","0.4","","","","","0.006692102231","0.3016389313","0.2424740502","0.4105594395","","","","","","","","74","J","1","","","23","main_expt"
"","bandit","103","1498281","0.0-64.0-0.0","57525664","wem/bandit_either_2","A2EOOF9D135HQ1","either","7","332","","","","","","","0","0","1","","0.01209419849","0.2","0.8","0.6","0.4","0.01209419849","0.2475621169","0.1754503809","0.4243351486","","","","","","","","","","","","72","H","0","img/none_selected.jpg","","24","main_expt"
"","bandit","104","1500099","0.0-65.0-0.0","57525664","wem/bandit_either_2","A2EOOF9D135HQ1","either","7","296","","","","","","","0","0","1","","0.009734580702","0.2","0.8","0.6","0.4","0.009734580702","0.2607476102","0.2023019753","0.4172780312","","","","","","","","","","","","72","H","0","img/none_selected.jpg","","25","main_expt"
"","bandit","105","1502115","0.0-66.0-0.0","57525664","wem/bandit_either_2","A2EOOF9D135HQ1","either","7","327","","","","","","","0","0","1","0.008596148908","","0.2","0.8","0.6","0.4","","","","","0.008596148908","0.292589008","0.1887270612","0.3981062588","","","","","","","","72","H","0","img/none_selected.jpg","","26","main_expt"
"","bandit","106","1505501","0.0-67.0-0.0","57525664","wem/bandit_either_2","A2EOOF9D135HQ1","either","7","1830","","","","","","","0","0","1","0.2526986378","","0.2","0.8","0.6","0.4","","","","","0.01380650739","0.2978950393","0.2526986378","0.3889188119","","","","","","","","75","K","2","","","27","main_expt"
"","bandit","107","1507355","0.0-68.0-0.0","57525664","wem/bandit_either_2","A2EOOF9D135HQ1","either","7","327","","","","","","","0","0","1","","0.2536033627","0.2","0.8","0.6","0.4","0.01160852189","0.337392419","0.2536033627","0.3699095679","","","","","","","","","","","","75","K","2","","","28","main_expt"
"","bandit","108","1509178","0.0-69.0-0.0","57525664","wem/bandit_either_2","A2EOOF9D135HQ1","either","7","299","","","","","","","0","0","1","","0.258258936","0.2","0.8","0.6","0.4","0.02858314752","0.3830759015","0.258258936","0.4087832773","","","","","","","","","","","","75","K","2","","","29","main_expt"
"","bandit","109","1511067","0.0-70.0-0.0","57525664","wem/bandit_either_2","A2EOOF9D135HQ1","either","7","339","","","","","","","0","0","1","0.3152574144","","0.2","0.8","0.6","0.4","","","","","0.0265596094","0.3778881599","0.3152574144","0.4162513677","","","","","","","","75","K","2","","","30","main_expt"
"","bandit","110","1512844","0.0-71.0-0.0","57525664","wem/bandit_either_2","A2EOOF9D135HQ1","either","7","224","","","","","","","1","0","0","0.3508579725","","0.2","0.8","0.6","0.4","","","","","0.02828816112","0.3585458117","0.3508579725","0.43337534","","","","","","","","75","K","2","","","31","main_expt"
"","bandit","111","1514694","0.0-72.0-0.0","57525664","wem/bandit_either_2","A2EOOF9D135HQ1","either","7","329","","","","","","","0","0","1","0.3902021543","","0.2","0.8","0.6","0.4","","","","","0.03857304495","0.3511664436","0.3902021543","0.4399105216","","","","","","","","75","K","2","","","32","main_expt"
"","bandit","112","1516549","0.0-73.0-0.0","57525664","wem/bandit_either_2","A2EOOF9D135HQ1","either","7","254","","","","","","","1","0","0","0.4112626521","","0.2","0.8","0.6","0.4","","","","","0.02642959278","0.3924960189","0.4112626521","0.3859623535","","","","","","","","75","K","2","","","33","main_expt"
"","bandit","113","1518273","0.0-74.0-0.0","57525664","wem/bandit_either_2","A2EOOF9D135HQ1","either","7","206","","","","","","","0","0","1","","0.3912589523","0.2","0.8","0.6","0.4","0.06800028167","0.3713907517","0.3912589523","0.4231921331","","","","","","","","","","","","75","K","2","","","34","main_expt"
"","bandit","114","1520106","0.0-75.0-0.0","57525664","wem/bandit_either_2","A2EOOF9D135HQ1","either","7","312","","","","","","","1","0","0","0.3663646496","","0.2","0.8","0.6","0.4","","","","","0.05710280771","0.3929004689","0.3663646496","0.3950458867","","","","","","","","75","K","2","","","35","main_expt"
"","bandit","115","1522022","0.0-76.0-0.0","57525664","wem/bandit_either_2","A2EOOF9D135HQ1","either","7","357","","","","","","","0","0","1","","0.3045225128","0.2","0.8","0.6","0.4","0.07756943076","0.3820467604","0.3045225128","0.4005306787","","","","","","","","","","","","75","K","2","","","36","main_expt"
"","bandit","116","1523881","0.0-77.0-0.0","57525664","wem/bandit_either_2","A2EOOF9D135HQ1","either","7","342","","","","","","","0","0","1","","0.2806474599","0.2","0.8","0.6","0.4","0.06074629621","0.3948022939","0.2806474599","0.3972735937","","","","","","","","","","","","75","K","2","","","37","main_expt"
"","bandit","117","1525776","0.0-78.0-0.0","57525664","wem/bandit_either_2","A2EOOF9D135HQ1","either","7","370","","","","","","","0","1","0","","0.3558759705","0.2","0.8","0.6","0.4","0.07063042774","0.3769579019","0.3558759705","0.38339591","","","","","","","","","","","","75","K","2","","","38","main_expt"
"","bandit","118","1527661","0.0-79.0-0.0","57525664","wem/bandit_either_2","A2EOOF9D135HQ1","either","7","268","","","","","","","0","0","1","0.3194138052","","0.2","0.8","0.6","0.4","","","","","0.06209293178","0.4030344636","0.3194138052","0.3906354184","","","","","","","","75","K","2","","","39","main_expt"
"","bandit","119","1529533","0.0-80.0-0.0","57525664","wem/bandit_either_2","A2EOOF9D135HQ1","either","7","273","","","","","","","0","0","1","","0.3549086085","0.2","0.8","0.6","0.4","0.06952578958","0.3622335218","0.3549086085","0.3623676206","","","","","","","","","","","","75","K","2","","","40","main_expt"
"","bandit","120","1531842","0.0-81.0-0.0","57525664","wem/bandit_either_2","A2EOOF9D135HQ1","either","7","787","","","","","","","0","0","1","0.3873704927","","0.2","0.8","0.6","0.4","","","","","0.1291245709","0.3911596719","0.3452113815","0.3873704927","","","","","","","","76","L","3","","","41","main_expt"
"","bandit","121","1533860","0.0-82.0-0.0","57525664","wem/bandit_either_2","A2EOOF9D135HQ1","either","7","481","","","","","","","0","0","1","","0.359823116","0.2","0.8","0.6","0.4","0.1174523948","0.3921858285","0.3522960267","0.359823116","","","","","","","","","","","","76","L","3","","","42","main_expt"
"","bandit","122","1535653","0.0-83.0-0.0","57525664","wem/bandit_either_2","A2EOOF9D135HQ1","either","7","271","","","","","","","0","1","0","","0.3710191411","0.2","0.8","0.6","0.4","0.1201484523","0.3831213528","0.3093122096","0.3710191411","","","","","","","","","","","","76","L","3","","","43","main_expt"
"","bandit","123","1537195","0.0-84.0-0.0","57525664","wem/bandit_either_2","A2EOOF9D135HQ1","either","7","7","","","","","","","0","1","0","","0.3874065465","0.2","0.8","0.6","0.4","0.09958360536","0.3518708159","0.3026159556","0.3874065465","","","","","","","","","","","","76","L","3","","","44","main_expt"
"","bandit","124","1539018","0.0-85.0-0.0","57525664","wem/bandit_either_2","A2EOOF9D135HQ1","either","7","298","","","","","","","0","0","1","","0.3851533971","0.2","0.8","0.6","0.4","0.05173655998","0.3122870636","0.3336294247","0.3851533971","","","","","","","","","","","","76","L","3","","","45","main_expt"
"","bandit","125","1540624","0.0-86.0-0.0","57525664","wem/bandit_either_2","A2EOOF9D135HQ1","either","7","80","","","","","","","0","0","1","0.4055883719","","0.2","0.8","0.6","0.4","","","","","0.05945041096","0.2635721956","0.3400222736","0.4055883719","","","","","","","","76","L","3","","","46","main_expt"
"","bandit","126","1542480","0.0-87.0-0.0","57525664","wem/bandit_either_2","A2EOOF9D135HQ1","either","7","330","","","","","","","0","0","1","","0.3671593179","0.2","0.8","0.6","0.4","0.04375763727","0.2856785865","0.328707825","0.3671593179","","","","","","","","","","","","76","L","3","","","47","main_expt"
"","bandit","127","1544343","0.0-88.0-0.0","57525664","wem/bandit_either_2","A2EOOF9D135HQ1","either","7","344","","","","","","","0","0","1","","0.3198203038","0.2","0.8","0.6","0.4","0.0666370861","0.2649087478","0.3307690822","0.3198203038","","","","","","","","","","","","76","L","3","","","48","main_expt"
"","bandit","128","1546208","0.0-89.0-0.0","57525664","wem/bandit_either_2","A2EOOF9D135HQ1","either","7","346","","","","","","","0","0","1","","0.3111357295","0.2","0.8","0.6","0.4","0.08266213623","0.2462979357","0.3438067684","0.3111357295","","","","","","","","","","","","76","L","3","","","49","main_expt"
"","bandit","129","1548013","0.0-90.0-0.0","57525664","wem/bandit_either_2","A2EOOF9D135HQ1","either","7","265","","","","","","","0","0","1","0.2490076798","","0.2","0.8","0.6","0.4","","","","","0.08795051988","0.2490076798","0.4037002216","0.3196682981","","","","","","","","74","J","1","","","50","main_expt"
"","bandit","130","1549976","0.0-91.0-0.0","57525664","wem/bandit_either_2","A2EOOF9D135HQ1","either","7","398","","","","","","","0","0","1","0.305209751","","0.2","0.8","0.6","0.4","","","","","0.07533366945","0.305209751","0.3557518394","0.3088596379","","","","","","","","74","J","1","","","51","main_expt"
"","bandit","131","1552117","0.0-92.0-0.0","57525664","wem/bandit_either_2","A2EOOF9D135HQ1","either","7","609","","","","","","","1","0","0","0.3087204988","","0.2","0.8","0.6","0.4","","","","","0.06506638851","0.3087204988","0.3254324358","0.3060924957","","","","","","","","74","J","1","","","52","main_expt"
"","bandit","132","1554012","0.0-93.0-0.0","57525664","wem/bandit_either_2","A2EOOF9D135HQ1","either","7","326","","","","","","","0","0","1","0.2984188648","","0.2","0.8","0.6","0.4","","","","","0.06562792832","0.2984188648","0.2952150256","0.3229319808","","","","","","","","74","J","1","","","53","main_expt"
"","bandit","133","1555738","0.0-94.0-0.0","57525664","wem/bandit_either_2","A2EOOF9D135HQ1","either","7","196","","","","","","","0","0","1","","0.3353917468","0.2","0.8","0.6","0.4","0.04630081711","0.3353917468","0.300320608","0.3280138586","","","","","","","","","","","","74","J","1","","","54","main_expt"
"","bandit","134","1557546","0.0-95.0-0.0","57525664","wem/bandit_either_2","A2EOOF9D135HQ1","either","7","234","","","","","","","1","0","0","0.3259144651","","0.2","0.8","0.6","0.4","","","","","0.03868373719","0.3259144651","0.2985084879","0.2777260571","","","","","","","","74","J","1","","","55","main_expt"
"","bandit","135","1559424","0.0-96.0-0.0","57525664","wem/bandit_either_2","A2EOOF9D135HQ1","either","7","351","","","","","","","1","0","0","0.3259049121","","0.2","0.8","0.6","0.4","","","","","0.06235362297","0.3259049121","0.2607009345","0.1791004868","","","","","","","","74","J","1","","","56","main_expt"
"","bandit","136","1561329","0.0-97.0-0.0","57525664","wem/bandit_either_2","A2EOOF9D135HQ1","either","7","348","","","","","","","0","0","1","0.3687904078","","0.2","0.8","0.6","0.4","","","","","0.04639461243","0.3687904078","0.2565854794","0.2182265394","","","","","","","","74","J","1","","","57","main_expt"
"","bandit","137","1563020","0.0-98.0-0.0","57525664","wem/bandit_either_2","A2EOOF9D135HQ1","either","7","159","","","","","","","1","0","0","0.3422038875","","0.2","0.8","0.6","0.4","","","","","0.08954448139","0.3422038875","0.319121847","0.2970860181","","","","","","","","74","J","1","","","58","main_expt"
"","bandit","138","1564839","0.0-99.0-0.0","57525664","wem/bandit_either_2","A2EOOF9D135HQ1","either","7","298","","","","","","","0","0","1","0.3771421139","","0.2","0.8","0.6","0.4","","","","","0.07390342289","0.3771421139","0.3269923399","0.3249685468","","","","","","","","74","J","1","","","59","main_expt"
"","bandit","139","1566648","0.0-100.0-0.0","57525664","wem/bandit_either_2","A2EOOF9D135HQ1","either","7","277","","","","","","","0","0","1","0.3620124399","","0.2","0.8","0.6","0.4","","","","","0.05801548519","0.3620124399","0.3150968823","0.2931470039","","","","","","","","74","J","1","","","60","main_expt"
"","bandit","140","1568312","0.0-101.0-0.0","57525664","wem/bandit_either_2","A2EOOF9D135HQ1","either","7","124","","","","","","","0","0","1","0.3958116198","","0.2","0.8","0.6","0.4","","","","","0.07333263924","0.3958116198","0.324539239","0.2646536279","","","","","","","","74","J","1","","","61","main_expt"
"","bandit","141","1570321","0.0-102.0-0.0","57525664","wem/bandit_either_2","A2EOOF9D135HQ1","either","7","484","","","","","","","0","0","1","0.3615218546","","0.2","0.8","0.6","0.4","","","","","0.07563430262","0.3615218546","0.3066306166","0.242461968","","","","","","","","74","J","1","","","62","main_expt"
"","bandit","142","1572279","0.0-103.0-0.0","57525664","wem/bandit_either_2","A2EOOF9D135HQ1","either","7","440","","","","","","","0","0","1","0.3574266064","","0.2","0.8","0.6","0.4","","","","","0.06826526778","0.3574266064","0.3068900116","0.2206683029","","","","","","","","74","J","1","","","63","main_expt"
"","bandit","143","1574202","0.0-104.0-0.0","57525664","wem/bandit_either_2","A2EOOF9D135HQ1","either","7","399","","","","","","","0","0","1","0.3541915859","","0.2","0.8","0.6","0.4","","","","","0.1175271989","0.3541915859","0.2936494982","0.2288959862","","","","","","","","74","J","1","","","64","main_expt"
"","bandit","144","1576118","0.0-105.0-0.0","57525664","wem/bandit_either_2","A2EOOF9D135HQ1","either","7","385","","","","","","","0","0","1","0.3339820985","","0.2","0.8","0.6","0.4","","","","","0.1273865191","0.3339820985","0.290236101","0.2346523549","","","","","","","","74","J","1","","","65","main_expt"
"","bandit","145","1578001","0.0-106.0-0.0","57525664","wem/bandit_either_2","A2EOOF9D135HQ1","either","7","347","","","","","","","1","0","0","0.3195467083","","0.2","0.8","0.6","0.4","","","","","0.09075088943","0.3195467083","0.2512036594","0.1881688105","","","","","","","","74","J","1","","","66","main_expt"
"","bandit","146","1579874","0.0-107.0-0.0","57525664","wem/bandit_either_2","A2EOOF9D135HQ1","either","7","330","","","","","","","0","1","0","","0.3477383846","0.2","0.8","0.6","0.4","0.08077075725","0.3477383846","0.263747572","0.231043846","","","","","","","","","","","","74","J","1","","","67","main_expt"
"","bandit","147","1581734","0.0-108.0-0.0","57525664","wem/bandit_either_2","A2EOOF9D135HQ1","either","7","334","","","","","","","0","0","1","0.3365352069","","0.2","0.8","0.6","0.4","","","","","0.08810311296","0.3365352069","0.2892519303","0.2576664243","","","","","","","","74","J","1","","","68","main_expt"
"","bandit","148","1583490","0.0-109.0-0.0","57525664","wem/bandit_either_2","A2EOOF9D135HQ1","either","7","227","","","","","","","0","0","1","0.3148812039","","0.2","0.8","0.6","0.4","","","","","0.1260156682","0.3148812039","0.2383664846","0.2183283259","","","","","","","","74","J","1","","","69","main_expt"
"","bandit","149","1585396","0.0-110.0-0.0","57525664","wem/bandit_either_2","A2EOOF9D135HQ1","either","7","373","","","","","","","0","0","1","","0.3154014692","0.2","0.8","0.6","0.4","0.08773951932","0.3154014692","0.2497111545","0.2260484764","","","","","","","","","","","","74","J","1","","","70","main_expt"
"","bandit","150","1587282","0.0-111.0-0.0","57525664","wem/bandit_either_2","A2EOOF9D135HQ1","either","7","354","","","","","","","0","0","1","0.219815459","","0.2","0.8","0.6","0.4","","","","","0.1154304285","0.219815459","0.2095843002","0.3196469567","","","","","","","","74","J","1","","","71","main_expt"
"","bandit","151","1589683","0.0-112.0-0.0","57525664","wem/bandit_either_2","A2EOOF9D135HQ1","either","7","821","","","","","","","1","0","0","0.2623730272","","0.2","0.8","0.6","0.4","","","","","0.10097247","0.2623730272","0.1972488467","0.3644141189","","","","","","","","74","J","1","","","72","main_expt"
"","bandit","152","1591652","0.0-113.0-0.0","57525664","wem/bandit_either_2","A2EOOF9D135HQ1","either","7","302","","","","","","","0","0","1","0.2639805735","","0.2","0.8","0.6","0.4","","","","","0.0746930591","0.2639805735","0.15494396","0.4081842109","","","","","","","","74","J","1","","","73","main_expt"
"","bandit","153","1595689","0.0-114.0-0.0","57525664","wem/bandit_either_2","A2EOOF9D135HQ1","either","7","2490","","","","","","","1","0","0","0.2770925356","","0.2","0.8","0.6","0.4","","","","","0.1124392477","0.2770925356","0.1324790415","0.4506698749","","","","","","","","74","J","1","","","74","main_expt"
"","bandit","154","1598046","0.0-115.0-0.0","57525664","wem/bandit_either_2","A2EOOF9D135HQ1","either","7","788","","","","","","","0","0","1","0.2796652475","","0.2","0.8","0.6","0.4","","","","","0.113494578","0.2796652475","0.179195356","0.454520075","","","","","","","","74","J","1","","","75","main_expt"
"","bandit","155","1600520","0.0-116.0-0.0","57525664","wem/bandit_either_2","A2EOOF9D135HQ1","either","7","950","","","","","","","0","0","1","0.3153427244","","0.2","0.8","0.6","0.4","","","","","0.1469344428","0.3153427244","0.215808919","0.466199952","","","","","","","","74","J","1","","","76","main_expt"
"","bandit","156","1603012","0.0-117.0-0.0","57525664","wem/bandit_either_2","A2EOOF9D135HQ1","either","7","936","","","","","","","0","0","1","0.3676911864","","0.2","0.8","0.6","0.4","","","","","0.2152215887","0.3676911864","0.2312347408","0.4402141775","","","","","","","","74","J","1","","","77","main_expt"
"","bandit","157","1605145","0.0-118.0-0.0","57525664","wem/bandit_either_2","A2EOOF9D135HQ1","either","7","516","","","","","","","1","0","0","0.3434277392","","0.2","0.8","0.6","0.4","","","","","0.2055177618","0.3434277392","0.2197025874","0.4525957793","","","","","","","","74","J","1","","","78","main_expt"
"","bandit","158","1607570","0.0-119.0-0.0","57525664","wem/bandit_either_2","A2EOOF9D135HQ1","either","7","780","","","","","","","1","0","0","0.3758616161","","0.2","0.8","0.6","0.4","","","","","0.222262525","0.3758616161","0.2227420924","0.4630799716","","","","","","","","74","J","1","","","79","main_expt"
"","bandit","159","1609838","0.0-120.0-0.0","57525664","wem/bandit_either_2","A2EOOF9D135HQ1","either","7","675","","","","","","","0","1","0","","0.2700860438","0.2","0.8","0.6","0.4","0.2700860438","0.3862393514","0.2283057493","0.423693353","","","","","","","","","","","","72","H","0","img/none_selected.jpg","","80","main_expt"
"","bandit","160","1611902","0.0-121.0-0.0","57525664","wem/bandit_either_2","A2EOOF9D135HQ1","either","7","469","","","","","","","1","0","0","0.3593770893","","0.2","0.8","0.6","0.4","","","","","0.2642688004","0.3593770893","0.2721525977","0.4319112677","","","","","","","","74","J","1","","","81","main_expt"
"","bandit","161","1613710","0.0-122.0-0.0","57525664","wem/bandit_either_2","A2EOOF9D135HQ1","either","7","284","","","","","","","0","0","1","0.2824164754","","0.2","0.8","0.6","0.4","","","","","0.2824164754","0.4035110645","0.2850237184","0.441827487","","","","","","","","72","H","0","img/none_selected.jpg","","82","main_expt"
"","bandit","162","1615518","0.0-123.0-0.0","57525664","wem/bandit_either_2","A2EOOF9D135HQ1","either","7","265","","","","","","","1","0","0","0.3719627038","","0.2","0.8","0.6","0.4","","","","","0.2819095575","0.3719627038","0.3236436683","0.4288861504","","","","","","","","74","J","1","","","83","main_expt"
"","bandit","163","1617675","0.0-124.0-0.0","57525664","wem/bandit_either_2","A2EOOF9D135HQ1","either","7","562","","","","","","","0","0","1","","0.2589745902","0.2","0.8","0.6","0.4","0.2589745902","0.3349288927","0.3339638593","0.4350385517","","","","","","","","","","","","72","H","0","img/none_selected.jpg","","84","main_expt"
"","bandit","164","1619512","0.0-125.0-0.0","57525664","wem/bandit_either_2","A2EOOF9D135HQ1","either","7","301","","","","","","","0","0","1","","0.3247899262","0.2","0.8","0.6","0.4","0.3626504113","0.3247899262","0.3795022601","0.4255505645","","","","","","","","","","","","74","J","1","","","85","main_expt"
"","bandit","165","1622176","0.0-126.0-0.0","57525664","wem/bandit_either_2","A2EOOF9D135HQ1","either","7","659","","","","","","","1","0","0","0.3835523064","","0.2","0.8","0.6","0.4","","","","","0.3598915268","0.3443557019","0.3835523064","0.4330938692","","","","","","","","75","K","2","","","86","main_expt"
"","bandit","166","1623756","0.0-127.0-0.0","57525664","wem/bandit_either_2","A2EOOF9D135HQ1","either","7","10","","","","","","","0","0","1","0.3648776167","","0.2","0.8","0.6","0.4","","","","","0.3433052933","0.3648776167","0.3772514457","0.4548398529","","","","","","","","74","J","1","","","87","main_expt"
"","bandit","167","1625338","0.0-128.0-0.0","57525664","wem/bandit_either_2","A2EOOF9D135HQ1","either","7","31","","","","","","","0","0","1","","0.3766830519","0.2","0.8","0.6","0.4","0.4022938878","0.3609631839","0.3766830519","0.4493124031","","","","","","","","","","","","75","K","2","","","88","main_expt"
"","bandit","168","1627404","0.0-129.0-0.0","57525664","wem/bandit_either_2","A2EOOF9D135HQ1","either","7","502","","","","","","","0","0","1","0.3537755119","","0.2","0.8","0.6","0.4","","","","","0.4141493151","0.3636167192","0.3537755119","0.4161110063","","","","","","","","75","K","2","","","89","main_expt"
"","bandit","169","1629126","0.0-130.0-0.0","57525664","wem/bandit_either_2","A2EOOF9D135HQ1","either","7","161","","","","","","","0","0","1","0.3014761449","","0.2","0.8","0.6","0.4","","","","","0.4136124289","0.3563441379","0.3014761449","0.405260856","","","","","","","","75","K","2","","","90","main_expt"
"","bandit","170","1630749","0.0-131.0-0.0","57525664","wem/bandit_either_2","A2EOOF9D135HQ1","either","7","78","","","","","","","0","0","1","","0.3827048226","0.2","0.8","0.6","0.4","0.4184852842","0.3389138503","0.2694038268","0.3827048226","","","","","","","","","","","","76","L","3","","","91","main_expt"
"","bandit","171","1633361","0.0-132.0-0.0","57525664","wem/bandit_either_2","A2EOOF9D135HQ1","either","7","1074","","","","","","","0","1","0","","0.3552182969","0.2","0.8","0.6","0.4","0.4456808576","0.3263360165","0.2651536323","0.3552182969","","","","","","","","","","","","76","L","3","","","92","main_expt"
"","bandit","172","1635471","0.0-133.0-0.0","57525664","wem/bandit_either_2","A2EOOF9D135HQ1","either","7","585","","","","","","","0","0","1","0.3286897504","","0.2","0.8","0.6","0.4","","","","","0.4355219805","0.2844131911","0.1997208586","0.3286897504","","","","","","","","76","L","3","","","93","main_expt"
"","bandit","173","1637534","0.0-134.0-0.0","57525664","wem/bandit_either_2","A2EOOF9D135HQ1","either","7","516","","","","","","","0","1","0","","0.2442555344","0.2","0.8","0.6","0.4","0.4609821192","0.2978465223","0.2442555344","0.3422490236","","","","","","","","","","","","75","K","2","","","94","main_expt"
"","bandit","174","1640696","0.0-135.0-0.0","57525664","wem/bandit_either_2","A2EOOF9D135HQ1","either","7","1628","","","","","","","0","1","0","","0.3160161054","0.2","0.8","0.6","0.4","0.4419374505","0.2638723705","0.2638839348","0.3160161054","","","","","","","","","","","","76","L","3","","","95","main_expt"
"","bandit","175","1642593","0.0-136.0-0.0","57525664","wem/bandit_either_2","A2EOOF9D135HQ1","either","7","370","","","","","","","0","0","1","0.2265245807","","0.2","0.8","0.6","0.4","","","","","0.39438674","0.2276010735","0.2265245807","0.2945538732","","","","","","","","75","K","2","","","96","main_expt"
"","bandit","176","1644567","0.0-137.0-0.0","57525664","wem/bandit_either_2","A2EOOF9D135HQ1","either","7","332","","","","","","","0","0","1","0.393563827","","0.2","0.8","0.6","0.4","","","","","0.3617668419","0.2045446072","0.1969189177","0.393563827","","","","","","","","76","L","3","","","97","main_expt"
"","bandit","177","1646375","0.0-138.0-0.0","57525664","wem/bandit_either_2","A2EOOF9D135HQ1","either","7","276","","","","","","","0","0","1","","0.3737913853","0.2","0.8","0.6","0.4","0.3737913853","0.2436418828","0.1761144245","0.4046254927","","","","","","","","","","","","72","H","0","img/none_selected.jpg","","98","main_expt"
"","bandit","178","1648665","0.0-139.0-0.0","57525664","wem/bandit_either_2","A2EOOF9D135HQ1","either","7","761","","","","","","","0","0","1","","0.3659012549","0.2","0.8","0.6","0.4","0.4221129479","0.2473144087","0.1211630765","0.3659012549","","","","","","","","","","","","76","L","3","","","99","main_expt"
"","bandit","179","1650596","0.0-140.0-0.0","57525664","wem/bandit_either_2","A2EOOF9D135HQ1","either","7","357","","","","","","","0","0","1","0.1257326749","","0.2","0.8","0.6","0.4","","","","","0.3857893684","0.2707360286","0.1257326749","0.400368336","","","","","","","","75","K","2","","","100","main_expt"
"","bandit","180","1652322","0.0-141.0-0.0","57525664","wem/bandit_either_2","A2EOOF9D135HQ1","either","7","201","","","","","","","0","0","1","0.3250409822","","0.2","0.8","0.6","0.4","","","","","0.3635527264","0.3250409822","0.09975532208","0.4367931528","","","","","","","","74","J","1","","","101","main_expt"
"","bandit","181","1654211","0.0-142.0-0.0","57525664","wem/bandit_either_2","A2EOOF9D135HQ1","either","7","336","","","","","","","0","0","1","0.3088580598","","0.2","0.8","0.6","0.4","","","","","0.3738375489","0.3088580598","0.1127414424","0.4371155326","","","","","","","","74","J","1","","","102","main_expt"
"","bandit","182","1655872","0.0-143.0-0.0","57525664","wem/bandit_either_2","A2EOOF9D135HQ1","either","7","134","","","","","","","0","0","1","","0.1232600734","0.2","0.8","0.6","0.4","0.3860163181","0.2901001995","0.1232600734","0.388648264","","","","","","","","","","","","75","K","2","","","103","main_expt"
"","bandit","183","1657638","0.0-144.0-0.0","57525664","wem/bandit_either_2","A2EOOF9D135HQ1","either","7","242","","","","","","","0","0","1","0.08156843846","","0.2","0.8","0.6","0.4","","","","","0.390692362","0.309645936","0.08156843846","0.3718469433","","","","","","","","75","K","2","","","104","main_expt"
"","bandit","184","1659447","0.0-145.0-0.0","57525664","wem/bandit_either_2","A2EOOF9D135HQ1","either","7","286","","","","","","","0","0","1","0.08245659199","","0.2","0.8","0.6","0.4","","","","","0.4139082553","0.3386062745","0.08245659199","0.3920304628","","","","","","","","75","K","2","","","105","main_expt"
"","bandit","185","1661320","0.0-146.0-0.0","57525664","wem/bandit_either_2","A2EOOF9D135HQ1","either","7","349","","","","","","","0","0","1","0.1276639339","","0.2","0.8","0.6","0.4","","","","","0.3295275825","0.3827539061","0.1276639339","0.3733497125","","","","","","","","75","K","2","","","106","main_expt"
"","bandit","186","1663169","0.0-147.0-0.0","57525664","wem/bandit_either_2","A2EOOF9D135HQ1","either","7","321","","","","","","","0","0","1","","0.3878439861","0.2","0.8","0.6","0.4","0.3499712774","0.3401355396","0.1812689745","0.3878439861","","","","","","","","","","","","76","L","3","","","107","main_expt"
"","bandit","187","1665106","0.0-148.0-0.0","57525664","wem/bandit_either_2","A2EOOF9D135HQ1","either","7","411","","","","","","","0","0","1","","0.3529013302","0.2","0.8","0.6","0.4","0.2666891207","0.3258039352","0.2187982558","0.3529013302","","","","","","","","","","","","76","L","3","","","108","main_expt"
"","bandit","188","1666958","0.0-149.0-0.0","57525664","wem/bandit_either_2","A2EOOF9D135HQ1","either","7","329","","","","","","","0","0","1","","0.3457683734","0.2","0.8","0.6","0.4","0.2575067634","0.374919859","0.2201216928","0.3457683734","","","","","","","","","","","","76","L","3","","","109","main_expt"
"","bandit","189","1668601","0.0-150.0-0.0","57525664","wem/bandit_either_2","A2EOOF9D135HQ1","either","7","118","","","","","","","0","0","1","","0.2664913793","0.2","0.8","0.6","0.4","0.2664913793","0.3656186065","0.1789817232","0.3316873257","","","","","","","","","","","","72","H","0","img/none_selected.jpg","","110","main_expt"
"","bandit","190","1670440","0.0-151.0-0.0","57525664","wem/bandit_either_2","A2EOOF9D135HQ1","either","7","315","","","","","","","0","0","1","","0.2233446911","0.2","0.8","0.6","0.4","0.2233446911","0.3649701027","0.2404947452","0.3434945318","","","","","","","","","","","","72","H","0","img/none_selected.jpg","","111","main_expt"
"","bandit","191","1672368","0.0-152.0-0.0","57525664","wem/bandit_either_2","A2EOOF9D135HQ1","either","7","387","","","","","","","0","0","1","0.2170082082","","0.2","0.8","0.6","0.4","","","","","0.2170082082","0.3371716456","0.2959558532","0.2729480053","","","","","","","","72","H","0","img/none_selected.jpg","","112","main_expt"
"","bandit","192","1674246","0.0-153.0-0.0","57525664","wem/bandit_either_2","A2EOOF9D135HQ1","either","7","307","","","","","","","0","0","1","","0.2587224119","0.2","0.8","0.6","0.4","0.1912277411","0.2587224119","0.2966985553","0.2579672073","","","","","","","","","","","","74","J","1","","","113","main_expt"
"","bandit","193","1676063","0.0-154.0-0.0","57525664","wem/bandit_either_2","A2EOOF9D135HQ1","either","7","293","","","","","","","0","1","0","","0.2384324947","0.2","0.8","0.6","0.4","0.1691995451","0.2384324947","0.3289730608","0.24654084","","","","","","","","","","","","74","J","1","","","114","main_expt"
"","bandit","194","1677992","0.0-155.0-0.0","57525664","wem/bandit_either_2","A2EOOF9D135HQ1","either","7","346","","","","","","","0","0","1","0.2705755989","","0.2","0.8","0.6","0.4","","","","","0.1263730162","0.2705755989","0.2783705844","0.246649757","","","","","","","","74","J","1","","","115","main_expt"
"","bandit","195","1680104","0.0-156.0-0.0","57525664","wem/bandit_either_2","A2EOOF9D135HQ1","either","7","517","","","","","","","0","0","1","0.2666822","","0.2","0.8","0.6","0.4","","","","","0.1130092975","0.2666822","0.2990421824","0.2190482835","","","","","","","","74","J","1","","","116","main_expt"
"","bandit","196","1682157","0.0-157.0-0.0","57525664","wem/bandit_either_2","A2EOOF9D135HQ1","either","7","477","","","","","","","0","0","1","0.2664749026","","0.2","0.8","0.6","0.4","","","","","0.1317362661","0.2664749026","0.3214730448","0.1860086181","","","","","","","","74","J","1","","","117","main_expt"
"","bandit","197","1691572","0.0-158.0-0.0","57525664","wem/bandit_either_2","A2EOOF9D135HQ1","either","7","7100","","","","","","","0","0","1","","0.08460291254","0.2","0.8","0.6","0.4","0.08460291254","0.285497096","0.3996160597","0.1765749983","","","","","","","","","","","","72","H","0","img/none_selected.jpg","","118","main_expt"
"","bandit","198","1694083","0.0-159.0-0.0","57525664","wem/bandit_either_2","A2EOOF9D135HQ1","either","7","882","","","","","","","1","0","0","0.3004427434","","0.2","0.8","0.6","0.4","","","","","0.09168363065","0.3004427434","0.4143362638","0.1840588368","","","","","","","","74","J","1","","","119","main_expt"
"","bandit","199","1705736","0.0-160.0-0.0","57525664","wem/bandit_either_2","A2EOOF9D135HQ1","either","7","10115","","","","","","","0","0","1","0.372340151","","0.2","0.8","0.6","0.4","","","","","0.06729372802","0.2419855731","0.372340151","0.1988357929","","","","","","","","75","K","2","","","120","main_expt"
"","bandit","200","1707669","0.0-161.0-0.0","57525664","wem/bandit_either_2","A2EOOF9D135HQ1","either","7","366","","","","","","","0","0","1","0.3910424524","","0.2","0.8","0.6","0.4","","","","","0.08346408207","0.3054132847","0.3910424524","0.2315674","","","","","","","","75","K","2","","","121","main_expt"
"","bandit","201","1709636","0.0-162.0-0.0","57525664","wem/bandit_either_2","A2EOOF9D135HQ1","either","7","311","","","","","","","0","1","0","","0.3813410711","0.2","0.8","0.6","0.4","0.05632743158","0.2473202095","0.3813410711","0.2041322171","","","","","","","","","","","","75","K","2","","","122","main_expt"
"","bandit","202","1711691","0.0-163.0-0.0","57525664","wem/bandit_either_2","A2EOOF9D135HQ1","either","7","380","","","","","","","0","0","1","","0.4247291795","0.2","0.8","0.6","0.4","0.05516745574","0.2909195989","0.4247291795","0.1945268209","","","","","","","","","","","","75","K","2","","","123","main_expt"
"","bandit","203","1713543","0.0-164.0-0.0","57525664","wem/bandit_either_2","A2EOOF9D135HQ1","either","7","322","","","","","","","0","1","0","","0.4311179713","0.2","0.8","0.6","0.4","0.05528311039","0.3493750294","0.4311179713","0.2206749142","","","","","","","","","","","","75","K","2","","","124","main_expt"
"","bandit","204","1715401","0.0-165.0-0.0","57525664","wem/bandit_either_2","A2EOOF9D135HQ1","either","7","323","","","","","","","0","0","1","","0.4085782939","0.2","0.8","0.6","0.4","0.07149807259","0.3883668019","0.4085782939","0.212012295","","","","","","","","","","","","75","K","2","","","125","main_expt"
"","bandit","205","1717045","0.0-166.0-0.0","57525664","wem/bandit_either_2","A2EOOF9D135HQ1","either","7","98","","","","","","","0","0","1","","0.4110861309","0.2","0.8","0.6","0.4","0.1137803622","0.3888129637","0.4110861309","0.1656684785","","","","","","","","","","","","75","K","2","","","126","main_expt"
"","bandit","206","1718680","0.0-167.0-0.0","57525664","wem/bandit_either_2","A2EOOF9D135HQ1","either","7","102","","","","","","","1","0","0","0.4214671818","","0.2","0.8","0.6","0.4","","","","","0.1003054442","0.3659195129","0.4214671818","0.1685301808","","","","","","","","75","K","2","","","127","main_expt"
"","bandit","207","1720515","0.0-168.0-0.0","57525664","wem/bandit_either_2","A2EOOF9D135HQ1","either","7","237","","","","","","","0","0","1","","0.36889317","0.2","0.8","0.6","0.4","0.1378169536","0.3689954399","0.36889317","0.1703551811","","","","","","","","","","","","75","K","2","","","128","main_expt"
"","bandit","208","1722733","0.0-169.0-0.0","57525664","wem/bandit_either_2","A2EOOF9D135HQ1","either","7","601","","","","","","","0","0","1","","0.1624753709","0.2","0.8","0.6","0.4","0.1333081235","0.3600340942","0.3840267129","0.1624753709","","","","","","","","","","","","76","L","3","","","129","main_expt"
"","bandit","209","1725141","0.0-170.0-0.0","57525664","wem/bandit_either_2","A2EOOF9D135HQ1","either","7","758","","","","","","","0","0","1","0.2335662737","","0.2","0.8","0.6","0.4","","","","","0.1682212827","0.3580797835","0.3809677701","0.2335662737","","","","","","","","76","L","3","","","130","main_expt"
"","bandit","210","1726825","0.0-171.0-0.0","57525664","wem/bandit_either_2","A2EOOF9D135HQ1","either","7","157","","","","","","","0","0","1","","0.240441026","0.2","0.8","0.6","0.4","0.2193829955","0.3785893338","0.3681933818","0.240441026","","","","","","","","","","","","76","L","3","","","131","main_expt"
"","bandit","211","1728721","0.0-172.0-0.0","57525664","wem/bandit_either_2","A2EOOF9D135HQ1","either","7","341","","","","","","","1","0","0","0.2266699971","","0.2","0.8","0.6","0.4","","","","","0.2693349046","0.3764735404","0.3664045944","0.2266699971","","","","","","","","76","L","3","","","132","main_expt"
"","bandit","212","1730663","0.0-173.0-0.0","57525664","wem/bandit_either_2","A2EOOF9D135HQ1","either","7","201","","","","","","","0","0","1","","0.1994193025","0.2","0.8","0.6","0.4","0.2576546077","0.3433534211","0.4046437197","0.1994193025","","","","","","","","","","","","76","L","3","","","133","main_expt"
"","bandit","213","1732191","0.0-174.0-0.0","57525664","wem/bandit_either_2","A2EOOF9D135HQ1","either","7","2","","","","","","","0","0","1","","0.364490756","0.2","0.8","0.6","0.4","0.2412372273","0.3606247271","0.364490756","0.1891464922","","","","","","","","","","","","75","K","2","","","134","main_expt"
"","bandit","214","1733845","0.0-175.0-0.0","57525664","wem/bandit_either_2","A2EOOF9D135HQ1","either","7","114","","","","","","","0","0","1","","0.311914316","0.2","0.8","0.6","0.4","0.2198641054","0.3268624306","0.311914316","0.1614798668","","","","","","","","","","","","75","K","2","","","135","main_expt"
"","bandit","215","1735703","0.0-176.0-0.0","57525664","wem/bandit_either_2","A2EOOF9D135HQ1","either","7","327","","","","","","","0","0","1","0.2653901568","","0.2","0.8","0.6","0.4","","","","","0.2504132697","0.2854606769","0.2653901568","0.1880386222","","","","","","","","75","K","2","","","136","main_expt"
"","bandit","216","1737529","0.0-177.0-0.0","57525664","wem/bandit_either_2","A2EOOF9D135HQ1","either","7","298","","","","","","","1","0","0","0.2413295316","","0.2","0.8","0.6","0.4","","","","","0.1912230989","0.3311747399","0.2413295316","0.1961818793","","","","","","","","75","K","2","","","137","main_expt"
"","bandit","217","1739160","0.0-178.0-0.0","57525664","wem/bandit_either_2","A2EOOF9D135HQ1","either","7","43","","","","","","","0","0","1","0.2060295423","","0.2","0.8","0.6","0.4","","","","","0.1576256809","0.2570785188","0.2060295423","0.2857678963","","","","","","","","75","K","2","","","138","main_expt"
"","bandit","218","1740987","0.0-179.0-0.0","57525664","wem/bandit_either_2","A2EOOF9D135HQ1","either","7","290","","","","","","","0","0","1","0.1809645164","","0.2","0.8","0.6","0.4","","","","","0.1019788138","0.2858060749","0.1809645164","0.3449131854","","","","","","","","75","K","2","","","139","main_expt"
"","bandit","219","1742634","0.0-180.0-0.0","57525664","wem/bandit_either_2","A2EOOF9D135HQ1","either","7","109","","","","","","","0","0","1","0.2975559752","","0.2","0.8","0.6","0.4","","","","","0.07754087054","0.2975559752","0.1843216893","0.2537716732","","","","","","","","74","J","1","","","140","main_expt"
"","bandit","220","1744508","0.0-181.0-0.0","57525664","wem/bandit_either_2","A2EOOF9D135HQ1","either","7","296","","","","","","","0","0","1","0.2802168405","","0.2","0.8","0.6","0.4","","","","","0.09489610577","0.2802168405","0.1651876155","0.2858111263","","","","","","","","74","J","1","","","141","main_expt"
"","bandit","221","1746304","0.0-182.0-0.0","57525664","wem/bandit_either_2","A2EOOF9D135HQ1","either","7","265","","","","","","","0","0","1","0.2231986748","","0.2","0.8","0.6","0.4","","","","","0.09601428546","0.2231986748","0.1536427928","0.303049367","","","","","","","","74","J","1","","","142","main_expt"
"","bandit","222","1759712","0.0-183.0-0.0","57525664","wem/bandit_either_2","A2EOOF9D135HQ1","either","7","11858","","","","","","","0","0","1","0.2032880393","","0.2","0.8","0.6","0.4","","","","","0.08301142993","0.2032880393","0.1546140226","0.2969419413","","","","","","","","74","J","1","","","143","main_expt"
"","bandit","223","1761639","0.0-184.0-0.0","57525664","wem/bandit_either_2","A2EOOF9D135HQ1","either","7","355","","","","","","","0","0","1","0.1967741464","","0.2","0.8","0.6","0.4","","","","","0.09599686985","0.1967741464","0.1746031107","0.3128690494","","","","","","","","74","J","1","","","144","main_expt"
"","bandit","224","1763691","0.0-185.0-0.0","57525664","wem/bandit_either_2","A2EOOF9D135HQ1","either","7","380","","","","","","","1","0","0","0.2991796355","","0.2","0.8","0.6","0.4","","","","","0.07499383622","0.2283154954","0.2021387556","0.2991796355","","","","","","","","76","L","3","","","145","main_expt"
"","bandit","225","1765316","0.0-186.0-0.0","57525664","wem/bandit_either_2","A2EOOF9D135HQ1","either","7","84","","","","","","","0","0","1","","0.3163763193","0.2","0.8","0.6","0.4","0.09566861","0.2118700154","0.2504344391","0.3163763193","","","","","","","","","","","","76","L","3","","","146","main_expt"
"","bandit","226","1766931","0.0-187.0-0.0","57525664","wem/bandit_either_2","A2EOOF9D135HQ1","either","7","80","","","","","","","0","0","1","0.3198025905","","0.2","0.8","0.6","0.4","","","","","0.08578591382","0.210437557","0.2437718569","0.3198025905","","","","","","","","76","L","3","","","147","main_expt"
"","bandit","227","1768555","0.0-188.0-0.0","57525664","wem/bandit_either_2","A2EOOF9D135HQ1","either","7","93","","","","","","","0","0","1","","0.2588245921","0.2","0.8","0.6","0.4","0.1147887709","0.2370661354","0.2446677265","0.2588245921","","","","","","","","","","","","76","L","3","","","148","main_expt"
"","bandit","228","1771797","0.0-189.0-0.0","57525664","wem/bandit_either_2","A2EOOF9D135HQ1","either","7","1661","","","","","","","0","0","1","","0.1378203382","0.2","0.8","0.6","0.4","0.1378203382","0.2430363771","0.2911002833","0.248712437","","","","","","","","","","","","72","H","0","img/none_selected.jpg","","149","main_expt"
"","bandit","229","1773452","0.0-190.0-0.0","57525664","wem/bandit_either_2","A2EOOF9D135HQ1","either","7","105","","","","","","","0","0","1","","0.1414499273","0.2","0.8","0.6","0.4","0.1414499273","0.2242182381","0.3529655025","0.179144869","","","","","","","","","","","","72","H","0","img/none_selected.jpg","","150","main_expt"
"","bandit","230","1777519","0.0-191.0-0.0","57525664","wem/bandit_either_2","A2EOOF9D135HQ1","either","7","2529","","","","","","","0","0","1","","0.07852348772","0.2","0.8","0.6","0.4","0.07852348772","0.1997145133","0.3885741111","0.1545669956","","","","","","","","","","","","72","H","0","img/none_selected.jpg","","151","main_expt"
"","bandit","231","1780697","0.0-192.0-0.0","57525664","wem/bandit_either_2","A2EOOF9D135HQ1","either","7","1644","","","","","","","0","0","1","0.08485793113","","0.2","0.8","0.6","0.4","","","","","0.08485793113","0.2195927633","0.3690499696","0.1651714415","","","","","","","","72","H","0","img/none_selected.jpg","","152","main_expt"
"","bandit","232","1782713","0.0-193.0-0.0","57525664","wem/bandit_either_2","A2EOOF9D135HQ1","either","7","478","","","","","","","0","0","1","","0.1083789561","0.2","0.8","0.6","0.4","0.1083789561","0.2121816628","0.3710492515","0.2396245514","","","","","","","","","","","","72","H","0","img/none_selected.jpg","","153","main_expt"
"","bandit","233","1784968","0.0-194.0-0.0","57525664","wem/bandit_either_2","A2EOOF9D135HQ1","either","7","659","","","","","","","0","0","1","0.1830588608","","0.2","0.8","0.6","0.4","","","","","0.109098481","0.1830588608","0.3483335413","0.2085838567","","","","","","","","74","J","1","","","154","main_expt"
"","bandit","234","1787496","0.0-195.0-0.0","57525664","wem/bandit_either_2","A2EOOF9D135HQ1","either","7","999","","","","","","","1","0","0","0.2031423662","","0.2","0.8","0.6","0.4","","","","","0.1758262092","0.2031423662","0.3343760247","0.1864274254","","","","","","","","74","J","1","","","155","main_expt"
"","bandit","235","1789449","0.0-196.0-0.0","57525664","wem/bandit_either_2","A2EOOF9D135HQ1","either","7","359","","","","","","","0","0","1","0.2022731065","","0.2","0.8","0.6","0.4","","","","","0.2046597001","0.2022731065","0.3742013553","0.1750870897","","","","","","","","74","J","1","","","156","main_expt"
"","bandit","236","1791609","0.0-197.0-0.0","57525664","wem/bandit_either_2","A2EOOF9D135HQ1","either","7","632","","","","","","","0","0","1","","0.1826661219","0.2","0.8","0.6","0.4","0.1774751899","0.1826661219","0.3620366094","0.1321985386","","","","","","","","","","","","74","J","1","","","157","main_expt"
"","bandit","237","1825253","0.0-198.0-0.0","57525664","wem/bandit_either_2","A2EOOF9D135HQ1","either","7","32100","","","","","","","0","1","0","","0.3671714071","0.2","0.8","0.6","0.4","0.1612033886","0.1658993888","0.3671714071","0.1341899746","","","","","","","","","","","","75","K","2","","","158","main_expt"
"","bandit","238","1827517","0.0-199.0-0.0","57525664","wem/bandit_either_2","A2EOOF9D135HQ1","either","7","618","","","","","","","0","0","1","0.4015988616","","0.2","0.8","0.6","0.4","","","","","0.1586838935","0.1620079643","0.4015988616","0.1567784951","","","","","","","","75","K","2","","","159","main_expt"
"","bandit","239","1833895","0.0-200.0-0.0","57525664","wem/bandit_either_2","A2EOOF9D135HQ1","either","7","4103","","","","","","","0","0","1","0.2453635642","","0.2","0.8","0.6","0.4","","","","","0.2159944071","0.2453635642","0.4004877553","0.1615549635","","","","","","","","74","J","1","","","160","main_expt"
"","bandit","240","1835580","0.0-201.0-0.0","57525664","wem/bandit_either_2","A2EOOF9D135HQ1","either","7","130","","","","","","","0","0","1","0.2456373749","","0.2","0.8","0.6","0.4","","","","","0.2105769377","0.2456373749","0.4095849454","0.1854631015","","","","","","","","74","J","1","","","161","main_expt"
"","bandit","241","1838539","0.0-202.0-0.0","57525664","wem/bandit_either_2","A2EOOF9D135HQ1","either","7","1417","","","","","","","0","0","1","0.2460125232","","0.2","0.8","0.6","0.4","","","","","0.2006925765","0.2460125232","0.3978002783","0.21229469","","","","","","","","74","J","1","","","162","main_expt"
"","bandit","242","1841677","0.0-203.0-0.0","57525664","wem/bandit_either_2","A2EOOF9D135HQ1","either","7","1307","","","","","","","1","0","0","0.2013568893","","0.2","0.8","0.6","0.4","","","","","0.2365124807","0.2013568893","0.4180552148","0.162194177","","","","","","","","74","J","1","","","163","main_expt"
"","bandit","243","1844227","0.0-204.0-0.0","57525664","wem/bandit_either_2","A2EOOF9D135HQ1","either","7","1008","","","","","","","0","0","1","","0.1933595846","0.2","0.8","0.6","0.4","0.2157370886","0.1933595846","0.4407560021","0.1535707797","","","","","","","","","","","","74","J","1","","","164","main_expt"
"","bandit","244","1846282","0.0-205.0-0.0","57525664","wem/bandit_either_2","A2EOOF9D135HQ1","either","7","512","","","","","","","0","0","1","0.167552211","","0.2","0.8","0.6","0.4","","","","","0.2166787898","0.167552211","0.4582960521","0.2315934193","","","","","","","","74","J","1","","","165","main_expt"
"","bandit","245","1854206","0.0-206.0-0.0","57525664","wem/bandit_either_2","A2EOOF9D135HQ1","either","7","6325","","","","","","","0","0","1","0.1311237951","","0.2","0.8","0.6","0.4","","","","","0.1846262972","0.1311237951","0.4337500892","0.2579087381","","","","","","","","74","J","1","","","166","main_expt"
"","bandit","246","1856488","0.0-207.0-0.0","57525664","wem/bandit_either_2","A2EOOF9D135HQ1","either","7","718","","","","","","","0","0","1","0.1714029316","","0.2","0.8","0.6","0.4","","","","","0.1888750078","0.1714029316","0.4537582576","0.2496457694","","","","","","","","74","J","1","","","167","main_expt"
"","bandit","247","1862065","0.0-208.0-0.0","57525664","wem/bandit_either_2","A2EOOF9D135HQ1","either","7","4034","","","","","","","0","0","1","0.1494402723","","0.2","0.8","0.6","0.4","","","","","0.2315683769","0.1494402723","0.4473485534","0.234558796","","","","","","","","74","J","1","","","168","main_expt"
"","bandit","248","1864172","0.0-209.0-0.0","57525664","wem/bandit_either_2","A2EOOF9D135HQ1","either","7","565","","","","","","","1","0","0","0.1819888556","","0.2","0.8","0.6","0.4","","","","","0.2018123945","0.1819888556","0.4471591033","0.2458600006","","","","","","","","74","J","1","","","169","main_expt"
"","bandit","249","1866041","0.0-210.0-0.0","57525664","wem/bandit_either_2","A2EOOF9D135HQ1","either","7","325","","","","","","","1","0","0","0.2329206984","","0.2","0.8","0.6","0.4","","","","","0.139238222","0.2329206984","0.4581839475","0.2214583157","","","","","","","","74","J","1","","","170","main_expt"
"","bandit","250","1868031","0.0-211.0-0.0","57525664","wem/bandit_either_2","A2EOOF9D135HQ1","either","7","448","","","","","","","1","0","0","0.2000607923","","0.2","0.8","0.6","0.4","","","","","0.1466511374","0.2000607923","0.4674995421","0.296208115","","","","","","","","74","J","1","","","171","main_expt"
"","bandit","251","1869880","0.0-212.0-0.0","57525664","wem/bandit_either_2","A2EOOF9D135HQ1","either","7","316","","","","","","","0","0","1","0.2342957318","","0.2","0.8","0.6","0.4","","","","","0.1348290388","0.2342957318","0.4455620345","0.3062379281","","","","","","","","74","J","1","","","172","main_expt"
"","bandit","252","1871511","0.0-213.0-0.0","57525664","wem/bandit_either_2","A2EOOF9D135HQ1","either","7","97","","","","","","","1","0","0","0.2189308077","","0.2","0.8","0.6","0.4","","","","","0.1521691919","0.2189308077","0.4471610379","0.2498067723","","","","","","","","74","J","1","","","173","main_expt"
"","bandit","253","1873507","0.0-214.0-0.0","57525664","wem/bandit_either_2","A2EOOF9D135HQ1","either","7","398","","","","","","","0","0","1","0.2373932689","","0.2","0.8","0.6","0.4","","","","","0.2191935525","0.2373932689","0.4496576915","0.1803522277","","","","","","","","74","J","1","","","174","main_expt"
"","bandit","254","1875178","0.0-215.0-0.0","57525664","wem/bandit_either_2","A2EOOF9D135HQ1","either","7","134","","","","","","","1","0","0","0.2160264752","","0.2","0.8","0.6","0.4","","","","","0.219961305","0.2160264752","0.4715297358","0.2014319342","","","","","","","","74","J","1","","","175","main_expt"
"","bandit","255","1877220","0.0-216.0-0.0","57525664","wem/bandit_either_2","A2EOOF9D135HQ1","either","7","483","","","","","","","1","0","0","0.1990604306","","0.2","0.8","0.6","0.4","","","","","0.1882485239","0.1990604306","0.477956151","0.2122003168","","","","","","","","74","J","1","","","176","main_expt"
"","bandit","256","1879108","0.0-217.0-0.0","57525664","wem/bandit_either_2","A2EOOF9D135HQ1","either","7","297","","","","","","","0","0","1","0.1729978196","","0.2","0.8","0.6","0.4","","","","","0.1644902553","0.1729978196","0.4563721206","0.2629069455","","","","","","","","74","J","1","","","177","main_expt"
"","bandit","257","1880655","0.0-218.0-0.0","57525664","wem/bandit_either_2","A2EOOF9D135HQ1","either","7","4","","","","","","","0","0","1","0.1633080779","","0.2","0.8","0.6","0.4","","","","","0.1713669852","0.1633080779","0.4409869931","0.2336104206","","","","","","","","74","J","1","","","178","main_expt"
"","bandit","258","1882489","0.0-219.0-0.0","57525664","wem/bandit_either_2","A2EOOF9D135HQ1","either","7","303","","","","","","","0","0","1","0.1243251356","","0.2","0.8","0.6","0.4","","","","","0.2263400462","0.1243251356","0.4243126063","0.1887504226","","","","","","","","74","J","1","","","179","main_expt"
"","bandit","259","1884410","0.0-220.0-0.0","57525664","wem/bandit_either_2","A2EOOF9D135HQ1","either","7","392","","","","","","","0","1","0","","0.1150149055","0.2","0.8","0.6","0.4","0.2036870175","0.1150149055","0.4312830743","0.138376641","","","","","","","","","","","","74","J","1","","","180","main_expt"
"","bandit","260","1886169","0.0-221.0-0.0","57525664","wem/bandit_either_2","A2EOOF9D135HQ1","either","7","214","","","","","","","1","0","0","0.1407924877","","0.2","0.8","0.6","0.4","","","","","0.1934599198","0.1407924877","0.4433127893","0.1883992559","","","","","","","","74","J","1","","","181","main_expt"
"","bandit","261","1887946","0.0-222.0-0.0","57525664","wem/bandit_either_2","A2EOOF9D135HQ1","either","7","225","","","","","","","0","0","1","","0.09672650852","0.2","0.8","0.6","0.4","0.2424515525","0.09672650852","0.440136403","0.128889003","","","","","","","","","","","","74","J","1","","","182","main_expt"
"","bandit","262","1889501","0.0-223.0-0.0","57525664","wem/bandit_either_2","A2EOOF9D135HQ1","either","7","18","","","","","","","0","1","0","","0.09888002855","0.2","0.8","0.6","0.4","0.1961777535","0.09888002855","0.4347693449","0.1748769843","","","","","","","","","","","","74","J","1","","","183","main_expt"
"","bandit","263","1891467","0.0-224.0-0.0","57525664","wem/bandit_either_2","A2EOOF9D135HQ1","either","7","427","","","","","","","0","0","1","0.07200145298","","0.2","0.8","0.6","0.4","","","","","0.1489283113","0.07200145298","0.4277130926","0.1945994373","","","","","","","","74","J","1","","","184","main_expt"
"","bandit","264","1893128","0.0-225.0-0.0","57525664","wem/bandit_either_2","A2EOOF9D135HQ1","either","7","100","","","","","","","0","0","1","","0.09476413333","0.2","0.8","0.6","0.4","0.1499965078","0.09476413333","0.3956248437","0.1644748654","","","","","","","","","","","","74","J","1","","","185","main_expt"
"","bandit","265","1895012","0.0-226.0-0.0","57525664","wem/bandit_either_2","A2EOOF9D135HQ1","either","7","311","","","","","","","0","0","1","0.06556422103","","0.2","0.8","0.6","0.4","","","","","0.2169832988","0.06556422103","0.3748928266","0.1504635592","","","","","","","","74","J","1","","","186","main_expt"
"","bandit","266","1896996","0.0-227.0-0.0","57525664","wem/bandit_either_2","A2EOOF9D135HQ1","either","7","355","","","","","","","0","0","1","0.08901149072","","0.2","0.8","0.6","0.4","","","","","0.2655186329","0.08901149072","0.3848139325","0.1760039214","","","","","","","","74","J","1","","","187","main_expt"
"","bandit","267","1899044","0.0-228.0-0.0","57525664","wem/bandit_either_2","A2EOOF9D135HQ1","either","7","488","","","","","","","0","0","1","0.09471428588","","0.2","0.8","0.6","0.4","","","","","0.2738785118","0.09471428588","0.3990176401","0.1203267588","","","","","","","","74","J","1","","","188","main_expt"
"","bandit","268","1901029","0.0-229.0-0.0","57525664","wem/bandit_either_2","A2EOOF9D135HQ1","either","7","421","","","","","","","0","0","1","0.3581396838","","0.2","0.8","0.6","0.4","","","","","0.3041874674","0.05118235823","0.3581396838","0.1171540391","","","","","","","","75","K","2","","","189","main_expt"
"","bandit","269","1902743","0.0-230.0-0.0","57525664","wem/bandit_either_2","A2EOOF9D135HQ1","either","7","186","","","","","","","0","0","1","0.2882972244","","0.2","0.8","0.6","0.4","","","","","0.3229453735","0.05788318751","0.2882972244","0.1535230761","","","","","","","","75","K","2","","","190","main_expt"
"","bandit","270","1904433","0.0-231.0-0.0","57525664","wem/bandit_either_2","A2EOOF9D135HQ1","either","7","154","","","","","","","0","1","0","","0.3818249757","0.2","0.8","0.6","0.4","0.3818249757","0.08736915481","0.3145326233","0.1372750947","","","","","","","","","","","","72","H","0","img/none_selected.jpg","","191","main_expt"
"","bandit","271","1906389","0.0-232.0-0.0","57525664","wem/bandit_either_2","A2EOOF9D135HQ1","either","7","325","","","","","","","0","0","1","0.4157726243","","0.2","0.8","0.6","0.4","","","","","0.4157726243","0.08251019118","0.3270603702","0.1047771501","","","","","","","","72","H","0","img/none_selected.jpg","","192","main_expt"
"","bandit","272","1907928","0.0-233.0-0.0","57525664","wem/bandit_either_2","A2EOOF9D135HQ1","either","7","7","","","","","","","0","0","1","","0.4611608212","0.2","0.8","0.6","0.4","0.4611608212","0.06897628064","0.3604030797","0.1100845432","","","","","","","","","","","","72","H","0","img/none_selected.jpg","","193","main_expt"
"","bandit","273","1909737","0.0-234.0-0.0","57525664","wem/bandit_either_2","A2EOOF9D135HQ1","either","7","280","","","","","","","0","0","1","","0.4508818777","0.2","0.8","0.6","0.4","0.4508818777","0.06801266305","0.357423186","0.1468163818","","","","","","","","","","","","72","H","0","img/none_selected.jpg","","194","main_expt"
"","bandit","274","1911646","0.0-235.0-0.0","57525664","wem/bandit_either_2","A2EOOF9D135HQ1","either","7","368","","","","","","","1","0","0","0.4278921451","","0.2","0.8","0.6","0.4","","","","","0.4278921451","0.09923709358","0.3697779856","0.1495594621","","","","","","","","72","H","0","img/none_selected.jpg","","195","main_expt"
"","bandit","275","1913448","0.0-236.0-0.0","57525664","wem/bandit_either_2","A2EOOF9D135HQ1","either","7","264","","","","","","","0","0","1","","0.4256293003","0.2","0.8","0.6","0.4","0.4256293003","0.1103063831","0.3617177512","0.2263220537","","","","","","","","","","","","72","H","0","img/none_selected.jpg","","196","main_expt"
"","bandit","276","1915047","0.0-237.0-0.0","57525664","wem/bandit_either_2","A2EOOF9D135HQ1","either","7","65","","","","","","","0","0","1","0.4476975038","","0.2","0.8","0.6","0.4","","","","","0.4476975038","0.07377144043","0.3775990084","0.2204718804","","","","","","","","72","H","0","img/none_selected.jpg","","197","main_expt"
"","bandit","277","1917376","0.0-238.0-0.0","57525664","wem/bandit_either_2","A2EOOF9D135HQ1","either","7","732","","","","","","","0","0","1","0.08863448313","","0.2","0.8","0.6","0.4","","","","","0.4434357272","0.08863448313","0.4144042571","0.2401118457","","","","","","","","74","J","1","","","198","main_expt"
"","bandit","278","1919181","0.0-239.0-0.0","57525664","wem/bandit_either_2","A2EOOF9D135HQ1","either","7","260","","","","","","","0","0","1","","0.1082179128","0.2","0.8","0.6","0.4","0.4245114622","0.1082179128","0.4081775392","0.2673724497","","","","","","","","","","","","74","J","1","","","199","main_expt"
"","bandit","279","1921045","0.0-240.0-0.0","57525664","wem/bandit_either_2","A2EOOF9D135HQ1","either","7","319","","","","","","","1","0","0","0.3125307902","","0.2","0.8","0.6","0.4","","","","","0.4087100315","0.09350688576","0.4166156547","0.3125307902","","","","","","","","76","L","3","","","200","main_expt"
"","bandit","280","1922938","0.0-241.0-0.0","57525664","wem/bandit_either_2","A2EOOF9D135HQ1","either","7","298","","","","","","","0","0","1","","0.2914574258","0.2","0.8","0.6","0.4","0.4361521275","0.1036625099","0.4306537176","0.2914574258","","","","","","","","","","","","76","L","3","","","201","main_expt"
"","bandit","281","1925252","0.0-242.0-0.0","57525664","wem/bandit_either_2","A2EOOF9D135HQ1","either","7","271","","","","","","","0","0","1","","0.2550600684","0.2","0.8","0.6","0.4","0.3332596158","0.1216733889","0.449382563","0.2550600684","","","","","","","","","","","","76","L","3","","","202","main_expt"
"","bandit","282","1926817","0.0-243.0-0.0","57525664","wem/bandit_either_2","A2EOOF9D135HQ1","either","7","23","","","","","","","0","0","1","","0.2769745997","0.2","0.8","0.6","0.4","0.3581848779","0.120655788","0.4506576586","0.2769745997","","","","","","","","","","","","76","L","3","","","203","main_expt"
"","bandit","283","1929419","0.0-244.0-0.0","57525664","wem/bandit_either_2","A2EOOF9D135HQ1","either","7","1057","","","","","","","0","0","1","","0.2752990059","0.2","0.8","0.6","0.4","0.3597133043","0.1082970726","0.454839243","0.2752990059","","","","","","","","","","","","76","L","3","","","204","main_expt"
"","bandit","284","1931575","0.0-245.0-0.0","57525664","wem/bandit_either_2","A2EOOF9D135HQ1","either","7","600","","","","","","","0","0","1","","0.2901512169","0.2","0.8","0.6","0.4","0.3630183988","0.09143681274","0.4512889682","0.2901512169","","","","","","","","","","","","76","L","3","","","205","main_expt"
"","bandit","285","1935078","0.0-246.0-0.0","57525664","wem/bandit_either_2","A2EOOF9D135HQ1","either","7","1968","","","","","","","0","0","1","","0.2823763913","0.2","0.8","0.6","0.4","0.3737494834","0.08377413986","0.4591490044","0.2823763913","","","","","","","","","","","","76","L","3","","","206","main_expt"
"","bandit","286","1937087","0.0-247.0-0.0","57525664","wem/bandit_either_2","A2EOOF9D135HQ1","either","7","468","","","","","","","0","0","1","0.4650593633","","0.2","0.8","0.6","0.4","","","","","0.3668784438","0.1585073664","0.4650593633","0.2708062506","","","","","","","","75","K","2","","","207","main_expt"
"","bandit","287","1939495","0.0-248.0-0.0","57525664","wem/bandit_either_2","A2EOOF9D135HQ1","either","7","275","","","","","","","0","0","1","0.162299901","","0.2","0.8","0.6","0.4","","","","","0.4045351895","0.162299901","0.4641513068","0.2641553663","","","","","","","","74","J","1","","","208","main_expt"
"","bandit","288","1942366","0.0-249.0-0.0","57525664","wem/bandit_either_2","A2EOOF9D135HQ1","either","7","356","","","","","","","0","1","0","","0.1542266077","0.2","0.8","0.6","0.4","0.4402386934","0.1542266077","0.4567807332","0.2704675845","","","","","","","","","","","","74","J","1","","","209","main_expt"
"","bandit","289","1944401","0.0-250.0-0.0","57525664","wem/bandit_either_2","A2EOOF9D135HQ1","either","7","413","","","","","","","0","0","1","0.1890415559","","0.2","0.8","0.6","0.4","","","","","0.4483623408","0.1890415559","0.428253188","0.3420868926","","","","","","","","74","J","1","","","210","main_expt"
"","bandit","290","1946872","0.0-251.0-0.0","57525664","wem/bandit_either_2","A2EOOF9D135HQ1","either","7","935","","","","","","","1","0","0","0.1818133019","","0.2","0.8","0.6","0.4","","","","","0.4471415093","0.1818133019","0.410271385","0.3069688952","","","","","","","","74","J","1","","","211","main_expt"
"","bandit","291","1948801","0.0-252.0-0.0","57525664","wem/bandit_either_2","A2EOOF9D135HQ1","either","7","379","","","","","","","0","0","1","0.1782747956","","0.2","0.8","0.6","0.4","","","","","0.4374655127","0.1782747956","0.4065587724","0.3005379093","","","","","","","","74","J","1","","","212","main_expt"
"","bandit","292","1950826","0.0-253.0-0.0","57525664","wem/bandit_either_2","A2EOOF9D135HQ1","either","7","488","","","","","","","1","0","0","0.1935195711","","0.2","0.8","0.6","0.4","","","","","0.4381457257","0.1935195711","0.4007116542","0.213882915","","","","","","","","74","J","1","","","213","main_expt"
"","bandit","293","1952882","0.0-254.0-0.0","57525664","wem/bandit_either_2","A2EOOF9D135HQ1","either","7","452","","","","","","","0","0","1","","0.2421176173","0.2","0.8","0.6","0.4","0.4643769008","0.2421176173","0.4246209323","0.2138557204","","","","","","","","","","","","74","J","1","","","214","main_expt"
"","bandit","294","1955723","0.0-255.0-0.0","57525664","wem/bandit_either_2","A2EOOF9D135HQ1","either","7","1288","","","","","","","0","0","1","0.2629876012","","0.2","0.8","0.6","0.4","","","","","0.4328812357","0.2629876012","0.3993057066","0.2142566612","","","","","","","","74","J","1","","","215","main_expt"
"","bandit","295","1959971","0.0-256.0-0.0","57525664","wem/bandit_either_2","A2EOOF9D135HQ1","either","7","2700","","","","","","","0","0","1","","0.2977714141","0.2","0.8","0.6","0.4","0.4064507999","0.2977714141","0.3987772474","0.1900351118","","","","","","","","","","","","74","J","1","","","216","main_expt"
"","bandit","296","1961758","0.0-257.0-0.0","57525664","wem/bandit_either_2","A2EOOF9D135HQ1","either","7","204","","","","","","","0","0","1","0.3017601552","","0.2","0.8","0.6","0.4","","","","","0.4197961641","0.3017601552","0.4101433534","0.2185169477","","","","","","","","74","J","1","","","217","main_expt"
"","bandit","297","1964210","0.0-258.0-0.0","57525664","wem/bandit_either_2","A2EOOF9D135HQ1","either","7","860","","","","","","","1","0","0","0.2888566207","","0.2","0.8","0.6","0.4","","","","","0.4167397569","0.2888566207","0.4448029092","0.2240895604","","","","","","","","74","J","1","","","218","main_expt"
"","bandit","298","1966279","0.0-259.0-0.0","57525664","wem/bandit_either_2","A2EOOF9D135HQ1","either","7","444","","","","","","","0","0","1","0.2844008008","","0.2","0.8","0.6","0.4","","","","","0.4250944588","0.2844008008","0.4454766299","0.1990808675","","","","","","","","74","J","1","","","219","main_expt"
"","bandit","299","1968461","0.0-260.0-0.0","57525664","wem/bandit_either_2","A2EOOF9D135HQ1","either","7","509","","","","","","","0","1","0","","0.2225062479","0.2","0.8","0.6","0.4","0.4173336587","0.2225062479","0.4610997771","0.266602996","","","","","","","","","","","","74","J","1","","","220","main_expt"
"","bandit","300","1970877","0.0-261.0-0.0","57525664","wem/bandit_either_2","A2EOOF9D135HQ1","either","7","788","","","","","","","0","0","1","0.2409900116","","0.2","0.8","0.6","0.4","","","","","0.3944711005","0.2409900116","0.4642289789","0.2443661227","","","","","","","","74","J","1","","","221","main_expt"
"","bandit","301","1973948","0.0-262.0-0.0","57525664","wem/bandit_either_2","A2EOOF9D135HQ1","either","7","1504","","","","","","","0","0","1","0.1989678636","","0.2","0.8","0.6","0.4","","","","","0.3619306912","0.1989678636","0.4641270597","0.2205922116","","","","","","","","74","J","1","","","222","main_expt"
"","bandit","302","1976879","0.0-263.0-0.0","57525664","wem/bandit_either_2","A2EOOF9D135HQ1","either","7","1187","","","","","","","0","0","1","0.1861223506","","0.2","0.8","0.6","0.4","","","","","0.4117842179","0.1902867071","0.4697433819","0.1861223506","","","","","","","","76","L","3","","","223","main_expt"
"","bandit","303","1979041","0.0-264.0-0.0","57525664","wem/bandit_either_2","A2EOOF9D135HQ1","either","7","616","","","","","","","0","0","1","0.1668884863","","0.2","0.8","0.6","0.4","","","","","0.3965092367","0.2076415522","0.460898083","0.1668884863","","","","","","","","76","L","3","","","224","main_expt"
"","bandit","304","1981190","0.0-265.0-0.0","57525664","wem/bandit_either_2","A2EOOF9D135HQ1","either","7","601","","","","","","","0","0","1","0.2393469174","","0.2","0.8","0.6","0.4","","","","","0.4084477862","0.2393469174","0.4394890665","0.1481472712","","","","","","","","74","J","1","","","225","main_expt"
"","bandit","305","1983419","0.0-266.0-0.0","57525664","wem/bandit_either_2","A2EOOF9D135HQ1","either","7","669","","","","","","","0","0","1","0.2425440376","","0.2","0.8","0.6","0.4","","","","","0.4104601526","0.2425440376","0.4520955237","0.1140846591","","","","","","","","74","J","1","","","226","main_expt"
"","bandit","306","1985458","0.0-267.0-0.0","57525664","wem/bandit_either_2","A2EOOF9D135HQ1","either","7","502","","","","","","","0","0","1","0.4324220164","","0.2","0.8","0.6","0.4","","","","","0.3899733519","0.2365603363","0.4324220164","0.1074218354","","","","","","","","75","K","2","","","227","main_expt"
"","bandit","307","1987865","0.0-268.0-0.0","57525664","wem/bandit_either_2","A2EOOF9D135HQ1","either","7","859","","","","","","","0","0","1","","0.4220482421","0.2","0.8","0.6","0.4","0.3796730737","0.2127958296","0.4220482421","0.08065165665","","","","","","","","","","","","75","K","2","","","228","main_expt"
"","bandit","308","1990134","0.0-269.0-0.0","57525664","wem/bandit_either_2","A2EOOF9D135HQ1","either","7","615","","","","","","","0","0","1","","0.4046866514","0.2","0.8","0.6","0.4","0.4046866514","0.2207861463","0.3885749154","0.07774059362","","","","","","","","","","","","72","H","0","img/none_selected.jpg","","229","main_expt"
"","bandit","309","1992186","0.0-270.0-0.0","57525664","wem/bandit_either_2","A2EOOF9D135HQ1","either","7","516","","","","","","","0","0","1","","0.3988793555","0.2","0.8","0.6","0.4","0.3988793555","0.2589226453","0.4023755806","0.1109483114","","","","","","","","","","","","72","H","0","img/none_selected.jpg","","230","main_expt"
"","bandit","310","1994485","0.0-271.0-0.0","57525664","wem/bandit_either_2","A2EOOF9D135HQ1","either","7","746","","","","","","","1","0","0","0.3981898202","","0.2","0.8","0.6","0.4","","","","","0.3981898202","0.2956158432","0.3768725222","0.05902300203","","","","","","","","72","H","0","img/none_selected.jpg","","231","main_expt"
"","bandit","311","1996266","0.0-272.0-0.0","57525664","wem/bandit_either_2","A2EOOF9D135HQ1","either","7","232","","","","","","","0","0","1","","0.4411941832","0.2","0.8","0.6","0.4","0.4411941832","0.3202484073","0.3619917427","0.06675855664","","","","","","","","","","","","72","H","0","img/none_selected.jpg","","232","main_expt"
"","bandit","312","1998176","0.0-273.0-0.0","57525664","wem/bandit_either_2","A2EOOF9D135HQ1","either","7","373","","","","","","","0","1","0","","0.42967461","0.2","0.8","0.6","0.4","0.42967461","0.2933644042","0.3833578816","0.06703699679","","","","","","","","","","","","72","H","0","img/none_selected.jpg","","233","main_expt"
"","bandit","313","2000178","0.0-274.0-0.0","57525664","wem/bandit_either_2","A2EOOF9D135HQ1","either","7","435","","","","","","","0","0","1","","0.4242798354","0.2","0.8","0.6","0.4","0.4242798354","0.3106154811","0.3552131768","0.05331023031","","","","","","","","","","","","72","H","0","img/none_selected.jpg","","234","main_expt"
"","bandit","314","2002085","0.0-275.0-0.0","57525664","wem/bandit_either_2","A2EOOF9D135HQ1","either","7","359","","","","","","","0","0","1","","0.4617388459","0.2","0.8","0.6","0.4","0.4617388459","0.3158990995","0.3135084543","0.05187545802","","","","","","","","","","","","72","H","0","img/none_selected.jpg","","235","main_expt"
"","bandit","315","2004384","0.0-276.0-0.0","57525664","wem/bandit_either_2","A2EOOF9D135HQ1","either","7","716","","","","","","","0","1","0","","0.4619510484","0.2","0.8","0.6","0.4","0.4619510484","0.3036927748","0.244945467","0.06939909985","","","","","","","","","","","","72","H","0","img/none_selected.jpg","","236","main_expt"
"","bandit","316","2006637","0.0-277.0-0.0","57525664","wem/bandit_either_2","A2EOOF9D135HQ1","either","7","656","","","","","","","0","0","1","","0.4482398789","0.2","0.8","0.6","0.4","0.4482398789","0.3491021326","0.1823839079","0.1210409879","","","","","","","","","","","","72","H","0","img/none_selected.jpg","","237","main_expt"
"","bandit","317","2008957","0.0-278.0-0.0","57525664","wem/bandit_either_2","A2EOOF9D135HQ1","either","7","765","","","","","","","0","0","1","","0.4193969143","0.2","0.8","0.6","0.4","0.4193969143","0.3939254097","0.1685050226","0.1147840357","","","","","","","","","","","","72","H","0","img/none_selected.jpg","","238","main_expt"
"","bandit","318","2011274","0.0-279.0-0.0","57525664","wem/bandit_either_2","A2EOOF9D135HQ1","either","7","765","","","","","","","0","0","1","","0.4203848948","0.2","0.8","0.6","0.4","0.4203848948","0.379108978","0.1606472637","0.1006463842","","","","","","","","","","","","72","H","0","img/none_selected.jpg","","239","main_expt"
"","bandit","319","2013329","0.0-280.0-0.0","57525664","wem/bandit_either_2","A2EOOF9D135HQ1","either","7","520","","","","","","","1","0","0","0.3876209848","","0.2","0.8","0.6","0.4","","","","","0.4489383263","0.3876209848","0.1512795466","0.1008771133","","","","","","","","74","J","1","","","240","main_expt"
"","bandit","320","2016176","0.0-281.0-0.0","57525664","wem/bandit_either_2","A2EOOF9D135HQ1","either","7","1301","","","","","","","1","0","0","0.3839625774","","0.2","0.8","0.6","0.4","","","","","0.4636195567","0.3839625774","0.1916219391","0.09981833296","","","","","","","","74","J","1","","","241","main_expt"
"","bandit","321","2018155","0.0-282.0-0.0","57525664","wem/bandit_either_2","A2EOOF9D135HQ1","either","7","442","","","","","","","1","0","0","0.3477958629","","0.2","0.8","0.6","0.4","","","","","0.4575307695","0.3477958629","0.1641013935","0.1171772993","","","","","","","","74","J","1","","","242","main_expt"
"","bandit","322","2019767","0.0-283.0-0.0","57525664","wem/bandit_either_2","A2EOOF9D135HQ1","either","7","74","","","","","","","0","0","1","0.3500658948","","0.2","0.8","0.6","0.4","","","","","0.4449554393","0.3500658948","0.2064320789","0.1239984651","","","","","","","","74","J","1","","","243","main_expt"
"","bandit","323","2021737","0.0-284.0-0.0","57525664","wem/bandit_either_2","A2EOOF9D135HQ1","either","7","348","","","","","","","0","0","1","","0.3452717574","0.2","0.8","0.6","0.4","0.4525763452","0.3452717574","0.2205496082","0.1126152289","","","","","","","","","","","","74","J","1","","","244","main_expt"
"","bandit","324","2023410","0.0-285.0-0.0","57525664","wem/bandit_either_2","A2EOOF9D135HQ1","either","7","137","","","","","","","0","0","1","0.3162288444","","0.2","0.8","0.6","0.4","","","","","0.4753838692","0.3162288444","0.214276823","0.1524829061","","","","","","","","74","J","1","","","245","main_expt"
"","bandit","325","2027505","0.0-286.0-0.0","57525664","wem/bandit_either_2","A2EOOF9D135HQ1","either","7","2529","","","","","","","0","0","1","0.2894596967","","0.2","0.8","0.6","0.4","","","","","0.4623654582","0.2894596967","0.2084567316","0.1921750243","","","","","","","","74","J","1","","","246","main_expt"
"","bandit","326","2029242","0.0-287.0-0.0","57525664","wem/bandit_either_2","A2EOOF9D135HQ1","either","7","192","","","","","","","1","0","0","0.2642296388","","0.2","0.8","0.6","0.4","","","","","0.4331165165","0.2642296388","0.2232303491","0.1931065189","","","","","","","","74","J","1","","","247","main_expt"
"","bandit","327","2033828","0.0-288.0-0.0","57525664","wem/bandit_either_2","A2EOOF9D135HQ1","either","7","3035","","","","","","","1","0","0","0.2534255255","","0.2","0.8","0.6","0.4","","","","","0.4401602984","0.2534255255","0.2541796534","0.2189994516","","","","","","","","74","J","1","","","248","main_expt"
"","bandit","328","2036709","0.0-289.0-0.0","57525664","wem/bandit_either_2","A2EOOF9D135HQ1","either","7","1172","","","","","","","0","0","1","","0.2252980971","0.2","0.8","0.6","0.4","0.430892824","0.2252980971","0.232462199","0.1989243371","","","","","","","","","","","","74","J","1","","","249","main_expt"
