"consent","trial_type","trial_index","time_elapsed","internal_node_id","subjID","study","MID","cond","drift","rt","responses","key_press","expt_phase","like","value","connected","gems","bombs","no_reward","GemPrChosen","BombPrChosen","GainOverPainPr_0","GainOverPainPr_1","GainOverPainPr_2","GainOverPainPr_3","LosePr_0","LosePr_1","LosePr_2","LosePr_3","WinPr_0","WinPr_1","WinPr_2","WinPr_3","Q0","Q1","Q2","gender","age","ethnicity","target","respCharCode","respKey","respChoiceNum","respChoice","practice","trial_counter","trial_label"
"INL_behavioral_consent_30min_online.html","consent","0","46196","0.0-0.0","58501475","wem/bandit_either_2","A2ADEPVGNNXNPA","either","2","","","","","","","","","","","","","","","","","","","","","","","","","","","","","","","","","","","","","",""
"","survey-text","1","49995","0.0-1.0","58501475","wem/bandit_either_2","A2ADEPVGNNXNPA","either","2","2791","{""Q0"":""A2ADEPVGNNXNPA""}","","","","","","","","","","","","","","","","","","","","","","","","","","","","","","","","","","","",""
"","text","2","61989","0.0-2.0","58501475","wem/bandit_either_2","A2ADEPVGNNXNPA","either","2","10990","","32","","","","","","","","","","","","","","","","","","","","","","","","","","","","","","","","","","",""
"","text","3","66727","0.0-3.0","58501475","wem/bandit_either_2","A2ADEPVGNNXNPA","either","2","4736","","32","","","","","","","","","","","","","","","","","","","","","","","","","","","","","","","","","","",""
"","text","4","86582","0.0-4.0","58501475","wem/bandit_either_2","A2ADEPVGNNXNPA","either","2","19854","","32","","","","","","","","","","","","","","","","","","","","","","","","","","","","","","","","","","",""
"","text","5","93135","0.0-5.0","58501475","wem/bandit_either_2","A2ADEPVGNNXNPA","either","2","6552","","32","","","","","","","","","","","","","","","","","","","","","","","","","","","","","","","","","","",""
"","text","6","104950","0.0-6.0","58501475","wem/bandit_either_2","A2ADEPVGNNXNPA","either","2","11814","","32","","","","","","","","","","","","","","","","","","","","","","","","","","","","","","","","","","",""
"","text","7","107527","0.0-7.0","58501475","wem/bandit_either_2","A2ADEPVGNNXNPA","either","2","2576","","32","","","","","","","","","","","","","","","","","","","","","","","","","","","","","","","","","","",""
"","text","8","110799","0.0-8.0","58501475","wem/bandit_either_2","A2ADEPVGNNXNPA","either","2","3271","","32","","","","","","","","","","","","","","","","","","","","","","","","","","","","","","","","","","",""
"","identification","9","123263","0.0-9.0-0.0","58501475","wem/bandit_either_2","A2ADEPVGNNXNPA","either","2","12423","","","","4","4","4","","","","","","","","","","","","","","","","","","","","","","","","the village of Zur","","","","","","",""
"","identification","10","150173","0.0-9.0-1.0","58501475","wem/bandit_either_2","A2ADEPVGNNXNPA","either","2","25869","","","","3","3","2","","","","","","","","","","","","","","","","","","","","","","","","the village of Nyx","","","","","","",""
"","text","11","159694","0.0-10.0","58501475","wem/bandit_either_2","A2ADEPVGNNXNPA","either","2","8519","","32","","","","","","","","","","","","","","","","","","","","","","","","","","","","","","","","","","",""
"","text","12","162213","0.0-11.0","58501475","wem/bandit_either_2","A2ADEPVGNNXNPA","either","2","2518","","32","","","","","","","","","","","","","","","","","","","","","","","","","","","","","","","","","","",""
"","text","13","164125","0.0-12.0","58501475","wem/bandit_either_2","A2ADEPVGNNXNPA","either","2","1910","","32","","","","","","","","","","","","","","","","","","","","","","","","","","","","","","","","","","",""
"","text","14","168054","0.0-13.0","58501475","wem/bandit_either_2","A2ADEPVGNNXNPA","either","2","3926","","32","","","","","","","","","","","","","","","","","","","","","","","","","","","","","","","","","","",""
"","bandit","15","170853","0.0-14.0-0.0","58501475","wem/bandit_either_2","A2ADEPVGNNXNPA","either","2","1292","","","","","","","0","0","1","0","0","","","","","0","","","","0","","","","","","","","","","","74","J","0","img/none_selected_demo.jpg","true","0",""
"","bandit","16","173323","0.0-15.0-0.0","58501475","wem/bandit_either_2","A2ADEPVGNNXNPA","either","2","965","","","","","","","0","0","1","0","0","","","","","0","","","","0","","","","","","","","","","","75","K","0","img/none_selected_demo.jpg","true","0",""
"","text","17","178805","0.0-16.0","58501475","wem/bandit_either_2","A2ADEPVGNNXNPA","either","2","5482","","32","","","","","","","","","","","","","","","","","","","","","","","","","","","","","","","","","","",""
"","text","18","191631","0.0-17.0","58501475","wem/bandit_either_2","A2ADEPVGNNXNPA","either","2","12824","","32","","","","","","","","","","","","","","","","","","","","","","","","","","","","","","","","","","",""
"","text","19","195438","0.0-18.0","58501475","wem/bandit_either_2","A2ADEPVGNNXNPA","either","2","3807","","32","","","","","","","","","","","","","","","","","","","","","","","","","","","","","","","","","","",""
"","text","20","202207","0.0-19.0","58501475","wem/bandit_either_2","A2ADEPVGNNXNPA","either","2","6767","","32","","","","","","","","","","","","","","","","","","","","","","","","","","","","","","","","","","",""
"","bandit","21","205171","0.0-20.0-0.0","58501475","wem/bandit_either_2","A2ADEPVGNNXNPA","either","2","1460","","","","","","","0","1","0","","0.2","0.5","0.5","","","0.8","0.2","","","","","","","","","","","","","","75","K","1","","true","0","80_20_practice"
"","bandit","22","207428","0.0-20.0-1.0","58501475","wem/bandit_either_2","A2ADEPVGNNXNPA","either","2","751","","","","","","","1","0","0","0.8","","0.5","0.5","","","","","","","0.8","0.2","","","","","","","","","","74","J","0","img/none_selected_demo.jpg","true","0","80_20_practice"
"","bandit","23","209900","0.0-20.0-2.0","58501475","wem/bandit_either_2","A2ADEPVGNNXNPA","either","2","966","","","","","","","0","1","0","","0.8","0.5","0.5","","","0.8","0.2","","","","","","","","","","","","","","74","J","0","img/none_selected_demo.jpg","true","0","80_20_practice"
"","bandit","24","211773","0.0-20.0-3.0","58501475","wem/bandit_either_2","A2ADEPVGNNXNPA","either","2","367","","","","","","","0","1","0","","0.2","0.5","0.5","","","0.8","0.2","","","","","","","","","","","","","","75","K","1","","true","0","80_20_practice"
"","bandit","25","213557","0.0-20.0-4.0","58501475","wem/bandit_either_2","A2ADEPVGNNXNPA","either","2","278","","","","","","","0","1","0","","0.8","0.5","0.5","","","0.8","0.2","","","","","","","","","","","","","","74","J","0","img/none_selected_demo.jpg","true","0","80_20_practice"
"","bandit","26","215464","0.0-20.0-5.0","58501475","wem/bandit_either_2","A2ADEPVGNNXNPA","either","2","402","","","","","","","0","0","1","","0.2","0.5","0.5","","","0.8","0.2","","","","","","","","","","","","","","75","K","1","","true","0","80_20_practice"
"","bandit","27","217739","0.0-20.0-6.0","58501475","wem/bandit_either_2","A2ADEPVGNNXNPA","either","2","771","","","","","","","0","0","1","","0.8","0.5","0.5","","","0.8","0.2","","","","","","","","","","","","","","74","J","0","img/none_selected_demo.jpg","true","0","80_20_practice"
"","bandit","28","219484","0.0-20.0-7.0","58501475","wem/bandit_either_2","A2ADEPVGNNXNPA","either","2","237","","","","","","","0","0","1","","0.2","0.5","0.5","","","0.8","0.2","","","","","","","","","","","","","","75","K","1","","true","0","80_20_practice"
"","bandit","29","221139","0.0-20.0-8.0","58501475","wem/bandit_either_2","A2ADEPVGNNXNPA","either","2","151","","","","","","","0","0","1","0.8","","0.5","0.5","","","","","","","0.8","0.2","","","","","","","","","","74","J","0","img/none_selected_demo.jpg","true","0","80_20_practice"
"","bandit","30","222804","0.0-20.0-9.0","58501475","wem/bandit_either_2","A2ADEPVGNNXNPA","either","2","160","","","","","","","0","1","0","","0.2","0.5","0.5","","","0.8","0.2","","","","","","","","","","","","","","75","K","1","","true","0","80_20_practice"
"","bandit","31","224675","0.0-20.0-10.0","58501475","wem/bandit_either_2","A2ADEPVGNNXNPA","either","2","367","","","","","","","0","0","1","","0.2","0.5","0.5","","","0.8","0.2","","","","","","","","","","","","","","75","K","1","","true","0","80_20_practice"
"","bandit","32","226803","0.0-20.0-11.0","58501475","wem/bandit_either_2","A2ADEPVGNNXNPA","either","2","623","","","","","","","0","1","0","","0.8","0.5","0.5","","","0.8","0.2","","","","","","","","","","","","","","74","J","0","img/none_selected_demo.jpg","true","0","80_20_practice"
"","bandit","33","228764","0.0-20.0-12.0","58501475","wem/bandit_either_2","A2ADEPVGNNXNPA","either","2","455","","","","","","","0","1","0","","0.8","0.5","0.5","","","0.8","0.2","","","","","","","","","","","","","","74","J","0","img/none_selected_demo.jpg","true","0","80_20_practice"
"","bandit","34","230692","0.0-20.0-13.0","58501475","wem/bandit_either_2","A2ADEPVGNNXNPA","either","2","423","","","","","","","1","0","0","0.2","","0.5","0.5","","","","","","","0.8","0.2","","","","","","","","","","75","K","1","","true","0","80_20_practice"
"","bandit","35","232541","0.0-20.0-14.0","58501475","wem/bandit_either_2","A2ADEPVGNNXNPA","either","2","343","","","","","","","0","0","1","","0.2","0.5","0.5","","","0.8","0.2","","","","","","","","","","","","","","75","K","1","","true","0","80_20_practice"
"","bandit","36","234388","0.0-20.0-15.0","58501475","wem/bandit_either_2","A2ADEPVGNNXNPA","either","2","342","","","","","","","0","0","1","","0.2","0.5","0.5","","","0.8","0.2","","","","","","","","","","","","","","75","K","1","","true","0","80_20_practice"
"","bandit","37","236228","0.0-20.0-16.0","58501475","wem/bandit_either_2","A2ADEPVGNNXNPA","either","2","334","","","","","","","0","0","1","0.2","","0.5","0.5","","","","","","","0.8","0.2","","","","","","","","","","75","K","1","","true","0","80_20_practice"
"","bandit","38","238115","0.0-20.0-17.0","58501475","wem/bandit_either_2","A2ADEPVGNNXNPA","either","2","382","","","","","","","1","0","0","0.8","","0.5","0.5","","","","","","","0.8","0.2","","","","","","","","","","74","J","0","img/none_selected_demo.jpg","true","0","80_20_practice"
"","bandit","39","239906","0.0-20.0-18.0","58501475","wem/bandit_either_2","A2ADEPVGNNXNPA","either","2","286","","","","","","","0","1","0","","0.8","0.5","0.5","","","0.8","0.2","","","","","","","","","","","","","","74","J","0","img/none_selected_demo.jpg","true","0","80_20_practice"
"","bandit","40","241884","0.0-20.0-19.0","58501475","wem/bandit_either_2","A2ADEPVGNNXNPA","either","2","472","","","","","","","0","1","0","","0.8","0.5","0.5","","","0.8","0.2","","","","","","","","","","","","","","74","J","0","img/none_selected_demo.jpg","true","0","80_20_practice"
"","text","41","245877","0.0-21.0","58501475","wem/bandit_either_2","A2ADEPVGNNXNPA","either","2","3991","","32","","","","","","","","","","","","","","","","","","","","","","","","","","","","","","","","","","",""
"","bandit","42","248195","0.0-22.0-0.0","58501475","wem/bandit_either_2","A2ADEPVGNNXNPA","either","2","814","","","","","","","1","0","0","1","0","","","","","0","1","","","1","0","","","","","","","","","","74","J","0","img/none_selected_demo.jpg","true","0",""
"","text","43","248254","0.0-23.0","58501475","wem/bandit_either_2","A2ADEPVGNNXNPA","either","2","57","","32","","","","","","","","","","","","","","","","","","","","","","","","","","","","","","","","","","",""
"","text","44","250669","0.0-24.0","58501475","wem/bandit_either_2","A2ADEPVGNNXNPA","either","2","2414","","32","","","","","","","","","","","","","","","","","","","","","","","","","","","","","","","","","","",""
"","text","45","253109","0.0-25.0","58501475","wem/bandit_either_2","A2ADEPVGNNXNPA","either","2","2437","","32","","","","","","","","","","","","","","","","","","","","","","","","","","","","","","","","","","",""
"","text","46","256598","0.0-26.0","58501475","wem/bandit_either_2","A2ADEPVGNNXNPA","either","2","3487","","32","","","","","","","","","","","","","","","","","","","","","","","","","","","","","","","","","","",""
"","text","47","257766","0.0-27.0","58501475","wem/bandit_either_2","A2ADEPVGNNXNPA","either","2","1164","","32","","","","","","","","","","","","","","","","","","","","","","","","","","","","","","","","","","",""
"","text","48","259829","0.0-28.0","58501475","wem/bandit_either_2","A2ADEPVGNNXNPA","either","2","2060","","32","","","","","","","","","","","","","","","","","","","","","","","","","","","","","","","","","","",""
"","text","49","262549","0.0-29.0","58501475","wem/bandit_either_2","A2ADEPVGNNXNPA","either","2","2718","","32","","","","","","","","","","","","","","","","","","","","","","","","","","","","","","","","","","",""
"","text","50","264934","0.0-30.0","58501475","wem/bandit_either_2","A2ADEPVGNNXNPA","either","2","2383","","32","","","","","","","","","","","","","","","","","","","","","","","","","","","","","","","","","","",""
"","text","51","269822","0.0-31.0","58501475","wem/bandit_either_2","A2ADEPVGNNXNPA","either","2","4886","","32","","","","","","","","","","","","","","","","","","","","","","","","","","","","","","","","","","",""
"","text","52","271205","0.0-32.0","58501475","wem/bandit_either_2","A2ADEPVGNNXNPA","either","2","1381","","32","","","","","","","","","","","","","","","","","","","","","","","","","","","","","","","","","","",""
"","text","53","274885","0.0-33.0","58501475","wem/bandit_either_2","A2ADEPVGNNXNPA","either","2","3677","","32","","","","","","","","","","","","","","","","","","","","","","","","","","","","","","","","","","",""
"","bandit","54","276392","0.0-34.0-0.0","58501475","wem/bandit_either_2","A2ADEPVGNNXNPA","either","2","1","","","","","","","1","0","0","0.2","","0.5","0.5","0.5","0.5","","","","","0.8","0.2","0.6","0.2","","","","","","","","76","L","3","","true","0","full_practice"
"","bandit","55","278435","0.0-34.0-1.0","58501475","wem/bandit_either_2","A2ADEPVGNNXNPA","either","2","536","","","","","","","0","0","1","","0.6","0.5","0.5","0.5","0.5","0.8","0.2","0.6","0.2","","","","","","","","","","","","75","K","2","","true","0","full_practice"
"","bandit","56","279962","0.0-34.0-2.0","58501475","wem/bandit_either_2","A2ADEPVGNNXNPA","either","2","21","","","","","","","1","0","0","0.2","","0.5","0.5","0.5","0.5","","","","","0.8","0.2","0.6","0.2","","","","","","","","74","J","1","","true","0","full_practice"
"","bandit","57","282098","0.0-34.0-3.0","58501475","wem/bandit_either_2","A2ADEPVGNNXNPA","either","2","631","","","","","","","1","0","0","0.8","","0.5","0.5","0.5","0.5","","","","","0.8","0.2","0.6","0.2","","","","","","","","72","H","0","img/none_selected.jpg","true","0","full_practice"
"","bandit","58","284578","0.0-34.0-4.0","58501475","wem/bandit_either_2","A2ADEPVGNNXNPA","either","2","976","","","","","","","0","0","1","","0.8","0.5","0.5","0.5","0.5","0.8","0.2","0.6","0.2","","","","","","","","","","","","72","H","0","img/none_selected.jpg","true","0","full_practice"
"","bandit","59","286138","0.0-34.0-5.0","58501475","wem/bandit_either_2","A2ADEPVGNNXNPA","either","2","55","","","","","","","0","0","1","","0.8","0.5","0.5","0.5","0.5","0.8","0.2","0.6","0.2","","","","","","","","","","","","72","H","0","img/none_selected.jpg","true","0","full_practice"
"","bandit","60","288858","0.0-34.0-6.0","58501475","wem/bandit_either_2","A2ADEPVGNNXNPA","either","2","1215","","","","","","","0","0","1","0.2","","0.5","0.5","0.5","0.5","","","","","0.8","0.2","0.6","0.2","","","","","","","","74","J","1","","true","0","full_practice"
"","bandit","61","290602","0.0-34.0-7.0","58501475","wem/bandit_either_2","A2ADEPVGNNXNPA","either","2","239","","","","","","","0","0","1","0.2","","0.5","0.5","0.5","0.5","","","","","0.8","0.2","0.6","0.2","","","","","","","","74","J","1","","true","0","full_practice"
"","bandit","62","292228","0.0-34.0-8.0","58501475","wem/bandit_either_2","A2ADEPVGNNXNPA","either","2","120","","","","","","","0","0","1","","0.2","0.5","0.5","0.5","0.5","0.8","0.2","0.6","0.2","","","","","","","","","","","","74","J","1","","true","0","full_practice"
"","bandit","63","294122","0.0-34.0-9.0","58501475","wem/bandit_either_2","A2ADEPVGNNXNPA","either","2","388","","","","","","","0","0","1","","0.6","0.5","0.5","0.5","0.5","0.8","0.2","0.6","0.2","","","","","","","","","","","","75","K","2","","true","0","full_practice"
"","bandit","64","296346","0.0-34.0-10.0","58501475","wem/bandit_either_2","A2ADEPVGNNXNPA","either","2","718","","","","","","","1","0","0","0.6","","0.5","0.5","0.5","0.5","","","","","0.8","0.2","0.6","0.2","","","","","","","","75","K","2","","true","0","full_practice"
"","bandit","65","298178","0.0-34.0-11.0","58501475","wem/bandit_either_2","A2ADEPVGNNXNPA","either","2","324","","","","","","","0","0","1","","0.6","0.5","0.5","0.5","0.5","0.8","0.2","0.6","0.2","","","","","","","","","","","","75","K","2","","true","0","full_practice"
"","bandit","66","301281","0.0-34.0-12.0","58501475","wem/bandit_either_2","A2ADEPVGNNXNPA","either","2","1600","","","","","","","0","0","1","","0.2","0.5","0.5","0.5","0.5","0.8","0.2","0.6","0.2","","","","","","","","","","","","76","L","3","","true","0","full_practice"
"","bandit","67","303156","0.0-34.0-13.0","58501475","wem/bandit_either_2","A2ADEPVGNNXNPA","either","2","368","","","","","","","0","0","1","0.2","","0.5","0.5","0.5","0.5","","","","","0.8","0.2","0.6","0.2","","","","","","","","76","L","3","","true","0","full_practice"
"","bandit","68","304807","0.0-34.0-14.0","58501475","wem/bandit_either_2","A2ADEPVGNNXNPA","either","2","141","","","","","","","0","1","0","","0.2","0.5","0.5","0.5","0.5","0.8","0.2","0.6","0.2","","","","","","","","","","","","76","L","3","","true","0","full_practice"
"","bandit","69","306873","0.0-34.0-15.0","58501475","wem/bandit_either_2","A2ADEPVGNNXNPA","either","2","561","","","","","","","1","0","0","0.8","","0.5","0.5","0.5","0.5","","","","","0.8","0.2","0.6","0.2","","","","","","","","72","H","0","img/none_selected.jpg","true","0","full_practice"
"","bandit","70","308731","0.0-34.0-16.0","58501475","wem/bandit_either_2","A2ADEPVGNNXNPA","either","2","351","","","","","","","0","1","0","","0.8","0.5","0.5","0.5","0.5","0.8","0.2","0.6","0.2","","","","","","","","","","","","72","H","0","img/none_selected.jpg","true","0","full_practice"
"","bandit","71","310573","0.0-34.0-17.0","58501475","wem/bandit_either_2","A2ADEPVGNNXNPA","either","2","334","","","","","","","0","0","1","","0.8","0.5","0.5","0.5","0.5","0.8","0.2","0.6","0.2","","","","","","","","","","","","72","H","0","img/none_selected.jpg","true","0","full_practice"
"","bandit","72","312955","0.0-34.0-18.0","58501475","wem/bandit_either_2","A2ADEPVGNNXNPA","either","2","875","","","","","","","0","1","0","","0.8","0.5","0.5","0.5","0.5","0.8","0.2","0.6","0.2","","","","","","","","","","","","72","H","0","img/none_selected.jpg","true","0","full_practice"
"","bandit","73","314852","0.0-34.0-19.0","58501475","wem/bandit_either_2","A2ADEPVGNNXNPA","either","2","390","","","","","","","0","0","1","0.2","","0.5","0.5","0.5","0.5","","","","","0.8","0.2","0.6","0.2","","","","","","","","74","J","1","","true","0","full_practice"
"","text","74","317335","0.0-35.0","58501475","wem/bandit_either_2","A2ADEPVGNNXNPA","either","2","2476","","32","","","","","","","","","","","","","","","","","","","","","","","","","","","","","","","","","","",""
"","text","75","326839","0.0-36.0","58501475","wem/bandit_either_2","A2ADEPVGNNXNPA","either","2","8501","","32","","","","","","","","","","","","","","","","","","","","","","","","","","","","","","","","","","",""
"","text","76","332654","0.0-37.0","58501475","wem/bandit_either_2","A2ADEPVGNNXNPA","either","2","5812","","32","","","","","","","","","","","","","","","","","","","","","","","","","","","","","","","","","","",""
"","text","77","334655","0.0-38.0","58501475","wem/bandit_either_2","A2ADEPVGNNXNPA","either","2","1999","","32","","","","","","","","","","","","","","","","","","","","","","","","","","","","","","","","","","",""
"","text","78","340183","0.0-39.0","58501475","wem/bandit_either_2","A2ADEPVGNNXNPA","either","2","5525","","32","","","","","","","","","","","","","","","","","","","","","","","","","","","","","","","","","","",""
"","text","79","347318","0.0-40.0","58501475","wem/bandit_either_2","A2ADEPVGNNXNPA","either","2","7132","","32","","","","","","","","","","","","","","","","","","","","","","","","","","","","","","","","","","",""
"","bandit","80","349628","0.0-41.0-0.0","58501475","wem/bandit_either_2","A2ADEPVGNNXNPA","either","2","804","","","","","","","0","0","1","0.3653736811","","0.6","0.2","0.4","0.8","","","","","0.3653736811","0.362799796","0.4781977867","0.326135308","","","","","","","","72","H","0","img/none_selected.jpg","","1","main_expt"
"","bandit","81","351333","0.0-42.0-0.0","58501475","wem/bandit_either_2","A2ADEPVGNNXNPA","either","2","198","","","","","","","0","0","1","","0.3891507205","0.6","0.2","0.4","0.8","0.3999069229","0.3891507205","0.4765481994","0.3564958201","","","","","","","","","","","","74","J","1","","","2","main_expt"
"","bandit","82","352989","0.0-43.0-0.0","58501475","wem/bandit_either_2","A2ADEPVGNNXNPA","either","2","148","","","","","","","0","1","0","","0.4722158263","0.6","0.2","0.4","0.8","0.4363582421","0.3151339382","0.4722158263","0.3309056029","","","","","","","","","","","","75","K","2","","","3","main_expt"
"","bandit","83","354580","0.0-44.0-0.0","58501475","wem/bandit_either_2","A2ADEPVGNNXNPA","either","2","83","","","","","","","0","0","1","0.308467875","","0.6","0.2","0.4","0.8","","","","","0.4300921111","0.250648122","0.4609570051","0.308467875","","","","","","","","76","L","3","","","4","main_expt"
"","bandit","84","356603","0.0-45.0-0.0","58501475","wem/bandit_either_2","A2ADEPVGNNXNPA","either","2","517","","","","","","","1","0","0","0.3863220662","","0.6","0.2","0.4","0.8","","","","","0.3863220662","0.2382585344","0.4707799186","0.3349995635","","","","","","","","72","H","0","img/none_selected.jpg","","5","main_expt"
"","bandit","85","358259","0.0-46.0-0.0","58501475","wem/bandit_either_2","A2ADEPVGNNXNPA","either","2","150","","","","","","","0","1","0","","0.4192648028","0.6","0.2","0.4","0.8","0.4192648028","0.2088101903","0.4676743975","0.3743101545","","","","","","","","","","","","72","H","0","img/none_selected.jpg","","6","main_expt"
"","bandit","86","360226","0.0-47.0-0.0","58501475","wem/bandit_either_2","A2ADEPVGNNXNPA","either","2","461","","","","","","","0","0","1","","0.4218548145","0.6","0.2","0.4","0.8","0.4218548145","0.1884279889","0.4767364015","0.377506125","","","","","","","","","","","","72","H","0","img/none_selected.jpg","","7","main_expt"
"","bandit","87","362036","0.0-48.0-0.0","58501475","wem/bandit_either_2","A2ADEPVGNNXNPA","either","2","302","","","","","","","0","0","1","","0.2297930851","0.6","0.2","0.4","0.8","0.4298914749","0.2297930851","0.4837409877","0.3452849142","","","","","","","","","","","","74","J","1","","","8","main_expt"
"","bandit","88","363859","0.0-49.0-0.0","58501475","wem/bandit_either_2","A2ADEPVGNNXNPA","either","2","318","","","","","","","0","1","0","","0.2219539873","0.6","0.2","0.4","0.8","0.4215440671","0.2219539873","0.4825212187","0.2713567333","","","","","","","","","","","","74","J","1","","","9","main_expt"
"","bandit","89","365746","0.0-50.0-0.0","58501475","wem/bandit_either_2","A2ADEPVGNNXNPA","either","2","380","","","","","","","0","0","1","","0.2398128751","0.6","0.2","0.4","0.8","0.3991616263","0.2398128751","0.4791264729","0.2712708503","","","","","","","","","","","","74","J","1","","","10","main_expt"
"","bandit","90","368170","0.0-51.0-0.0","58501475","wem/bandit_either_2","A2ADEPVGNNXNPA","either","2","918","","","","","","","1","0","0","0.4762013833","","0.6","0.2","0.4","0.8","","","","","0.4002673883","0.2551733424","0.4762013833","0.2635531688","","","","","","","","75","K","2","","","11","main_expt"
"","bandit","91","370242","0.0-52.0-0.0","58501475","wem/bandit_either_2","A2ADEPVGNNXNPA","either","2","567","","","","","","","0","0","1","","0.4729837645","0.6","0.2","0.4","0.8","0.368629831","0.2593424883","0.4729837645","0.2669056975","","","","","","","","","","","","75","K","2","","","12","main_expt"
"","bandit","92","372154","0.0-53.0-0.0","58501475","wem/bandit_either_2","A2ADEPVGNNXNPA","either","2","409","","","","","","","0","1","0","","0.4749786695","0.6","0.2","0.4","0.8","0.4189726289","0.2493591627","0.4749786695","0.3204456557","","","","","","","","","","","","75","K","2","","","13","main_expt"
"","bandit","93","374140","0.0-54.0-0.0","58501475","wem/bandit_either_2","A2ADEPVGNNXNPA","either","2","480","","","","","","","1","0","0","0.4810115094","","0.6","0.2","0.4","0.8","","","","","0.4352425359","0.2686446846","0.4810115094","0.3466526728","","","","","","","","75","K","2","","","14","main_expt"
"","bandit","94","376059","0.0-55.0-0.0","58501475","wem/bandit_either_2","A2ADEPVGNNXNPA","either","2","415","","","","","","","1","0","0","0.4705329286","","0.6","0.2","0.4","0.8","","","","","0.3819090161","0.2690169042","0.4705329286","0.3736671224","","","","","","","","75","K","2","","","15","main_expt"
"","bandit","95","377989","0.0-56.0-0.0","58501475","wem/bandit_either_2","A2ADEPVGNNXNPA","either","2","423","","","","","","","1","0","0","0.4687419894","","0.6","0.2","0.4","0.8","","","","","0.3737760256","0.2518303543","0.4687419894","0.3778143907","","","","","","","","75","K","2","","","16","main_expt"
"","bandit","96","379883","0.0-57.0-0.0","58501475","wem/bandit_either_2","A2ADEPVGNNXNPA","either","2","387","","","","","","","1","0","0","0.4594180265","","0.6","0.2","0.4","0.8","","","","","0.4151791473","0.2406549936","0.4594180265","0.3845750066","","","","","","","","75","K","2","","","17","main_expt"
"","bandit","97","381890","0.0-58.0-0.0","58501475","wem/bandit_either_2","A2ADEPVGNNXNPA","either","2","502","","","","","","","0","0","1","0.425397146","","0.6","0.2","0.4","0.8","","","","","0.4137363134","0.2670149403","0.425397146","0.4041286345","","","","","","","","75","K","2","","","18","main_expt"
"","bandit","98","383587","0.0-59.0-0.0","58501475","wem/bandit_either_2","A2ADEPVGNNXNPA","either","2","190","","","","","","","0","0","1","","0.4201246927","0.6","0.2","0.4","0.8","0.4084056464","0.2658482338","0.4201246927","0.4127350431","","","","","","","","","","","","75","K","2","","","19","main_expt"
"","bandit","99","385609","0.0-60.0-0.0","58501475","wem/bandit_either_2","A2ADEPVGNNXNPA","either","2","518","","","","","","","0","0","1","0.4107359536","","0.6","0.2","0.4","0.8","","","","","0.4129175496","0.2452433766","0.3954271328","0.4107359536","","","","","","","","76","L","3","","","20","main_expt"
"","bandit","100","387546","0.0-61.0-0.0","58501475","wem/bandit_either_2","A2ADEPVGNNXNPA","either","2","432","","","","","","","0","0","1","0.3954861765","","0.6","0.2","0.4","0.8","","","","","0.3888488162","0.2298761452","0.4196431029","0.3954861765","","","","","","","","76","L","3","","","21","main_expt"
"","bandit","101","389596","0.0-62.0-0.0","58501475","wem/bandit_either_2","A2ADEPVGNNXNPA","either","2","542","","","","","","","1","0","0","0.3805979297","","0.6","0.2","0.4","0.8","","","","","0.3873149631","0.266827693","0.3843335182","0.3805979297","","","","","","","","76","L","3","","","22","main_expt"
"","bandit","102","391475","0.0-63.0-0.0","58501475","wem/bandit_either_2","A2ADEPVGNNXNPA","either","2","375","","","","","","","0","1","0","","0.425451992","0.6","0.2","0.4","0.8","0.3659772031","0.2519769849","0.3839977458","0.425451992","","","","","","","","","","","","76","L","3","","","23","main_expt"
"","bandit","103","393388","0.0-64.0-0.0","58501475","wem/bandit_either_2","A2ADEPVGNNXNPA","either","2","405","","","","","","","0","0","1","0.4699447661","","0.6","0.2","0.4","0.8","","","","","0.3594327093","0.2447613107","0.3338939571","0.4699447661","","","","","","","","76","L","3","","","24","main_expt"
"","bandit","104","397276","0.0-65.0-0.0","58501475","wem/bandit_either_2","A2ADEPVGNNXNPA","either","2","2383","","","","","","","1","0","0","0.3719143394","","0.6","0.2","0.4","0.8","","","","","0.3719143394","0.2350413847","0.324486952","0.4484050393","","","","","","","","72","H","0","img/none_selected.jpg","","25","main_expt"
"","bandit","105","399180","0.0-66.0-0.0","58501475","wem/bandit_either_2","A2ADEPVGNNXNPA","either","2","396","","","","","","","1","0","0","0.3690014044","","0.6","0.2","0.4","0.8","","","","","0.3690014044","0.207774486","0.3095710384","0.4190234423","","","","","","","","72","H","0","img/none_selected.jpg","","26","main_expt"
"","bandit","106","401186","0.0-67.0-0.0","58501475","wem/bandit_either_2","A2ADEPVGNNXNPA","either","2","500","","","","","","","0","0","1","0.3940030818","","0.6","0.2","0.4","0.8","","","","","0.3940030818","0.2164182795","0.3355629191","0.4251478254","","","","","","","","72","H","0","img/none_selected.jpg","","27","main_expt"
"","bandit","107","404002","0.0-68.0-0.0","58501475","wem/bandit_either_2","A2ADEPVGNNXNPA","either","2","1309","","","","","","","0","0","1","","0.2164031865","0.6","0.2","0.4","0.8","0.4111080327","0.2164031865","0.3668681485","0.4287328697","","","","","","","","","","","","74","J","1","","","28","main_expt"
"","bandit","108","406002","0.0-69.0-0.0","58501475","wem/bandit_either_2","A2ADEPVGNNXNPA","either","2","496","","","","","","","0","0","1","0.343198694","","0.6","0.2","0.4","0.8","","","","","0.41290056","0.2770000278","0.343198694","0.4106025245","","","","","","","","75","K","2","","","29","main_expt"
"","bandit","109","408067","0.0-70.0-0.0","58501475","wem/bandit_either_2","A2ADEPVGNNXNPA","either","2","560","","","","","","","0","0","1","","0.326069126","0.6","0.2","0.4","0.8","0.3937480262","0.2354797847","0.326069126","0.3942494676","","","","","","","","","","","","75","K","2","","","30","main_expt"
"","bandit","110","410268","0.0-71.0-0.0","58501475","wem/bandit_either_2","A2ADEPVGNNXNPA","either","2","694","","","","","","","0","0","1","","0.3997016236","0.6","0.2","0.4","0.8","0.3997016236","0.2692030882","0.3390127419","0.4285056211","","","","","","","","","","","","72","H","0","img/none_selected.jpg","","31","main_expt"
"","bandit","111","411920","0.0-72.0-0.0","58501475","wem/bandit_either_2","A2ADEPVGNNXNPA","either","2","146","","","","","","","1","0","0","0.3574295763","","0.6","0.2","0.4","0.8","","","","","0.3574295763","0.2471118655","0.3360649894","0.4249454459","","","","","","","","72","H","0","img/none_selected.jpg","","32","main_expt"
"","bandit","112","413939","0.0-73.0-0.0","58501475","wem/bandit_either_2","A2ADEPVGNNXNPA","either","2","512","","","","","","","1","0","0","0.3877818659","","0.6","0.2","0.4","0.8","","","","","0.3877818659","0.2879199001","0.3052602024","0.416417765","","","","","","","","72","H","0","img/none_selected.jpg","","33","main_expt"
"","bandit","113","415843","0.0-74.0-0.0","58501475","wem/bandit_either_2","A2ADEPVGNNXNPA","either","2","398","","","","","","","0","0","1","0.3799496232","","0.6","0.2","0.4","0.8","","","","","0.3799496232","0.3180115212","0.3594788954","0.4623714429","","","","","","","","72","H","0","img/none_selected.jpg","","34","main_expt"
"","bandit","114","417715","0.0-75.0-0.0","58501475","wem/bandit_either_2","A2ADEPVGNNXNPA","either","2","365","","","","","","","0","0","1","0.3577573403","","0.6","0.2","0.4","0.8","","","","","0.3577573403","0.2524306687","0.380235832","0.4591977302","","","","","","","","72","H","0","img/none_selected.jpg","","35","main_expt"
"","bandit","115","419506","0.0-76.0-0.0","58501475","wem/bandit_either_2","A2ADEPVGNNXNPA","either","2","284","","","","","","","0","0","1","","0.2351869563","0.6","0.2","0.4","0.8","0.3895375856","0.2351869563","0.3459989602","0.4686235256","","","","","","","","","","","","74","J","1","","","36","main_expt"
"","bandit","116","421497","0.0-77.0-0.0","58501475","wem/bandit_either_2","A2ADEPVGNNXNPA","either","2","486","","","","","","","0","0","1","0.3320905149","","0.6","0.2","0.4","0.8","","","","","0.3783527007","0.2629170466","0.3320905149","0.4571547709","","","","","","","","75","K","2","","","37","main_expt"
"","bandit","117","423395","0.0-78.0-0.0","58501475","wem/bandit_either_2","A2ADEPVGNNXNPA","either","2","392","","","","","","","1","0","0","0.3471020919","","0.6","0.2","0.4","0.8","","","","","0.284076782","0.3090194305","0.3471020919","0.4688430709","","","","","","","","75","K","2","","","38","main_expt"
"","bandit","118","425235","0.0-79.0-0.0","58501475","wem/bandit_either_2","A2ADEPVGNNXNPA","either","2","334","","","","","","","0","1","0","","0.3401763967","0.6","0.2","0.4","0.8","0.3388972186","0.2845371228","0.3401763967","0.4612923778","","","","","","","","","","","","75","K","2","","","39","main_expt"
"","bandit","119","427155","0.0-80.0-0.0","58501475","wem/bandit_either_2","A2ADEPVGNNXNPA","either","2","413","","","","","","","0","0","1","0.3260487483","","0.6","0.2","0.4","0.8","","","","","0.2663655232","0.3076259244","0.3260487483","0.4576194683","","","","","","","","75","K","2","","","40","main_expt"
"","bandit","120","429027","0.0-81.0-0.0","58501475","wem/bandit_either_2","A2ADEPVGNNXNPA","either","2","365","","","","","","","0","1","0","","0.3390218734","0.6","0.2","0.4","0.8","0.2608266697","0.2888769276","0.3390218734","0.4473921051","","","","","","","","","","","","75","K","2","","","41","main_expt"
"","bandit","121","430602","0.0-82.0-0.0","58501475","wem/bandit_either_2","A2ADEPVGNNXNPA","either","2","68","","","","","","","0","1","0","","0.2889680017","0.6","0.2","0.4","0.8","0.2287676803","0.2639198141","0.2889680017","0.425470286","","","","","","","","","","","","75","K","2","","","42","main_expt"
"","bandit","122","432555","0.0-83.0-0.0","58501475","wem/bandit_either_2","A2ADEPVGNNXNPA","either","2","446","","","","","","","0","1","0","","0.2784828801","0.6","0.2","0.4","0.8","0.2043112358","0.2255441472","0.2784828801","0.4030522017","","","","","","","","","","","","75","K","2","","","43","main_expt"
"","bandit","123","434466","0.0-84.0-0.0","58501475","wem/bandit_either_2","A2ADEPVGNNXNPA","either","2","404","","","","","","","0","0","1","","0.2805729819","0.6","0.2","0.4","0.8","0.1957049551","0.2050272072","0.2805729819","0.4106315797","","","","","","","","","","","","75","K","2","","","44","main_expt"
"","bandit","124","436282","0.0-85.0-0.0","58501475","wem/bandit_either_2","A2ADEPVGNNXNPA","either","2","308","","","","","","","0","0","1","0.2195119073","","0.6","0.2","0.4","0.8","","","","","0.2207366272","0.239455925","0.2195119073","0.4258527362","","","","","","","","75","K","2","","","45","main_expt"
"","bandit","125","438138","0.0-86.0-0.0","58501475","wem/bandit_either_2","A2ADEPVGNNXNPA","either","2","348","","","","","","","1","0","0","0.2657932304","","0.6","0.2","0.4","0.8","","","","","0.1727988076","0.2414778298","0.2657932304","0.4425966235","","","","","","","","75","K","2","","","46","main_expt"
"","bandit","126","439721","0.0-87.0-0.0","58501475","wem/bandit_either_2","A2ADEPVGNNXNPA","either","2","77","","","","","","","0","0","1","","0.2678398397","0.6","0.2","0.4","0.8","0.1446735631","0.1884211613","0.2678398397","0.4428977597","","","","","","","","","","","","75","K","2","","","47","main_expt"
"","bandit","127","441634","0.0-88.0-0.0","58501475","wem/bandit_either_2","A2ADEPVGNNXNPA","either","2","407","","","","","","","0","0","1","0.2866904938","","0.6","0.2","0.4","0.8","","","","","0.1681765936","0.1755274282","0.2866904938","0.4479964269","","","","","","","","75","K","2","","","48","main_expt"
"","bandit","128","443353","0.0-89.0-0.0","58501475","wem/bandit_either_2","A2ADEPVGNNXNPA","either","2","214","","","","","","","0","0","1","","0.2803848884","0.6","0.2","0.4","0.8","0.1473883531","0.1646396384","0.2803848884","0.4660387519","","","","","","","","","","","","75","K","2","","","49","main_expt"
"","bandit","129","445314","0.0-90.0-0.0","58501475","wem/bandit_either_2","A2ADEPVGNNXNPA","either","2","453","","","","","","","0","0","1","0.2587411269","","0.6","0.2","0.4","0.8","","","","","0.1378170987","0.2024226619","0.2587411269","0.4345757832","","","","","","","","75","K","2","","","50","main_expt"
"","bandit","130","447265","0.0-91.0-0.0","58501475","wem/bandit_either_2","A2ADEPVGNNXNPA","either","2","445","","","","","","","1","0","0","0.4450950844","","0.6","0.2","0.4","0.8","","","","","0.1430360168","0.1976760068","0.2212901065","0.4450950844","","","","","","","","76","L","3","","","51","main_expt"
"","bandit","131","449124","0.0-92.0-0.0","58501475","wem/bandit_either_2","A2ADEPVGNNXNPA","either","2","351","","","","","","","0","0","1","0.4475354499","","0.6","0.2","0.4","0.8","","","","","0.1731798725","0.1796352224","0.236006857","0.4475354499","","","","","","","","76","L","3","","","52","main_expt"
"","bandit","132","450858","0.0-93.0-0.0","58501475","wem/bandit_either_2","A2ADEPVGNNXNPA","either","2","226","","","","","","","0","0","1","","0.1312409056","0.6","0.2","0.4","0.8","0.1312409056","0.2451732725","0.2660825342","0.4627294295","","","","","","","","","","","","72","H","0","img/none_selected.jpg","","53","main_expt"
"","bandit","133","453131","0.0-94.0-0.0","58501475","wem/bandit_either_2","A2ADEPVGNNXNPA","either","2","763","","","","","","","0","0","1","0.1862053218","","0.6","0.2","0.4","0.8","","","","","0.1862053218","0.2621482643","0.2458345041","0.44829207","","","","","","","","72","H","0","img/none_selected.jpg","","54","main_expt"
"","bandit","134","454714","0.0-95.0-0.0","58501475","wem/bandit_either_2","A2ADEPVGNNXNPA","either","2","77","","","","","","","0","0","1","","0.1733563037","0.6","0.2","0.4","0.8","0.1733563037","0.2441780383","0.2265690781","0.4505537928","","","","","","","","","","","","72","H","0","img/none_selected.jpg","","55","main_expt"
"","bandit","135","456418","0.0-96.0-0.0","58501475","wem/bandit_either_2","A2ADEPVGNNXNPA","either","2","197","","","","","","","0","0","1","0.1728369204","","0.6","0.2","0.4","0.8","","","","","0.1728369204","0.199729785","0.2741820357","0.4686400132","","","","","","","","72","H","0","img/none_selected.jpg","","56","main_expt"
"","bandit","136","458419","0.0-97.0-0.0","58501475","wem/bandit_either_2","A2ADEPVGNNXNPA","either","2","494","","","","","","","0","0","1","","0.09176359954","0.6","0.2","0.4","0.8","0.09176359954","0.1945085845","0.2937641054","0.4572679106","","","","","","","","","","","","72","H","0","img/none_selected.jpg","","57","main_expt"
"","bandit","137","459940","0.0-98.0-0.0","58501475","wem/bandit_either_2","A2ADEPVGNNXNPA","either","2","11","","","","","","","0","0","1","0.04991422033","","0.6","0.2","0.4","0.8","","","","","0.04991422033","0.2614759052","0.2949827607","0.4300169527","","","","","","","","72","H","0","img/none_selected.jpg","","58","main_expt"
"","bandit","138","461682","0.0-99.0-0.0","58501475","wem/bandit_either_2","A2ADEPVGNNXNPA","either","2","235","","","","","","","0","0","1","0.053239915","","0.6","0.2","0.4","0.8","","","","","0.053239915","0.2426118991","0.2710075273","0.4050829606","","","","","","","","72","H","0","img/none_selected.jpg","","59","main_expt"
"","bandit","139","463273","0.0-100.0-0.0","58501475","wem/bandit_either_2","A2ADEPVGNNXNPA","either","2","85","","","","","","","0","0","1","","0.2623750897","0.6","0.2","0.4","0.8","0.06994226662","0.2623750897","0.2766623035","0.4070720156","","","","","","","","","","","","74","J","1","","","60","main_expt"
"","bandit","140","465314","0.0-101.0-0.0","58501475","wem/bandit_either_2","A2ADEPVGNNXNPA","either","2","534","","","","","","","0","0","1","","0.2574592035","0.6","0.2","0.4","0.8","0.07064832373","0.2139103784","0.2574592035","0.3895400789","","","","","","","","","","","","75","K","2","","","61","main_expt"
"","bandit","141","467218","0.0-102.0-0.0","58501475","wem/bandit_either_2","A2ADEPVGNNXNPA","either","2","396","","","","","","","0","0","1","0.2425209234","","0.6","0.2","0.4","0.8","","","","","0.08925217872","0.2566580444","0.2425209234","0.4050708951","","","","","","","","75","K","2","","","62","main_expt"
"","bandit","142","469338","0.0-103.0-0.0","58501475","wem/bandit_either_2","A2ADEPVGNNXNPA","either","2","613","","","","","","","0","0","1","","0.2294211584","0.6","0.2","0.4","0.8","0.08505035955","0.2393402704","0.2294211584","0.3765761212","","","","","","","","","","","","75","K","2","","","63","main_expt"
"","bandit","143","471042","0.0-104.0-0.0","58501475","wem/bandit_either_2","A2ADEPVGNNXNPA","either","2","196","","","","","","","1","0","0","0.3859881554","","0.6","0.2","0.4","0.8","","","","","0.09892528285","0.300105392","0.2350173232","0.3859881554","","","","","","","","76","L","3","","","64","main_expt"
"","bandit","144","472922","0.0-105.0-0.0","58501475","wem/bandit_either_2","A2ADEPVGNNXNPA","either","2","372","","","","","","","0","0","1","0.3817039273","","0.6","0.2","0.4","0.8","","","","","0.1428545766","0.2584268813","0.2775473173","0.3817039273","","","","","","","","76","L","3","","","65","main_expt"
"","bandit","145","474977","0.0-106.0-0.0","58501475","wem/bandit_either_2","A2ADEPVGNNXNPA","either","2","550","","","","","","","0","0","1","0.298861572","","0.6","0.2","0.4","0.8","","","","","0.120440259","0.2536378703","0.298861572","0.3622232449","","","","","","","","75","K","2","","","66","main_expt"
"","bandit","146","477097","0.0-107.0-0.0","58501475","wem/bandit_either_2","A2ADEPVGNNXNPA","either","2","614","","","","","","","0","0","1","","0.2019700983","0.6","0.2","0.4","0.8","0.2019700983","0.2548884231","0.3043747659","0.3768721334","","","","","","","","","","","","72","H","0","img/none_selected.jpg","","67","main_expt"
"","bandit","147","478626","0.0-108.0-0.0","58501475","wem/bandit_either_2","A2ADEPVGNNXNPA","either","2","22","","","","","","","0","0","1","0.1467862533","","0.6","0.2","0.4","0.8","","","","","0.1467862533","0.2105458193","0.2533072519","0.3826604183","","","","","","","","72","H","0","img/none_selected.jpg","","68","main_expt"
"","bandit","148","480844","0.0-109.0-0.0","58501475","wem/bandit_either_2","A2ADEPVGNNXNPA","either","2","710","","","","","","","0","1","0","","0.09022805221","0.6","0.2","0.4","0.8","0.09022805221","0.2901666962","0.2451677402","0.3981811202","","","","","","","","","","","","72","H","0","img/none_selected.jpg","","69","main_expt"
"","bandit","149","482730","0.0-110.0-0.0","58501475","wem/bandit_either_2","A2ADEPVGNNXNPA","either","2","378","","","","","","","0","0","1","0.1128827508","","0.6","0.2","0.4","0.8","","","","","0.1128827508","0.2973761433","0.2403061491","0.3936557204","","","","","","","","72","H","0","img/none_selected.jpg","","70","main_expt"
"","bandit","150","485081","0.0-111.0-0.0","58501475","wem/bandit_either_2","A2ADEPVGNNXNPA","either","2","844","","","","","","","0","0","1","","0.1917576795","0.6","0.2","0.4","0.8","0.1184182172","0.2737706179","0.1917576795","0.3949471057","","","","","","","","","","","","75","K","2","","","71","main_expt"
"","bandit","151","486930","0.0-112.0-0.0","58501475","wem/bandit_either_2","A2ADEPVGNNXNPA","either","2","340","","","","","","","0","1","0","","0.1894079546","0.6","0.2","0.4","0.8","0.1038133506","0.3005227265","0.1894079546","0.3888869603","","","","","","","","","","","","75","K","2","","","72","main_expt"
"","bandit","152","488851","0.0-113.0-0.0","58501475","wem/bandit_either_2","A2ADEPVGNNXNPA","either","2","413","","","","","","","0","0","1","","0.235909594","0.6","0.2","0.4","0.8","0.07830871569","0.3205676235","0.235909594","0.4015056825","","","","","","","","","","","","75","K","2","","","73","main_expt"
"","bandit","153","490562","0.0-114.0-0.0","58501475","wem/bandit_either_2","A2ADEPVGNNXNPA","either","2","205","","","","","","","0","0","1","0.2772030277","","0.6","0.2","0.4","0.8","","","","","0.09226686474","0.3040473008","0.2772030277","0.4200542591","","","","","","","","75","K","2","","","74","main_expt"
"","bandit","154","492777","0.0-115.0-0.0","58501475","wem/bandit_either_2","A2ADEPVGNNXNPA","either","2","706","","","","","","","0","0","1","0.07948082514","","0.6","0.2","0.4","0.8","","","","","0.07948082514","0.2686744794","0.2237268092","0.4353174817","","","","","","","","72","H","0","img/none_selected.jpg","","75","main_expt"
"","bandit","155","495259","0.0-116.0-0.0","58501475","wem/bandit_either_2","A2ADEPVGNNXNPA","either","2","921","","","","","","","0","0","1","","0.258707356","0.6","0.2","0.4","0.8","0.1279570505","0.258707356","0.1739375455","0.4196821318","","","","","","","","","","","","74","J","1","","","76","main_expt"
"","bandit","156","497211","0.0-117.0-0.0","58501475","wem/bandit_either_2","A2ADEPVGNNXNPA","either","2","444","","","","","","","0","0","1","","0.3010070056","0.6","0.2","0.4","0.8","0.1202820049","0.3010070056","0.1648796623","0.3787369199","","","","","","","","","","","","74","J","1","","","77","main_expt"
"","bandit","157","498770","0.0-118.0-0.0","58501475","wem/bandit_either_2","A2ADEPVGNNXNPA","either","2","53","","","","","","","0","0","1","","0.2648586626","0.6","0.2","0.4","0.8","0.1054071572","0.2648586626","0.1637798684","0.4314930014","","","","","","","","","","","","74","J","1","","","78","main_expt"
"","bandit","158","500651","0.0-119.0-0.0","58501475","wem/bandit_either_2","A2ADEPVGNNXNPA","either","2","372","","","","","","","0","0","1","","0.1984114041","0.6","0.2","0.4","0.8","0.1403095361","0.1984114041","0.1490076182","0.4155078174","","","","","","","","","","","","74","J","1","","","79","main_expt"
"","bandit","159","502635","0.0-120.0-0.0","58501475","wem/bandit_either_2","A2ADEPVGNNXNPA","either","2","476","","","","","","","1","0","0","0.4226243671","","0.6","0.2","0.4","0.8","","","","","0.1891235553","0.180325551","0.1093198388","0.4226243671","","","","","","","","76","L","3","","","80","main_expt"
"","bandit","160","504507","0.0-121.0-0.0","58501475","wem/bandit_either_2","A2ADEPVGNNXNPA","either","2","364","","","","","","","0","0","1","","0.4474166549","0.6","0.2","0.4","0.8","0.1858030354","0.224531153","0.08868186825","0.4474166549","","","","","","","","","","","","76","L","3","","","81","main_expt"
"","bandit","161","506413","0.0-122.0-0.0","58501475","wem/bandit_either_2","A2ADEPVGNNXNPA","either","2","394","","","","","","","1","0","0","0.4636297045","","0.6","0.2","0.4","0.8","","","","","0.2476542501","0.221125015","0.1073880826","0.4636297045","","","","","","","","76","L","3","","","82","main_expt"
"","bandit","162","508354","0.0-123.0-0.0","58501475","wem/bandit_either_2","A2ADEPVGNNXNPA","either","2","435","","","","","","","0","0","1","","0.467509749","0.6","0.2","0.4","0.8","0.2188241074","0.2143237207","0.1022587498","0.467509749","","","","","","","","","","","","76","L","3","","","83","main_expt"
"","bandit","163","510364","0.0-124.0-0.0","58501475","wem/bandit_either_2","A2ADEPVGNNXNPA","either","2","502","","","","","","","0","0","1","0.4551111531","","0.6","0.2","0.4","0.8","","","","","0.2754771977","0.2097367537","0.1085807699","0.4551111531","","","","","","","","76","L","3","","","84","main_expt"
"","bandit","164","512292","0.0-125.0-0.0","58501475","wem/bandit_either_2","A2ADEPVGNNXNPA","either","2","420","","","","","","","0","0","1","0.1263918358","","0.6","0.2","0.4","0.8","","","","","0.2965575968","0.1661536269","0.1263918358","0.4621419017","","","","","","","","75","K","2","","","85","main_expt"
"","bandit","165","514195","0.0-126.0-0.0","58501475","wem/bandit_either_2","A2ADEPVGNNXNPA","either","2","395","","","","","","","0","0","1","0.1481941301","","0.6","0.2","0.4","0.8","","","","","0.257129161","0.1364458955","0.1481941301","0.4612050897","","","","","","","","75","K","2","","","86","main_expt"
"","bandit","166","516204","0.0-127.0-0.0","58501475","wem/bandit_either_2","A2ADEPVGNNXNPA","either","2","499","","","","","","","0","0","1","","0.2338967043","0.6","0.2","0.4","0.8","0.2338967043","0.08235553135","0.1447872846","0.4334675206","","","","","","","","","","","","72","H","0","img/none_selected.jpg","","87","main_expt"
"","bandit","167","518211","0.0-128.0-0.0","58501475","wem/bandit_either_2","A2ADEPVGNNXNPA","either","2","497","","","","","","","0","0","1","0.2161535794","","0.6","0.2","0.4","0.8","","","","","0.2161535794","0.0754832669","0.1391637727","0.4397617206","","","","","","","","72","H","0","img/none_selected.jpg","","88","main_expt"
"","bandit","168","520100","0.0-129.0-0.0","58501475","wem/bandit_either_2","A2ADEPVGNNXNPA","either","2","378","","","","","","","0","0","1","0.2043146745","","0.6","0.2","0.4","0.8","","","","","0.2043146745","0.109361408","0.1476089376","0.4635478967","","","","","","","","72","H","0","img/none_selected.jpg","","89","main_expt"
"","bandit","169","521690","0.0-130.0-0.0","58501475","wem/bandit_either_2","A2ADEPVGNNXNPA","either","2","83","","","","","","","0","0","1","0.2346009907","","0.6","0.2","0.4","0.8","","","","","0.2346009907","0.07391079866","0.2081489191","0.4234969579","","","","","","","","72","H","0","img/none_selected.jpg","","90","main_expt"
"","bandit","170","523530","0.0-131.0-0.0","58501475","wem/bandit_either_2","A2ADEPVGNNXNPA","either","2","333","","","","","","","0","0","1","","0.2333967219","0.6","0.2","0.4","0.8","0.2333967219","0.1164594673","0.1834039029","0.4267507071","","","","","","","","","","","","72","H","0","img/none_selected.jpg","","91","main_expt"
"","bandit","171","525506","0.0-132.0-0.0","58501475","wem/bandit_either_2","A2ADEPVGNNXNPA","either","2","469","","","","","","","1","0","0","0.2150480475","","0.6","0.2","0.4","0.8","","","","","0.2150480475","0.113043345","0.2027314649","0.4089505196","","","","","","","","72","H","0","img/none_selected.jpg","","92","main_expt"
"","bandit","172","527337","0.0-133.0-0.0","58501475","wem/bandit_either_2","A2ADEPVGNNXNPA","either","2","325","","","","","","","0","1","0","","0.2588080464","0.6","0.2","0.4","0.8","0.2588080464","0.1714352716","0.1738894496","0.4112501448","","","","","","","","","","","","72","H","0","img/none_selected.jpg","","93","main_expt"
"","bandit","173","528947","0.0-134.0-0.0","58501475","wem/bandit_either_2","A2ADEPVGNNXNPA","either","2","103","","","","","","","0","0","1","0.2748849181","","0.6","0.2","0.4","0.8","","","","","0.2748849181","0.1253024032","0.2484708832","0.452415855","","","","","","","","72","H","0","img/none_selected.jpg","","94","main_expt"
"","bandit","174","531036","0.0-135.0-0.0","58501475","wem/bandit_either_2","A2ADEPVGNNXNPA","either","2","581","","","","","","","0","0","1","0.2791739054","","0.6","0.2","0.4","0.8","","","","","0.2791739054","0.1401284447","0.2914685715","0.4589197587","","","","","","","","72","H","0","img/none_selected.jpg","","95","main_expt"
"","bandit","175","532644","0.0-136.0-0.0","58501475","wem/bandit_either_2","A2ADEPVGNNXNPA","either","2","101","","","","","","","0","0","1","0.3149564315","","0.6","0.2","0.4","0.8","","","","","0.3149564315","0.1320491369","0.2417524935","0.4481870348","","","","","","","","72","H","0","img/none_selected.jpg","","96","main_expt"
"","bandit","176","534315","0.0-137.0-0.0","58501475","wem/bandit_either_2","A2ADEPVGNNXNPA","either","2","162","","","","","","","0","0","1","","0.372564007","0.6","0.2","0.4","0.8","0.372564007","0.1518453759","0.2492821404","0.4597072186","","","","","","","","","","","","72","H","0","img/none_selected.jpg","","97","main_expt"
"","bandit","177","536628","0.0-138.0-0.0","58501475","wem/bandit_either_2","A2ADEPVGNNXNPA","either","2","804","","","","","","","1","0","0","0.393328365","","0.6","0.2","0.4","0.8","","","","","0.393328365","0.2173959583","0.3002958449","0.4705619112","","","","","","","","72","H","0","img/none_selected.jpg","","98","main_expt"
"","bandit","178","538563","0.0-139.0-0.0","58501475","wem/bandit_either_2","A2ADEPVGNNXNPA","either","2","428","","","","","","","0","1","0","","0.421239771","0.6","0.2","0.4","0.8","0.421239771","0.2618725657","0.3544832656","0.4800968761","","","","","","","","","","","","72","H","0","img/none_selected.jpg","","99","main_expt"
"","bandit","179","540212","0.0-140.0-0.0","58501475","wem/bandit_either_2","A2ADEPVGNNXNPA","either","2","139","","","","","","","0","0","1","0.4130759476","","0.6","0.2","0.4","0.8","","","","","0.4130759476","0.2487788848","0.3810954338","0.4780143146","","","","","","","","72","H","0","img/none_selected.jpg","","100","main_expt"
"","bandit","180","542676","0.0-141.0-0.0","58501475","wem/bandit_either_2","A2ADEPVGNNXNPA","either","2","956","","","","","","","0","0","1","0.4089462913","","0.6","0.2","0.4","0.8","","","","","0.4089462913","0.2890792313","0.4042362267","0.4849002763","","","","","","","","72","H","0","img/none_selected.jpg","","101","main_expt"
"","bandit","181","544530","0.0-142.0-0.0","58501475","wem/bandit_either_2","A2ADEPVGNNXNPA","either","2","347","","","","","","","1","0","0","0.4594696392","","0.6","0.2","0.4","0.8","","","","","0.370330464","0.3136369757","0.4594696392","0.4886078379","","","","","","","","75","K","2","","","102","main_expt"
"","bandit","182","546395","0.0-143.0-0.0","58501475","wem/bandit_either_2","A2ADEPVGNNXNPA","either","2","357","","","","","","","0","0","1","0.4588766667","","0.6","0.2","0.4","0.8","","","","","0.3306315663","0.2364671533","0.4588766667","0.47121906","","","","","","","","75","K","2","","","103","main_expt"
"","bandit","183","548308","0.0-144.0-0.0","58501475","wem/bandit_either_2","A2ADEPVGNNXNPA","either","2","405","","","","","","","0","0","1","","0.4372785745","0.6","0.2","0.4","0.8","0.354634178","0.2202486688","0.4372785745","0.4760763377","","","","","","","","","","","","75","K","2","","","104","main_expt"
"","bandit","184","550100","0.0-145.0-0.0","58501475","wem/bandit_either_2","A2ADEPVGNNXNPA","either","2","285","","","","","","","0","0","1","0.4063887309","","0.6","0.2","0.4","0.8","","","","","0.3896605338","0.1854418088","0.4063887309","0.4701389446","","","","","","","","75","K","2","","","105","main_expt"
"","bandit","185","552233","0.0-146.0-0.0","58501475","wem/bandit_either_2","A2ADEPVGNNXNPA","either","2","625","","","","","","","0","0","1","0.414339711","","0.6","0.2","0.4","0.8","","","","","0.414339711","0.1596754559","0.3778019321","0.471324938","","","","","","","","72","H","0","img/none_selected.jpg","","106","main_expt"
"","bandit","186","554115","0.0-147.0-0.0","58501475","wem/bandit_either_2","A2ADEPVGNNXNPA","either","2","371","","","","","","","0","0","1","0.4164239898","","0.6","0.2","0.4","0.8","","","","","0.4164239898","0.137099288","0.3614143111","0.4786694594","","","","","","","","72","H","0","img/none_selected.jpg","","107","main_expt"
"","bandit","187","556114","0.0-148.0-0.0","58501475","wem/bandit_either_2","A2ADEPVGNNXNPA","either","2","491","","","","","","","0","0","1","","0.1443984823","0.6","0.2","0.4","0.8","0.3836571442","0.1443984823","0.3681250399","0.4810065258","","","","","","","","","","","","74","J","1","","","108","main_expt"
"","bandit","188","558106","0.0-149.0-0.0","58501475","wem/bandit_either_2","A2ADEPVGNNXNPA","either","2","484","","","","","","","1","0","0","0.4816764674","","0.6","0.2","0.4","0.8","","","","","0.3881214568","0.1409511773","0.3446081275","0.4816764674","","","","","","","","76","L","3","","","109","main_expt"
"","bandit","189","559984","0.0-150.0-0.0","58501475","wem/bandit_either_2","A2ADEPVGNNXNPA","either","2","371","","","","","","","0","0","1","","0.4882082215","0.6","0.2","0.4","0.8","0.4266873791","0.1787750665","0.3681270965","0.4882082215","","","","","","","","","","","","76","L","3","","","110","main_expt"
"","bandit","190","561843","0.0-151.0-0.0","58501475","wem/bandit_either_2","A2ADEPVGNNXNPA","either","2","350","","","","","","","1","0","0","0.478642168","","0.6","0.2","0.4","0.8","","","","","0.4475699482","0.1862786225","0.391379093","0.478642168","","","","","","","","76","L","3","","","111","main_expt"
"","bandit","191","563735","0.0-152.0-0.0","58501475","wem/bandit_either_2","A2ADEPVGNNXNPA","either","2","380","","","","","","","1","0","0","0.4841415165","","0.6","0.2","0.4","0.8","","","","","0.4190314983","0.1654620982","0.4131544452","0.4841415165","","","","","","","","76","L","3","","","112","main_expt"
"","bandit","192","565818","0.0-153.0-0.0","58501475","wem/bandit_either_2","A2ADEPVGNNXNPA","either","2","575","","","","","","","0","0","1","0.4883212127","","0.6","0.2","0.4","0.8","","","","","0.3666128881","0.1582981878","0.3963985948","0.4883212127","","","","","","","","76","L","3","","","113","main_expt"
"","bandit","193","567961","0.0-154.0-0.0","58501475","wem/bandit_either_2","A2ADEPVGNNXNPA","either","2","635","","","","","","","0","1","0","","0.4883790739","0.6","0.2","0.4","0.8","0.3866259854","0.1922757069","0.4117985871","0.4883790739","","","","","","","","","","","","76","L","3","","","114","main_expt"
"","bandit","194","570003","0.0-155.0-0.0","58501475","wem/bandit_either_2","A2ADEPVGNNXNPA","either","2","532","","","","","","","0","1","0","","0.4902011966","0.6","0.2","0.4","0.8","0.354161152","0.185618385","0.394381103","0.4902011966","","","","","","","","","","","","76","L","3","","","115","main_expt"
"","bandit","195","572042","0.0-156.0-0.0","58501475","wem/bandit_either_2","A2ADEPVGNNXNPA","either","2","532","","","","","","","0","0","1","","0.4844723045","0.6","0.2","0.4","0.8","0.3170745426","0.2057277395","0.3762408663","0.4844723045","","","","","","","","","","","","76","L","3","","","116","main_expt"
"","bandit","196","573796","0.0-157.0-0.0","58501475","wem/bandit_either_2","A2ADEPVGNNXNPA","either","2","244","","","","","","","1","0","0","0.4895589844","","0.6","0.2","0.4","0.8","","","","","0.304536318","0.2288411079","0.3823674378","0.4895589844","","","","","","","","76","L","3","","","117","main_expt"
"","bandit","197","575313","0.0-158.0-0.0","58501475","wem/bandit_either_2","A2ADEPVGNNXNPA","either","2","11","","","","","","","1","0","0","0.4899729034","","0.6","0.2","0.4","0.8","","","","","0.3411026949","0.2207517482","0.4050195855","0.4899729034","","","","","","","","76","L","3","","","118","main_expt"
"","bandit","198","578545","0.0-159.0-0.0","58501475","wem/bandit_either_2","A2ADEPVGNNXNPA","either","2","1724","","","","","","","0","0","1","0.4947041593","","0.6","0.2","0.4","0.8","","","","","0.3447942488","0.1955286499","0.4227562767","0.4947041593","","","","","","","","76","L","3","","","119","main_expt"
"","bandit","199","580072","0.0-160.0-0.0","58501475","wem/bandit_either_2","A2ADEPVGNNXNPA","either","2","20","","","","","","","0","0","1","0.4916865355","","0.6","0.2","0.4","0.8","","","","","0.3686185352","0.2427950695","0.4163810796","0.4916865355","","","","","","","","76","L","3","","","120","main_expt"
"","bandit","200","581697","0.0-161.0-0.0","58501475","wem/bandit_either_2","A2ADEPVGNNXNPA","either","2","118","","","","","","","1","0","0","0.4860386064","","0.6","0.2","0.4","0.8","","","","","0.3547669752","0.2479682904","0.406821829","0.4860386064","","","","","","","","76","L","3","","","121","main_expt"
"","bandit","201","583411","0.0-162.0-0.0","58501475","wem/bandit_either_2","A2ADEPVGNNXNPA","either","2","203","","","","","","","0","0","1","0.483083859","","0.6","0.2","0.4","0.8","","","","","0.365994073","0.3081985406","0.3999449125","0.483083859","","","","","","","","76","L","3","","","122","main_expt"
"","bandit","202","584923","0.0-163.0-0.0","58501475","wem/bandit_either_2","A2ADEPVGNNXNPA","either","2","4","","","","","","","0","0","1","","0.4791491275","0.6","0.2","0.4","0.8","0.3120596142","0.3089359708","0.366626489","0.4791491275","","","","","","","","","","","","76","L","3","","","123","main_expt"
"","bandit","203","586514","0.0-164.0-0.0","58501475","wem/bandit_either_2","A2ADEPVGNNXNPA","either","2","82","","","","","","","0","0","1","0.4776777384","","0.6","0.2","0.4","0.8","","","","","0.302161917","0.3298338218","0.3706278578","0.4776777384","","","","","","","","76","L","3","","","124","main_expt"
"","bandit","204","588306","0.0-165.0-0.0","58501475","wem/bandit_either_2","A2ADEPVGNNXNPA","either","2","283","","","","","","","0","0","1","","0.2794370347","0.6","0.2","0.4","0.8","0.2794370347","0.2795250441","0.3545504723","0.478983255","","","","","","","","","","","","72","H","0","img/none_selected.jpg","","125","main_expt"
"","bandit","205","590170","0.0-166.0-0.0","58501475","wem/bandit_either_2","A2ADEPVGNNXNPA","either","2","355","","","","","","","0","0","1","","0.2184127205","0.6","0.2","0.4","0.8","0.2466154908","0.2184127205","0.3106298006","0.4724726719","","","","","","","","","","","","74","J","1","","","126","main_expt"
"","bandit","206","592362","0.0-167.0-0.0","58501475","wem/bandit_either_2","A2ADEPVGNNXNPA","either","2","683","","","","","","","0","0","1","0.3351405197","","0.6","0.2","0.4","0.8","","","","","0.2712823261","0.2488858907","0.3351405197","0.4796244369","","","","","","","","75","K","2","","","127","main_expt"
"","bandit","207","594307","0.0-168.0-0.0","58501475","wem/bandit_either_2","A2ADEPVGNNXNPA","either","2","436","","","","","","","1","0","0","0.4825212971","","0.6","0.2","0.4","0.8","","","","","0.2095517986","0.2850827173","0.2984422464","0.4825212971","","","","","","","","76","L","3","","","128","main_expt"
"","bandit","208","596243","0.0-169.0-0.0","58501475","wem/bandit_either_2","A2ADEPVGNNXNPA","either","2","426","","","","","","","0","0","1","0.4877535013","","0.6","0.2","0.4","0.8","","","","","0.1986866195","0.2867242009","0.2027892291","0.4877535013","","","","","","","","76","L","3","","","129","main_expt"
"","bandit","209","598165","0.0-170.0-0.0","58501475","wem/bandit_either_2","A2ADEPVGNNXNPA","either","2","415","","","","","","","0","0","1","0.4833646461","","0.6","0.2","0.4","0.8","","","","","0.172959111","0.2509552002","0.13768179","0.4833646461","","","","","","","","76","L","3","","","130","main_expt"
"","bandit","210","599746","0.0-171.0-0.0","58501475","wem/bandit_either_2","A2ADEPVGNNXNPA","either","2","73","","","","","","","0","0","1","0.4790990265","","0.6","0.2","0.4","0.8","","","","","0.163172462","0.2172434631","0.1352832961","0.4790990265","","","","","","","","76","L","3","","","131","main_expt"
"","bandit","211","601721","0.0-172.0-0.0","58501475","wem/bandit_either_2","A2ADEPVGNNXNPA","either","2","467","","","","","","","0","0","1","0.161148659","","0.6","0.2","0.4","0.8","","","","","0.161148659","0.158295755","0.08660982753","0.4882311922","","","","","","","","72","H","0","img/none_selected.jpg","","132","main_expt"
"","bandit","212","603281","0.0-173.0-0.0","58501475","wem/bandit_either_2","A2ADEPVGNNXNPA","either","2","52","","","","","","","0","0","1","","0.185310911","0.6","0.2","0.4","0.8","0.1735641072","0.185310911","0.1020907376","0.4889625365","","","","","","","","","","","","74","J","1","","","133","main_expt"
"","bandit","213","605452","0.0-174.0-0.0","58501475","wem/bandit_either_2","A2ADEPVGNNXNPA","either","2","661","","","","","","","0","0","1","","0.1231499397","0.6","0.2","0.4","0.8","0.1597390633","0.1966535246","0.1231499397","0.4916783795","","","","","","","","","","","","75","K","2","","","134","main_expt"
"","bandit","214","606961","0.0-175.0-0.0","58501475","wem/bandit_either_2","A2ADEPVGNNXNPA","either","2","2","","","","","","","0","0","1","0.4904315354","","0.6","0.2","0.4","0.8","","","","","0.1460070414","0.2290191974","0.1524236556","0.4904315354","","","","","","","","76","L","3","","","135","main_expt"
"","bandit","215","610099","0.0-176.0-0.0","58501475","wem/bandit_either_2","A2ADEPVGNNXNPA","either","2","1628","","","","","","","0","0","1","","0.491666595","0.6","0.2","0.4","0.8","0.105474526","0.2929229053","0.1954247664","0.491666595","","","","","","","","","","","","76","L","3","","","136","main_expt"
"","bandit","216","616947","0.0-177.0-0.0","58501475","wem/bandit_either_2","A2ADEPVGNNXNPA","either","2","5341","","","","","","","0","0","1","0.4917142499","","0.6","0.2","0.4","0.8","","","","","0.08835118593","0.2780805385","0.1833989084","0.4917142499","","","","","","","","76","L","3","","","137","main_expt"
"","bandit","217","618914","0.0-178.0-0.0","58501475","wem/bandit_either_2","A2ADEPVGNNXNPA","either","2","460","","","","","","","0","1","0","","0.4870170403","0.6","0.2","0.4","0.8","0.06418360449","0.217224157","0.1490533902","0.4870170403","","","","","","","","","","","","76","L","3","","","138","main_expt"
"","bandit","218","621130","0.0-179.0-0.0","58501475","wem/bandit_either_2","A2ADEPVGNNXNPA","either","2","707","","","","","","","0","1","0","","0.4834992155","0.6","0.2","0.4","0.8","0.03554325754","0.2323391466","0.1318817547","0.4834992155","","","","","","","","","","","","76","L","3","","","139","main_expt"
"","bandit","219","623003","0.0-180.0-0.0","58501475","wem/bandit_either_2","A2ADEPVGNNXNPA","either","2","364","","","","","","","1","0","0","0.4927392517","","0.6","0.2","0.4","0.8","","","","","0.04477370895","0.244475209","0.1877412345","0.4927392517","","","","","","","","76","L","3","","","140","main_expt"
"","bandit","220","624834","0.0-181.0-0.0","58501475","wem/bandit_either_2","A2ADEPVGNNXNPA","either","2","321","","","","","","","1","0","0","0.4872377518","","0.6","0.2","0.4","0.8","","","","","0.03780119019","0.232604034","0.2363671377","0.4872377518","","","","","","","","76","L","3","","","141","main_expt"
"","bandit","221","626699","0.0-182.0-0.0","58501475","wem/bandit_either_2","A2ADEPVGNNXNPA","either","2","356","","","","","","","1","0","0","0.4846254936","","0.6","0.2","0.4","0.8","","","","","0.03149913875","0.2447345556","0.2546402356","0.4846254936","","","","","","","","76","L","3","","","142","main_expt"
"","bandit","222","628338","0.0-183.0-0.0","58501475","wem/bandit_either_2","A2ADEPVGNNXNPA","either","2","130","","","","","","","0","0","1","","0.4815328815","0.6","0.2","0.4","0.8","0.04191513266","0.26413271","0.2825544685","0.4815328815","","","","","","","","","","","","76","L","3","","","143","main_expt"
"","bandit","223","630267","0.0-184.0-0.0","58501475","wem/bandit_either_2","A2ADEPVGNNXNPA","either","2","420","","","","","","","0","0","1","","0.4854048375","0.6","0.2","0.4","0.8","0.05613120157","0.1988203511","0.2731230023","0.4854048375","","","","","","","","","","","","76","L","3","","","144","main_expt"
"","bandit","224","632148","0.0-185.0-0.0","58501475","wem/bandit_either_2","A2ADEPVGNNXNPA","either","2","370","","","","","","","0","0","1","0.4813029389","","0.6","0.2","0.4","0.8","","","","","0.03827589539","0.217822638","0.2943814715","0.4813029389","","","","","","","","76","L","3","","","145","main_expt"
"","bandit","225","633677","0.0-186.0-0.0","58501475","wem/bandit_either_2","A2ADEPVGNNXNPA","either","2","18","","","","","","","1","0","0","0.4884824202","","0.6","0.2","0.4","0.8","","","","","0.02861175853","0.2009042904","0.328634005","0.4884824202","","","","","","","","76","L","3","","","146","main_expt"
"","bandit","226","635403","0.0-187.0-0.0","58501475","wem/bandit_either_2","A2ADEPVGNNXNPA","either","2","218","","","","","","","1","0","0","0.4835291327","","0.6","0.2","0.4","0.8","","","","","0.02140640811","0.2080446297","0.3511209141","0.4835291327","","","","","","","","76","L","3","","","147","main_expt"
"","bandit","227","637083","0.0-188.0-0.0","58501475","wem/bandit_either_2","A2ADEPVGNNXNPA","either","2","171","","","","","","","0","0","1","","0.4716003481","0.6","0.2","0.4","0.8","0.0202041473","0.1536700415","0.3874996206","0.4716003481","","","","","","","","","","","","76","L","3","","","148","main_expt"
"","bandit","228","639274","0.0-189.0-0.0","58501475","wem/bandit_either_2","A2ADEPVGNNXNPA","either","2","683","","","","","","","0","0","1","0.4341886607","","0.6","0.2","0.4","0.8","","","","","0.01154190459","0.1593661633","0.3476646045","0.4341886607","","","","","","","","76","L","3","","","149","main_expt"
"","bandit","229","640959","0.0-190.0-0.0","58501475","wem/bandit_either_2","A2ADEPVGNNXNPA","either","2","175","","","","","","","1","0","0","0.4014438172","","0.6","0.2","0.4","0.8","","","","","0.01291237021","0.144955896","0.3323010919","0.4014438172","","","","","","","","76","L","3","","","150","main_expt"
"","bandit","230","642883","0.0-191.0-0.0","58501475","wem/bandit_either_2","A2ADEPVGNNXNPA","either","2","415","","","","","","","0","1","0","","0.3980713407","0.6","0.2","0.4","0.8","0.0137789916","0.2123564028","0.3954477196","0.3980713407","","","","","","","","","","","","76","L","3","","","151","main_expt"
"","bandit","231","644395","0.0-192.0-0.0","58501475","wem/bandit_either_2","A2ADEPVGNNXNPA","either","2","2","","","","","","","0","0","1","0.4002357887","","0.6","0.2","0.4","0.8","","","","","0.01985271471","0.2301890466","0.4186327087","0.4002357887","","","","","","","","76","L","3","","","152","main_expt"
"","bandit","232","646060","0.0-193.0-0.0","58501475","wem/bandit_either_2","A2ADEPVGNNXNPA","either","2","146","","","","","","","1","0","0","0.388677987","","0.6","0.2","0.4","0.8","","","","","0.02951100453","0.2295153641","0.4029566754","0.388677987","","","","","","","","76","L","3","","","153","main_expt"
"","bandit","233","647874","0.0-194.0-0.0","58501475","wem/bandit_either_2","A2ADEPVGNNXNPA","either","2","305","","","","","","","1","0","0","0.3817747688","","0.6","0.2","0.4","0.8","","","","","0.02325572033","0.2163321136","0.4037751878","0.3817747688","","","","","","","","76","L","3","","","154","main_expt"
"","bandit","234","649585","0.0-195.0-0.0","58501475","wem/bandit_either_2","A2ADEPVGNNXNPA","either","2","203","","","","","","","0","0","1","0.327727533","","0.6","0.2","0.4","0.8","","","","","0.03925092562","0.2257858177","0.4078727314","0.327727533","","","","","","","","76","L","3","","","155","main_expt"
"","bandit","235","651291","0.0-196.0-0.0","58501475","wem/bandit_either_2","A2ADEPVGNNXNPA","either","2","196","","","","","","","0","0","1","","0.3941681487","0.6","0.2","0.4","0.8","0.05532081832","0.2077891775","0.3941681487","0.2821504166","","","","","","","","","","","","75","K","2","","","156","main_expt"
"","bandit","236","653186","0.0-197.0-0.0","58501475","wem/bandit_either_2","A2ADEPVGNNXNPA","either","2","388","","","","","","","1","0","0","0.2784527126","","0.6","0.2","0.4","0.8","","","","","0.05983660039","0.1742908387","0.3417147062","0.2784527126","","","","","","","","76","L","3","","","157","main_expt"
"","bandit","237","655004","0.0-198.0-0.0","58501475","wem/bandit_either_2","A2ADEPVGNNXNPA","either","2","306","","","","","","","0","0","1","","0.2857058734","0.6","0.2","0.4","0.8","0.09347744845","0.162057643","0.2963220618","0.2857058734","","","","","","","","","","","","76","L","3","","","158","main_expt"
"","bandit","238","656635","0.0-199.0-0.0","58501475","wem/bandit_either_2","A2ADEPVGNNXNPA","either","2","124","","","","","","","0","0","1","","0.2349295223","0.6","0.2","0.4","0.8","0.09649648717","0.1805514511","0.2961528309","0.2349295223","","","","","","","","","","","","76","L","3","","","159","main_expt"
"","bandit","239","658355","0.0-200.0-0.0","58501475","wem/bandit_either_2","A2ADEPVGNNXNPA","either","2","209","","","","","","","0","0","1","0.2275717407","","0.6","0.2","0.4","0.8","","","","","0.08382429791","0.1724629995","0.2842772575","0.2275717407","","","","","","","","76","L","3","","","160","main_expt"
"","bandit","240","659899","0.0-201.0-0.0","58501475","wem/bandit_either_2","A2ADEPVGNNXNPA","either","2","35","","","","","","","0","0","1","0.2559884592","","0.6","0.2","0.4","0.8","","","","","0.1466352983","0.1660992999","0.2747674873","0.2559884592","","","","","","","","76","L","3","","","161","main_expt"
"","bandit","241","661482","0.0-202.0-0.0","58501475","wem/bandit_either_2","A2ADEPVGNNXNPA","either","2","74","","","","","","","0","0","1","0.2670526618","","0.6","0.2","0.4","0.8","","","","","0.1569467617","0.2281832109","0.2993190406","0.2670526618","","","","","","","","76","L","3","","","162","main_expt"
"","bandit","242","663060","0.0-203.0-0.0","58501475","wem/bandit_either_2","A2ADEPVGNNXNPA","either","2","68","","","","","","","0","0","1","0.2618894379","","0.6","0.2","0.4","0.8","","","","","0.1437935099","0.2144285545","0.3102408377","0.2618894379","","","","","","","","76","L","3","","","163","main_expt"
"","bandit","243","664611","0.0-204.0-0.0","58501475","wem/bandit_either_2","A2ADEPVGNNXNPA","either","2","41","","","","","","","0","0","1","","0.2977476978","0.6","0.2","0.4","0.8","0.1503677763","0.2131293933","0.2607878409","0.2977476978","","","","","","","","","","","","76","L","3","","","164","main_expt"
"","bandit","244","666276","0.0-205.0-0.0","58501475","wem/bandit_either_2","A2ADEPVGNNXNPA","either","2","154","","","","","","","1","0","0","0.3138636066","","0.6","0.2","0.4","0.8","","","","","0.1574825995","0.251698227","0.2470054868","0.3138636066","","","","","","","","76","L","3","","","165","main_expt"
"","bandit","245","668107","0.0-206.0-0.0","58501475","wem/bandit_either_2","A2ADEPVGNNXNPA","either","2","323","","","","","","","0","0","1","","0.2629624785","0.6","0.2","0.4","0.8","0.1500633275","0.2831539445","0.2629624785","0.3204338644","","","","","","","","","","","","75","K","2","","","166","main_expt"
"","bandit","246","669786","0.0-207.0-0.0","58501475","wem/bandit_either_2","A2ADEPVGNNXNPA","either","2","171","","","","","","","1","0","0","0.3600517585","","0.6","0.2","0.4","0.8","","","","","0.1137242654","0.2496169508","0.2745713682","0.3600517585","","","","","","","","76","L","3","","","167","main_expt"
"","bandit","247","671627","0.0-208.0-0.0","58501475","wem/bandit_either_2","A2ADEPVGNNXNPA","either","2","330","","","","","","","0","0","1","0.3678373827","","0.6","0.2","0.4","0.8","","","","","0.145192941","0.2315540067","0.2557249153","0.3678373827","","","","","","","","76","L","3","","","168","main_expt"
"","bandit","248","673194","0.0-209.0-0.0","58501475","wem/bandit_either_2","A2ADEPVGNNXNPA","either","2","57","","","","","","","0","0","1","0.3421512568","","0.6","0.2","0.4","0.8","","","","","0.1863479632","0.1825517174","0.2016321063","0.3421512568","","","","","","","","76","L","3","","","169","main_expt"
"","bandit","249","674755","0.0-210.0-0.0","58501475","wem/bandit_either_2","A2ADEPVGNNXNPA","either","2","49","","","","","","","0","0","1","0.3917895485","","0.6","0.2","0.4","0.8","","","","","0.142304713","0.2535959064","0.2210696627","0.3917895485","","","","","","","","76","L","3","","","170","main_expt"
"","bandit","250","676505","0.0-211.0-0.0","58501475","wem/bandit_either_2","A2ADEPVGNNXNPA","either","2","242","","","","","","","0","0","1","","0.3206692194","0.6","0.2","0.4","0.8","0.1739768979","0.3004284576","0.1627904758","0.3206692194","","","","","","","","","","","","76","L","3","","","171","main_expt"
"","bandit","251","678275","0.0-212.0-0.0","58501475","wem/bandit_either_2","A2ADEPVGNNXNPA","either","2","259","","","","","","","0","0","1","0.3198600846","","0.6","0.2","0.4","0.8","","","","","0.2172659048","0.2716191145","0.1421076649","0.3198600846","","","","","","","","76","L","3","","","172","main_expt"
"","bandit","252","680177","0.0-213.0-0.0","58501475","wem/bandit_either_2","A2ADEPVGNNXNPA","either","2","394","","","","","","","0","0","1","0.2641483633","","0.6","0.2","0.4","0.8","","","","","0.2419731025","0.3253138029","0.165050165","0.2641483633","","","","","","","","76","L","3","","","173","main_expt"
"","bandit","253","682019","0.0-214.0-0.0","58501475","wem/bandit_either_2","A2ADEPVGNNXNPA","either","2","330","","","","","","","1","0","0","0.2248062597","","0.6","0.2","0.4","0.8","","","","","0.2239571331","0.3419591401","0.1406738207","0.2248062597","","","","","","","","76","L","3","","","174","main_expt"
"","bandit","254","683921","0.0-215.0-0.0","58501475","wem/bandit_either_2","A2ADEPVGNNXNPA","either","2","393","","","","","","","0","0","1","0.2370379408","","0.6","0.2","0.4","0.8","","","","","0.2311410243","0.3442692367","0.138310495","0.2370379408","","","","","","","","76","L","3","","","175","main_expt"
"","bandit","255","685434","0.0-216.0-0.0","58501475","wem/bandit_either_2","A2ADEPVGNNXNPA","either","2","1","","","","","","","0","0","1","0.2157433706","","0.6","0.2","0.4","0.8","","","","","0.2610077479","0.3397266539","0.1675243642","0.2157433706","","","","","","","","76","L","3","","","176","main_expt"
"","bandit","256","687137","0.0-217.0-0.0","58501475","wem/bandit_either_2","A2ADEPVGNNXNPA","either","2","194","","","","","","","0","0","1","","0.2014791824","0.6","0.2","0.4","0.8","0.2780938204","0.2997078274","0.1919885971","0.2014791824","","","","","","","","","","","","76","L","3","","","177","main_expt"
"","bandit","257","688675","0.0-218.0-0.0","58501475","wem/bandit_either_2","A2ADEPVGNNXNPA","either","2","27","","","","","","","1","0","0","0.1913564418","","0.6","0.2","0.4","0.8","","","","","0.3151752793","0.3064007527","0.2365392944","0.1913564418","","","","","","","","76","L","3","","","178","main_expt"
"","bandit","258","690531","0.0-219.0-0.0","58501475","wem/bandit_either_2","A2ADEPVGNNXNPA","either","2","345","","","","","","","1","0","0","0.2799621139","","0.6","0.2","0.4","0.8","","","","","0.2799621139","0.3533432679","0.2509455726","0.1980728016","","","","","","","","72","H","0","img/none_selected.jpg","","179","main_expt"
"","bandit","259","692490","0.0-220.0-0.0","58501475","wem/bandit_either_2","A2ADEPVGNNXNPA","either","2","448","","","","","","","0","0","1","","0.3170936092","0.6","0.2","0.4","0.8","0.3170936092","0.3652522579","0.2767223981","0.1833491223","","","","","","","","","","","","72","H","0","img/none_selected.jpg","","180","main_expt"
"","bandit","260","694058","0.0-221.0-0.0","58501475","wem/bandit_either_2","A2ADEPVGNNXNPA","either","2","58","","","","","","","0","1","0","","0.28101752","0.6","0.2","0.4","0.8","0.28101752","0.3383156657","0.314600373","0.1342686697","","","","","","","","","","","","72","H","0","img/none_selected.jpg","","181","main_expt"
"","bandit","261","695978","0.0-222.0-0.0","58501475","wem/bandit_either_2","A2ADEPVGNNXNPA","either","2","410","","","","","","","0","0","1","","0.3043342224","0.6","0.2","0.4","0.8","0.3043342224","0.2902116232","0.3943610609","0.1636660304","","","","","","","","","","","","72","H","0","img/none_selected.jpg","","182","main_expt"
"","bandit","262","697704","0.0-223.0-0.0","58501475","wem/bandit_either_2","A2ADEPVGNNXNPA","either","2","218","","","","","","","0","1","0","","0.3192524042","0.6","0.2","0.4","0.8","0.3192524042","0.3026157476","0.3586422101","0.136761637","","","","","","","","","","","","72","H","0","img/none_selected.jpg","","183","main_expt"
"","bandit","263","699489","0.0-224.0-0.0","58501475","wem/bandit_either_2","A2ADEPVGNNXNPA","either","2","274","","","","","","","0","0","1","0.3332516821","","0.6","0.2","0.4","0.8","","","","","0.3332516821","0.3360229169","0.3879999062","0.1685989701","","","","","","","","72","H","0","img/none_selected.jpg","","184","main_expt"
"","bandit","264","701186","0.0-225.0-0.0","58501475","wem/bandit_either_2","A2ADEPVGNNXNPA","either","2","187","","","","","","","0","0","1","0.3228184693","","0.6","0.2","0.4","0.8","","","","","0.3228184693","0.3336456265","0.3831340227","0.1663529744","","","","","","","","72","H","0","img/none_selected.jpg","","185","main_expt"
"","bandit","265","702697","0.0-226.0-0.0","58501475","wem/bandit_either_2","A2ADEPVGNNXNPA","either","2","3","","","","","","","0","0","1","0.3111703144","","0.6","0.2","0.4","0.8","","","","","0.3111703144","0.3308881938","0.3999004662","0.1916836285","","","","","","","","72","H","0","img/none_selected.jpg","","186","main_expt"
"","bandit","266","704578","0.0-227.0-0.0","58501475","wem/bandit_either_2","A2ADEPVGNNXNPA","either","2","371","","","","","","","0","0","1","0.3353611299","","0.6","0.2","0.4","0.8","","","","","0.3353611299","0.325530054","0.3875363153","0.1686829448","","","","","","","","72","H","0","img/none_selected.jpg","","187","main_expt"
"","bandit","267","706553","0.0-228.0-0.0","58501475","wem/bandit_either_2","A2ADEPVGNNXNPA","either","2","466","","","","","","","0","0","1","0.1461675531","","0.6","0.2","0.4","0.8","","","","","0.3646937268","0.3055482451","0.3875691392","0.1461675531","","","","","","","","76","L","3","","","188","main_expt"
"","bandit","268","708498","0.0-229.0-0.0","58501475","wem/bandit_either_2","A2ADEPVGNNXNPA","either","2","435","","","","","","","0","0","1","0.1382971047","","0.6","0.2","0.4","0.8","","","","","0.3891323825","0.3002345065","0.4166866882","0.1382971047","","","","","","","","76","L","3","","","189","main_expt"
"","bandit","269","710402","0.0-230.0-0.0","58501475","wem/bandit_either_2","A2ADEPVGNNXNPA","either","2","393","","","","","","","0","0","1","0.1898135375","","0.6","0.2","0.4","0.8","","","","","0.3860741766","0.2693931213","0.4124474499","0.1898135375","","","","","","","","76","L","3","","","190","main_expt"
"","bandit","270","711921","0.0-231.0-0.0","58501475","wem/bandit_either_2","A2ADEPVGNNXNPA","either","2","10","","","","","","","0","0","1","0.1264917812","","0.6","0.2","0.4","0.8","","","","","0.3864243721","0.3009284261","0.3638199534","0.1264917812","","","","","","","","76","L","3","","","191","main_expt"
"","bandit","271","713810","0.0-232.0-0.0","58501475","wem/bandit_either_2","A2ADEPVGNNXNPA","either","2","377","","","","","","","1","0","0","0.3157917784","","0.6","0.2","0.4","0.8","","","","","0.400448014","0.3157917784","0.3711146034","0.1185409567","","","","","","","","74","J","1","","","192","main_expt"
"","bandit","272","715659","0.0-233.0-0.0","58501475","wem/bandit_either_2","A2ADEPVGNNXNPA","either","2","337","","","","","","","0","0","1","0.2999212614","","0.6","0.2","0.4","0.8","","","","","0.3895367297","0.2999212614","0.3654165885","0.09837948322","","","","","","","","74","J","1","","","193","main_expt"
"","bandit","273","717707","0.0-234.0-0.0","58501475","wem/bandit_either_2","A2ADEPVGNNXNPA","either","2","536","","","","","","","0","0","1","","0.3287494418","0.6","0.2","0.4","0.8","0.4032313792","0.3287494418","0.3537818584","0.137690802","","","","","","","","","","","","74","J","1","","","194","main_expt"
"","bandit","274","719249","0.0-235.0-0.0","58501475","wem/bandit_either_2","A2ADEPVGNNXNPA","either","2","35","","","","","","","0","0","1","0.3031978913","","0.6","0.2","0.4","0.8","","","","","0.337234763","0.3031978913","0.3597494918","0.1683354775","","","","","","","","74","J","1","","","195","main_expt"
"","bandit","275","721441","0.0-236.0-0.0","58501475","wem/bandit_either_2","A2ADEPVGNNXNPA","either","2","595","","","","","","","0","0","1","","0.2901303692","0.6","0.2","0.4","0.8","0.3950764453","0.2901303692","0.3479121901","0.1561951964","","","","","","","","","","","","74","J","1","","","196","main_expt"
"","bandit","276","726274","0.0-237.0-0.0","58501475","wem/bandit_either_2","A2ADEPVGNNXNPA","either","2","3323","","","","","","","0","0","1","","0.2444781728","0.6","0.2","0.4","0.8","0.4193743727","0.2444781728","0.3596292454","0.1329868482","","","","","","","","","","","","74","J","1","","","197","main_expt"
"","bandit","277","727858","0.0-238.0-0.0","58501475","wem/bandit_either_2","A2ADEPVGNNXNPA","either","2","73","","","","","","","0","0","1","","0.2140047665","0.6","0.2","0.4","0.8","0.4375347816","0.2140047665","0.3555371828","0.1730826789","","","","","","","","","","","","74","J","1","","","198","main_expt"
"","bandit","278","729401","0.0-239.0-0.0","58501475","wem/bandit_either_2","A2ADEPVGNNXNPA","either","2","33","","","","","","","0","1","0","","0.2077842613","0.6","0.2","0.4","0.8","0.4315030007","0.2077842613","0.4016486285","0.1385649096","","","","","","","","","","","","74","J","1","","","199","main_expt"
"","bandit","279","730917","0.0-240.0-0.0","58501475","wem/bandit_either_2","A2ADEPVGNNXNPA","either","2","4","","","","","","","0","0","1","","0.180488049","0.6","0.2","0.4","0.8","0.4340108373","0.180488049","0.3871107612","0.1941139053","","","","","","","","","","","","74","J","1","","","200","main_expt"
"","bandit","280","732690","0.0-241.0-0.0","58501475","wem/bandit_either_2","A2ADEPVGNNXNPA","either","2","264","","","","","","","0","0","1","","0.2084987087","0.6","0.2","0.4","0.8","0.441078118","0.2084987087","0.3856539452","0.1825013029","","","","","","","","","","","","74","J","1","","","201","main_expt"
"","bandit","281","734362","0.0-242.0-0.0","58501475","wem/bandit_either_2","A2ADEPVGNNXNPA","either","2","162","","","","","","","0","0","1","","0.1869669721","0.6","0.2","0.4","0.8","0.4143682719","0.1869669721","0.358588673","0.162440572","","","","","","","","","","","","74","J","1","","","202","main_expt"
"","bandit","282","735956","0.0-243.0-0.0","58501475","wem/bandit_either_2","A2ADEPVGNNXNPA","either","2","82","","","","","","","1","0","0","0.1383076553","","0.6","0.2","0.4","0.8","","","","","0.4280720422","0.1383076553","0.3460881607","0.1914238456","","","","","","","","74","J","1","","","203","main_expt"
"","bandit","283","737638","0.0-244.0-0.0","58501475","wem/bandit_either_2","A2ADEPVGNNXNPA","either","2","170","","","","","","","0","0","1","","0.1656187697","0.6","0.2","0.4","0.8","0.4113524858","0.1656187697","0.3091432968","0.1849793247","","","","","","","","","","","","74","J","1","","","204","main_expt"
"","bandit","284","739386","0.0-245.0-0.0","58501475","wem/bandit_either_2","A2ADEPVGNNXNPA","either","2","241","","","","","","","0","0","1","0.3016396897","","0.6","0.2","0.4","0.8","","","","","0.4151465815","0.1699285253","0.3016396897","0.1722293799","","","","","","","","75","K","2","","","205","main_expt"
"","bandit","285","741062","0.0-246.0-0.0","58501475","wem/bandit_either_2","A2ADEPVGNNXNPA","either","2","163","","","","","","","0","0","1","0.1625694713","","0.6","0.2","0.4","0.8","","","","","0.4002359997","0.161732949","0.3300702997","0.1625694713","","","","","","","","76","L","3","","","206","main_expt"
"","bandit","286","743028","0.0-247.0-0.0","58501475","wem/bandit_either_2","A2ADEPVGNNXNPA","either","2","455","","","","","","","0","0","1","","0.1079769143","0.6","0.2","0.4","0.8","0.3692387261","0.1699017951","0.2648848683","0.1079769143","","","","","","","","","","","","76","L","3","","","207","main_expt"
"","bandit","287","744715","0.0-248.0-0.0","58501475","wem/bandit_either_2","A2ADEPVGNNXNPA","either","2","176","","","","","","","0","0","1","","0.1592107695","0.6","0.2","0.4","0.8","0.3283471685","0.1592107695","0.2502792914","0.1380178959","","","","","","","","","","","","74","J","1","","","208","main_expt"
"","bandit","288","746298","0.0-249.0-0.0","58501475","wem/bandit_either_2","A2ADEPVGNNXNPA","either","2","73","","","","","","","0","0","1","","0.2924758898","0.6","0.2","0.4","0.8","0.2924758898","0.1659907122","0.2770073026","0.1538506734","","","","","","","","","","","","72","H","0","img/none_selected.jpg","","209","main_expt"
"","bandit","289","748002","0.0-250.0-0.0","58501475","wem/bandit_either_2","A2ADEPVGNNXNPA","either","2","194","","","","","","","0","0","1","0.2279470939","","0.6","0.2","0.4","0.8","","","","","0.2279470939","0.229525517","0.3451435735","0.1406222791","","","","","","","","72","H","0","img/none_selected.jpg","","210","main_expt"
"","bandit","290","749867","0.0-251.0-0.0","58501475","wem/bandit_either_2","A2ADEPVGNNXNPA","either","2","354","","","","","","","0","1","0","","0.2434605193","0.6","0.2","0.4","0.8","0.2131844406","0.2434605193","0.3514478275","0.08987887408","","","","","","","","","","","","74","J","1","","","211","main_expt"
"","bandit","291","751710","0.0-252.0-0.0","58501475","wem/bandit_either_2","A2ADEPVGNNXNPA","either","2","321","","","","","","","0","0","1","","0.1633214123","0.6","0.2","0.4","0.8","0.1601793481","0.1633214123","0.3579324364","0.1277875359","","","","","","","","","","","","74","J","1","","","212","main_expt"
"","bandit","292","753378","0.0-253.0-0.0","58501475","wem/bandit_either_2","A2ADEPVGNNXNPA","either","2","149","","","","","","","0","0","1","","0.1014835246","0.6","0.2","0.4","0.8","0.1354109392","0.1014835246","0.3231243524","0.134271297","","","","","","","","","","","","74","J","1","","","213","main_expt"
"","bandit","293","755035","0.0-254.0-0.0","58501475","wem/bandit_either_2","A2ADEPVGNNXNPA","either","2","147","","","","","","","0","0","1","","0.09587264096","0.6","0.2","0.4","0.8","0.1142105534","0.09587264096","0.2798540136","0.1385204111","","","","","","","","","","","","74","J","1","","","214","main_expt"
"","bandit","294","756938","0.0-255.0-0.0","58501475","wem/bandit_either_2","A2ADEPVGNNXNPA","either","2","393","","","","","","","0","0","1","0.2469391402","","0.6","0.2","0.4","0.8","","","","","0.1031311673","0.08342689115","0.2469391402","0.1089132689","","","","","","","","75","K","2","","","215","main_expt"
"","bandit","295","759426","0.0-256.0-0.0","58501475","wem/bandit_either_2","A2ADEPVGNNXNPA","either","2","979","","","","","","","0","0","1","0.05361264496","","0.6","0.2","0.4","0.8","","","","","0.1031732366","0.05361264496","0.3211823944","0.1299508563","","","","","","","","74","J","1","","","216","main_expt"
"","bandit","296","761146","0.0-257.0-0.0","58501475","wem/bandit_either_2","A2ADEPVGNNXNPA","either","2","209","","","","","","","0","0","1","","0.09912420903","0.6","0.2","0.4","0.8","0.1188097379","0.09912420903","0.3545519007","0.131109262","","","","","","","","","","","","74","J","1","","","217","main_expt"
"","bandit","297","762740","0.0-258.0-0.0","58501475","wem/bandit_either_2","A2ADEPVGNNXNPA","either","2","82","","","","","","","0","0","1","","0.1021137889","0.6","0.2","0.4","0.8","0.1096623481","0.1021137889","0.3781539282","0.1039495344","","","","","","","","","","","","74","J","1","","","218","main_expt"
"","bandit","298","764819","0.0-259.0-0.0","58501475","wem/bandit_either_2","A2ADEPVGNNXNPA","either","2","568","","","","","","","0","0","1","0.08679630722","","0.6","0.2","0.4","0.8","","","","","0.08679630722","0.1025207236","0.3674409598","0.09488552944","","","","","","","","72","H","0","img/none_selected.jpg","","219","main_expt"
"","bandit","299","766726","0.0-260.0-0.0","58501475","wem/bandit_either_2","A2ADEPVGNNXNPA","either","2","390","","","","","","","0","0","1","0.1311925698","","0.6","0.2","0.4","0.8","","","","","0.1482089448","0.1049734862","0.315237632","0.1311925698","","","","","","","","76","L","3","","","220","main_expt"
"","bandit","300","768513","0.0-261.0-0.0","58501475","wem/bandit_either_2","A2ADEPVGNNXNPA","either","2","279","","","","","","","0","0","1","","0.08244295151","0.6","0.2","0.4","0.8","0.217172314","0.08244295151","0.3572442142","0.08224132258","","","","","","","","","","","","74","J","1","","","221","main_expt"
"","bandit","301","770756","0.0-262.0-0.0","58501475","wem/bandit_either_2","A2ADEPVGNNXNPA","either","2","730","","","","","","","0","0","1","","0.2796125419","0.6","0.2","0.4","0.8","0.2227738938","0.09815111748","0.2796125419","0.06870998364","","","","","","","","","","","","75","K","2","","","222","main_expt"
"","bandit","302","773100","0.0-263.0-0.0","58501475","wem/bandit_either_2","A2ADEPVGNNXNPA","either","2","835","","","","","","","0","0","1","0.2768694491","","0.6","0.2","0.4","0.8","","","","","0.2768694491","0.09925351505","0.2265565182","0.111762886","","","","","","","","72","H","0","img/none_selected.jpg","","223","main_expt"
"","bandit","303","774715","0.0-264.0-0.0","58501475","wem/bandit_either_2","A2ADEPVGNNXNPA","either","2","105","","","","","","","0","0","1","","0.07842644678","0.6","0.2","0.4","0.8","0.2895694018","0.07842644678","0.1727872262","0.09652303785","","","","","","","","","","","","74","J","1","","","224","main_expt"
"","bandit","304","776324","0.0-265.0-0.0","58501475","wem/bandit_either_2","A2ADEPVGNNXNPA","either","2","96","","","","","","","0","0","1","","0.05284632075","0.6","0.2","0.4","0.8","0.3515154126","0.05284632075","0.1580797834","0.09424892582","","","","","","","","","","","","74","J","1","","","225","main_expt"
"","bandit","305","777834","0.0-266.0-0.0","58501475","wem/bandit_either_2","A2ADEPVGNNXNPA","either","2","2","","","","","","","0","0","1","","0.06788221328","0.6","0.2","0.4","0.8","0.3960872924","0.06788221328","0.1206031336","0.1094697254","","","","","","","","","","","","74","J","1","","","226","main_expt"
"","bandit","306","779546","0.0-267.0-0.0","58501475","wem/bandit_either_2","A2ADEPVGNNXNPA","either","2","201","","","","","","","0","0","1","","0.04226868229","0.6","0.2","0.4","0.8","0.3301105445","0.04226868229","0.1218099769","0.1055794081","","","","","","","","","","","","74","J","1","","","227","main_expt"
"","bandit","307","781427","0.0-268.0-0.0","58501475","wem/bandit_either_2","A2ADEPVGNNXNPA","either","2","369","","","","","","","0","0","1","","0.06174471126","0.6","0.2","0.4","0.8","0.3679650562","0.06174471126","0.08458740206","0.1210232629","","","","","","","","","","","","74","J","1","","","228","main_expt"
"","bandit","308","783555","0.0-269.0-0.0","58501475","wem/bandit_either_2","A2ADEPVGNNXNPA","either","2","617","","","","","","","0","1","0","","0.1249199002","0.6","0.2","0.4","0.8","0.3413725311","0.06122033102","0.06311990622","0.1249199002","","","","","","","","","","","","76","L","3","","","229","main_expt"
"","bandit","309","785458","0.0-270.0-0.0","58501475","wem/bandit_either_2","A2ADEPVGNNXNPA","either","2","392","","","","","","","0","0","1","0.1423167866","","0.6","0.2","0.4","0.8","","","","","0.3652503211","0.09369367087","0.04674316758","0.1423167866","","","","","","","","76","L","3","","","230","main_expt"
"","bandit","310","787378","0.0-271.0-0.0","58501475","wem/bandit_either_2","A2ADEPVGNNXNPA","either","2","408","","","","","","","0","0","1","0.1441411413","","0.6","0.2","0.4","0.8","","","","","0.3774172636","0.1378364932","0.06697327866","0.1441411413","","","","","","","","76","L","3","","","231","main_expt"
"","bandit","311","788955","0.0-272.0-0.0","58501475","wem/bandit_either_2","A2ADEPVGNNXNPA","either","2","65","","","","","","","0","0","1","","0.08617656909","0.6","0.2","0.4","0.8","0.3507397895","0.1138343256","0.08617656909","0.1132866493","","","","","","","","","","","","75","K","2","","","232","main_expt"
"","bandit","312","790971","0.0-273.0-0.0","58501475","wem/bandit_either_2","A2ADEPVGNNXNPA","either","2","504","","","","","","","0","0","1","","0.3228668676","0.6","0.2","0.4","0.8","0.3228668676","0.1602674987","0.08388286328","0.07587191469","","","","","","","","","","","","72","H","0","img/none_selected.jpg","","233","main_expt"
"","bandit","313","792873","0.0-274.0-0.0","58501475","wem/bandit_either_2","A2ADEPVGNNXNPA","either","2","392","","","","","","","1","0","0","0.3219168209","","0.6","0.2","0.4","0.8","","","","","0.3219168209","0.1399599793","0.08303297831","0.08330376307","","","","","","","","72","H","0","img/none_selected.jpg","","234","main_expt"
"","bandit","314","794772","0.0-275.0-0.0","58501475","wem/bandit_either_2","A2ADEPVGNNXNPA","either","2","386","","","","","","","0","1","0","","0.2907257894","0.6","0.2","0.4","0.8","0.2907257894","0.1577883936","0.08228619446","0.07960395758","","","","","","","","","","","","72","H","0","img/none_selected.jpg","","235","main_expt"
"","bandit","315","796530","0.0-276.0-0.0","58501475","wem/bandit_either_2","A2ADEPVGNNXNPA","either","2","248","","","","","","","0","1","0","","0.2879125653","0.6","0.2","0.4","0.8","0.2879125653","0.1206463377","0.07856112713","0.06703487678","","","","","","","","","","","","72","H","0","img/none_selected.jpg","","236","main_expt"
"","bandit","316","798074","0.0-277.0-0.0","58501475","wem/bandit_either_2","A2ADEPVGNNXNPA","either","2","31","","","","","","","1","0","0","0.3055933028","","0.6","0.2","0.4","0.8","","","","","0.3055933028","0.1224948263","0.09394336493","0.07970276757","","","","","","","","72","H","0","img/none_selected.jpg","","237","main_expt"
"","bandit","317","799617","0.0-278.0-0.0","58501475","wem/bandit_either_2","A2ADEPVGNNXNPA","either","2","32","","","","","","","1","0","0","0.3197806133","","0.6","0.2","0.4","0.8","","","","","0.3197806133","0.1163601633","0.1044036833","0.05589422377","","","","","","","","72","H","0","img/none_selected.jpg","","238","main_expt"
"","bandit","318","801436","0.0-279.0-0.0","58501475","wem/bandit_either_2","A2ADEPVGNNXNPA","either","2","303","","","","","","","0","0","1","0.2699970134","","0.6","0.2","0.4","0.8","","","","","0.2699970134","0.09302868556","0.1010835707","0.07304711058","","","","","","","","72","H","0","img/none_selected.jpg","","239","main_expt"
"","bandit","319","803201","0.0-280.0-0.0","58501475","wem/bandit_either_2","A2ADEPVGNNXNPA","either","2","252","","","","","","","0","0","1","","0.2594796501","0.6","0.2","0.4","0.8","0.2594796501","0.1142909623","0.1196592177","0.05193691484","","","","","","","","","","","","72","H","0","img/none_selected.jpg","","240","main_expt"
"","bandit","320","804890","0.0-281.0-0.0","58501475","wem/bandit_either_2","A2ADEPVGNNXNPA","either","2","179","","","","","","","0","1","0","","0.252227353","0.6","0.2","0.4","0.8","0.252227353","0.1694552561","0.127320561","0.06844812817","","","","","","","","","","","","72","H","0","img/none_selected.jpg","","241","main_expt"
"","bandit","321","807057","0.0-282.0-0.0","58501475","wem/bandit_either_2","A2ADEPVGNNXNPA","either","2","655","","","","","","","0","0","1","","0.1828807391","0.6","0.2","0.4","0.8","0.301231011","0.1828807391","0.10641745","0.07869989264","","","","","","","","","","","","74","J","1","","","242","main_expt"
"","bandit","322","808666","0.0-283.0-0.0","58501475","wem/bandit_either_2","A2ADEPVGNNXNPA","either","2","99","","","","","","","0","0","1","","0.2903867436","0.6","0.2","0.4","0.8","0.2903867436","0.1236361748","0.131785075","0.06084245892","","","","","","","","","","","","72","H","0","img/none_selected.jpg","","243","main_expt"
"","bandit","323","810610","0.0-284.0-0.0","58501475","wem/bandit_either_2","A2ADEPVGNNXNPA","either","2","432","","","","","","","1","0","0","0.2659167858","","0.6","0.2","0.4","0.8","","","","","0.2659167858","0.1131162958","0.1150513838","0.04982625113","","","","","","","","72","H","0","img/none_selected.jpg","","244","main_expt"
"","bandit","324","813002","0.0-285.0-0.0","58501475","wem/bandit_either_2","A2ADEPVGNNXNPA","either","2","881","","","","","","","0","1","0","","0.254087564","0.6","0.2","0.4","0.8","0.254087564","0.08611006768","0.1651966394","0.04708965441","","","","","","","","","","","","72","H","0","img/none_selected.jpg","","245","main_expt"
"","bandit","325","814777","0.0-286.0-0.0","58501475","wem/bandit_either_2","A2ADEPVGNNXNPA","either","2","264","","","","","","","0","1","0","","0.2551799517","0.6","0.2","0.4","0.8","0.2551799517","0.1123216353","0.1555796254","0.0280961865","","","","","","","","","","","","72","H","0","img/none_selected.jpg","","246","main_expt"
"","bandit","326","816514","0.0-287.0-0.0","58501475","wem/bandit_either_2","A2ADEPVGNNXNPA","either","2","226","","","","","","","0","0","1","0.2629335529","","0.6","0.2","0.4","0.8","","","","","0.2629335529","0.09475638668","0.1703980626","0.04499456282","","","","","","","","72","H","0","img/none_selected.jpg","","247","main_expt"
