"consent","trial_type","trial_index","time_elapsed","internal_node_id","subjID","study","MID","cond","drift","rt","responses","key_press","expt_phase","like","value","connected","gems","bombs","no_reward","GemPrChosen","BombPrChosen","GainOverPainPr_0","GainOverPainPr_1","GainOverPainPr_2","GainOverPainPr_3","LosePr_0","LosePr_1","LosePr_2","LosePr_3","WinPr_0","WinPr_1","WinPr_2","WinPr_3","Q0","Q1","Q2","gender","age","ethnicity","target","respCharCode","respKey","respChoiceNum","respChoice","practice","trial_counter","trial_label"
"INL_behavioral_consent_30min_online.html","consent","0","5652","0.0-0.0","59106495","wem/bandit_either_2","AVPKE76DJLWK6","either","8","","","","","","","","","","","","","","","","","","","","","","","","","","","","","","","","","","","","","",""
"","survey-text","1","10823","0.0-1.0","59106495","wem/bandit_either_2","AVPKE76DJLWK6","either","8","4154","{""Q0"":""AVPKE76DJLWK6""}","","","","","","","","","","","","","","","","","","","","","","","","","","","","","","","","","","","",""
"","text","2","18778","0.0-2.0","59106495","wem/bandit_either_2","AVPKE76DJLWK6","either","8","6950","","32","","","","","","","","","","","","","","","","","","","","","","","","","","","","","","","","","","",""
"","text","3","22977","0.0-3.0","59106495","wem/bandit_either_2","AVPKE76DJLWK6","either","8","4189","","32","","","","","","","","","","","","","","","","","","","","","","","","","","","","","","","","","","",""
"","text","4","39793","0.0-4.0","59106495","wem/bandit_either_2","AVPKE76DJLWK6","either","8","16806","","32","","","","","","","","","","","","","","","","","","","","","","","","","","","","","","","","","","",""
"","text","5","49904","0.0-5.0","59106495","wem/bandit_either_2","AVPKE76DJLWK6","either","8","10111","","32","","","","","","","","","","","","","","","","","","","","","","","","","","","","","","","","","","",""
"","text","6","62060","0.0-6.0","59106495","wem/bandit_either_2","AVPKE76DJLWK6","either","8","12156","","32","","","","","","","","","","","","","","","","","","","","","","","","","","","","","","","","","","",""
"","text","7","66504","0.0-7.0","59106495","wem/bandit_either_2","AVPKE76DJLWK6","either","8","4434","","32","","","","","","","","","","","","","","","","","","","","","","","","","","","","","","","","","","",""
"","text","8","73493","0.0-8.0","59106495","wem/bandit_either_2","AVPKE76DJLWK6","either","8","6989","","32","","","","","","","","","","","","","","","","","","","","","","","","","","","","","","","","","","",""
"","identification","9","83979","0.0-9.0-0.0","59106495","wem/bandit_either_2","AVPKE76DJLWK6","either","8","10447","","","","3","3","3","","","","","","","","","","","","","","","","","","","","","","","","the village of Zur","","","","","","",""
"","identification","10","93208","0.0-9.0-1.0","59106495","wem/bandit_either_2","AVPKE76DJLWK6","either","8","8216","","","","2","2","2","","","","","","","","","","","","","","","","","","","","","","","","the village of Nyx","","","","","","",""
"","text","11","100978","0.0-10.0","59106495","wem/bandit_either_2","AVPKE76DJLWK6","either","8","6763","","32","","","","","","","","","","","","","","","","","","","","","","","","","","","","","","","","","","",""
"","text","12","104342","0.0-11.0","59106495","wem/bandit_either_2","AVPKE76DJLWK6","either","8","3364","","32","","","","","","","","","","","","","","","","","","","","","","","","","","","","","","","","","","",""
"","text","13","107251","0.0-12.0","59106495","wem/bandit_either_2","AVPKE76DJLWK6","either","8","2909","","32","","","","","","","","","","","","","","","","","","","","","","","","","","","","","","","","","","",""
"","text","14","113549","0.0-13.0","59106495","wem/bandit_either_2","AVPKE76DJLWK6","either","8","6298","","32","","","","","","","","","","","","","","","","","","","","","","","","","","","","","","","","","","",""
"","bandit","15","117489","0.0-14.0-0.0","59106495","wem/bandit_either_2","AVPKE76DJLWK6","either","8","2434","","","","","","","0","0","1","0","0","","","","","0","","","","0","","","","","","","","","","","74","J","0","img/none_selected_demo.jpg","true","0",""
"","bandit","16","121434","0.0-15.0-0.0","59106495","wem/bandit_either_2","AVPKE76DJLWK6","either","8","2439","","","","","","","0","0","1","0","0","","","","","0","","","","0","","","","","","","","","","","75","K","0","img/none_selected_demo.jpg","true","0",""
"","text","17","128377","0.0-16.0","59106495","wem/bandit_either_2","AVPKE76DJLWK6","either","8","6942","","32","","","","","","","","","","","","","","","","","","","","","","","","","","","","","","","","","","",""
"","text","18","138501","0.0-17.0","59106495","wem/bandit_either_2","AVPKE76DJLWK6","either","8","10123","","32","","","","","","","","","","","","","","","","","","","","","","","","","","","","","","","","","","",""
"","text","19","143640","0.0-18.0","59106495","wem/bandit_either_2","AVPKE76DJLWK6","either","8","5129","","32","","","","","","","","","","","","","","","","","","","","","","","","","","","","","","","","","","",""
"","text","20","146220","0.0-19.0","59106495","wem/bandit_either_2","AVPKE76DJLWK6","either","8","2580","","32","","","","","","","","","","","","","","","","","","","","","","","","","","","","","","","","","","",""
"","bandit","21","148897","0.0-20.0-0.0","59106495","wem/bandit_either_2","AVPKE76DJLWK6","either","8","1172","","","","","","","0","1","0","","0.8","0.5","0.5","","","0.8","0.2","","","","","","","","","","","","","","74","J","0","img/none_selected_demo.jpg","true","0","80_20_practice"
"","bandit","22","151932","0.0-20.0-1.0","59106495","wem/bandit_either_2","AVPKE76DJLWK6","either","8","1526","","","","","","","1","0","0","0.8","","0.5","0.5","","","","","","","0.8","0.2","","","","","","","","","","74","J","0","img/none_selected_demo.jpg","true","0","80_20_practice"
"","bandit","23","153988","0.0-20.0-2.0","59106495","wem/bandit_either_2","AVPKE76DJLWK6","either","8","547","","","","","","","1","0","0","0.8","","0.5","0.5","","","","","","","0.8","0.2","","","","","","","","","","74","J","0","img/none_selected_demo.jpg","true","0","80_20_practice"
"","bandit","24","155990","0.0-20.0-3.0","59106495","wem/bandit_either_2","AVPKE76DJLWK6","either","8","493","","","","","","","1","0","0","0.8","","0.5","0.5","","","","","","","0.8","0.2","","","","","","","","","","74","J","0","img/none_selected_demo.jpg","true","0","80_20_practice"
"","bandit","25","157971","0.0-20.0-4.0","59106495","wem/bandit_either_2","AVPKE76DJLWK6","either","8","473","","","","","","","0","1","0","","0.8","0.5","0.5","","","0.8","0.2","","","","","","","","","","","","","","74","J","0","img/none_selected_demo.jpg","true","0","80_20_practice"
"","bandit","26","159816","0.0-20.0-5.0","59106495","wem/bandit_either_2","AVPKE76DJLWK6","either","8","337","","","","","","","0","0","1","","0.2","0.5","0.5","","","0.8","0.2","","","","","","","","","","","","","","75","K","1","","true","0","80_20_practice"
"","bandit","27","161660","0.0-20.0-6.0","59106495","wem/bandit_either_2","AVPKE76DJLWK6","either","8","327","","","","","","","0","0","1","","0.2","0.5","0.5","","","0.8","0.2","","","","","","","","","","","","","","75","K","1","","true","0","80_20_practice"
"","bandit","28","163452","0.0-20.0-7.0","59106495","wem/bandit_either_2","AVPKE76DJLWK6","either","8","275","","","","","","","0","0","1","","0.8","0.5","0.5","","","0.8","0.2","","","","","","","","","","","","","","74","J","0","img/none_selected_demo.jpg","true","0","80_20_practice"
"","bandit","29","165162","0.0-20.0-8.0","59106495","wem/bandit_either_2","AVPKE76DJLWK6","either","8","208","","","","","","","1","0","0","0.8","","0.5","0.5","","","","","","","0.8","0.2","","","","","","","","","","74","J","0","img/none_selected_demo.jpg","true","0","80_20_practice"
"","bandit","30","166936","0.0-20.0-9.0","59106495","wem/bandit_either_2","AVPKE76DJLWK6","either","8","270","","","","","","","1","0","0","0.8","","0.5","0.5","","","","","","","0.8","0.2","","","","","","","","","","74","J","0","img/none_selected_demo.jpg","true","0","80_20_practice"
"","bandit","31","168689","0.0-20.0-10.0","59106495","wem/bandit_either_2","AVPKE76DJLWK6","either","8","251","","","","","","","1","0","0","0.8","","0.5","0.5","","","","","","","0.8","0.2","","","","","","","","","","74","J","0","img/none_selected_demo.jpg","true","0","80_20_practice"
"","bandit","32","170469","0.0-20.0-11.0","59106495","wem/bandit_either_2","AVPKE76DJLWK6","either","8","269","","","","","","","0","1","0","","0.8","0.5","0.5","","","0.8","0.2","","","","","","","","","","","","","","74","J","0","img/none_selected_demo.jpg","true","0","80_20_practice"
"","bandit","33","172162","0.0-20.0-12.0","59106495","wem/bandit_either_2","AVPKE76DJLWK6","either","8","184","","","","","","","0","1","0","","0.8","0.5","0.5","","","0.8","0.2","","","","","","","","","","","","","","74","J","0","img/none_selected_demo.jpg","true","0","80_20_practice"
"","bandit","34","173939","0.0-20.0-13.0","59106495","wem/bandit_either_2","AVPKE76DJLWK6","either","8","267","","","","","","","0","1","0","","0.8","0.5","0.5","","","0.8","0.2","","","","","","","","","","","","","","74","J","0","img/none_selected_demo.jpg","true","0","80_20_practice"
"","bandit","35","175634","0.0-20.0-14.0","59106495","wem/bandit_either_2","AVPKE76DJLWK6","either","8","195","","","","","","","1","0","0","0.8","","0.5","0.5","","","","","","","0.8","0.2","","","","","","","","","","74","J","0","img/none_selected_demo.jpg","true","0","80_20_practice"
"","bandit","36","177388","0.0-20.0-15.0","59106495","wem/bandit_either_2","AVPKE76DJLWK6","either","8","245","","","","","","","1","0","0","0.8","","0.5","0.5","","","","","","","0.8","0.2","","","","","","","","","","74","J","0","img/none_selected_demo.jpg","true","0","80_20_practice"
"","bandit","37","179059","0.0-20.0-16.0","59106495","wem/bandit_either_2","AVPKE76DJLWK6","either","8","163","","","","","","","1","0","0","0.8","","0.5","0.5","","","","","","","0.8","0.2","","","","","","","","","","74","J","0","img/none_selected_demo.jpg","true","0","80_20_practice"
"","bandit","38","180699","0.0-20.0-17.0","59106495","wem/bandit_either_2","AVPKE76DJLWK6","either","8","140","","","","","","","1","0","0","0.8","","0.5","0.5","","","","","","","0.8","0.2","","","","","","","","","","74","J","0","img/none_selected_demo.jpg","true","0","80_20_practice"
"","bandit","39","182488","0.0-20.0-18.0","59106495","wem/bandit_either_2","AVPKE76DJLWK6","either","8","281","","","","","","","0","0","1","","0.8","0.5","0.5","","","0.8","0.2","","","","","","","","","","","","","","74","J","0","img/none_selected_demo.jpg","true","0","80_20_practice"
"","bandit","40","184268","0.0-20.0-19.0","59106495","wem/bandit_either_2","AVPKE76DJLWK6","either","8","267","","","","","","","0","0","1","","0.8","0.5","0.5","","","0.8","0.2","","","","","","","","","","","","","","74","J","0","img/none_selected_demo.jpg","true","0","80_20_practice"
"","text","41","190983","0.0-21.0","59106495","wem/bandit_either_2","AVPKE76DJLWK6","either","8","6715","","32","","","","","","","","","","","","","","","","","","","","","","","","","","","","","","","","","","",""
"","bandit","42","194556","0.0-22.0-0.0","59106495","wem/bandit_either_2","AVPKE76DJLWK6","either","8","2072","","","","","","","1","0","0","1","0","","","","","0","1","","","1","0","","","","","","","","","","74","J","0","img/none_selected_demo.jpg","true","0",""
"","text","43","200669","0.0-23.0","59106495","wem/bandit_either_2","AVPKE76DJLWK6","either","8","6113","","32","","","","","","","","","","","","","","","","","","","","","","","","","","","","","","","","","","",""
"","text","44","205355","0.0-24.0","59106495","wem/bandit_either_2","AVPKE76DJLWK6","either","8","4686","","32","","","","","","","","","","","","","","","","","","","","","","","","","","","","","","","","","","",""
"","text","45","209393","0.0-25.0","59106495","wem/bandit_either_2","AVPKE76DJLWK6","either","8","4038","","32","","","","","","","","","","","","","","","","","","","","","","","","","","","","","","","","","","",""
"","text","46","211694","0.0-26.0","59106495","wem/bandit_either_2","AVPKE76DJLWK6","either","8","2301","","32","","","","","","","","","","","","","","","","","","","","","","","","","","","","","","","","","","",""
"","text","47","218248","0.0-27.0","59106495","wem/bandit_either_2","AVPKE76DJLWK6","either","8","6554","","32","","","","","","","","","","","","","","","","","","","","","","","","","","","","","","","","","","",""
"","text","48","220349","0.0-28.0","59106495","wem/bandit_either_2","AVPKE76DJLWK6","either","8","2101","","32","","","","","","","","","","","","","","","","","","","","","","","","","","","","","","","","","","",""
"","text","49","223040","0.0-29.0","59106495","wem/bandit_either_2","AVPKE76DJLWK6","either","8","2681","","32","","","","","","","","","","","","","","","","","","","","","","","","","","","","","","","","","","",""
"","text","50","227829","0.0-30.0","59106495","wem/bandit_either_2","AVPKE76DJLWK6","either","8","4789","","32","","","","","","","","","","","","","","","","","","","","","","","","","","","","","","","","","","",""
"","text","51","233129","0.0-31.0","59106495","wem/bandit_either_2","AVPKE76DJLWK6","either","8","5300","","32","","","","","","","","","","","","","","","","","","","","","","","","","","","","","","","","","","",""
"","text","52","235003","0.0-32.0","59106495","wem/bandit_either_2","AVPKE76DJLWK6","either","8","1864","","32","","","","","","","","","","","","","","","","","","","","","","","","","","","","","","","","","","",""
"","text","53","238542","0.0-33.0","59106495","wem/bandit_either_2","AVPKE76DJLWK6","either","8","3539","","32","","","","","","","","","","","","","","","","","","","","","","","","","","","","","","","","","","",""
"","bandit","54","240701","0.0-34.0-0.0","59106495","wem/bandit_either_2","AVPKE76DJLWK6","either","8","655","","","","","","","0","0","1","0.8","","0.5","0.5","0.5","0.5","","","","","0.8","0.2","0.6","0.2","","","","","","","","72","H","0","img/none_selected.jpg","true","0","full_practice"
"","bandit","55","242553","0.0-34.0-1.0","59106495","wem/bandit_either_2","AVPKE76DJLWK6","either","8","344","","","","","","","0","0","1","","0.2","0.5","0.5","0.5","0.5","0.8","0.2","0.6","0.2","","","","","","","","","","","","74","J","1","","true","0","full_practice"
"","bandit","56","244504","0.0-34.0-2.0","59106495","wem/bandit_either_2","AVPKE76DJLWK6","either","8","447","","","","","","","0","0","1","0.6","","0.5","0.5","0.5","0.5","","","","","0.8","0.2","0.6","0.2","","","","","","","","75","K","2","","true","0","full_practice"
"","bandit","57","246330","0.0-34.0-3.0","59106495","wem/bandit_either_2","AVPKE76DJLWK6","either","8","324","","","","","","","0","0","1","","0.2","0.5","0.5","0.5","0.5","0.8","0.2","0.6","0.2","","","","","","","","","","","","76","L","3","","true","0","full_practice"
"","bandit","58","248239","0.0-34.0-4.0","59106495","wem/bandit_either_2","AVPKE76DJLWK6","either","8","397","","","","","","","0","1","0","","0.6","0.5","0.5","0.5","0.5","0.8","0.2","0.6","0.2","","","","","","","","","","","","75","K","2","","true","0","full_practice"
"","bandit","59","250065","0.0-34.0-5.0","59106495","wem/bandit_either_2","AVPKE76DJLWK6","either","8","310","","","","","","","1","0","0","0.6","","0.5","0.5","0.5","0.5","","","","","0.8","0.2","0.6","0.2","","","","","","","","75","K","2","","true","0","full_practice"
"","bandit","60","251854","0.0-34.0-6.0","59106495","wem/bandit_either_2","AVPKE76DJLWK6","either","8","279","","","","","","","1","0","0","0.6","","0.5","0.5","0.5","0.5","","","","","0.8","0.2","0.6","0.2","","","","","","","","75","K","2","","true","0","full_practice"
"","bandit","61","253653","0.0-34.0-7.0","59106495","wem/bandit_either_2","AVPKE76DJLWK6","either","8","295","","","","","","","1","0","0","0.6","","0.5","0.5","0.5","0.5","","","","","0.8","0.2","0.6","0.2","","","","","","","","75","K","2","","true","0","full_practice"
"","bandit","62","255442","0.0-34.0-8.0","59106495","wem/bandit_either_2","AVPKE76DJLWK6","either","8","279","","","","","","","0","1","0","","0.6","0.5","0.5","0.5","0.5","0.8","0.2","0.6","0.2","","","","","","","","","","","","75","K","2","","true","0","full_practice"
"","bandit","63","257189","0.0-34.0-9.0","59106495","wem/bandit_either_2","AVPKE76DJLWK6","either","8","244","","","","","","","0","1","0","","0.6","0.5","0.5","0.5","0.5","0.8","0.2","0.6","0.2","","","","","","","","","","","","75","K","2","","true","0","full_practice"
"","bandit","64","259041","0.0-34.0-10.0","59106495","wem/bandit_either_2","AVPKE76DJLWK6","either","8","348","","","","","","","0","1","0","","0.6","0.5","0.5","0.5","0.5","0.8","0.2","0.6","0.2","","","","","","","","","","","","75","K","2","","true","0","full_practice"
"","bandit","65","260887","0.0-34.0-11.0","59106495","wem/bandit_either_2","AVPKE76DJLWK6","either","8","336","","","","","","","1","0","0","0.6","","0.5","0.5","0.5","0.5","","","","","0.8","0.2","0.6","0.2","","","","","","","","75","K","2","","true","0","full_practice"
"","bandit","66","263140","0.0-34.0-12.0","59106495","wem/bandit_either_2","AVPKE76DJLWK6","either","8","734","","","","","","","0","0","1","0.6","","0.5","0.5","0.5","0.5","","","","","0.8","0.2","0.6","0.2","","","","","","","","75","K","2","","true","0","full_practice"
"","bandit","67","264914","0.0-34.0-13.0","59106495","wem/bandit_either_2","AVPKE76DJLWK6","either","8","267","","","","","","","0","1","0","","0.2","0.5","0.5","0.5","0.5","0.8","0.2","0.6","0.2","","","","","","","","","","","","74","J","1","","true","0","full_practice"
"","bandit","68","266736","0.0-34.0-14.0","59106495","wem/bandit_either_2","AVPKE76DJLWK6","either","8","308","","","","","","","0","1","0","","0.2","0.5","0.5","0.5","0.5","0.8","0.2","0.6","0.2","","","","","","","","","","","","74","J","1","","true","0","full_practice"
"","bandit","69","268557","0.0-34.0-15.0","59106495","wem/bandit_either_2","AVPKE76DJLWK6","either","8","318","","","","","","","0","1","0","","0.2","0.5","0.5","0.5","0.5","0.8","0.2","0.6","0.2","","","","","","","","","","","","74","J","1","","true","0","full_practice"
"","bandit","70","270369","0.0-34.0-16.0","59106495","wem/bandit_either_2","AVPKE76DJLWK6","either","8","312","","","","","","","0","0","1","0.2","","0.5","0.5","0.5","0.5","","","","","0.8","0.2","0.6","0.2","","","","","","","","74","J","1","","true","0","full_practice"
"","bandit","71","272182","0.0-34.0-17.0","59106495","wem/bandit_either_2","AVPKE76DJLWK6","either","8","308","","","","","","","1","0","0","0.2","","0.5","0.5","0.5","0.5","","","","","0.8","0.2","0.6","0.2","","","","","","","","74","J","1","","true","0","full_practice"
"","bandit","72","274025","0.0-34.0-18.0","59106495","wem/bandit_either_2","AVPKE76DJLWK6","either","8","337","","","","","","","0","0","1","","0.2","0.5","0.5","0.5","0.5","0.8","0.2","0.6","0.2","","","","","","","","","","","","74","J","1","","true","0","full_practice"
"","bandit","73","275705","0.0-34.0-19.0","59106495","wem/bandit_either_2","AVPKE76DJLWK6","either","8","169","","","","","","","1","0","0","0.8","","0.5","0.5","0.5","0.5","","","","","0.8","0.2","0.6","0.2","","","","","","","","72","H","0","img/none_selected.jpg","true","0","full_practice"
"","text","74","279005","0.0-35.0","59106495","wem/bandit_either_2","AVPKE76DJLWK6","either","8","3289","","32","","","","","","","","","","","","","","","","","","","","","","","","","","","","","","","","","","",""
"","text","75","290110","0.0-36.0","59106495","wem/bandit_either_2","AVPKE76DJLWK6","either","8","10102","","32","","","","","","","","","","","","","","","","","","","","","","","","","","","","","","","","","","",""
"","text","76","297766","0.0-37.0","59106495","wem/bandit_either_2","AVPKE76DJLWK6","either","8","7656","","32","","","","","","","","","","","","","","","","","","","","","","","","","","","","","","","","","","",""
"","text","77","301282","0.0-38.0","59106495","wem/bandit_either_2","AVPKE76DJLWK6","either","8","3516","","32","","","","","","","","","","","","","","","","","","","","","","","","","","","","","","","","","","",""
"","text","78","307654","0.0-39.0","59106495","wem/bandit_either_2","AVPKE76DJLWK6","either","8","6362","","32","","","","","","","","","","","","","","","","","","","","","","","","","","","","","","","","","","",""
"","text","79","315775","0.0-40.0","59106495","wem/bandit_either_2","AVPKE76DJLWK6","either","8","8121","","32","","","","","","","","","","","","","","","","","","","","","","","","","","","","","","","","","","",""
"","bandit","80","318988","0.0-41.0-0.0","59106495","wem/bandit_either_2","AVPKE76DJLWK6","either","8","1699","","","","","","","0","0","1","0.2928194041","","0.2","0.4","0.8","0.6","","","","","0.2928194041","0.3540548627","0.2637293772","0.1351790469","","","","","","","","72","H","0","img/none_selected.jpg","","1","main_expt"
"","bandit","81","320831","0.0-42.0-0.0","59106495","wem/bandit_either_2","AVPKE76DJLWK6","either","8","333","","","","","","","0","0","1","","0.3812516843","0.2","0.4","0.8","0.6","0.3040419902","0.3812516843","0.2760013096","0.125602744","","","","","","","","","","","","74","J","1","","","2","main_expt"
"","bandit","82","323192","0.0-43.0-0.0","59106495","wem/bandit_either_2","AVPKE76DJLWK6","either","8","844","","","","","","","0","0","1","0.3240499928","","0.2","0.4","0.8","0.6","","","","","0.2875251023","0.3901316494","0.3240499928","0.09574082279","","","","","","","","75","K","2","","","3","main_expt"
"","bandit","83","325000","0.0-44.0-0.0","59106495","wem/bandit_either_2","AVPKE76DJLWK6","either","8","293","","","","","","","0","0","1","0.0913382225","","0.2","0.4","0.8","0.6","","","","","0.2965567903","0.3945399471","0.3510822359","0.0913382225","","","","","","","","76","L","3","","","4","main_expt"
"","bandit","84","326754","0.0-45.0-0.0","59106495","wem/bandit_either_2","AVPKE76DJLWK6","either","8","247","","","","","","","0","0","1","0.106177601","","0.2","0.4","0.8","0.6","","","","","0.2681113314","0.3997977613","0.3522827721","0.106177601","","","","","","","","76","L","3","","","5","main_expt"
"","bandit","85","328566","0.0-46.0-0.0","59106495","wem/bandit_either_2","AVPKE76DJLWK6","either","8","301","","","","","","","1","0","0","0.382674005","","0.2","0.4","0.8","0.6","","","","","0.2330443498","0.390783501","0.382674005","0.08998955495","","","","","","","","75","K","2","","","6","main_expt"
"","bandit","86","330342","0.0-47.0-0.0","59106495","wem/bandit_either_2","AVPKE76DJLWK6","either","8","261","","","","","","","0","0","1","0.3998463606","","0.2","0.4","0.8","0.6","","","","","0.1630509172","0.3305693427","0.3998463606","0.1077526668","","","","","","","","75","K","2","","","7","main_expt"
"","bandit","87","332097","0.0-48.0-0.0","59106495","wem/bandit_either_2","AVPKE76DJLWK6","either","8","250","","","","","","","0","1","0","","0.3832029687","0.2","0.4","0.8","0.6","0.2002468685","0.3056545716","0.3832029687","0.1243697388","","","","","","","","","","","","75","K","2","","","8","main_expt"
"","bandit","88","333909","0.0-49.0-0.0","59106495","wem/bandit_either_2","AVPKE76DJLWK6","either","8","307","","","","","","","0","0","1","0.3796681134","","0.2","0.4","0.8","0.6","","","","","0.1835034381","0.3278889804","0.3796681134","0.1698108096","","","","","","","","75","K","2","","","9","main_expt"
"","bandit","89","335701","0.0-50.0-0.0","59106495","wem/bandit_either_2","AVPKE76DJLWK6","either","8","287","","","","","","","0","0","1","","0.3137855556","0.2","0.4","0.8","0.6","0.1939723001","0.3137855556","0.3614311416","0.221757114","","","","","","","","","","","","74","J","1","","","10","main_expt"
"","bandit","90","337446","0.0-51.0-0.0","59106495","wem/bandit_either_2","AVPKE76DJLWK6","either","8","233","","","","","","","0","0","1","","0.3253079181","0.2","0.4","0.8","0.6","0.1949806013","0.3253079181","0.3938737051","0.1961062924","","","","","","","","","","","","74","J","1","","","11","main_expt"
"","bandit","91","338990","0.0-52.0-0.0","59106495","wem/bandit_either_2","AVPKE76DJLWK6","either","8","35","","","","","","","0","0","1","","0.2587943474","0.2","0.4","0.8","0.6","0.2587943474","0.3298150516","0.3810544723","0.1907056259","","","","","","","","","","","","72","H","0","img/none_selected.jpg","","12","main_expt"
"","bandit","92","340721","0.0-53.0-0.0","59106495","wem/bandit_either_2","AVPKE76DJLWK6","either","8","224","","","","","","","0","0","1","","0.3085985727","0.2","0.4","0.8","0.6","0.3085985727","0.3673307406","0.3707046684","0.2162865666","","","","","","","","","","","","72","H","0","img/none_selected.jpg","","13","main_expt"
"","bandit","93","342491","0.0-54.0-0.0","59106495","wem/bandit_either_2","AVPKE76DJLWK6","either","8","258","","","","","","","0","0","1","0.3486531997","","0.2","0.4","0.8","0.6","","","","","0.2464992766","0.3679224674","0.3486531997","0.2399362825","","","","","","","","75","K","2","","","14","main_expt"
"","bandit","94","344075","0.0-55.0-0.0","59106495","wem/bandit_either_2","AVPKE76DJLWK6","either","8","75","","","","","","","0","0","1","0.3263578384","","0.2","0.4","0.8","0.6","","","","","0.2474611475","0.3062507314","0.3263578384","0.1986859052","","","","","","","","75","K","2","","","15","main_expt"
"","bandit","95","345677","0.0-56.0-0.0","59106495","wem/bandit_either_2","AVPKE76DJLWK6","either","8","97","","","","","","","0","0","1","","0.3514189979","0.2","0.4","0.8","0.6","0.2835538477","0.2892976033","0.3514189979","0.1865641621","","","","","","","","","","","","75","K","2","","","16","main_expt"
"","bandit","96","347722","0.0-57.0-0.0","59106495","wem/bandit_either_2","AVPKE76DJLWK6","either","8","537","","","","","","","1","0","0","0.2861796528","","0.2","0.4","0.8","0.6","","","","","0.3256112075","0.2861796528","0.3532592314","0.2035525071","","","","","","","","74","J","1","","","17","main_expt"
"","bandit","97","349513","0.0-58.0-0.0","59106495","wem/bandit_either_2","AVPKE76DJLWK6","either","8","284","","","","","","","0","0","1","0.2958570682","","0.2","0.4","0.8","0.6","","","","","0.3802227677","0.2958570682","0.3858608091","0.2039336531","","","","","","","","74","J","1","","","18","main_expt"
"","bandit","98","351195","0.0-59.0-0.0","59106495","wem/bandit_either_2","AVPKE76DJLWK6","either","8","168","","","","","","","0","0","1","","0.3353028819","0.2","0.4","0.8","0.6","0.360566968","0.3353028819","0.3837638756","0.1598579642","","","","","","","","","","","","74","J","1","","","19","main_expt"
"","bandit","99","353254","0.0-60.0-0.0","59106495","wem/bandit_either_2","AVPKE76DJLWK6","either","8","551","","","","","","","0","0","1","","0.3139704528","0.2","0.4","0.8","0.6","0.3696799013","0.3139704528","0.2872100501","0.1437622327","","","","","","","","","","","","74","J","1","","","20","main_expt"
"","bandit","100","355211","0.0-61.0-0.0","59106495","wem/bandit_either_2","AVPKE76DJLWK6","either","8","445","","","","","","","0","0","1","0.07974703335","","0.2","0.4","0.8","0.6","","","","","0.4006907501","0.2524707143","0.2975414498","0.07974703335","","","","","","","","76","L","3","","","21","main_expt"
"","bandit","101","356988","0.0-62.0-0.0","59106495","wem/bandit_either_2","AVPKE76DJLWK6","either","8","269","","","","","","","0","0","1","0.1361132429","","0.2","0.4","0.8","0.6","","","","","0.4081217326","0.248326021","0.2741965999","0.1361132429","","","","","","","","76","L","3","","","22","main_expt"
"","bandit","102","358765","0.0-63.0-0.0","59106495","wem/bandit_either_2","AVPKE76DJLWK6","either","8","257","","","","","","","0","1","0","","0.1705973249","0.2","0.4","0.8","0.6","0.3740207531","0.2937153481","0.2379064449","0.1705973249","","","","","","","","","","","","76","L","3","","","23","main_expt"
"","bandit","103","360602","0.0-64.0-0.0","59106495","wem/bandit_either_2","AVPKE76DJLWK6","either","8","328","","","","","","","0","0","1","0.1392759225","","0.2","0.4","0.8","0.6","","","","","0.3913756451","0.2625315469","0.2078598572","0.1392759225","","","","","","","","76","L","3","","","24","main_expt"
"","bandit","104","362510","0.0-65.0-0.0","59106495","wem/bandit_either_2","AVPKE76DJLWK6","either","8","407","","","","","","","0","0","1","0.2764850733","","0.2","0.4","0.8","0.6","","","","","0.4100905738","0.2405651368","0.2764850733","0.1800538527","","","","","","","","75","K","2","","","25","main_expt"
"","bandit","105","364395","0.0-66.0-0.0","59106495","wem/bandit_either_2","AVPKE76DJLWK6","either","8","377","","","","","","","0","0","1","","0.2503350336","0.2","0.4","0.8","0.6","0.3600668969","0.2503350336","0.3080191348","0.2146400533","","","","","","","","","","","","74","J","1","","","26","main_expt"
"","bandit","106","366115","0.0-67.0-0.0","59106495","wem/bandit_either_2","AVPKE76DJLWK6","either","8","217","","","","","","","0","1","0","","0.3703096079","0.2","0.4","0.8","0.6","0.3703096079","0.354091838","0.3606197488","0.1948367851","","","","","","","","","","","","72","H","0","img/none_selected.jpg","","27","main_expt"
"","bandit","107","367941","0.0-68.0-0.0","59106495","wem/bandit_either_2","AVPKE76DJLWK6","either","8","316","","","","","","","1","0","0","0.3527269899","","0.2","0.4","0.8","0.6","","","","","0.3527269899","0.3419366675","0.3696097963","0.2282666016","","","","","","","","72","H","0","img/none_selected.jpg","","28","main_expt"
"","bandit","108","369735","0.0-69.0-0.0","59106495","wem/bandit_either_2","AVPKE76DJLWK6","either","8","288","","","","","","","0","1","0","","0.2854860911","0.2","0.4","0.8","0.6","0.2854860911","0.361896517","0.3434444954","0.1842618798","","","","","","","","","","","","72","H","0","img/none_selected.jpg","","29","main_expt"
"","bandit","109","371500","0.0-70.0-0.0","59106495","wem/bandit_either_2","AVPKE76DJLWK6","either","8","256","","","","","","","0","0","1","","0.2971434158","0.2","0.4","0.8","0.6","0.2971434158","0.3701160785","0.3528183973","0.1930267653","","","","","","","","","","","","72","H","0","img/none_selected.jpg","","30","main_expt"
"","bandit","110","373250","0.0-71.0-0.0","59106495","wem/bandit_either_2","AVPKE76DJLWK6","either","8","233","","","","","","","0","0","1","","0.3192935598","0.2","0.4","0.8","0.6","0.3192935598","0.3602312343","0.3436926249","0.2279264959","","","","","","","","","","","","72","H","0","img/none_selected.jpg","","31","main_expt"
"","bandit","111","375035","0.0-72.0-0.0","59106495","wem/bandit_either_2","AVPKE76DJLWK6","either","8","274","","","","","","","0","0","1","","0.2910845839","0.2","0.4","0.8","0.6","0.2910845839","0.3550043818","0.3392376576","0.1922668126","","","","","","","","","","","","72","H","0","img/none_selected.jpg","","32","main_expt"
"","bandit","112","376990","0.0-73.0-0.0","59106495","wem/bandit_either_2","AVPKE76DJLWK6","either","8","448","","","","","","","0","1","0","","0.3927862597","0.2","0.4","0.8","0.6","0.2956883229","0.3927862597","0.2524106513","0.1503247695","","","","","","","","","","","","74","J","1","","","33","main_expt"
"","bandit","113","378788","0.0-74.0-0.0","59106495","wem/bandit_either_2","AVPKE76DJLWK6","either","8","288","","","","","","","0","1","0","","0.4185963197","0.2","0.4","0.8","0.6","0.2918182698","0.4185963197","0.2378308988","0.1875072744","","","","","","","","","","","","74","J","1","","","34","main_expt"
"","bandit","114","380578","0.0-75.0-0.0","59106495","wem/bandit_either_2","AVPKE76DJLWK6","either","8","285","","","","","","","0","1","0","","0.441983755","0.2","0.4","0.8","0.6","0.3063909307","0.441983755","0.2683654211","0.2135507624","","","","","","","","","","","","74","J","1","","","35","main_expt"
"","bandit","115","382411","0.0-76.0-0.0","59106495","wem/bandit_either_2","AVPKE76DJLWK6","either","8","317","","","","","","","0","0","1","0.2645223933","","0.2","0.4","0.8","0.6","","","","","0.2820805085","0.4352827683","0.2645223933","0.2042402853","","","","","","","","75","K","2","","","36","main_expt"
"","bandit","116","384151","0.0-77.0-0.0","59106495","wem/bandit_either_2","AVPKE76DJLWK6","either","8","229","","","","","","","0","0","1","0.2360561858","","0.2","0.4","0.8","0.6","","","","","0.2610370824","0.450520142","0.2360561858","0.2024605481","","","","","","","","75","K","2","","","37","main_expt"
"","bandit","117","385947","0.0-78.0-0.0","59106495","wem/bandit_either_2","AVPKE76DJLWK6","either","8","284","","","","","","","0","0","1","","0.1677713785","0.2","0.4","0.8","0.6","0.1896233007","0.4681224698","0.2001865083","0.1677713785","","","","","","","","","","","","76","L","3","","","38","main_expt"
"","bandit","118","387709","0.0-79.0-0.0","59106495","wem/bandit_either_2","AVPKE76DJLWK6","either","8","250","","","","","","","0","0","1","0.221779122","","0.2","0.4","0.8","0.6","","","","","0.168851025","0.4711022053","0.1687915361","0.221779122","","","","","","","","76","L","3","","","39","main_expt"
"","bandit","119","389523","0.0-80.0-0.0","59106495","wem/bandit_either_2","AVPKE76DJLWK6","either","8","309","","","","","","","0","0","1","0.1503151413","","0.2","0.4","0.8","0.6","","","","","0.1615787635","0.4559447699","0.1503151413","0.2722397218","","","","","","","","75","K","2","","","40","main_expt"
"","bandit","120","391197","0.0-81.0-0.0","59106495","wem/bandit_either_2","AVPKE76DJLWK6","either","8","144","","","","","","","0","1","0","","0.4412687596","0.2","0.4","0.8","0.6","0.1472326003","0.4412687596","0.08168262283","0.3298230943","","","","","","","","","","","","74","J","1","","","41","main_expt"
"","bandit","121","392987","0.0-82.0-0.0","59106495","wem/bandit_either_2","AVPKE76DJLWK6","either","8","274","","","","","","","0","0","1","","0.1533480506","0.2","0.4","0.8","0.6","0.1533480506","0.4457751761","0.07668629145","0.3104885444","","","","","","","","","","","","72","H","0","img/none_selected.jpg","","42","main_expt"
"","bandit","122","394719","0.0-83.0-0.0","59106495","wem/bandit_either_2","AVPKE76DJLWK6","either","8","220","","","","","","","1","0","0","0.4298378352","","0.2","0.4","0.8","0.6","","","","","0.1414351437","0.4298378352","0.07394587158","0.3005355489","","","","","","","","74","J","1","","","43","main_expt"
"","bandit","123","396504","0.0-84.0-0.0","59106495","wem/bandit_either_2","AVPKE76DJLWK6","either","8","276","","","","","","","1","0","0","0.4416915379","","0.2","0.4","0.8","0.6","","","","","0.1067646429","0.4416915379","0.1192337685","0.2456242138","","","","","","","","74","J","1","","","44","main_expt"
"","bandit","124","398222","0.0-85.0-0.0","59106495","wem/bandit_either_2","AVPKE76DJLWK6","either","8","213","","","","","","","0","0","1","0.3915522423","","0.2","0.4","0.8","0.6","","","","","0.1250796286","0.3915522423","0.1285724119","0.2839901561","","","","","","","","74","J","1","","","45","main_expt"
"","bandit","125","399891","0.0-86.0-0.0","59106495","wem/bandit_either_2","AVPKE76DJLWK6","either","8","163","","","","","","","0","0","1","0.4318427431","","0.2","0.4","0.8","0.6","","","","","0.1927264636","0.4318427431","0.1112684106","0.2353621531","","","","","","","","74","J","1","","","46","main_expt"
"","bandit","126","402282","0.0-87.0-0.0","59106495","wem/bandit_either_2","AVPKE76DJLWK6","either","8","883","","","","","","","0","0","1","","0.4395998441","0.2","0.4","0.8","0.6","0.1804488412","0.4395998441","0.1207340475","0.2405257196","","","","","","","","","","","","74","J","1","","","47","main_expt"
"","bandit","127","404102","0.0-88.0-0.0","59106495","wem/bandit_either_2","AVPKE76DJLWK6","either","8","317","","","","","","","1","0","0","0.4630443269","","0.2","0.4","0.8","0.6","","","","","0.168268176","0.4630443269","0.1182533935","0.2629408555","","","","","","","","74","J","1","","","48","main_expt"
"","bandit","128","405986","0.0-89.0-0.0","59106495","wem/bandit_either_2","AVPKE76DJLWK6","either","8","376","","","","","","","0","0","1","0.4794982466","","0.2","0.4","0.8","0.6","","","","","0.1466838001","0.4794982466","0.1460801474","0.2902453213","","","","","","","","74","J","1","","","49","main_expt"
"","bandit","129","407734","0.0-90.0-0.0","59106495","wem/bandit_either_2","AVPKE76DJLWK6","either","8","237","","","","","","","0","1","0","","0.4562783041","0.2","0.4","0.8","0.6","0.1336340117","0.4562783041","0.1765155983","0.3033715012","","","","","","","","","","","","74","J","1","","","50","main_expt"
"","bandit","130","409570","0.0-91.0-0.0","59106495","wem/bandit_either_2","AVPKE76DJLWK6","either","8","321","","","","","","","0","0","1","0.4515646323","","0.2","0.4","0.8","0.6","","","","","0.1067821754","0.4515646323","0.1614266163","0.3536831403","","","","","","","","74","J","1","","","51","main_expt"
"","bandit","131","411374","0.0-92.0-0.0","59106495","wem/bandit_either_2","AVPKE76DJLWK6","either","8","290","","","","","","","0","1","0","","0.4344137529","0.2","0.4","0.8","0.6","0.07294577227","0.4344137529","0.1938643747","0.3058792917","","","","","","","","","","","","74","J","1","","","52","main_expt"
"","bandit","132","413227","0.0-93.0-0.0","59106495","wem/bandit_either_2","AVPKE76DJLWK6","either","8","348","","","","","","","0","1","0","","0.4421766306","0.2","0.4","0.8","0.6","0.07676454597","0.4421766306","0.1721886996","0.3466820038","","","","","","","","","","","","74","J","1","","","53","main_expt"
"","bandit","133","415040","0.0-94.0-0.0","59106495","wem/bandit_either_2","AVPKE76DJLWK6","either","8","296","","","","","","","0","1","0","","0.4591875032","0.2","0.4","0.8","0.6","0.07707135067","0.4591875032","0.1542880765","0.3159173384","","","","","","","","","","","","74","J","1","","","54","main_expt"
"","bandit","134","417032","0.0-95.0-0.0","59106495","wem/bandit_either_2","AVPKE76DJLWK6","either","8","485","","","","","","","0","1","0","","0.4455250987","0.2","0.4","0.8","0.6","0.08227932488","0.4455250987","0.2155598061","0.3205246683","","","","","","","","","","","","74","J","1","","","55","main_expt"
"","bandit","135","418834","0.0-96.0-0.0","59106495","wem/bandit_either_2","AVPKE76DJLWK6","either","8","285","","","","","","","1","0","0","0.4200701886","","0.2","0.4","0.8","0.6","","","","","0.09013031375","0.4200701886","0.199350645","0.3067659888","","","","","","","","74","J","1","","","56","main_expt"
"","bandit","136","420671","0.0-97.0-0.0","59106495","wem/bandit_either_2","AVPKE76DJLWK6","either","8","315","","","","","","","0","0","1","","0.3635567377","0.2","0.4","0.8","0.6","0.106866739","0.3635567377","0.1991981904","0.3786279545","","","","","","","","","","","","74","J","1","","","57","main_expt"
"","bandit","137","422503","0.0-98.0-0.0","59106495","wem/bandit_either_2","AVPKE76DJLWK6","either","8","313","","","","","","","0","0","1","0.3647217687","","0.2","0.4","0.8","0.6","","","","","0.0915584437","0.3647217687","0.1307276253","0.3796022377","","","","","","","","74","J","1","","","58","main_expt"
"","bandit","138","424319","0.0-99.0-0.0","59106495","wem/bandit_either_2","AVPKE76DJLWK6","either","8","306","","","","","","","0","0","1","","0.3975499765","0.2","0.4","0.8","0.6","0.1036540812","0.3975499765","0.1540949786","0.3570845549","","","","","","","","","","","","74","J","1","","","59","main_expt"
"","bandit","139","426072","0.0-100.0-0.0","59106495","wem/bandit_either_2","AVPKE76DJLWK6","either","8","229","","","","","","","0","0","1","0.376383165","","0.2","0.4","0.8","0.6","","","","","0.07948280662","0.376383165","0.1187181044","0.398525789","","","","","","","","74","J","1","","","60","main_expt"
"","bandit","140","427907","0.0-101.0-0.0","59106495","wem/bandit_either_2","AVPKE76DJLWK6","either","8","317","","","","","","","0","0","1","","0.3384437455","0.2","0.4","0.8","0.6","0.0685056185","0.3384437455","0.1734870435","0.380986593","","","","","","","","","","","","74","J","1","","","61","main_expt"
"","bandit","141","429762","0.0-102.0-0.0","59106495","wem/bandit_either_2","AVPKE76DJLWK6","either","8","348","","","","","","","0","0","1","0.3086389155","","0.2","0.4","0.8","0.6","","","","","0.04196312691","0.3086389155","0.2056999461","0.3928002855","","","","","","","","74","J","1","","","62","main_expt"
"","bandit","142","431991","0.0-103.0-0.0","59106495","wem/bandit_either_2","AVPKE76DJLWK6","either","8","715","","","","","","","1","0","0","0.3098998428","","0.2","0.4","0.8","0.6","","","","","0.06524357318","0.3098998428","0.2421495796","0.4097838671","","","","","","","","74","J","1","","","63","main_expt"
"","bandit","143","433810","0.0-104.0-0.0","59106495","wem/bandit_either_2","AVPKE76DJLWK6","either","8","294","","","","","","","0","0","1","0.2859800092","","0.2","0.4","0.8","0.6","","","","","0.04599317762","0.2859800092","0.2678986655","0.3942475769","","","","","","","","74","J","1","","","64","main_expt"
"","bandit","144","435618","0.0-105.0-0.0","59106495","wem/bandit_either_2","AVPKE76DJLWK6","either","8","300","","","","","","","0","0","1","","0.2780623804","0.2","0.4","0.8","0.6","0.04738713632","0.2780623804","0.2780805564","0.3756823908","","","","","","","","","","","","74","J","1","","","65","main_expt"
"","bandit","145","437400","0.0-106.0-0.0","59106495","wem/bandit_either_2","AVPKE76DJLWK6","either","8","264","","","","","","","0","0","1","","0.2740889186","0.2","0.4","0.8","0.6","0.02873144913","0.2740889186","0.2923516192","0.3780323226","","","","","","","","","","","","74","J","1","","","66","main_expt"
"","bandit","146","439208","0.0-107.0-0.0","59106495","wem/bandit_either_2","AVPKE76DJLWK6","either","8","297","","","","","","","0","0","1","","0.0355516853","0.2","0.4","0.8","0.6","0.0355516853","0.3122756929","0.3481747094","0.382091886","","","","","","","","","","","","72","H","0","img/none_selected.jpg","","67","main_expt"
"","bandit","147","440866","0.0-108.0-0.0","59106495","wem/bandit_either_2","AVPKE76DJLWK6","either","8","141","","","","","","","0","0","1","","0.04483006882","0.2","0.4","0.8","0.6","0.04483006882","0.3004294993","0.3540590834","0.4080562953","","","","","","","","","","","","72","H","0","img/none_selected.jpg","","68","main_expt"
"","bandit","148","442890","0.0-109.0-0.0","59106495","wem/bandit_either_2","AVPKE76DJLWK6","either","8","515","","","","","","","0","0","1","0.3348318208","","0.2","0.4","0.8","0.6","","","","","0.04300650393","0.3312842332","0.3348318208","0.419826639","","","","","","","","75","K","2","","","69","main_expt"
"","bandit","149","444641","0.0-110.0-0.0","59106495","wem/bandit_either_2","AVPKE76DJLWK6","either","8","236","","","","","","","0","0","1","","0.3844983113","0.2","0.4","0.8","0.6","0.03960880855","0.2362018798","0.3844983113","0.3889643965","","","","","","","","","","","","75","K","2","","","70","main_expt"
"","bandit","150","446511","0.0-111.0-0.0","59106495","wem/bandit_either_2","AVPKE76DJLWK6","either","8","357","","","","","","","0","0","1","","0.3492343966","0.2","0.4","0.8","0.6","0.02401392238","0.1838323472","0.3753843975","0.3492343966","","","","","","","","","","","","76","L","3","","","71","main_expt"
"","bandit","151","448610","0.0-112.0-0.0","59106495","wem/bandit_either_2","AVPKE76DJLWK6","either","8","591","","","","","","","0","0","1","","0.1749810972","0.2","0.4","0.8","0.6","0.008756159955","0.1749810972","0.3861429343","0.3502155883","","","","","","","","","","","","74","J","1","","","72","main_expt"
"","bandit","152","450410","0.0-113.0-0.0","59106495","wem/bandit_either_2","AVPKE76DJLWK6","either","8","298","","","","","","","1","0","0","0.1664097112","","0.2","0.4","0.8","0.6","","","","","0.006257651783","0.1664097112","0.3978436086","0.3568691787","","","","","","","","74","J","1","","","73","main_expt"
"","bandit","153","452222","0.0-114.0-0.0","59106495","wem/bandit_either_2","AVPKE76DJLWK6","either","8","300","","","","","","","0","0","1","","0.2001176207","0.2","0.4","0.8","0.6","0.004732084297","0.2001176207","0.3847979518","0.3303653739","","","","","","","","","","","","74","J","1","","","74","main_expt"
"","bandit","154","453968","0.0-115.0-0.0","59106495","wem/bandit_either_2","AVPKE76DJLWK6","either","8","230","","","","","","","0","0","1","0.1848717924","","0.2","0.4","0.8","0.6","","","","","0.006967558871","0.1848717924","0.3974319157","0.3353283381","","","","","","","","74","J","1","","","75","main_expt"
"","bandit","155","455780","0.0-116.0-0.0","59106495","wem/bandit_either_2","AVPKE76DJLWK6","either","8","305","","","","","","","0","0","1","","0.1510178238","0.2","0.4","0.8","0.6","0.004525860487","0.1510178238","0.3987985884","0.3009524994","","","","","","","","","","","","74","J","1","","","76","main_expt"
"","bandit","156","457563","0.0-117.0-0.0","59106495","wem/bandit_either_2","AVPKE76DJLWK6","either","8","275","","","","","","","0","0","1","","0.2089633591","0.2","0.4","0.8","0.6","0.007245535115","0.2089633591","0.4127312768","0.3316028908","","","","","","","","","","","","74","J","1","","","77","main_expt"
"","bandit","157","459438","0.0-118.0-0.0","59106495","wem/bandit_either_2","AVPKE76DJLWK6","either","8","367","","","","","","","0","0","1","","0.2285147345","0.2","0.4","0.8","0.6","0.00483057751","0.2285147345","0.4257675477","0.3571024926","","","","","","","","","","","","74","J","1","","","78","main_expt"
"","bandit","158","461525","0.0-119.0-0.0","59106495","wem/bandit_either_2","AVPKE76DJLWK6","either","8","567","","","","","","","0","0","1","0.2246975601","","0.2","0.4","0.8","0.6","","","","","0.005956317848","0.2246975601","0.4331167668","0.3542776451","","","","","","","","74","J","1","","","79","main_expt"
"","bandit","159","463350","0.0-120.0-0.0","59106495","wem/bandit_either_2","AVPKE76DJLWK6","either","8","316","","","","","","","0","0","1","","0.1878766281","0.2","0.4","0.8","0.6","0.0076590047","0.1878766281","0.4294395537","0.3201174307","","","","","","","","","","","","74","J","1","","","80","main_expt"
"","bandit","160","465204","0.0-121.0-0.0","59106495","wem/bandit_either_2","AVPKE76DJLWK6","either","8","339","","","","","","","0","0","1","","0.009115568074","0.2","0.4","0.8","0.6","0.009115568074","0.2436254364","0.4234249918","0.3503003334","","","","","","","","","","","","72","H","0","img/none_selected.jpg","","81","main_expt"
"","bandit","161","466979","0.0-122.0-0.0","59106495","wem/bandit_either_2","AVPKE76DJLWK6","either","8","273","","","","","","","0","0","1","","0.01382977225","0.2","0.4","0.8","0.6","0.01382977225","0.2627531714","0.3956977209","0.3509066846","","","","","","","","","","","","72","H","0","img/none_selected.jpg","","82","main_expt"
"","bandit","162","468580","0.0-123.0-0.0","59106495","wem/bandit_either_2","AVPKE76DJLWK6","either","8","97","","","","","","","0","0","1","0.01500629599","","0.2","0.4","0.8","0.6","","","","","0.01500629599","0.2672212524","0.4248650233","0.3951868033","","","","","","","","72","H","0","img/none_selected.jpg","","83","main_expt"
"","bandit","163","470434","0.0-124.0-0.0","59106495","wem/bandit_either_2","AVPKE76DJLWK6","either","8","348","","","","","","","0","0","1","","0.2817484998","0.2","0.4","0.8","0.6","0.02310127573","0.2817484998","0.4196907627","0.4131477378","","","","","","","","","","","","74","J","1","","","84","main_expt"
"","bandit","164","472229","0.0-125.0-0.0","59106495","wem/bandit_either_2","AVPKE76DJLWK6","either","8","275","","","","","","","0","1","0","","0.3889697292","0.2","0.4","0.8","0.6","0.02639065846","0.3074775227","0.435633498","0.3889697292","","","","","","","","","","","","76","L","3","","","85","main_expt"
"","bandit","165","474144","0.0-126.0-0.0","59106495","wem/bandit_either_2","AVPKE76DJLWK6","either","8","382","","","","","","","0","0","1","","0.3885636443","0.2","0.4","0.8","0.6","0.01746441632","0.2717847629","0.4322222521","0.3885636443","","","","","","","","","","","","76","L","3","","","86","main_expt"
"","bandit","166","475857","0.0-127.0-0.0","59106495","wem/bandit_either_2","AVPKE76DJLWK6","either","8","199","","","","","","","0","0","1","","0.4028282504","0.2","0.4","0.8","0.6","0.01256144444","0.2183858348","0.4476119451","0.4028282504","","","","","","","","","","","","76","L","3","","","87","main_expt"
"","bandit","167","477636","0.0-128.0-0.0","59106495","wem/bandit_either_2","AVPKE76DJLWK6","either","8","272","","","","","","","0","0","1","0.4306890759","","0.2","0.4","0.8","0.6","","","","","0.01178158386","0.2054961256","0.4073123198","0.4306890759","","","","","","","","76","L","3","","","88","main_expt"
"","bandit","168","479458","0.0-129.0-0.0","59106495","wem/bandit_either_2","AVPKE76DJLWK6","either","8","304","","","","","","","1","0","0","0.3862301724","","0.2","0.4","0.8","0.6","","","","","0.008722555822","0.1452714398","0.3862301724","0.4103738654","","","","","","","","75","K","2","","","89","main_expt"
"","bandit","169","481266","0.0-130.0-0.0","59106495","wem/bandit_either_2","AVPKE76DJLWK6","either","8","299","","","","","","","0","0","1","0.3596745144","","0.2","0.4","0.8","0.6","","","","","0.008232471735","0.1077779513","0.3596745144","0.3980827974","","","","","","","","75","K","2","","","90","main_expt"
"","bandit","170","483062","0.0-131.0-0.0","59106495","wem/bandit_either_2","AVPKE76DJLWK6","either","8","281","","","","","","","0","0","1","0.3082854458","","0.2","0.4","0.8","0.6","","","","","0.01249180717","0.1308407065","0.3082854458","0.4040531024","","","","","","","","75","K","2","","","91","main_expt"
"","bandit","171","485775","0.0-132.0-0.0","59106495","wem/bandit_either_2","AVPKE76DJLWK6","either","8","1200","","","","","","","1","0","0","0.312225492","","0.2","0.4","0.8","0.6","","","","","0.01470986316","0.1652322036","0.312225492","0.3462944796","","","","","","","","75","K","2","","","92","main_expt"
"","bandit","172","487582","0.0-133.0-0.0","59106495","wem/bandit_either_2","AVPKE76DJLWK6","either","8","303","","","","","","","0","0","1","0.3671658277","","0.2","0.4","0.8","0.6","","","","","0.02655281846","0.1344678182","0.3671658277","0.3411451966","","","","","","","","75","K","2","","","93","main_expt"
"","bandit","173","489397","0.0-134.0-0.0","59106495","wem/bandit_either_2","AVPKE76DJLWK6","either","8","298","","","","","","","1","0","0","0.3401731108","","0.2","0.4","0.8","0.6","","","","","0.02575246025","0.1301314301","0.3401731108","0.3384154489","","","","","","","","75","K","2","","","94","main_expt"
"","bandit","174","491239","0.0-135.0-0.0","59106495","wem/bandit_either_2","AVPKE76DJLWK6","either","8","333","","","","","","","0","0","1","0.3413923724","","0.2","0.4","0.8","0.6","","","","","0.02262355665","0.1746055711","0.3413923724","0.3126988266","","","","","","","","75","K","2","","","95","main_expt"
"","bandit","175","493048","0.0-136.0-0.0","59106495","wem/bandit_either_2","AVPKE76DJLWK6","either","8","294","","","","","","","0","0","1","0.3570420485","","0.2","0.4","0.8","0.6","","","","","0.02047181149","0.1994244555","0.3570420485","0.3800019137","","","","","","","","75","K","2","","","96","main_expt"
"","bandit","176","494992","0.0-137.0-0.0","59106495","wem/bandit_either_2","AVPKE76DJLWK6","either","8","427","","","","","","","0","0","1","0.3435474977","","0.2","0.4","0.8","0.6","","","","","0.0207754381","0.1834602947","0.3435474977","0.3328121005","","","","","","","","75","K","2","","","97","main_expt"
"","bandit","177","496861","0.0-138.0-0.0","59106495","wem/bandit_either_2","AVPKE76DJLWK6","either","8","346","","","","","","","0","0","1","0.3614714926","","0.2","0.4","0.8","0.6","","","","","0.02955834597","0.1719221531","0.3614714926","0.332228596","","","","","","","","75","K","2","","","98","main_expt"
"","bandit","178","498693","0.0-139.0-0.0","59106495","wem/bandit_either_2","AVPKE76DJLWK6","either","8","321","","","","","","","0","0","1","0.3176405447","","0.2","0.4","0.8","0.6","","","","","0.0383131093","0.1183399241","0.3176405447","0.2843854285","","","","","","","","75","K","2","","","99","main_expt"
"","bandit","179","500529","0.0-140.0-0.0","59106495","wem/bandit_either_2","AVPKE76DJLWK6","either","8","327","","","","","","","0","0","1","0.1558635017","","0.2","0.4","0.8","0.6","","","","","0.03580757471","0.1558635017","0.3586553183","0.309751149","","","","","","","","74","J","1","","","100","main_expt"
"","bandit","180","502313","0.0-141.0-0.0","59106495","wem/bandit_either_2","AVPKE76DJLWK6","either","8","267","","","","","","","0","0","1","","0.1389665978","0.2","0.4","0.8","0.6","0.04899620691","0.1389665978","0.2951503345","0.2993195944","","","","","","","","","","","","74","J","1","","","101","main_expt"
"","bandit","181","504167","0.0-142.0-0.0","59106495","wem/bandit_either_2","AVPKE76DJLWK6","either","8","338","","","","","","","0","0","1","","0.1377203561","0.2","0.4","0.8","0.6","0.08055650644","0.1377203561","0.2998391809","0.3551890872","","","","","","","","","","","","74","J","1","","","102","main_expt"
"","bandit","182","506180","0.0-143.0-0.0","59106495","wem/bandit_either_2","AVPKE76DJLWK6","either","8","507","","","","","","","1","0","0","0.2791823827","","0.2","0.4","0.8","0.6","","","","","0.1040447627","0.1285548106","0.2791823827","0.3148404956","","","","","","","","75","K","2","","","103","main_expt"
"","bandit","183","508021","0.0-144.0-0.0","59106495","wem/bandit_either_2","AVPKE76DJLWK6","either","8","311","","","","","","","1","0","0","0.3382769334","","0.2","0.4","0.8","0.6","","","","","0.1143547335","0.1555523735","0.3382769334","0.3286912191","","","","","","","","75","K","2","","","104","main_expt"
"","bandit","184","509881","0.0-145.0-0.0","59106495","wem/bandit_either_2","AVPKE76DJLWK6","either","8","355","","","","","","","1","0","0","0.3339697125","","0.2","0.4","0.8","0.6","","","","","0.1487676438","0.1775592141","0.3339697125","0.298340497","","","","","","","","75","K","2","","","105","main_expt"
"","bandit","185","511823","0.0-146.0-0.0","59106495","wem/bandit_either_2","AVPKE76DJLWK6","either","8","415","","","","","","","0","0","1","","0.3124129253","0.2","0.4","0.8","0.6","0.152088545","0.2263451353","0.3124129253","0.3504464386","","","","","","","","","","","","75","K","2","","","106","main_expt"
"","bandit","186","513672","0.0-147.0-0.0","59106495","wem/bandit_either_2","AVPKE76DJLWK6","either","8","327","","","","","","","0","0","1","","0.3400683723","0.2","0.4","0.8","0.6","0.2406734145","0.1679769802","0.3400683723","0.3510410077","","","","","","","","","","","","75","K","2","","","107","main_expt"
"","bandit","187","515834","0.0-148.0-0.0","59106495","wem/bandit_either_2","AVPKE76DJLWK6","either","8","640","","","","","","","0","0","1","0.3557340834","","0.2","0.4","0.8","0.6","","","","","0.3048040024","0.1999870147","0.3557340834","0.3282766846","","","","","","","","75","K","2","","","108","main_expt"
"","bandit","188","517721","0.0-149.0-0.0","59106495","wem/bandit_either_2","AVPKE76DJLWK6","either","8","370","","","","","","","0","0","1","0.3846418901","","0.2","0.4","0.8","0.6","","","","","0.3418503096","0.208992856","0.3846418901","0.3561186451","","","","","","","","75","K","2","","","109","main_expt"
"","bandit","189","519593","0.0-150.0-0.0","59106495","wem/bandit_either_2","AVPKE76DJLWK6","either","8","348","","","","","","","0","0","1","","0.4057962062","0.2","0.4","0.8","0.6","0.3198501315","0.1716040471","0.4057962062","0.3576445865","","","","","","","","","","","","75","K","2","","","110","main_expt"
"","bandit","190","521481","0.0-151.0-0.0","59106495","wem/bandit_either_2","AVPKE76DJLWK6","either","8","370","","","","","","","1","0","0","0.3692451483","","0.2","0.4","0.8","0.6","","","","","0.3681534847","0.08984071331","0.3692451483","0.3377543854","","","","","","","","75","K","2","","","111","main_expt"
"","bandit","191","523517","0.0-152.0-0.0","59106495","wem/bandit_either_2","AVPKE76DJLWK6","either","8","519","","","","","","","0","0","1","0.3577317973","","0.2","0.4","0.8","0.6","","","","","0.3757830796","0.1243463141","0.3577317973","0.286234052","","","","","","","","75","K","2","","","112","main_expt"
"","bandit","192","525386","0.0-153.0-0.0","59106495","wem/bandit_either_2","AVPKE76DJLWK6","either","8","358","","","","","","","0","0","1","0.3328808086","","0.2","0.4","0.8","0.6","","","","","0.3838999828","0.1433440675","0.3328808086","0.1932674395","","","","","","","","75","K","2","","","113","main_expt"
"","bandit","193","527288","0.0-154.0-0.0","59106495","wem/bandit_either_2","AVPKE76DJLWK6","either","8","387","","","","","","","1","0","0","0.3416979579","","0.2","0.4","0.8","0.6","","","","","0.4157938717","0.1510662198","0.3416979579","0.2403040534","","","","","","","","75","K","2","","","114","main_expt"
"","bandit","194","529191","0.0-155.0-0.0","59106495","wem/bandit_either_2","AVPKE76DJLWK6","either","8","387","","","","","","","0","0","1","0.3377137281","","0.2","0.4","0.8","0.6","","","","","0.4055870595","0.09845245139","0.3377137281","0.254937398","","","","","","","","75","K","2","","","115","main_expt"
"","bandit","195","531075","0.0-156.0-0.0","59106495","wem/bandit_either_2","AVPKE76DJLWK6","either","8","356","","","","","","","0","0","1","0.3039448029","","0.2","0.4","0.8","0.6","","","","","0.4161015278","0.107393795","0.3039448029","0.2605063941","","","","","","","","75","K","2","","","116","main_expt"
"","bandit","196","532976","0.0-157.0-0.0","59106495","wem/bandit_either_2","AVPKE76DJLWK6","either","8","387","","","","","","","0","0","1","0.2974336912","","0.2","0.4","0.8","0.6","","","","","0.414877819","0.07879800556","0.2974336912","0.2161328783","","","","","","","","75","K","2","","","117","main_expt"
"","bandit","197","534879","0.0-158.0-0.0","59106495","wem/bandit_either_2","AVPKE76DJLWK6","either","8","398","","","","","","","1","0","0","0.2651867246","","0.2","0.4","0.8","0.6","","","","","0.3968259953","0.08383735875","0.2651867246","0.1931197841","","","","","","","","75","K","2","","","118","main_expt"
"","bandit","198","536964","0.0-159.0-0.0","59106495","wem/bandit_either_2","AVPKE76DJLWK6","either","8","567","","","","","","","0","0","1","","0.3131666206","0.2","0.4","0.8","0.6","0.4198241006","0.1392474383","0.3131666206","0.1638183597","","","","","","","","","","","","75","K","2","","","119","main_expt"
"","bandit","199","538933","0.0-160.0-0.0","59106495","wem/bandit_either_2","AVPKE76DJLWK6","either","8","457","","","","","","","0","0","1","","0.358829095","0.2","0.4","0.8","0.6","0.4286088018","0.1649404926","0.358829095","0.1893282748","","","","","","","","","","","","75","K","2","","","120","main_expt"
"","bandit","200","540925","0.0-161.0-0.0","59106495","wem/bandit_either_2","AVPKE76DJLWK6","either","8","467","","","","","","","0","0","1","0.3189860171","","0.2","0.4","0.8","0.6","","","","","0.4253829576","0.1764152442","0.3189860171","0.2290368179","","","","","","","","75","K","2","","","121","main_expt"
"","bandit","201","546879","0.0-162.0-0.0","59106495","wem/bandit_either_2","AVPKE76DJLWK6","either","8","4422","","","","","","","0","0","1","0.3011672979","","0.2","0.4","0.8","0.6","","","","","0.4235175979","0.2092397698","0.3011672979","0.2445441383","","","","","","","","75","K","2","","","122","main_expt"
"","bandit","202","549194","0.0-163.0-0.0","59106495","wem/bandit_either_2","AVPKE76DJLWK6","either","8","799","","","","","","","0","0","1","0.3037948063","","0.2","0.4","0.8","0.6","","","","","0.4182090072","0.1884058447","0.3037948063","0.2091075756","","","","","","","","75","K","2","","","123","main_expt"
"","bandit","203","551071","0.0-164.0-0.0","59106495","wem/bandit_either_2","AVPKE76DJLWK6","either","8","357","","","","","","","0","0","1","0.2446200253","","0.2","0.4","0.8","0.6","","","","","0.4356016004","0.1876417206","0.2446200253","0.2216111921","","","","","","","","75","K","2","","","124","main_expt"
"","bandit","204","553015","0.0-165.0-0.0","59106495","wem/bandit_either_2","AVPKE76DJLWK6","either","8","424","","","","","","","0","0","1","0.2464628806","","0.2","0.4","0.8","0.6","","","","","0.403953628","0.1890564589","0.2464628806","0.1622020501","","","","","","","","75","K","2","","","125","main_expt"
"","bandit","205","554909","0.0-166.0-0.0","59106495","wem/bandit_either_2","AVPKE76DJLWK6","either","8","375","","","","","","","0","0","1","0.281169445","","0.2","0.4","0.8","0.6","","","","","0.4020675328","0.1659850756","0.281169445","0.173533554","","","","","","","","75","K","2","","","126","main_expt"
"","bandit","206","556735","0.0-167.0-0.0","59106495","wem/bandit_either_2","AVPKE76DJLWK6","either","8","313","","","","","","","0","1","0","","0.2006343121","0.2","0.4","0.8","0.6","0.338443572","0.2006343121","0.290080064","0.189829559","","","","","","","","","","","","74","J","1","","","127","main_expt"
"","bandit","207","558866","0.0-168.0-0.0","59106495","wem/bandit_either_2","AVPKE76DJLWK6","either","8","596","","","","","","","0","1","0","","0.2637444583","0.2","0.4","0.8","0.6","0.323123489","0.2637444583","0.3280989756","0.1764696366","","","","","","","","","","","","74","J","1","","","128","main_expt"
"","bandit","208","560715","0.0-169.0-0.0","59106495","wem/bandit_either_2","AVPKE76DJLWK6","either","8","328","","","","","","","0","0","1","0.2783394686","","0.2","0.4","0.8","0.6","","","","","0.3615310162","0.2783394686","0.3052704822","0.172709194","","","","","","","","74","J","1","","","129","main_expt"
"","bandit","209","562552","0.0-170.0-0.0","59106495","wem/bandit_either_2","AVPKE76DJLWK6","either","8","313","","","","","","","0","0","1","0.2674474002","","0.2","0.4","0.8","0.6","","","","","0.3667448715","0.2674474002","0.314718742","0.1407460215","","","","","","","","74","J","1","","","130","main_expt"
"","bandit","210","564358","0.0-171.0-0.0","59106495","wem/bandit_either_2","AVPKE76DJLWK6","either","8","291","","","","","","","0","0","1","","0.2122920843","0.2","0.4","0.8","0.6","0.341745941","0.2122920843","0.2492347367","0.143826562","","","","","","","","","","","","74","J","1","","","131","main_expt"
"","bandit","211","566202","0.0-172.0-0.0","59106495","wem/bandit_either_2","AVPKE76DJLWK6","either","8","329","","","","","","","0","1","0","","0.2615325727","0.2","0.4","0.8","0.6","0.2615325727","0.1969346152","0.2495736985","0.1862992663","","","","","","","","","","","","72","H","0","img/none_selected.jpg","","132","main_expt"
"","bandit","212","568080","0.0-173.0-0.0","59106495","wem/bandit_either_2","AVPKE76DJLWK6","either","8","359","","","","","","","0","0","1","","0.27905624","0.2","0.4","0.8","0.6","0.27905624","0.1390835973","0.2487120015","0.185648564","","","","","","","","","","","","72","H","0","img/none_selected.jpg","","133","main_expt"
"","bandit","213","569926","0.0-174.0-0.0","59106495","wem/bandit_either_2","AVPKE76DJLWK6","either","8","325","","","","","","","0","1","0","","0.2751163123","0.2","0.4","0.8","0.6","0.2751163123","0.1437640715","0.3239420422","0.2002276213","","","","","","","","","","","","72","H","0","img/none_selected.jpg","","134","main_expt"
"","bandit","214","572817","0.0-175.0-0.0","59106495","wem/bandit_either_2","AVPKE76DJLWK6","either","8","1378","","","","","","","0","0","1","0.2474552851","","0.2","0.4","0.8","0.6","","","","","0.2586507773","0.1175999949","0.3903525049","0.2474552851","","","","","","","","76","L","3","","","135","main_expt"
"","bandit","215","574621","0.0-176.0-0.0","59106495","wem/bandit_either_2","AVPKE76DJLWK6","either","8","296","","","","","","","0","0","1","0.2454982057","","0.2","0.4","0.8","0.6","","","","","0.2385277364","0.1108499649","0.3703049055","0.2454982057","","","","","","","","76","L","3","","","136","main_expt"
"","bandit","216","576490","0.0-177.0-0.0","59106495","wem/bandit_either_2","AVPKE76DJLWK6","either","8","334","","","","","","","1","0","0","0.2708690816","","0.2","0.4","0.8","0.6","","","","","0.1935782534","0.1208727618","0.3657944308","0.2708690816","","","","","","","","76","L","3","","","137","main_expt"
"","bandit","217","578334","0.0-178.0-0.0","59106495","wem/bandit_either_2","AVPKE76DJLWK6","either","8","322","","","","","","","0","0","1","","0.2219039101","0.2","0.4","0.8","0.6","0.14087624","0.1098805161","0.3452946514","0.2219039101","","","","","","","","","","","","76","L","3","","","138","main_expt"
"","bandit","218","580217","0.0-179.0-0.0","59106495","wem/bandit_either_2","AVPKE76DJLWK6","either","8","361","","","","","","","0","0","1","0.2485571535","","0.2","0.4","0.8","0.6","","","","","0.1340930794","0.1359731218","0.3225052804","0.2485571535","","","","","","","","76","L","3","","","139","main_expt"
"","bandit","219","582397","0.0-180.0-0.0","59106495","wem/bandit_either_2","AVPKE76DJLWK6","either","8","667","","","","","","","0","0","1","0.2605640439","","0.2","0.4","0.8","0.6","","","","","0.1170750994","0.1419248406","0.2997250911","0.2605640439","","","","","","","","76","L","3","","","140","main_expt"
"","bandit","220","584362","0.0-181.0-0.0","59106495","wem/bandit_either_2","AVPKE76DJLWK6","either","8","452","","","","","","","0","0","1","","0.2260680923","0.2","0.4","0.8","0.6","0.1316830279","0.1269577117","0.311933389","0.2260680923","","","","","","","","","","","","76","L","3","","","141","main_expt"
"","bandit","221","586266","0.0-182.0-0.0","59106495","wem/bandit_either_2","AVPKE76DJLWK6","either","8","386","","","","","","","0","0","1","0.2354846983","","0.2","0.4","0.8","0.6","","","","","0.09490366034","0.1073819056","0.3442568425","0.2354846983","","","","","","","","76","L","3","","","142","main_expt"
"","bandit","222","588177","0.0-183.0-0.0","59106495","wem/bandit_either_2","AVPKE76DJLWK6","either","8","394","","","","","","","0","1","0","","0.2089358464","0.2","0.4","0.8","0.6","0.1246024154","0.1152767294","0.3117203045","0.2089358464","","","","","","","","","","","","76","L","3","","","143","main_expt"
"","bandit","223","589988","0.0-184.0-0.0","59106495","wem/bandit_either_2","AVPKE76DJLWK6","either","8","291","","","","","","","1","0","0","0.3080771123","","0.2","0.4","0.8","0.6","","","","","0.1179874238","0.1317444946","0.3080771123","0.1844607625","","","","","","","","75","K","2","","","144","main_expt"
"","bandit","224","591814","0.0-185.0-0.0","59106495","wem/bandit_either_2","AVPKE76DJLWK6","either","8","305","","","","","","","0","0","1","","0.3146876691","0.2","0.4","0.8","0.6","0.1211842963","0.1058600218","0.3146876691","0.1940384654","","","","","","","","","","","","75","K","2","","","145","main_expt"
"","bandit","225","593733","0.0-186.0-0.0","59106495","wem/bandit_either_2","AVPKE76DJLWK6","either","8","401","","","","","","","0","0","1","0.3526806189","","0.2","0.4","0.8","0.6","","","","","0.06212451067","0.1862633901","0.3526806189","0.2532022814","","","","","","","","75","K","2","","","146","main_expt"
"","bandit","226","595650","0.0-187.0-0.0","59106495","wem/bandit_either_2","AVPKE76DJLWK6","either","8","391","","","","","","","1","0","0","0.3859334927","","0.2","0.4","0.8","0.6","","","","","0.05826033827","0.1944793183","0.3859334927","0.272856749","","","","","","","","75","K","2","","","147","main_expt"
"","bandit","227","597533","0.0-188.0-0.0","59106495","wem/bandit_either_2","AVPKE76DJLWK6","either","8","364","","","","","","","0","0","1","0.4089873985","","0.2","0.4","0.8","0.6","","","","","0.04847575149","0.1572605535","0.4089873985","0.2441255329","","","","","","","","75","K","2","","","148","main_expt"
"","bandit","228","599360","0.0-189.0-0.0","59106495","wem/bandit_either_2","AVPKE76DJLWK6","either","8","314","","","","","","","0","0","1","0.3317076441","","0.2","0.4","0.8","0.6","","","","","0.07397138717","0.1632070519","0.3317076441","0.2304797635","","","","","","","","75","K","2","","","149","main_expt"
"","bandit","229","601194","0.0-190.0-0.0","59106495","wem/bandit_either_2","AVPKE76DJLWK6","either","8","316","","","","","","","0","0","1","0.2514439341","","0.2","0.4","0.8","0.6","","","","","0.1178437277","0.2162169298","0.2514439341","0.2645424191","","","","","","","","75","K","2","","","150","main_expt"
"","bandit","230","602975","0.0-191.0-0.0","59106495","wem/bandit_either_2","AVPKE76DJLWK6","either","8","267","","","","","","","0","0","1","","0.2806681102","0.2","0.4","0.8","0.6","0.1116740648","0.2806681102","0.2209696772","0.2919476008","","","","","","","","","","","","74","J","1","","","151","main_expt"
"","bandit","231","605075","0.0-192.0-0.0","59106495","wem/bandit_either_2","AVPKE76DJLWK6","either","8","581","","","","","","","0","0","1","","0.25223767","0.2","0.4","0.8","0.6","0.09681320826","0.25223767","0.2004300668","0.3004198658","","","","","","","","","","","","74","J","1","","","152","main_expt"
"","bandit","232","606904","0.0-193.0-0.0","59106495","wem/bandit_either_2","AVPKE76DJLWK6","either","8","311","","","","","","","0","1","0","","0.1162344283","0.2","0.4","0.8","0.6","0.1162344283","0.2259503681","0.1803159607","0.2910243242","","","","","","","","","","","","72","H","0","img/none_selected.jpg","","153","main_expt"
"","bandit","233","608721","0.0-194.0-0.0","59106495","wem/bandit_either_2","AVPKE76DJLWK6","either","8","299","","","","","","","0","0","1","","0.1441765144","0.2","0.4","0.8","0.6","0.1441765144","0.2520515582","0.1793353988","0.2858680692","","","","","","","","","","","","72","H","0","img/none_selected.jpg","","154","main_expt"
"","bandit","234","610537","0.0-195.0-0.0","59106495","wem/bandit_either_2","AVPKE76DJLWK6","either","8","301","","","","","","","0","0","1","","0.1506434262","0.2","0.4","0.8","0.6","0.1506434262","0.246895917","0.175125938","0.276906037","","","","","","","","","","","","72","H","0","img/none_selected.jpg","","155","main_expt"
"","bandit","235","612540","0.0-196.0-0.0","59106495","wem/bandit_either_2","AVPKE76DJLWK6","either","8","477","","","","","","","0","0","1","","0.2067462234","0.2","0.4","0.8","0.6","0.1691825384","0.2067462234","0.19004546","0.3087514371","","","","","","","","","","","","74","J","1","","","156","main_expt"
"","bandit","236","614237","0.0-197.0-0.0","59106495","wem/bandit_either_2","AVPKE76DJLWK6","either","8","175","","","","","","","0","1","0","","0.1538528063","0.2","0.4","0.8","0.6","0.1465267651","0.1736677602","0.1538528063","0.3400763937","","","","","","","","","","","","75","K","2","","","157","main_expt"
"","bandit","237","616027","0.0-198.0-0.0","59106495","wem/bandit_either_2","AVPKE76DJLWK6","either","8","273","","","","","","","0","0","1","","0.1624419901","0.2","0.4","0.8","0.6","0.1517260174","0.2437422656","0.1624419901","0.3388441277","","","","","","","","","","","","75","K","2","","","158","main_expt"
"","bandit","238","617827","0.0-199.0-0.0","59106495","wem/bandit_either_2","AVPKE76DJLWK6","either","8","285","","","","","","","0","0","1","0.1749682205","","0.2","0.4","0.8","0.6","","","","","0.143579764","0.2627628197","0.1749682205","0.3496437485","","","","","","","","75","K","2","","","159","main_expt"
"","bandit","239","619604","0.0-200.0-0.0","59106495","wem/bandit_either_2","AVPKE76DJLWK6","either","8","257","","","","","","","0","0","1","","0.3347491532","0.2","0.4","0.8","0.6","0.1701049762","0.2532756584","0.2227833177","0.3347491532","","","","","","","","","","","","76","L","3","","","160","main_expt"
"","bandit","240","621654","0.0-201.0-0.0","59106495","wem/bandit_either_2","AVPKE76DJLWK6","either","8","526","","","","","","","1","0","0","0.3036625801","","0.2","0.4","0.8","0.6","","","","","0.1596038406","0.2846030245","0.1616195486","0.3036625801","","","","","","","","76","L","3","","","161","main_expt"
"","bandit","241","623599","0.0-202.0-0.0","59106495","wem/bandit_either_2","AVPKE76DJLWK6","either","8","430","","","","","","","0","1","0","","0.2735804545","0.2","0.4","0.8","0.6","0.1186271452","0.2480450928","0.1440802068","0.2735804545","","","","","","","","","","","","76","L","3","","","162","main_expt"
"","bandit","242","625546","0.0-203.0-0.0","59106495","wem/bandit_either_2","AVPKE76DJLWK6","either","8","427","","","","","","","0","0","1","","0.2219233964","0.2","0.4","0.8","0.6","0.1460830151","0.3217860246","0.1349250059","0.2219233964","","","","","","","","","","","","76","L","3","","","163","main_expt"
"","bandit","243","627498","0.0-204.0-0.0","59106495","wem/bandit_either_2","AVPKE76DJLWK6","either","8","432","","","","","","","0","0","1","","0.2489701673","0.2","0.4","0.8","0.6","0.1924179555","0.3528623486","0.1482528248","0.2489701673","","","","","","","","","","","","76","L","3","","","164","main_expt"
"","bandit","244","629268","0.0-205.0-0.0","59106495","wem/bandit_either_2","AVPKE76DJLWK6","either","8","252","","","","","","","0","0","1","0.2424219606","","0.2","0.4","0.8","0.6","","","","","0.1909643941","0.3113737792","0.1444116863","0.2424219606","","","","","","","","76","L","3","","","165","main_expt"
"","bandit","245","631118","0.0-206.0-0.0","59106495","wem/bandit_either_2","AVPKE76DJLWK6","either","8","330","","","","","","","0","0","1","0.1899742571","","0.2","0.4","0.8","0.6","","","","","0.1917506842","0.2820045276","0.1621449425","0.1899742571","","","","","","","","76","L","3","","","166","main_expt"
"","bandit","246","633022","0.0-207.0-0.0","59106495","wem/bandit_either_2","AVPKE76DJLWK6","either","8","382","","","","","","","0","1","0","","0.2298880826","0.2","0.4","0.8","0.6","0.2238056512","0.2539690707","0.1695256229","0.2298880826","","","","","","","","","","","","76","L","3","","","167","main_expt"
"","bandit","247","634859","0.0-208.0-0.0","59106495","wem/bandit_either_2","AVPKE76DJLWK6","either","8","320","","","","","","","0","0","1","0.1712445676","","0.2","0.4","0.8","0.6","","","","","0.2132240521","0.2177565821","0.1712445676","0.241220494","","","","","","","","75","K","2","","","168","main_expt"
"","bandit","248","636675","0.0-209.0-0.0","59106495","wem/bandit_either_2","AVPKE76DJLWK6","either","8","298","","","","","","","0","0","1","0.191079104","","0.2","0.4","0.8","0.6","","","","","0.1363713625","0.183214586","0.191079104","0.2113351254","","","","","","","","75","K","2","","","169","main_expt"
"","bandit","249","638492","0.0-210.0-0.0","59106495","wem/bandit_either_2","AVPKE76DJLWK6","either","8","301","","","","","","","0","0","1","0.2227666825","","0.2","0.4","0.8","0.6","","","","","0.2007690262","0.1757282231","0.2227666825","0.2224744884","","","","","","","","75","K","2","","","170","main_expt"
"","bandit","250","640319","0.0-211.0-0.0","59106495","wem/bandit_either_2","AVPKE76DJLWK6","either","8","312","","","","","","","0","0","1","0.2719914804","","0.2","0.4","0.8","0.6","","","","","0.1238998316","0.1679331046","0.2719914804","0.262177911","","","","","","","","75","K","2","","","171","main_expt"
"","bandit","251","642103","0.0-212.0-0.0","59106495","wem/bandit_either_2","AVPKE76DJLWK6","either","8","263","","","","","","","0","0","1","0.14560319","","0.2","0.4","0.8","0.6","","","","","0.09746419185","0.14560319","0.2330128459","0.2822992514","","","","","","","","74","J","1","","","172","main_expt"
"","bandit","252","643948","0.0-213.0-0.0","59106495","wem/bandit_either_2","AVPKE76DJLWK6","either","8","325","","","","","","","0","0","1","","0.1341549344","0.2","0.4","0.8","0.6","0.1018164217","0.1341549344","0.2840251313","0.2545762091","","","","","","","","","","","","74","J","1","","","173","main_expt"
"","bandit","253","645800","0.0-214.0-0.0","59106495","wem/bandit_either_2","AVPKE76DJLWK6","either","8","331","","","","","","","1","0","0","0.1471305278","","0.2","0.4","0.8","0.6","","","","","0.1401689619","0.1471305278","0.2739042306","0.2838184637","","","","","","","","74","J","1","","","174","main_expt"
"","bandit","254","647575","0.0-215.0-0.0","59106495","wem/bandit_either_2","AVPKE76DJLWK6","either","8","251","","","","","","","0","0","1","","0.173963405","0.2","0.4","0.8","0.6","0.1697524679","0.173963405","0.3444735506","0.3002790513","","","","","","","","","","","","74","J","1","","","175","main_expt"
"","bandit","255","649350","0.0-216.0-0.0","59106495","wem/bandit_either_2","AVPKE76DJLWK6","either","8","265","","","","","","","0","0","1","","0.1821857965","0.2","0.4","0.8","0.6","0.1896898672","0.1821857965","0.3223017316","0.3771690292","","","","","","","","","","","","74","J","1","","","176","main_expt"
"","bandit","256","651202","0.0-217.0-0.0","59106495","wem/bandit_either_2","AVPKE76DJLWK6","either","8","335","","","","","","","0","0","1","0.1444884472","","0.2","0.4","0.8","0.6","","","","","0.2441254625","0.1444884472","0.2964924158","0.4047809956","","","","","","","","74","J","1","","","177","main_expt"
"","bandit","257","653061","0.0-218.0-0.0","59106495","wem/bandit_either_2","AVPKE76DJLWK6","either","8","335","","","","","","","1","0","0","0.1207783293","","0.2","0.4","0.8","0.6","","","","","0.2427722412","0.1207783293","0.2780576925","0.4344960837","","","","","","","","74","J","1","","","178","main_expt"
"","bandit","258","654863","0.0-219.0-0.0","59106495","wem/bandit_either_2","AVPKE76DJLWK6","either","8","287","","","","","","","0","0","1","","0.111585665","0.2","0.4","0.8","0.6","0.2284650367","0.111585665","0.2859751729","0.4287912686","","","","","","","","","","","","74","J","1","","","179","main_expt"
"","bandit","259","656718","0.0-220.0-0.0","59106495","wem/bandit_either_2","AVPKE76DJLWK6","either","8","337","","","","","","","0","0","1","","0.06891525065","0.2","0.4","0.8","0.6","0.2694081366","0.06891525065","0.283533164","0.4294180747","","","","","","","","","","","","74","J","1","","","180","main_expt"
"","bandit","260","658516","0.0-221.0-0.0","59106495","wem/bandit_either_2","AVPKE76DJLWK6","either","8","284","","","","","","","0","0","1","","0.07407739619","0.2","0.4","0.8","0.6","0.2471628034","0.07407739619","0.2430023428","0.3887332701","","","","","","","","","","","","74","J","1","","","181","main_expt"
"","bandit","261","660312","0.0-222.0-0.0","59106495","wem/bandit_either_2","AVPKE76DJLWK6","either","8","278","","","","","","","0","0","1","","0.07501704201","0.2","0.4","0.8","0.6","0.275372354","0.07501704201","0.223254837","0.3910635387","","","","","","","","","","","","74","J","1","","","182","main_expt"
"","bandit","262","662231","0.0-223.0-0.0","59106495","wem/bandit_either_2","AVPKE76DJLWK6","either","8","403","","","","","","","0","0","1","","0.09354103142","0.2","0.4","0.8","0.6","0.2378950907","0.09354103142","0.2274286797","0.3957792538","","","","","","","","","","","","74","J","1","","","183","main_expt"
"","bandit","263","664052","0.0-224.0-0.0","59106495","wem/bandit_either_2","AVPKE76DJLWK6","either","8","293","","","","","","","0","0","1","","0.06673830493","0.2","0.4","0.8","0.6","0.2611999536","0.06673830493","0.2485964068","0.3777829694","","","","","","","","","","","","74","J","1","","","184","main_expt"
"","bandit","264","665886","0.0-225.0-0.0","59106495","wem/bandit_either_2","AVPKE76DJLWK6","either","8","310","","","","","","","0","0","1","","0.08617836821","0.2","0.4","0.8","0.6","0.2799245071","0.08617836821","0.2080173303","0.4130939835","","","","","","","","","","","","74","J","1","","","185","main_expt"
"","bandit","265","667661","0.0-226.0-0.0","59106495","wem/bandit_either_2","AVPKE76DJLWK6","either","8","255","","","","","","","0","0","1","","0.2275386122","0.2","0.4","0.8","0.6","0.2275386122","0.05054014018","0.2538883687","0.376930599","","","","","","","","","","","","72","H","0","img/none_selected.jpg","","186","main_expt"
"","bandit","266","669497","0.0-227.0-0.0","59106495","wem/bandit_either_2","AVPKE76DJLWK6","either","8","315","","","","","","","0","0","1","","0.2558518805","0.2","0.4","0.8","0.6","0.2558518805","0.1101456656","0.2267652077","0.3934592684","","","","","","","","","","","","72","H","0","img/none_selected.jpg","","187","main_expt"
"","bandit","267","671313","0.0-228.0-0.0","59106495","wem/bandit_either_2","AVPKE76DJLWK6","either","8","302","","","","","","","0","0","1","","0.2757393749","0.2","0.4","0.8","0.6","0.2757393749","0.1076418148","0.2583789709","0.4086060551","","","","","","","","","","","","72","H","0","img/none_selected.jpg","","188","main_expt"
"","bandit","268","673883","0.0-229.0-0.0","59106495","wem/bandit_either_2","AVPKE76DJLWK6","either","8","1050","","","","","","","0","0","1","","0.3326758055","0.2","0.4","0.8","0.6","0.3326758055","0.1230456027","0.2329768584","0.447145564","","","","","","","","","","","","72","H","0","img/none_selected.jpg","","189","main_expt"
"","bandit","269","676043","0.0-230.0-0.0","59106495","wem/bandit_either_2","AVPKE76DJLWK6","either","8","642","","","","","","","0","0","1","","0.332927569","0.2","0.4","0.8","0.6","0.332927569","0.1872873117","0.2002510669","0.386091063","","","","","","","","","","","","72","H","0","img/none_selected.jpg","","190","main_expt"
"","bandit","270","678181","0.0-231.0-0.0","59106495","wem/bandit_either_2","AVPKE76DJLWK6","either","8","608","","","","","","","0","0","1","0.2182600554","","0.2","0.4","0.8","0.6","","","","","0.3859199101","0.1413073252","0.2182600554","0.4221145333","","","","","","","","75","K","2","","","191","main_expt"
"","bandit","271","680025","0.0-232.0-0.0","59106495","wem/bandit_either_2","AVPKE76DJLWK6","either","8","332","","","","","","","0","0","1","0.2681613901","","0.2","0.4","0.8","0.6","","","","","0.392668484","0.1868627967","0.2681613901","0.3913199708","","","","","","","","75","K","2","","","192","main_expt"
"","bandit","272","681902","0.0-233.0-0.0","59106495","wem/bandit_either_2","AVPKE76DJLWK6","either","8","353","","","","","","","0","0","1","0.3035027483","","0.2","0.4","0.8","0.6","","","","","0.3789843676","0.2312719224","0.3035027483","0.4013624592","","","","","","","","75","K","2","","","193","main_expt"
"","bandit","273","685270","0.0-234.0-0.0","59106495","wem/bandit_either_2","AVPKE76DJLWK6","either","8","1856","","","","","","","0","0","1","","0.275531754","0.2","0.4","0.8","0.6","0.3689216281","0.2585201677","0.275531754","0.3668237699","","","","","","","","","","","","75","K","2","","","194","main_expt"
"","bandit","274","687172","0.0-235.0-0.0","59106495","wem/bandit_either_2","AVPKE76DJLWK6","either","8","385","","","","","","","0","1","0","","0.3856266791","0.2","0.4","0.8","0.6","0.4136905162","0.2786104129","0.2716401532","0.3856266791","","","","","","","","","","","","76","L","3","","","195","main_expt"
"","bandit","275","689009","0.0-236.0-0.0","59106495","wem/bandit_either_2","AVPKE76DJLWK6","either","8","313","","","","","","","1","0","0","0.3702439493","","0.2","0.4","0.8","0.6","","","","","0.4258575101","0.2407834285","0.2814611543","0.3702439493","","","","","","","","76","L","3","","","196","main_expt"
"","bandit","276","690775","0.0-237.0-0.0","59106495","wem/bandit_either_2","AVPKE76DJLWK6","either","8","251","","","","","","","0","0","1","0.3665926528","","0.2","0.4","0.8","0.6","","","","","0.3976178043","0.2550568011","0.2588010394","0.3665926528","","","","","","","","76","L","3","","","197","main_expt"
"","bandit","277","692688","0.0-238.0-0.0","59106495","wem/bandit_either_2","AVPKE76DJLWK6","either","8","394","","","","","","","0","0","1","","0.3432124584","0.2","0.4","0.8","0.6","0.3802378075","0.3094863904","0.3094610495","0.3432124584","","","","","","","","","","","","76","L","3","","","198","main_expt"
"","bandit","278","694570","0.0-239.0-0.0","59106495","wem/bandit_either_2","AVPKE76DJLWK6","either","8","362","","","","","","","1","0","0","0.4096574544","","0.2","0.4","0.8","0.6","","","","","0.3926800246","0.3012985694","0.3139278769","0.4096574544","","","","","","","","76","L","3","","","199","main_expt"
"","bandit","279","696320","0.0-240.0-0.0","59106495","wem/bandit_either_2","AVPKE76DJLWK6","either","8","236","","","","","","","0","1","0","","0.3799023259","0.2","0.4","0.8","0.6","0.3814844917","0.3149132519","0.3459706187","0.3799023259","","","","","","","","","","","","76","L","3","","","200","main_expt"
"","bandit","280","698151","0.0-241.0-0.0","59106495","wem/bandit_either_2","AVPKE76DJLWK6","either","8","308","","","","","","","0","0","1","0.3513783521","","0.2","0.4","0.8","0.6","","","","","0.3831630738","0.3236307962","0.3038365479","0.3513783521","","","","","","","","76","L","3","","","201","main_expt"
"","bandit","281","699959","0.0-242.0-0.0","59106495","wem/bandit_either_2","AVPKE76DJLWK6","either","8","291","","","","","","","1","0","0","0.3439351057","","0.2","0.4","0.8","0.6","","","","","0.3957430938","0.3163717903","0.2964599608","0.3439351057","","","","","","","","76","L","3","","","202","main_expt"
"","bandit","282","701802","0.0-243.0-0.0","59106495","wem/bandit_either_2","AVPKE76DJLWK6","either","8","325","","","","","","","1","0","0","0.2615327891","","0.2","0.4","0.8","0.6","","","","","0.4175506619","0.3165936227","0.280336616","0.2615327891","","","","","","","","76","L","3","","","203","main_expt"
"","bandit","283","703896","0.0-244.0-0.0","59106495","wem/bandit_either_2","AVPKE76DJLWK6","either","8","574","","","","","","","0","0","1","0.2211517471","","0.2","0.4","0.8","0.6","","","","","0.4356800279","0.3166231072","0.262900641","0.2211517471","","","","","","","","76","L","3","","","204","main_expt"
"","bandit","284","705739","0.0-245.0-0.0","59106495","wem/bandit_either_2","AVPKE76DJLWK6","either","8","325","","","","","","","0","0","1","0.1955747294","","0.2","0.4","0.8","0.6","","","","","0.4342993254","0.2983153058","0.3403150927","0.1955747294","","","","","","","","76","L","3","","","205","main_expt"
"","bandit","285","707553","0.0-246.0-0.0","59106495","wem/bandit_either_2","AVPKE76DJLWK6","either","8","298","","","","","","","0","1","0","","0.3137251184","0.2","0.4","0.8","0.6","0.4515967499","0.255573156","0.3407188883","0.3137251184","","","","","","","","","","","","76","L","3","","","206","main_expt"
"","bandit","286","709362","0.0-247.0-0.0","59106495","wem/bandit_either_2","AVPKE76DJLWK6","either","8","287","","","","","","","0","0","1","0.2982459604","","0.2","0.4","0.8","0.6","","","","","0.4559700358","0.2816724171","0.2955601217","0.2982459604","","","","","","","","76","L","3","","","207","main_expt"
"","bandit","287","711205","0.0-248.0-0.0","59106495","wem/bandit_either_2","AVPKE76DJLWK6","either","8","313","","","","","","","1","0","0","0.2359404152","","0.2","0.4","0.8","0.6","","","","","0.4711787588","0.2462622089","0.2832193826","0.2359404152","","","","","","","","76","L","3","","","208","main_expt"
"","bandit","288","713217","0.0-249.0-0.0","59106495","wem/bandit_either_2","AVPKE76DJLWK6","either","8","486","","","","","","","0","0","1","0.2396635106","","0.2","0.4","0.8","0.6","","","","","0.4859779177","0.2608633631","0.25637755","0.2396635106","","","","","","","","76","L","3","","","209","main_expt"
"","bandit","289","715011","0.0-250.0-0.0","59106495","wem/bandit_either_2","AVPKE76DJLWK6","either","8","270","","","","","","","0","0","1","0.2320506775","","0.2","0.4","0.8","0.6","","","","","0.4798195452","0.2649708152","0.2500912527","0.2320506775","","","","","","","","76","L","3","","","210","main_expt"
"","bandit","290","716819","0.0-251.0-0.0","59106495","wem/bandit_either_2","AVPKE76DJLWK6","either","8","286","","","","","","","0","0","1","","0.1894847828","0.2","0.4","0.8","0.6","0.4754072522","0.2658594566","0.2481129288","0.1894847828","","","","","","","","","","","","76","L","3","","","211","main_expt"
"","bandit","291","718779","0.0-252.0-0.0","59106495","wem/bandit_either_2","AVPKE76DJLWK6","either","8","442","","","","","","","0","1","0","","0.2330804604","0.2","0.4","0.8","0.6","0.4780703898","0.2648449814","0.3192168596","0.2330804604","","","","","","","","","","","","76","L","3","","","212","main_expt"
"","bandit","292","720727","0.0-253.0-0.0","59106495","wem/bandit_either_2","AVPKE76DJLWK6","either","8","434","","","","","","","0","0","1","0.2484053244","","0.2","0.4","0.8","0.6","","","","","0.4883488692","0.286492297","0.2361953268","0.2484053244","","","","","","","","76","L","3","","","213","main_expt"
"","bandit","293","722544","0.0-254.0-0.0","59106495","wem/bandit_either_2","AVPKE76DJLWK6","either","8","298","","","","","","","0","0","1","0.2182548364","","0.2","0.4","0.8","0.6","","","","","0.4872562331","0.2540339129","0.2308921763","0.2182548364","","","","","","","","76","L","3","","","214","main_expt"
"","bandit","294","724705","0.0-255.0-0.0","59106495","wem/bandit_either_2","AVPKE76DJLWK6","either","8","642","","","","","","","0","0","1","0.1824073789","","0.2","0.4","0.8","0.6","","","","","0.4749609167","0.254651127","0.2161033537","0.1824073789","","","","","","","","76","L","3","","","215","main_expt"
"","bandit","295","726748","0.0-256.0-0.0","59106495","wem/bandit_either_2","AVPKE76DJLWK6","either","8","517","","","","","","","0","0","1","","0.1923730387","0.2","0.4","0.8","0.6","0.4798413464","0.3140517816","0.1896756427","0.1923730387","","","","","","","","","","","","76","L","3","","","216","main_expt"
"","bandit","296","728835","0.0-257.0-0.0","59106495","wem/bandit_either_2","AVPKE76DJLWK6","either","8","569","","","","","","","1","0","0","0.2266612446","","0.2","0.4","0.8","0.6","","","","","0.4865144435","0.3338676317","0.1724286307","0.2266612446","","","","","","","","76","L","3","","","217","main_expt"
"","bandit","297","730954","0.0-258.0-0.0","59106495","wem/bandit_either_2","AVPKE76DJLWK6","either","8","607","","","","","","","0","1","0","","0.1702705737","0.2","0.4","0.8","0.6","0.4789145001","0.3397001125","0.161168334","0.1702705737","","","","","","","","","","","","76","L","3","","","218","main_expt"
"","bandit","298","732979","0.0-259.0-0.0","59106495","wem/bandit_either_2","AVPKE76DJLWK6","either","8","507","","","","","","","1","0","0","0.1159766116","","0.2","0.4","0.8","0.6","","","","","0.4834748692","0.2982528089","0.2021763003","0.1159766116","","","","","","","","76","L","3","","","219","main_expt"
"","bandit","299","734938","0.0-260.0-0.0","59106495","wem/bandit_either_2","AVPKE76DJLWK6","either","8","441","","","","","","","0","0","1","0.09529473055","","0.2","0.4","0.8","0.6","","","","","0.4722371777","0.2770934022","0.2142164272","0.09529473055","","","","","","","","76","L","3","","","220","main_expt"
"","bandit","300","736836","0.0-261.0-0.0","59106495","wem/bandit_either_2","AVPKE76DJLWK6","either","8","370","","","","","","","0","0","1","","0.09060922323","0.2","0.4","0.8","0.6","0.4654689219","0.2696770889","0.189068297","0.09060922323","","","","","","","","","","","","76","L","3","","","221","main_expt"
"","bandit","301","739048","0.0-262.0-0.0","59106495","wem/bandit_either_2","AVPKE76DJLWK6","either","8","694","","","","","","","0","0","1","0.1250772464","","0.2","0.4","0.8","0.6","","","","","0.4533789701","0.3103502417","0.2120997892","0.1250772464","","","","","","","","76","L","3","","","222","main_expt"
"","bandit","302","741261","0.0-263.0-0.0","59106495","wem/bandit_either_2","AVPKE76DJLWK6","either","8","694","","","","","","","0","0","1","","0.1177235221","0.2","0.4","0.8","0.6","0.4473019993","0.3477728299","0.1937664477","0.1177235221","","","","","","","","","","","","76","L","3","","","223","main_expt"
"","bandit","303","743311","0.0-264.0-0.0","59106495","wem/bandit_either_2","AVPKE76DJLWK6","either","8","530","","","","","","","0","0","1","","0.1589673504","0.2","0.4","0.8","0.6","0.4651086175","0.3230244909","0.2195846313","0.1589673504","","","","","","","","","","","","76","L","3","","","224","main_expt"
"","bandit","304","745718","0.0-265.0-0.0","59106495","wem/bandit_either_2","AVPKE76DJLWK6","either","8","885","","","","","","","0","0","1","0.1973587738","","0.2","0.4","0.8","0.6","","","","","0.4704934375","0.3641913847","0.1973587738","0.1582937281","","","","","","","","75","K","2","","","225","main_expt"
"","bandit","305","747609","0.0-266.0-0.0","59106495","wem/bandit_either_2","AVPKE76DJLWK6","either","8","368","","","","","","","0","0","1","0.2029059012","","0.2","0.4","0.8","0.6","","","","","0.4545632724","0.3211822138","0.2029059012","0.1585786296","","","","","","","","75","K","2","","","226","main_expt"
"","bandit","306","749451","0.0-267.0-0.0","59106495","wem/bandit_either_2","AVPKE76DJLWK6","either","8","329","","","","","","","0","0","1","","0.3318596792","0.2","0.4","0.8","0.6","0.4313330006","0.3318596792","0.1677618241","0.1614007709","","","","","","","","","","","","74","J","1","","","227","main_expt"
"","bandit","307","751175","0.0-268.0-0.0","59106495","wem/bandit_either_2","AVPKE76DJLWK6","either","8","212","","","","","","","0","0","1","0.3715738924","","0.2","0.4","0.8","0.6","","","","","0.4253897179","0.3715738924","0.2079318551","0.1160982884","","","","","","","","74","J","1","","","228","main_expt"
"","bandit","308","753018","0.0-269.0-0.0","59106495","wem/bandit_either_2","AVPKE76DJLWK6","either","8","320","","","","","","","0","0","1","","0.4416009531","0.2","0.4","0.8","0.6","0.4416009531","0.3571583743","0.1860779256","0.1327168588","","","","","","","","","","","","72","H","0","img/none_selected.jpg","","229","main_expt"
"","bandit","309","754871","0.0-270.0-0.0","59106495","wem/bandit_either_2","AVPKE76DJLWK6","either","8","338","","","","","","","0","1","0","","0.4612445757","0.2","0.4","0.8","0.6","0.4612445757","0.3455313741","0.1294985144","0.1751239199","","","","","","","","","","","","72","H","0","img/none_selected.jpg","","230","main_expt"
"","bandit","310","756730","0.0-271.0-0.0","59106495","wem/bandit_either_2","AVPKE76DJLWK6","either","8","347","","","","","","","0","0","1","","0.4455927364","0.2","0.4","0.8","0.6","0.4455927364","0.3114256563","0.1424139305","0.2080149414","","","","","","","","","","","","72","H","0","img/none_selected.jpg","","231","main_expt"
"","bandit","311","758574","0.0-272.0-0.0","59106495","wem/bandit_either_2","AVPKE76DJLWK6","either","8","326","","","","","","","0","0","1","","0.4449483857","0.2","0.4","0.8","0.6","0.4449483857","0.3127001645","0.1777617008","0.2305008548","","","","","","","","","","","","72","H","0","img/none_selected.jpg","","232","main_expt"
"","bandit","312","760427","0.0-273.0-0.0","59106495","wem/bandit_either_2","AVPKE76DJLWK6","either","8","334","","","","","","","0","0","1","","0.4570404202","0.2","0.4","0.8","0.6","0.4570404202","0.2953609795","0.1408291819","0.2331895239","","","","","","","","","","","","72","H","0","img/none_selected.jpg","","233","main_expt"
"","bandit","313","762294","0.0-274.0-0.0","59106495","wem/bandit_either_2","AVPKE76DJLWK6","either","8","353","","","","","","","0","0","1","","0.4785018613","0.2","0.4","0.8","0.6","0.4785018613","0.2743769666","0.09563300426","0.2007149185","","","","","","","","","","","","72","H","0","img/none_selected.jpg","","234","main_expt"
"","bandit","314","764131","0.0-275.0-0.0","59106495","wem/bandit_either_2","AVPKE76DJLWK6","either","8","315","","","","","","","0","0","1","","0.2842570603","0.2","0.4","0.8","0.6","0.4708517218","0.2842570603","0.06508254785","0.1428876463","","","","","","","","","","","","74","J","1","","","235","main_expt"
"","bandit","315","766013","0.0-276.0-0.0","59106495","wem/bandit_either_2","AVPKE76DJLWK6","either","8","363","","","","","","","0","0","1","0.05272484418","","0.2","0.4","0.8","0.6","","","","","0.4721911582","0.3536106974","0.05272484418","0.1327756685","","","","","","","","75","K","2","","","236","main_expt"
"","bandit","316","767884","0.0-277.0-0.0","59106495","wem/bandit_either_2","AVPKE76DJLWK6","either","8","356","","","","","","","0","0","1","0.1969646424","","0.2","0.4","0.8","0.6","","","","","0.4567984566","0.3777879982","0.05000735717","0.1969646424","","","","","","","","76","L","3","","","237","main_expt"
"","bandit","317","769841","0.0-278.0-0.0","59106495","wem/bandit_either_2","AVPKE76DJLWK6","either","8","433","","","","","","","0","0","1","0.2040955009","","0.2","0.4","0.8","0.6","","","","","0.4601910044","0.3819628943","0.03409798278","0.2040955009","","","","","","","","76","L","3","","","238","main_expt"
"","bandit","318","771728","0.0-279.0-0.0","59106495","wem/bandit_either_2","AVPKE76DJLWK6","either","8","352","","","","","","","0","1","0","","0.1885012088","0.2","0.4","0.8","0.6","0.4663275819","0.3590612953","0.03555143528","0.1885012088","","","","","","","","","","","","76","L","3","","","239","main_expt"
"","bandit","319","773540","0.0-280.0-0.0","59106495","wem/bandit_either_2","AVPKE76DJLWK6","either","8","296","","","","","","","0","1","0","","0.1779850251","0.2","0.4","0.8","0.6","0.4781926851","0.3943681209","0.06633834621","0.1779850251","","","","","","","","","","","","76","L","3","","","240","main_expt"
"","bandit","320","775418","0.0-281.0-0.0","59106495","wem/bandit_either_2","AVPKE76DJLWK6","either","8","363","","","","","","","0","0","1","0.2132761508","","0.2","0.4","0.8","0.6","","","","","0.4813407325","0.4178476804","0.0332650027","0.2132761508","","","","","","","","76","L","3","","","241","main_expt"
"","bandit","321","777290","0.0-282.0-0.0","59106495","wem/bandit_either_2","AVPKE76DJLWK6","either","8","353","","","","","","","0","0","1","0.2181708985","","0.2","0.4","0.8","0.6","","","","","0.4758201438","0.4083523659","0.03674005559","0.2181708985","","","","","","","","76","L","3","","","242","main_expt"
"","bandit","322","779122","0.0-283.0-0.0","59106495","wem/bandit_either_2","AVPKE76DJLWK6","either","8","309","","","","","","","0","0","1","0.1880751836","","0.2","0.4","0.8","0.6","","","","","0.4739127226","0.4107673147","0.02732183546","0.1880751836","","","","","","","","76","L","3","","","243","main_expt"
"","bandit","323","781238","0.0-284.0-0.0","59106495","wem/bandit_either_2","AVPKE76DJLWK6","either","8","600","","","","","","","0","1","0","","0.2693527465","0.2","0.4","0.8","0.6","0.4467527753","0.3914084711","0.02742276317","0.2693527465","","","","","","","","","","","","76","L","3","","","244","main_expt"
"","bandit","324","783066","0.0-285.0-0.0","59106495","wem/bandit_either_2","AVPKE76DJLWK6","either","8","312","","","","","","","0","0","1","0.2474629182","","0.2","0.4","0.8","0.6","","","","","0.4492118003","0.4117032301","0.03322496416","0.2474629182","","","","","","","","76","L","3","","","245","main_expt"
"","bandit","325","784980","0.0-286.0-0.0","59106495","wem/bandit_either_2","AVPKE76DJLWK6","either","8","393","","","","","","","0","0","1","0.3019125269","","0.2","0.4","0.8","0.6","","","","","0.4702058379","0.4225436654","0.0538648904","0.3019125269","","","","","","","","76","L","3","","","246","main_expt"
"","bandit","326","786710","0.0-287.0-0.0","59106495","wem/bandit_either_2","AVPKE76DJLWK6","either","8","211","","","","","","","0","0","1","0.05538537946","","0.2","0.4","0.8","0.6","","","","","0.4717010128","0.4327875568","0.05538537946","0.3013832462","","","","","","","","75","K","2","","","247","main_expt"
"","bandit","327","788487","0.0-288.0-0.0","59106495","wem/bandit_either_2","AVPKE76DJLWK6","either","8","262","","","","","","","1","0","0","0.07377210468","","0.2","0.4","0.8","0.6","","","","","0.4750055548","0.4478523955","0.07377210468","0.2917300956","","","","","","","","75","K","2","","","248","main_expt"
"","bandit","328","790294","0.0-289.0-0.0","59106495","wem/bandit_either_2","AVPKE76DJLWK6","either","8","294","","","","","","","0","0","1","","0.07098242635","0.2","0.4","0.8","0.6","0.4608113614","0.4221620221","0.07098242635","0.2976682537","","","","","","","","","","","","75","K","2","","","249","main_expt"
"","bandit","329","792430","0.0-290.0-0.0","59106495","wem/bandit_either_2","AVPKE76DJLWK6","either","8","611","","","","","","","0","0","1","0.08291081884","","0.2","0.4","0.8","0.6","","","","","0.4361301801","0.3998447204","0.08291081884","0.2921609534","","","","","","","","75","K","2","","","250","main_expt"
