"consent","trial_type","trial_index","time_elapsed","internal_node_id","subjID","study","MID","cond","drift","rt","responses","key_press","expt_phase","like","value","connected","gems","bombs","no_reward","GemPrChosen","BombPrChosen","GainOverPainPr_0","GainOverPainPr_1","GainOverPainPr_2","GainOverPainPr_3","LosePr_0","LosePr_1","LosePr_2","LosePr_3","WinPr_0","WinPr_1","WinPr_2","WinPr_3","Q0","Q1","Q2","gender","age","ethnicity","target","respCharCode","respKey","respChoiceNum","respChoice","practice","trial_counter","trial_label"
"INL_behavioral_consent_30min_online.html","consent","0","7229","0.0-0.0","60937790","wem/bandit_either_2","A1FQK51ECARQNK","either","3","","","","","","","","","","","","","","","","","","","","","","","","","","","","","","","","","","","","","",""
"","survey-text","1","175469","0.0-1.0","60937790","wem/bandit_either_2","A1FQK51ECARQNK","either","3","167190","{""Q0"":""A1FQK51ECARQNK""}","","","","","","","","","","","","","","","","","","","","","","","","","","","","","","","","","","","",""
"","text","2","200859","0.0-2.0","60937790","wem/bandit_either_2","A1FQK51ECARQNK","either","3","24366","","32","","","","","","","","","","","","","","","","","","","","","","","","","","","","","","","","","","",""
"","text","3","205884","0.0-3.0","60937790","wem/bandit_either_2","A1FQK51ECARQNK","either","3","5021","","32","","","","","","","","","","","","","","","","","","","","","","","","","","","","","","","","","","",""
"","text","4","226957","0.0-4.0","60937790","wem/bandit_either_2","A1FQK51ECARQNK","either","3","21067","","32","","","","","","","","","","","","","","","","","","","","","","","","","","","","","","","","","","",""
"","text","5","243390","0.0-5.0","60937790","wem/bandit_either_2","A1FQK51ECARQNK","either","3","16428","","32","","","","","","","","","","","","","","","","","","","","","","","","","","","","","","","","","","",""
"","text","6","271448","0.0-6.0","60937790","wem/bandit_either_2","A1FQK51ECARQNK","either","3","28049","","32","","","","","","","","","","","","","","","","","","","","","","","","","","","","","","","","","","",""
"","text","7","279378","0.0-7.0","60937790","wem/bandit_either_2","A1FQK51ECARQNK","either","3","7908","","32","","","","","","","","","","","","","","","","","","","","","","","","","","","","","","","","","","",""
"","text","8","284627","0.0-8.0","60937790","wem/bandit_either_2","A1FQK51ECARQNK","either","3","5243","","32","","","","","","","","","","","","","","","","","","","","","","","","","","","","","","","","","","",""
"","identification","9","295338","0.0-9.0-0.0","60937790","wem/bandit_either_2","A1FQK51ECARQNK","either","3","10623","","","","3","3","3","","","","","","","","","","","","","","","","","","","","","","","","the village of Zur","","","","","","",""
"","identification","10","300928","0.0-9.0-1.0","60937790","wem/bandit_either_2","A1FQK51ECARQNK","either","3","4511","","","","3","3","3","","","","","","","","","","","","","","","","","","","","","","","","the village of Nyx","","","","","","",""
"","text","11","314003","0.0-10.0","60937790","wem/bandit_either_2","A1FQK51ECARQNK","either","3","12066","","32","","","","","","","","","","","","","","","","","","","","","","","","","","","","","","","","","","",""
"","text","12","317447","0.0-11.0","60937790","wem/bandit_either_2","A1FQK51ECARQNK","either","3","3438","","32","","","","","","","","","","","","","","","","","","","","","","","","","","","","","","","","","","",""
"","text","13","319627","0.0-12.0","60937790","wem/bandit_either_2","A1FQK51ECARQNK","either","3","2175","","32","","","","","","","","","","","","","","","","","","","","","","","","","","","","","","","","","","",""
"","text","14","324130","0.0-13.0","60937790","wem/bandit_either_2","A1FQK51ECARQNK","either","3","4497","","32","","","","","","","","","","","","","","","","","","","","","","","","","","","","","","","","","","",""
"","bandit","15","331009","0.0-14.0-0.0","60937790","wem/bandit_either_2","A1FQK51ECARQNK","either","3","5323","","","","","","","0","0","1","0","0","","","","","0","","","","0","","","","","","","","","","","74","J","0","img/none_selected_demo.jpg","true","0",""
"","bandit","16","334050","0.0-15.0-0.0","60937790","wem/bandit_either_2","A1FQK51ECARQNK","either","3","1518","","","","","","","0","0","1","0","0","","","","","0","","","","0","","","","","","","","","","","75","K","0","img/none_selected_demo.jpg","true","0",""
"","text","17","351248","0.0-16.0","60937790","wem/bandit_either_2","A1FQK51ECARQNK","either","3","17188","","32","","","","","","","","","","","","","","","","","","","","","","","","","","","","","","","","","","",""
"","text","18","366758","0.0-17.0","60937790","wem/bandit_either_2","A1FQK51ECARQNK","either","3","15504","","32","","","","","","","","","","","","","","","","","","","","","","","","","","","","","","","","","","",""
"","text","19","378710","0.0-18.0","60937790","wem/bandit_either_2","A1FQK51ECARQNK","either","3","11948","","32","","","","","","","","","","","","","","","","","","","","","","","","","","","","","","","","","","",""
"","text","20","381349","0.0-19.0","60937790","wem/bandit_either_2","A1FQK51ECARQNK","either","3","2632","","32","","","","","","","","","","","","","","","","","","","","","","","","","","","","","","","","","","",""
"","bandit","21","384829","0.0-20.0-0.0","60937790","wem/bandit_either_2","A1FQK51ECARQNK","either","3","1954","","","","","","","1","0","0","0.8","","0.5","0.5","","","","","","","0.8","0.2","","","","","","","","","","74","J","0","img/none_selected_demo.jpg","true","0","80_20_practice"
"","bandit","22","386931","0.0-20.0-1.0","60937790","wem/bandit_either_2","A1FQK51ECARQNK","either","3","574","","","","","","","0","1","0","","0.8","0.5","0.5","","","0.8","0.2","","","","","","","","","","","","","","74","J","0","img/none_selected_demo.jpg","true","0","80_20_practice"
"","bandit","23","389134","0.0-20.0-2.0","60937790","wem/bandit_either_2","A1FQK51ECARQNK","either","3","647","","","","","","","0","0","1","","0.2","0.5","0.5","","","0.8","0.2","","","","","","","","","","","","","","75","K","1","","true","0","80_20_practice"
"","bandit","24","391534","0.0-20.0-3.0","60937790","wem/bandit_either_2","A1FQK51ECARQNK","either","3","878","","","","","","","1","0","0","0.8","","0.5","0.5","","","","","","","0.8","0.2","","","","","","","","","","74","J","0","img/none_selected_demo.jpg","true","0","80_20_practice"
"","bandit","25","393433","0.0-20.0-4.0","60937790","wem/bandit_either_2","A1FQK51ECARQNK","either","3","375","","","","","","","0","0","1","","0.2","0.5","0.5","","","0.8","0.2","","","","","","","","","","","","","","75","K","1","","true","0","80_20_practice"
"","bandit","26","395325","0.0-20.0-5.0","60937790","wem/bandit_either_2","A1FQK51ECARQNK","either","3","371","","","","","","","0","0","1","","0.2","0.5","0.5","","","0.8","0.2","","","","","","","","","","","","","","75","K","1","","true","0","80_20_practice"
"","bandit","27","397210","0.0-20.0-6.0","60937790","wem/bandit_either_2","A1FQK51ECARQNK","either","3","361","","","","","","","0","1","0","","0.8","0.5","0.5","","","0.8","0.2","","","","","","","","","","","","","","74","J","0","img/none_selected_demo.jpg","true","0","80_20_practice"
"","bandit","28","399050","0.0-20.0-7.0","60937790","wem/bandit_either_2","A1FQK51ECARQNK","either","3","318","","","","","","","0","1","0","","0.8","0.5","0.5","","","0.8","0.2","","","","","","","","","","","","","","74","J","0","img/none_selected_demo.jpg","true","0","80_20_practice"
"","bandit","29","400899","0.0-20.0-8.0","60937790","wem/bandit_either_2","A1FQK51ECARQNK","either","3","328","","","","","","","1","0","0","0.8","","0.5","0.5","","","","","","","0.8","0.2","","","","","","","","","","74","J","0","img/none_selected_demo.jpg","true","0","80_20_practice"
"","bandit","30","402772","0.0-20.0-9.0","60937790","wem/bandit_either_2","A1FQK51ECARQNK","either","3","344","","","","","","","0","1","0","","0.8","0.5","0.5","","","0.8","0.2","","","","","","","","","","","","","","74","J","0","img/none_selected_demo.jpg","true","0","80_20_practice"
"","bandit","31","405031","0.0-20.0-10.0","60937790","wem/bandit_either_2","A1FQK51ECARQNK","either","3","737","","","","","","","0","1","0","","0.8","0.5","0.5","","","0.8","0.2","","","","","","","","","","","","","","74","J","0","img/none_selected_demo.jpg","true","0","80_20_practice"
"","bandit","32","406919","0.0-20.0-11.0","60937790","wem/bandit_either_2","A1FQK51ECARQNK","either","3","368","","","","","","","0","1","0","","0.8","0.5","0.5","","","0.8","0.2","","","","","","","","","","","","","","74","J","0","img/none_selected_demo.jpg","true","0","80_20_practice"
"","bandit","33","408739","0.0-20.0-12.0","60937790","wem/bandit_either_2","A1FQK51ECARQNK","either","3","298","","","","","","","0","1","0","","0.8","0.5","0.5","","","0.8","0.2","","","","","","","","","","","","","","74","J","0","img/none_selected_demo.jpg","true","0","80_20_practice"
"","bandit","34","410880","0.0-20.0-13.0","60937790","wem/bandit_either_2","A1FQK51ECARQNK","either","3","614","","","","","","","0","1","0","","0.8","0.5","0.5","","","0.8","0.2","","","","","","","","","","","","","","74","J","0","img/none_selected_demo.jpg","true","0","80_20_practice"
"","bandit","35","413450","0.0-20.0-14.0","60937790","wem/bandit_either_2","A1FQK51ECARQNK","either","3","1045","","","","","","","0","1","0","","0.8","0.5","0.5","","","0.8","0.2","","","","","","","","","","","","","","74","J","0","img/none_selected_demo.jpg","true","0","80_20_practice"
"","bandit","36","415534","0.0-20.0-15.0","60937790","wem/bandit_either_2","A1FQK51ECARQNK","either","3","559","","","","","","","0","0","1","","0.2","0.5","0.5","","","0.8","0.2","","","","","","","","","","","","","","75","K","1","","true","0","80_20_practice"
"","bandit","37","417370","0.0-20.0-16.0","60937790","wem/bandit_either_2","A1FQK51ECARQNK","either","3","318","","","","","","","0","1","0","","0.8","0.5","0.5","","","0.8","0.2","","","","","","","","","","","","","","74","J","0","img/none_selected_demo.jpg","true","0","80_20_practice"
"","bandit","38","419543","0.0-20.0-17.0","60937790","wem/bandit_either_2","A1FQK51ECARQNK","either","3","650","","","","","","","0","0","1","0.8","","0.5","0.5","","","","","","","0.8","0.2","","","","","","","","","","74","J","0","img/none_selected_demo.jpg","true","0","80_20_practice"
"","bandit","39","423429","0.0-20.0-18.0","60937790","wem/bandit_either_2","A1FQK51ECARQNK","either","3","2368","","","","","","","0","1","0","","0.8","0.5","0.5","","","0.8","0.2","","","","","","","","","","","","","","74","J","0","img/none_selected_demo.jpg","true","0","80_20_practice"
"","bandit","40","426007","0.0-20.0-19.0","60937790","wem/bandit_either_2","A1FQK51ECARQNK","either","3","1056","","","","","","","1","0","0","0.8","","0.5","0.5","","","","","","","0.8","0.2","","","","","","","","","","74","J","0","img/none_selected_demo.jpg","true","0","80_20_practice"
"","text","41","507167","0.0-21.0","60937790","wem/bandit_either_2","A1FQK51ECARQNK","either","3","81146","","32","","","","","","","","","","","","","","","","","","","","","","","","","","","","","","","","","","",""
"","bandit","42","512073","0.0-22.0-0.0","60937790","wem/bandit_either_2","A1FQK51ECARQNK","either","3","3362","","","","","","","1","0","0","1","0","","","","","0","1","","","1","0","","","","","","","","","","74","J","0","img/none_selected_demo.jpg","true","0",""
"","text","43","515367","0.0-23.0","60937790","wem/bandit_either_2","A1FQK51ECARQNK","either","3","3280","","32","","","","","","","","","","","","","","","","","","","","","","","","","","","","","","","","","","",""
"","text","44","517496","0.0-24.0","60937790","wem/bandit_either_2","A1FQK51ECARQNK","either","3","2121","","32","","","","","","","","","","","","","","","","","","","","","","","","","","","","","","","","","","",""
"","text","45","519358","0.0-25.0","60937790","wem/bandit_either_2","A1FQK51ECARQNK","either","3","1856","","32","","","","","","","","","","","","","","","","","","","","","","","","","","","","","","","","","","",""
"","text","46","522869","0.0-26.0","60937790","wem/bandit_either_2","A1FQK51ECARQNK","either","3","3507","","32","","","","","","","","","","","","","","","","","","","","","","","","","","","","","","","","","","",""
"","text","47","527687","0.0-27.0","60937790","wem/bandit_either_2","A1FQK51ECARQNK","either","3","4811","","32","","","","","","","","","","","","","","","","","","","","","","","","","","","","","","","","","","",""
"","text","48","529910","0.0-28.0","60937790","wem/bandit_either_2","A1FQK51ECARQNK","either","3","2216","","32","","","","","","","","","","","","","","","","","","","","","","","","","","","","","","","","","","",""
"","text","49","532319","0.0-29.0","60937790","wem/bandit_either_2","A1FQK51ECARQNK","either","3","2404","","32","","","","","","","","","","","","","","","","","","","","","","","","","","","","","","","","","","",""
"","text","50","534069","0.0-30.0","60937790","wem/bandit_either_2","A1FQK51ECARQNK","either","3","1741","","32","","","","","","","","","","","","","","","","","","","","","","","","","","","","","","","","","","",""
"","text","51","536393","0.0-31.0","60937790","wem/bandit_either_2","A1FQK51ECARQNK","either","3","2315","","32","","","","","","","","","","","","","","","","","","","","","","","","","","","","","","","","","","",""
"","text","52","537721","0.0-32.0","60937790","wem/bandit_either_2","A1FQK51ECARQNK","either","3","1319","","32","","","","","","","","","","","","","","","","","","","","","","","","","","","","","","","","","","",""
"","text","53","540717","0.0-33.0","60937790","wem/bandit_either_2","A1FQK51ECARQNK","either","3","2989","","32","","","","","","","","","","","","","","","","","","","","","","","","","","","","","","","","","","",""
"","bandit","54","543528","0.0-34.0-0.0","60937790","wem/bandit_either_2","A1FQK51ECARQNK","either","3","1289","","","","","","","0","1","0","","0.8","0.5","0.5","0.5","0.5","0.8","0.2","0.6","0.2","","","","","","","","","","","","72","H","0","img/none_selected.jpg","true","0","full_practice"
"","bandit","55","545505","0.0-34.0-1.0","60937790","wem/bandit_either_2","A1FQK51ECARQNK","either","3","452","","","","","","","0","1","0","","0.8","0.5","0.5","0.5","0.5","0.8","0.2","0.6","0.2","","","","","","","","","","","","72","H","0","img/none_selected.jpg","true","0","full_practice"
"","bandit","56","547642","0.0-34.0-2.0","60937790","wem/bandit_either_2","A1FQK51ECARQNK","either","3","609","","","","","","","0","1","0","","0.2","0.5","0.5","0.5","0.5","0.8","0.2","0.6","0.2","","","","","","","","","","","","74","J","1","","true","0","full_practice"
"","bandit","57","550366","0.0-34.0-3.0","60937790","wem/bandit_either_2","A1FQK51ECARQNK","either","3","1202","","","","","","","0","0","1","0.2","","0.5","0.5","0.5","0.5","","","","","0.8","0.2","0.6","0.2","","","","","","","","74","J","1","","true","0","full_practice"
"","bandit","58","552455","0.0-34.0-4.0","60937790","wem/bandit_either_2","A1FQK51ECARQNK","either","3","566","","","","","","","0","0","1","0.2","","0.5","0.5","0.5","0.5","","","","","0.8","0.2","0.6","0.2","","","","","","","","74","J","1","","true","0","full_practice"
"","bandit","59","554327","0.0-34.0-5.0","60937790","wem/bandit_either_2","A1FQK51ECARQNK","either","3","341","","","","","","","0","0","1","","0.6","0.5","0.5","0.5","0.5","0.8","0.2","0.6","0.2","","","","","","","","","","","","75","K","2","","true","0","full_practice"
"","bandit","60","556359","0.0-34.0-6.0","60937790","wem/bandit_either_2","A1FQK51ECARQNK","either","3","503","","","","","","","1","0","0","0.2","","0.5","0.5","0.5","0.5","","","","","0.8","0.2","0.6","0.2","","","","","","","","76","L","3","","true","0","full_practice"
"","bandit","61","558610","0.0-34.0-7.0","60937790","wem/bandit_either_2","A1FQK51ECARQNK","either","3","657","","","","","","","0","0","1","0.8","","0.5","0.5","0.5","0.5","","","","","0.8","0.2","0.6","0.2","","","","","","","","72","H","0","img/none_selected.jpg","true","0","full_practice"
"","bandit","62","561439","0.0-34.0-8.0","60937790","wem/bandit_either_2","A1FQK51ECARQNK","either","3","1300","","","","","","","1","0","0","0.6","","0.5","0.5","0.5","0.5","","","","","0.8","0.2","0.6","0.2","","","","","","","","75","K","2","","true","0","full_practice"
"","bandit","63","563301","0.0-34.0-9.0","60937790","wem/bandit_either_2","A1FQK51ECARQNK","either","3","336","","","","","","","1","0","0","0.6","","0.5","0.5","0.5","0.5","","","","","0.8","0.2","0.6","0.2","","","","","","","","75","K","2","","true","0","full_practice"
"","bandit","64","564924","0.0-34.0-10.0","60937790","wem/bandit_either_2","A1FQK51ECARQNK","either","3","96","","","","","","","0","0","1","0.2","","0.5","0.5","0.5","0.5","","","","","0.8","0.2","0.6","0.2","","","","","","","","74","J","1","","true","0","full_practice"
"","bandit","65","566916","0.0-34.0-11.0","60937790","wem/bandit_either_2","A1FQK51ECARQNK","either","3","464","","","","","","","0","0","1","0.2","","0.5","0.5","0.5","0.5","","","","","0.8","0.2","0.6","0.2","","","","","","","","76","L","3","","true","0","full_practice"
"","bandit","66","568790","0.0-34.0-12.0","60937790","wem/bandit_either_2","A1FQK51ECARQNK","either","3","343","","","","","","","0","0","1","0.2","","0.5","0.5","0.5","0.5","","","","","0.8","0.2","0.6","0.2","","","","","","","","74","J","1","","true","0","full_practice"
"","bandit","67","571013","0.0-34.0-13.0","60937790","wem/bandit_either_2","A1FQK51ECARQNK","either","3","695","","","","","","","0","0","1","","0.2","0.5","0.5","0.5","0.5","0.8","0.2","0.6","0.2","","","","","","","","","","","","76","L","3","","true","0","full_practice"
"","bandit","68","572592","0.0-34.0-14.0","60937790","wem/bandit_either_2","A1FQK51ECARQNK","either","3","51","","","","","","","1","0","0","0.6","","0.5","0.5","0.5","0.5","","","","","0.8","0.2","0.6","0.2","","","","","","","","75","K","2","","true","0","full_practice"
"","bandit","69","575310","0.0-34.0-15.0","60937790","wem/bandit_either_2","A1FQK51ECARQNK","either","3","1197","","","","","","","0","0","1","0.6","","0.5","0.5","0.5","0.5","","","","","0.8","0.2","0.6","0.2","","","","","","","","75","K","2","","true","0","full_practice"
"","bandit","70","577173","0.0-34.0-16.0","60937790","wem/bandit_either_2","A1FQK51ECARQNK","either","3","345","","","","","","","1","0","0","0.2","","0.5","0.5","0.5","0.5","","","","","0.8","0.2","0.6","0.2","","","","","","","","74","J","1","","true","0","full_practice"
"","bandit","71","579337","0.0-34.0-17.0","60937790","wem/bandit_either_2","A1FQK51ECARQNK","either","3","634","","","","","","","0","0","1","0.2","","0.5","0.5","0.5","0.5","","","","","0.8","0.2","0.6","0.2","","","","","","","","74","J","1","","true","0","full_practice"
"","bandit","72","582496","0.0-34.0-18.0","60937790","wem/bandit_either_2","A1FQK51ECARQNK","either","3","1630","","","","","","","0","0","1","0.2","","0.5","0.5","0.5","0.5","","","","","0.8","0.2","0.6","0.2","","","","","","","","74","J","1","","true","0","full_practice"
"","bandit","73","584137","0.0-34.0-19.0","60937790","wem/bandit_either_2","A1FQK51ECARQNK","either","3","119","","","","","","","0","1","0","","0.8","0.5","0.5","0.5","0.5","0.8","0.2","0.6","0.2","","","","","","","","","","","","72","H","0","img/none_selected.jpg","true","0","full_practice"
"","text","74","587238","0.0-35.0","60937790","wem/bandit_either_2","A1FQK51ECARQNK","either","3","3074","","32","","","","","","","","","","","","","","","","","","","","","","","","","","","","","","","","","","",""
"","text","75","602520","0.0-36.0","60937790","wem/bandit_either_2","A1FQK51ECARQNK","either","3","14269","","32","","","","","","","","","","","","","","","","","","","","","","","","","","","","","","","","","","",""
"","text","76","608586","0.0-37.0","60937790","wem/bandit_either_2","A1FQK51ECARQNK","either","3","6053","","32","","","","","","","","","","","","","","","","","","","","","","","","","","","","","","","","","","",""
"","text","77","609677","0.0-38.0","60937790","wem/bandit_either_2","A1FQK51ECARQNK","either","3","1083","","32","","","","","","","","","","","","","","","","","","","","","","","","","","","","","","","","","","",""
"","text","78","610843","0.0-39.0","60937790","wem/bandit_either_2","A1FQK51ECARQNK","either","3","1156","","32","","","","","","","","","","","","","","","","","","","","","","","","","","","","","","","","","","",""
"","text","79","611552","0.0-40.0","60937790","wem/bandit_either_2","A1FQK51ECARQNK","either","3","699","","32","","","","","","","","","","","","","","","","","","","","","","","","","","","","","","","","","","",""
"","bandit","80","614594","0.0-41.0-0.0","60937790","wem/bandit_either_2","A1FQK51ECARQNK","either","3","1486","","","","","","","0","0","1","","0.1426046982","0.8","0.6","0.2","0.4","0.07685641067","0.4870892339","0.1426046982","0.1646489015","","","","","","","","","","","","75","K","2","","","1","main_expt"
"","bandit","81","617303","0.0-42.0-0.0","60937790","wem/bandit_either_2","A1FQK51ECARQNK","either","3","1185","","","","","","","0","1","0","","0.4875162112","0.8","0.6","0.2","0.4","0.08388143876","0.4875162112","0.1597004976","0.2180431119","","","","","","","","","","","","74","J","1","","","2","main_expt"
"","bandit","82","619134","0.0-43.0-0.0","60937790","wem/bandit_either_2","A1FQK51ECARQNK","either","3","307","","","","","","","0","0","1","0.4909945117","","0.8","0.6","0.2","0.4","","","","","0.06528774038","0.4909945117","0.1381850853","0.2294217256","","","","","","","","74","J","1","","","3","main_expt"
"","bandit","83","621084","0.0-44.0-0.0","60937790","wem/bandit_either_2","A1FQK51ECARQNK","either","3","417","","","","","","","0","0","1","","0.482579304","0.8","0.6","0.2","0.4","0.07987899881","0.482579304","0.1787932262","0.2162119515","","","","","","","","","","","","74","J","1","","","4","main_expt"
"","bandit","84","623421","0.0-45.0-0.0","60937790","wem/bandit_either_2","A1FQK51ECARQNK","either","3","804","","","","","","","0","0","1","","0.2246316054","0.8","0.6","0.2","0.4","0.0432391811","0.4887913002","0.1795032464","0.2246316054","","","","","","","","","","","","76","L","3","","","5","main_expt"
"","bandit","85","625220","0.0-46.0-0.0","60937790","wem/bandit_either_2","A1FQK51ECARQNK","either","3","273","","","","","","","0","0","1","","0.03467601655","0.8","0.6","0.2","0.4","0.03467601655","0.4887860333","0.164375756","0.2061018479","","","","","","","","","","","","72","H","0","img/none_selected.jpg","","6","main_expt"
"","bandit","86","627085","0.0-47.0-0.0","60937790","wem/bandit_either_2","A1FQK51ECARQNK","either","3","345","","","","","","","1","0","0","0.204957223","","0.8","0.6","0.2","0.4","","","","","0.05033951668","0.4901971563","0.204957223","0.1795347326","","","","","","","","75","K","2","","","7","main_expt"
"","bandit","87","628943","0.0-48.0-0.0","60937790","wem/bandit_either_2","A1FQK51ECARQNK","either","3","324","","","","","","","0","0","1","","0.2162036531","0.8","0.6","0.2","0.4","0.07676355645","0.4862230721","0.2162036531","0.1290452752","","","","","","","","","","","","75","K","2","","","8","main_expt"
"","bandit","88","630799","0.0-49.0-0.0","60937790","wem/bandit_either_2","A1FQK51ECARQNK","either","3","334","","","","","","","0","0","1","0.08620859221","","0.8","0.6","0.2","0.4","","","","","0.08620859221","0.4759730645","0.2167418122","0.1559184374","","","","","","","","72","H","0","img/none_selected.jpg","","9","main_expt"
"","bandit","89","633330","0.0-50.0-0.0","60937790","wem/bandit_either_2","A1FQK51ECARQNK","either","3","1001","","","","","","","1","0","0","0.4560980466","","0.8","0.6","0.2","0.4","","","","","0.1103839657","0.4560980466","0.1607923637","0.1381514788","","","","","","","","74","J","1","","","10","main_expt"
"","bandit","90","635255","0.0-51.0-0.0","60937790","wem/bandit_either_2","A1FQK51ECARQNK","either","3","400","","","","","","","0","1","0","","0.4775116046","0.8","0.6","0.2","0.4","0.1334948588","0.4775116046","0.1386410957","0.1271140015","","","","","","","","","","","","74","J","1","","","11","main_expt"
"","bandit","91","636962","0.0-52.0-0.0","60937790","wem/bandit_either_2","A1FQK51ECARQNK","either","3","181","","","","","","","0","0","1","","0.1718380738","0.8","0.6","0.2","0.4","0.1535602519","0.4705073552","0.1718380738","0.1854664659","","","","","","","","","","","","75","K","2","","","12","main_expt"
"","bandit","92","638509","0.0-53.0-0.0","60937790","wem/bandit_either_2","A1FQK51ECARQNK","either","3","8","","","","","","","0","0","1","0.4851887342","","0.8","0.6","0.2","0.4","","","","","0.127854239","0.4851887342","0.1686303413","0.1869952656","","","","","","","","74","J","1","","","13","main_expt"
"","bandit","93","640561","0.0-54.0-0.0","60937790","wem/bandit_either_2","A1FQK51ECARQNK","either","3","515","","","","","","","0","0","1","0.4731273917","","0.8","0.6","0.2","0.4","","","","","0.1507911491","0.4731273917","0.1460019496","0.2035171393","","","","","","","","74","J","1","","","14","main_expt"
"","bandit","94","642907","0.0-55.0-0.0","60937790","wem/bandit_either_2","A1FQK51ECARQNK","either","3","821","","","","","","","0","0","1","0.2800299461","","0.8","0.6","0.2","0.4","","","","","0.1741212098","0.4585867004","0.1667614464","0.2800299461","","","","","","","","76","L","3","","","15","main_expt"
"","bandit","95","644826","0.0-56.0-0.0","60937790","wem/bandit_either_2","A1FQK51ECARQNK","either","3","390","","","","","","","0","0","1","0.1973644546","","0.8","0.6","0.2","0.4","","","","","0.1918308831","0.4366533258","0.1973644546","0.2725454461","","","","","","","","75","K","2","","","16","main_expt"
"","bandit","96","646964","0.0-57.0-0.0","60937790","wem/bandit_either_2","A1FQK51ECARQNK","either","3","617","","","","","","","0","0","1","","0.1570621471","0.8","0.6","0.2","0.4","0.1950212473","0.4405228744","0.1873415792","0.1570621471","","","","","","","","","","","","76","L","3","","","17","main_expt"
"","bandit","97","648609","0.0-58.0-0.0","60937790","wem/bandit_either_2","A1FQK51ECARQNK","either","3","113","","","","","","","0","0","1","","0.1875860444","0.8","0.6","0.2","0.4","0.2094813194","0.4678551263","0.1875860444","0.1968188506","","","","","","","","","","","","75","K","2","","","18","main_expt"
"","bandit","98","650976","0.0-59.0-0.0","60937790","wem/bandit_either_2","A1FQK51ECARQNK","either","3","843","","","","","","","1","0","0","0.466140525","","0.8","0.6","0.2","0.4","","","","","0.2628959394","0.466140525","0.1988439388","0.2439518204","","","","","","","","74","J","1","","","19","main_expt"
"","bandit","99","652890","0.0-60.0-0.0","60937790","wem/bandit_either_2","A1FQK51ECARQNK","either","3","395","","","","","","","0","0","1","0.4094087999","","0.8","0.6","0.2","0.4","","","","","0.2116504525","0.4094087999","0.1813993393","0.2806117898","","","","","","","","74","J","1","","","20","main_expt"
"","bandit","100","655110","0.0-61.0-0.0","60937790","wem/bandit_either_2","A1FQK51ECARQNK","either","3","689","","","","","","","1","0","0","0.1904426465","","0.8","0.6","0.2","0.4","","","","","0.1904426465","0.4386974508","0.2012004452","0.2658005831","","","","","","","","72","H","0","img/none_selected.jpg","","21","main_expt"
"","bandit","101","656828","0.0-62.0-0.0","60937790","wem/bandit_either_2","A1FQK51ECARQNK","either","3","176","","","","","","","0","0","1","","0.1581796968","0.8","0.6","0.2","0.4","0.1581796968","0.4505723784","0.1958646163","0.2774390086","","","","","","","","","","","","72","H","0","img/none_selected.jpg","","22","main_expt"
"","bandit","102","658602","0.0-63.0-0.0","60937790","wem/bandit_either_2","A1FQK51ECARQNK","either","3","250","","","","","","","0","0","1","0.4568000239","","0.8","0.6","0.2","0.4","","","","","0.2039009352","0.4568000239","0.2626819079","0.2795917474","","","","","","","","74","J","1","","","23","main_expt"
"","bandit","103","661660","0.0-64.0-0.0","60937790","wem/bandit_either_2","A1FQK51ECARQNK","either","3","1536","","","","","","","0","0","1","0.228339491","","0.8","0.6","0.2","0.4","","","","","0.228339491","0.4518339256","0.2906682881","0.2981059477","","","","","","","","72","H","0","img/none_selected.jpg","","24","main_expt"
"","bandit","104","663340","0.0-65.0-0.0","60937790","wem/bandit_either_2","A1FQK51ECARQNK","either","3","150","","","","","","","0","0","1","","0.3270173502","0.8","0.6","0.2","0.4","0.2602465224","0.4120159309","0.3270173502","0.3272059922","","","","","","","","","","","","75","K","2","","","25","main_expt"
"","bandit","105","665212","0.0-66.0-0.0","60937790","wem/bandit_either_2","A1FQK51ECARQNK","either","3","349","","","","","","","0","1","0","","0.2951289915","0.8","0.6","0.2","0.4","0.1939420306","0.4134154185","0.2951289915","0.3369826645","","","","","","","","","","","","75","K","2","","","26","main_expt"
"","bandit","106","669404","0.0-67.0-0.0","60937790","wem/bandit_either_2","A1FQK51ECARQNK","either","3","2670","","","","","","","0","0","1","0.4031068294","","0.8","0.6","0.2","0.4","","","","","0.2387331149","0.4031068294","0.3520126272","0.2531212506","","","","","","","","74","J","1","","","27","main_expt"
"","bandit","107","671329","0.0-68.0-0.0","60937790","wem/bandit_either_2","A1FQK51ECARQNK","either","3","389","","","","","","","0","0","1","0.4305883772","","0.8","0.6","0.2","0.4","","","","","0.2183458617","0.4305883772","0.3369287003","0.2170461037","","","","","","","","74","J","1","","","28","main_expt"
"","bandit","108","673717","0.0-69.0-0.0","60937790","wem/bandit_either_2","A1FQK51ECARQNK","either","3","863","","","","","","","0","0","1","0.4383329838","","0.8","0.6","0.2","0.4","","","","","0.2151501268","0.4383329838","0.3591799128","0.2346211465","","","","","","","","74","J","1","","","29","main_expt"
"","bandit","109","675528","0.0-70.0-0.0","60937790","wem/bandit_either_2","A1FQK51ECARQNK","either","3","192","","","","","","","0","0","1","","0.2450860663","0.8","0.6","0.2","0.4","0.2267233056","0.4233276099","0.3324285477","0.2450860663","","","","","","","","","","","","76","L","3","","","30","main_expt"
"","bandit","110","677347","0.0-71.0-0.0","60937790","wem/bandit_either_2","A1FQK51ECARQNK","either","3","300","","","","","","","0","0","1","","0.2141169407","0.8","0.6","0.2","0.4","0.2663701676","0.4016185005","0.327032362","0.2141169407","","","","","","","","","","","","76","L","3","","","31","main_expt"
"","bandit","111","679280","0.0-72.0-0.0","60937790","wem/bandit_either_2","A1FQK51ECARQNK","either","3","376","","","","","","","0","0","1","","0.3230905041","0.8","0.6","0.2","0.4","0.275969473","0.4134940178","0.3230905041","0.2347854155","","","","","","","","","","","","75","K","2","","","32","main_expt"
"","bandit","112","681404","0.0-73.0-0.0","60937790","wem/bandit_either_2","A1FQK51ECARQNK","either","3","599","","","","","","","0","0","1","","0.246596708","0.8","0.6","0.2","0.4","0.3365270118","0.4331174495","0.2969008969","0.246596708","","","","","","","","","","","","76","L","3","","","33","main_expt"
"","bandit","113","683818","0.0-74.0-0.0","60937790","wem/bandit_either_2","A1FQK51ECARQNK","either","3","886","","","","","","","0","0","1","","0.2536392951","0.8","0.6","0.2","0.4","0.2916301021","0.4454497031","0.2536392951","0.1914370393","","","","","","","","","","","","75","K","2","","","34","main_expt"
"","bandit","114","685671","0.0-75.0-0.0","60937790","wem/bandit_either_2","A1FQK51ECARQNK","either","3","319","","","","","","","0","0","1","0.2336030597","","0.8","0.6","0.2","0.4","","","","","0.3236538836","0.4419706984","0.2336030597","0.1408207185","","","","","","","","75","K","2","","","35","main_expt"
"","bandit","115","688627","0.0-76.0-0.0","60937790","wem/bandit_either_2","A1FQK51ECARQNK","either","3","1420","","","","","","","0","0","1","0.3317439785","","0.8","0.6","0.2","0.4","","","","","0.3317439785","0.4205940312","0.3110392291","0.09539735145","","","","","","","","72","H","0","img/none_selected.jpg","","36","main_expt"
"","bandit","116","690977","0.0-77.0-0.0","60937790","wem/bandit_either_2","A1FQK51ECARQNK","either","3","827","","","","","","","0","0","1","0.4227305347","","0.8","0.6","0.2","0.4","","","","","0.3620900841","0.4227305347","0.3354302382","0.08867332122","","","","","","","","74","J","1","","","37","main_expt"
"","bandit","117","692890","0.0-78.0-0.0","60937790","wem/bandit_either_2","A1FQK51ECARQNK","either","3","385","","","","","","","0","0","1","0.3649119955","","0.8","0.6","0.2","0.4","","","","","0.3649119955","0.3904174821","0.3359947902","0.0804097964","","","","","","","","72","H","0","img/none_selected.jpg","","38","main_expt"
"","bandit","118","695023","0.0-79.0-0.0","60937790","wem/bandit_either_2","A1FQK51ECARQNK","either","3","595","","","","","","","1","0","0","0.3993258453","","0.8","0.6","0.2","0.4","","","","","0.3993258453","0.3704092514","0.3719467902","0.1092906338","","","","","","","","72","H","0","img/none_selected.jpg","","39","main_expt"
"","bandit","119","697229","0.0-80.0-0.0","60937790","wem/bandit_either_2","A1FQK51ECARQNK","either","3","679","","","","","","","0","0","1","0.43145226","","0.8","0.6","0.2","0.4","","","","","0.43145226","0.3250394812","0.37180955","0.08771014895","","","","","","","","72","H","0","img/none_selected.jpg","","40","main_expt"
"","bandit","120","699452","0.0-81.0-0.0","60937790","wem/bandit_either_2","A1FQK51ECARQNK","either","3","683","","","","","","","1","0","0","0.3925837484","","0.8","0.6","0.2","0.4","","","","","0.3925837484","0.3633775572","0.3972707938","0.1065106481","","","","","","","","72","H","0","img/none_selected.jpg","","41","main_expt"
"","bandit","121","702108","0.0-82.0-0.0","60937790","wem/bandit_either_2","A1FQK51ECARQNK","either","3","1111","","","","","","","0","0","1","0.3708570881","","0.8","0.6","0.2","0.4","","","","","0.4020613291","0.3708570881","0.3981555674","0.0926848955","","","","","","","","74","J","1","","","42","main_expt"
"","bandit","122","704452","0.0-83.0-0.0","60937790","wem/bandit_either_2","A1FQK51ECARQNK","either","3","814","","","","","","","1","0","0","0.4199094288","","0.8","0.6","0.2","0.4","","","","","0.4199094288","0.3852030547","0.3698022864","0.09213729174","","","","","","","","72","H","0","img/none_selected.jpg","","43","main_expt"
"","bandit","123","707234","0.0-84.0-0.0","60937790","wem/bandit_either_2","A1FQK51ECARQNK","either","3","1254","","","","","","","0","1","0","","0.3278340923","0.8","0.6","0.2","0.4","0.4362917367","0.3653477133","0.3278340923","0.0950319608","","","","","","","","","","","","75","K","2","","","44","main_expt"
"","bandit","124","709940","0.0-85.0-0.0","60937790","wem/bandit_either_2","A1FQK51ECARQNK","either","3","1179","","","","","","","0","0","1","0.07917944011","","0.8","0.6","0.2","0.4","","","","","0.4310393502","0.3423722135","0.4004869948","0.07917944011","","","","","","","","76","L","3","","","45","main_expt"
"","bandit","125","711838","0.0-86.0-0.0","60937790","wem/bandit_either_2","A1FQK51ECARQNK","either","3","367","","","","","","","0","1","0","","0.4389658195","0.8","0.6","0.2","0.4","0.4301719659","0.2713785315","0.4389658195","0.08528552535","","","","","","","","","","","","75","K","2","","","46","main_expt"
"","bandit","126","714619","0.0-87.0-0.0","60937790","wem/bandit_either_2","A1FQK51ECARQNK","either","3","1253","","","","","","","0","1","0","","0.4294918489","0.8","0.6","0.2","0.4","0.4274268526","0.2675382036","0.4294918489","0.08303267599","","","","","","","","","","","","75","K","2","","","47","main_expt"
"","bandit","127","716553","0.0-88.0-0.0","60937790","wem/bandit_either_2","A1FQK51ECARQNK","either","3","406","","","","","","","0","0","1","","0.3948346084","0.8","0.6","0.2","0.4","0.4559220927","0.3006553151","0.3948346084","0.1183490009","","","","","","","","","","","","75","K","2","","","48","main_expt"
"","bandit","128","718431","0.0-89.0-0.0","60937790","wem/bandit_either_2","A1FQK51ECARQNK","either","3","351","","","","","","","0","0","1","0.4226663974","","0.8","0.6","0.2","0.4","","","","","0.4362936898","0.2865645246","0.4226663974","0.09831357925","","","","","","","","75","K","2","","","49","main_expt"
"","bandit","129","720032","0.0-90.0-0.0","60937790","wem/bandit_either_2","A1FQK51ECARQNK","either","3","59","","","","","","","0","0","1","","0.0896163698","0.8","0.6","0.2","0.4","0.4001593617","0.2842330123","0.3943232949","0.0896163698","","","","","","","","","","","","76","L","3","","","50","main_expt"
"","bandit","130","722743","0.0-91.0-0.0","60937790","wem/bandit_either_2","A1FQK51ECARQNK","either","3","1184","","","","","","","0","0","1","","0.3737598101","0.8","0.6","0.2","0.4","0.3737598101","0.2933637591","0.3911898034","0.08239790895","","","","","","","","","","","","72","H","0","img/none_selected.jpg","","51","main_expt"
"","bandit","131","725185","0.0-92.0-0.0","60937790","wem/bandit_either_2","A1FQK51ECARQNK","either","3","920","","","","","","","0","0","1","","0.3490564905","0.8","0.6","0.2","0.4","0.3490564905","0.2802127762","0.3897106723","0.06509061927","","","","","","","","","","","","72","H","0","img/none_selected.jpg","","52","main_expt"
"","bandit","132","727017","0.0-93.0-0.0","60937790","wem/bandit_either_2","A1FQK51ECARQNK","either","3","302","","","","","","","1","0","0","0.3606416198","","0.8","0.6","0.2","0.4","","","","","0.3606416198","0.2567133084","0.3977919118","0.05503049918","","","","","","","","72","H","0","img/none_selected.jpg","","53","main_expt"
"","bandit","133","729234","0.0-94.0-0.0","60937790","wem/bandit_either_2","A1FQK51ECARQNK","either","3","686","","","","","","","1","0","0","0.3920172378","","0.8","0.6","0.2","0.4","","","","","0.3920172378","0.304436262","0.3803623479","0.06606451817","","","","","","","","72","H","0","img/none_selected.jpg","","54","main_expt"
"","bandit","134","730813","0.0-95.0-0.0","60937790","wem/bandit_either_2","A1FQK51ECARQNK","either","3","46","","","","","","","0","0","1","","0.3898030924","0.8","0.6","0.2","0.4","0.3841867886","0.3050376594","0.3898030924","0.0812436444","","","","","","","","","","","","75","K","2","","","55","main_expt"
"","bandit","135","732671","0.0-96.0-0.0","60937790","wem/bandit_either_2","A1FQK51ECARQNK","either","3","327","","","","","","","0","0","1","","0.05752214818","0.8","0.6","0.2","0.4","0.3752679739","0.2874076515","0.4332266089","0.05752214818","","","","","","","","","","","","76","L","3","","","56","main_expt"
"","bandit","136","734286","0.0-97.0-0.0","60937790","wem/bandit_either_2","A1FQK51ECARQNK","either","3","96","","","","","","","0","0","1","","0.05957573693","0.8","0.6","0.2","0.4","0.3595388075","0.2633226407","0.4598680415","0.05957573693","","","","","","","","","","","","76","L","3","","","57","main_expt"
"","bandit","137","736012","0.0-98.0-0.0","60937790","wem/bandit_either_2","A1FQK51ECARQNK","either","3","191","","","","","","","0","0","1","","0.08347810371","0.8","0.6","0.2","0.4","0.2926617498","0.282557186","0.4510058242","0.08347810371","","","","","","","","","","","","76","L","3","","","58","main_expt"
"","bandit","138","737544","0.0-99.0-0.0","60937790","wem/bandit_either_2","A1FQK51ECARQNK","either","3","6","","","","","","","0","0","1","","0.2675679041","0.8","0.6","0.2","0.4","0.2854140482","0.2675679041","0.4587464736","0.1166757522","","","","","","","","","","","","74","J","1","","","59","main_expt"
"","bandit","139","745546","0.0-100.0-0.0","60937790","wem/bandit_either_2","A1FQK51ECARQNK","either","3","6341","","","","","","","0","0","1","0.2767785787","","0.8","0.6","0.2","0.4","","","","","0.2767785787","0.2654645802","0.4534111386","0.1223048521","","","","","","","","72","H","0","img/none_selected.jpg","","60","main_expt"
"","bandit","140","747231","0.0-101.0-0.0","60937790","wem/bandit_either_2","A1FQK51ECARQNK","either","3","161","","","","","","","0","0","1","","0.3110110239","0.8","0.6","0.2","0.4","0.3110110239","0.2326588137","0.4581751116","0.1341525672","","","","","","","","","","","","72","H","0","img/none_selected.jpg","","61","main_expt"
"","bandit","141","749191","0.0-102.0-0.0","60937790","wem/bandit_either_2","A1FQK51ECARQNK","either","3","428","","","","","","","0","0","1","","0.1748443247","0.8","0.6","0.2","0.4","0.2739379344","0.2430345153","0.4447189615","0.1748443247","","","","","","","","","","","","76","L","3","","","62","main_expt"
"","bandit","142","751209","0.0-103.0-0.0","60937790","wem/bandit_either_2","A1FQK51ECARQNK","either","3","476","","","","","","","1","0","0","0.2518438402","","0.8","0.6","0.2","0.4","","","","","0.2518438402","0.2682261916","0.4351057758","0.1872250423","","","","","","","","72","H","0","img/none_selected.jpg","","63","main_expt"
"","bandit","143","752850","0.0-104.0-0.0","60937790","wem/bandit_either_2","A1FQK51ECARQNK","either","3","96","","","","","","","0","0","1","","0.4559228662","0.8","0.6","0.2","0.4","0.216118181","0.3136585585","0.4559228662","0.1592276408","","","","","","","","","","","","75","K","2","","","64","main_expt"
"","bandit","144","754470","0.0-105.0-0.0","60937790","wem/bandit_either_2","A1FQK51ECARQNK","either","3","96","","","","","","","0","0","1","","0.4526438492","0.8","0.6","0.2","0.4","0.1961712117","0.3208042698","0.4526438492","0.1881419285","","","","","","","","","","","","75","K","2","","","65","main_expt"
"","bandit","145","756119","0.0-106.0-0.0","60937790","wem/bandit_either_2","A1FQK51ECARQNK","either","3","122","","","","","","","0","0","1","","0.4604690516","0.8","0.6","0.2","0.4","0.1821057022","0.3550213758","0.4604690516","0.2075830042","","","","","","","","","","","","75","K","2","","","66","main_expt"
"","bandit","146","757768","0.0-107.0-0.0","60937790","wem/bandit_either_2","A1FQK51ECARQNK","either","3","128","","","","","","","0","0","1","","0.2883445083","0.8","0.6","0.2","0.4","0.2221692745","0.2883445083","0.4479534522","0.210321401","","","","","","","","","","","","74","J","1","","","67","main_expt"
"","bandit","147","759587","0.0-108.0-0.0","60937790","wem/bandit_either_2","A1FQK51ECARQNK","either","3","290","","","","","","","0","1","0","","0.2492112051","0.8","0.6","0.2","0.4","0.2385328342","0.2492112051","0.4420076102","0.1740681144","","","","","","","","","","","","74","J","1","","","68","main_expt"
"","bandit","148","762194","0.0-109.0-0.0","60937790","wem/bandit_either_2","A1FQK51ECARQNK","either","3","1081","","","","","","","0","0","1","0.2693988132","","0.8","0.6","0.2","0.4","","","","","0.2693988132","0.1725364023","0.3840886122","0.1495678232","","","","","","","","72","H","0","img/none_selected.jpg","","69","main_expt"
"","bandit","149","763791","0.0-110.0-0.0","60937790","wem/bandit_either_2","A1FQK51ECARQNK","either","3","66","","","","","","","0","0","1","0.2081322216","","0.8","0.6","0.2","0.4","","","","","0.2633889128","0.2081322216","0.3764426572","0.1594524764","","","","","","","","74","J","1","","","70","main_expt"
"","bandit","150","765513","0.0-111.0-0.0","60937790","wem/bandit_either_2","A1FQK51ECARQNK","either","3","187","","","","","","","0","0","1","","0.2222096595","0.8","0.6","0.2","0.4","0.2881785301","0.2222096595","0.3925575972","0.1308665948","","","","","","","","","","","","74","J","1","","","71","main_expt"
"","bandit","151","767325","0.0-112.0-0.0","60937790","wem/bandit_either_2","A1FQK51ECARQNK","either","3","268","","","","","","","0","0","1","0.1413665491","","0.8","0.6","0.2","0.4","","","","","0.3496752211","0.2276413934","0.4055717031","0.1413665491","","","","","","","","76","L","3","","","72","main_expt"
"","bandit","152","768952","0.0-113.0-0.0","60937790","wem/bandit_either_2","A1FQK51ECARQNK","either","3","94","","","","","","","0","0","1","","0.4313753627","0.8","0.6","0.2","0.4","0.3662649551","0.202726327","0.4313753627","0.1562096843","","","","","","","","","","","","75","K","2","","","73","main_expt"
"","bandit","153","770578","0.0-114.0-0.0","60937790","wem/bandit_either_2","A1FQK51ECARQNK","either","3","88","","","","","","","0","0","1","0.4294283137","","0.8","0.6","0.2","0.4","","","","","0.3318597218","0.2465356434","0.4294283137","0.1601549975","","","","","","","","75","K","2","","","74","main_expt"
"","bandit","154","772200","0.0-115.0-0.0","60937790","wem/bandit_either_2","A1FQK51ECARQNK","either","3","95","","","","","","","0","1","0","","0.3129946244","0.8","0.6","0.2","0.4","0.3129946244","0.2780880013","0.4114775526","0.1962365409","","","","","","","","","","","","72","H","0","img/none_selected.jpg","","75","main_expt"
"","bandit","155","773897","0.0-116.0-0.0","60937790","wem/bandit_either_2","A1FQK51ECARQNK","either","3","166","","","","","","","0","0","1","","0.230570622","0.8","0.6","0.2","0.4","0.3299880354","0.230570622","0.4038916894","0.2315068675","","","","","","","","","","","","74","J","1","","","76","main_expt"
"","bandit","156","775501","0.0-117.0-0.0","60937790","wem/bandit_either_2","A1FQK51ECARQNK","either","3","76","","","","","","","0","0","1","","0.1749603823","0.8","0.6","0.2","0.4","0.2704336052","0.1747897532","0.4028298088","0.1749603823","","","","","","","","","","","","76","L","3","","","77","main_expt"
"","bandit","157","779364","0.0-118.0-0.0","60937790","wem/bandit_either_2","A1FQK51ECARQNK","either","3","2331","","","","","","","0","1","0","","0.2009150394","0.8","0.6","0.2","0.4","0.2489008917","0.2009150394","0.4004321452","0.2091975686","","","","","","","","","","","","74","J","1","","","78","main_expt"
"","bandit","158","781947","0.0-119.0-0.0","60937790","wem/bandit_either_2","A1FQK51ECARQNK","either","3","1059","","","","","","","0","0","1","0.3909827091","","0.8","0.6","0.2","0.4","","","","","0.2182462247","0.2090883318","0.3909827091","0.2699334682","","","","","","","","75","K","2","","","79","main_expt"
"","bandit","159","783495","0.0-120.0-0.0","60937790","wem/bandit_either_2","A1FQK51ECARQNK","either","3","9","","","","","","","0","0","1","","0.215522018","0.8","0.6","0.2","0.4","0.1591694045","0.215522018","0.4289339141","0.2712134299","","","","","","","","","","","","74","J","1","","","80","main_expt"
"","bandit","160","785250","0.0-121.0-0.0","60937790","wem/bandit_either_2","A1FQK51ECARQNK","either","3","217","","","","","","","0","0","1","","0.1661146317","0.8","0.6","0.2","0.4","0.1661146317","0.2655955182","0.4256341571","0.2563236188","","","","","","","","","","","","72","H","0","img/none_selected.jpg","","81","main_expt"
"","bandit","161","788660","0.0-122.0-0.0","60937790","wem/bandit_either_2","A1FQK51ECARQNK","either","3","1853","","","","","","","0","0","1","0.2249160828","","0.8","0.6","0.2","0.4","","","","","0.2249160828","0.2642342948","0.4153375647","0.2474856626","","","","","","","","72","H","0","img/none_selected.jpg","","82","main_expt"
"","bandit","162","791902","0.0-123.0-0.0","60937790","wem/bandit_either_2","A1FQK51ECARQNK","either","3","1708","","","","","","","0","0","1","0.2194800234","","0.8","0.6","0.2","0.4","","","","","0.2194800234","0.2615040017","0.4239102097","0.2338037125","","","","","","","","72","H","0","img/none_selected.jpg","","83","main_expt"
"","bandit","163","793492","0.0-124.0-0.0","60937790","wem/bandit_either_2","A1FQK51ECARQNK","either","3","6","","","","","","","1","0","0","0.2929655049","","0.8","0.6","0.2","0.4","","","","","0.2020024956","0.3136368113","0.4021041833","0.2929655049","","","","","","","","76","L","3","","","84","main_expt"
"","bandit","164","795170","0.0-125.0-0.0","60937790","wem/bandit_either_2","A1FQK51ECARQNK","either","3","136","","","","","","","0","0","1","","0.2755572306","0.8","0.6","0.2","0.4","0.1639230135","0.2433538552","0.4322374594","0.2755572306","","","","","","","","","","","","76","L","3","","","85","main_expt"
"","bandit","165","796775","0.0-126.0-0.0","60937790","wem/bandit_either_2","A1FQK51ECARQNK","either","3","80","","","","","","","0","0","1","0.2706615249","","0.8","0.6","0.2","0.4","","","","","0.1423092638","0.2583740773","0.4247618508","0.2706615249","","","","","","","","76","L","3","","","86","main_expt"
"","bandit","166","798539","0.0-127.0-0.0","60937790","wem/bandit_either_2","A1FQK51ECARQNK","either","3","146","","","","","","","0","1","0","","0.2656778135","0.8","0.6","0.2","0.4","0.1623313408","0.2656778135","0.4130492334","0.3259805539","","","","","","","","","","","","74","J","1","","","87","main_expt"
"","bandit","167","800107","0.0-128.0-0.0","60937790","wem/bandit_either_2","A1FQK51ECARQNK","either","3","40","","","","","","","0","0","1","","0.1459946163","0.8","0.6","0.2","0.4","0.1459946163","0.2565525481","0.3883747858","0.3471137027","","","","","","","","","","","","72","H","0","img/none_selected.jpg","","88","main_expt"
"","bandit","168","801677","0.0-129.0-0.0","60937790","wem/bandit_either_2","A1FQK51ECARQNK","either","3","20","","","","","","","0","0","1","","0.3715311126","0.8","0.6","0.2","0.4","0.1684807643","0.2471999074","0.3950807547","0.3715311126","","","","","","","","","","","","76","L","3","","","89","main_expt"
"","bandit","169","803300","0.0-130.0-0.0","60937790","wem/bandit_either_2","A1FQK51ECARQNK","either","3","94","","","","","","","0","0","1","","0.2204199549","0.8","0.6","0.2","0.4","0.1937692241","0.2204199549","0.420982679","0.3571728809","","","","","","","","","","","","74","J","1","","","90","main_expt"
"","bandit","170","804872","0.0-131.0-0.0","60937790","wem/bandit_either_2","A1FQK51ECARQNK","either","3","45","","","","","","","0","0","1","","0.4012606491","0.8","0.6","0.2","0.4","0.1670397906","0.2013548925","0.4012606491","0.3348642023","","","","","","","","","","","","75","K","2","","","91","main_expt"
"","bandit","171","806419","0.0-132.0-0.0","60937790","wem/bandit_either_2","A1FQK51ECARQNK","either","3","6","","","","","","","1","0","0","0.174921714","","0.8","0.6","0.2","0.4","","","","","0.1936095216","0.174921714","0.3950870333","0.3551195155","","","","","","","","74","J","1","","","92","main_expt"
"","bandit","172","808068","0.0-133.0-0.0","60937790","wem/bandit_either_2","A1FQK51ECARQNK","either","3","113","","","","","","","0","0","1","","0.1972058505","0.8","0.6","0.2","0.4","0.2399824117","0.1972058505","0.3797372222","0.3494458231","","","","","","","","","","","","74","J","1","","","93","main_expt"
"","bandit","173","809689","0.0-134.0-0.0","60937790","wem/bandit_either_2","A1FQK51ECARQNK","either","3","70","","","","","","","1","0","0","0.242536602","","0.8","0.6","0.2","0.4","","","","","0.242536602","0.2144007407","0.3346339076","0.3759818745","","","","","","","","72","H","0","img/none_selected.jpg","","94","main_expt"
"","bandit","174","811543","0.0-135.0-0.0","60937790","wem/bandit_either_2","A1FQK51ECARQNK","either","3","202","","","","","","","0","0","1","0.3081296623","","0.8","0.6","0.2","0.4","","","","","0.3081296623","0.2025691914","0.3433005441","0.3467088588","","","","","","","","72","H","0","img/none_selected.jpg","","95","main_expt"
"","bandit","175","813088","0.0-136.0-0.0","60937790","wem/bandit_either_2","A1FQK51ECARQNK","either","3","4","","","","","","","0","0","1","0.371766452","","0.8","0.6","0.2","0.4","","","","","0.371766452","0.1750118246","0.2900415689","0.3520186383","","","","","","","","72","H","0","img/none_selected.jpg","","96","main_expt"
"","bandit","176","814633","0.0-137.0-0.0","60937790","wem/bandit_either_2","A1FQK51ECARQNK","either","3","5","","","","","","","1","0","0","0.3737721809","","0.8","0.6","0.2","0.4","","","","","0.3737721809","0.2433812568","0.3136050561","0.342216001","","","","","","","","72","H","0","img/none_selected.jpg","","97","main_expt"
"","bandit","177","816218","0.0-138.0-0.0","60937790","wem/bandit_either_2","A1FQK51ECARQNK","either","3","47","","","","","","","0","0","1","","0.1834100281","0.8","0.6","0.2","0.4","0.3662625892","0.1834100281","0.3236610102","0.3775958225","","","","","","","","","","","","74","J","1","","","98","main_expt"
"","bandit","178","817812","0.0-139.0-0.0","60937790","wem/bandit_either_2","A1FQK51ECARQNK","either","3","56","","","","","","","0","0","1","0.3912879072","","0.8","0.6","0.2","0.4","","","","","0.3912879072","0.146161558","0.3116662608","0.3490624926","","","","","","","","72","H","0","img/none_selected.jpg","","99","main_expt"
"","bandit","179","819438","0.0-140.0-0.0","60937790","wem/bandit_either_2","A1FQK51ECARQNK","either","3","90","","","","","","","0","0","1","","0.3806420769","0.8","0.6","0.2","0.4","0.3916888764","0.1186266926","0.3806420769","0.3418910903","","","","","","","","","","","","75","K","2","","","100","main_expt"
"","bandit","180","821321","0.0-141.0-0.0","60937790","wem/bandit_either_2","A1FQK51ECARQNK","either","3","340","","","","","","","0","0","1","","0.3544055354","0.8","0.6","0.2","0.4","0.3803758031","0.1467879228","0.3825052475","0.3544055354","","","","","","","","","","","","76","L","3","","","101","main_expt"
"","bandit","181","822930","0.0-142.0-0.0","60937790","wem/bandit_either_2","A1FQK51ECARQNK","either","3","63","","","","","","","0","1","0","","0.3580864163","0.8","0.6","0.2","0.4","0.3685266224","0.1336514036","0.3799327693","0.3580864163","","","","","","","","","","","","76","L","3","","","102","main_expt"
"","bandit","182","824654","0.0-143.0-0.0","60937790","wem/bandit_either_2","A1FQK51ECARQNK","either","3","181","","","","","","","0","0","1","","0.3502018886","0.8","0.6","0.2","0.4","0.3754978655","0.1325092095","0.3502018886","0.336528594","","","","","","","","","","","","75","K","2","","","103","main_expt"
"","bandit","183","826200","0.0-144.0-0.0","60937790","wem/bandit_either_2","A1FQK51ECARQNK","either","3","7","","","","","","","0","0","1","","0.3443431466","0.8","0.6","0.2","0.4","0.4033056484","0.1162839287","0.3443431466","0.3190078166","","","","","","","","","","","","75","K","2","","","104","main_expt"
"","bandit","184","827778","0.0-145.0-0.0","60937790","wem/bandit_either_2","A1FQK51ECARQNK","either","3","37","","","","","","","0","0","1","","0.3551378046","0.8","0.6","0.2","0.4","0.3617388181","0.115620258","0.3551378046","0.3100940773","","","","","","","","","","","","75","K","2","","","105","main_expt"
"","bandit","185","829440","0.0-146.0-0.0","60937790","wem/bandit_either_2","A1FQK51ECARQNK","either","3","114","","","","","","","0","0","1","0.3177956882","","0.8","0.6","0.2","0.4","","","","","0.3656875331","0.1102569517","0.3177956882","0.2964842485","","","","","","","","75","K","2","","","106","main_expt"
"","bandit","186","831116","0.0-147.0-0.0","60937790","wem/bandit_either_2","A1FQK51ECARQNK","either","3","147","","","","","","","0","0","1","0.3478183852","","0.8","0.6","0.2","0.4","","","","","0.3478183852","0.110599846","0.3463124521","0.3224579283","","","","","","","","72","H","0","img/none_selected.jpg","","107","main_expt"
"","bandit","187","832789","0.0-148.0-0.0","60937790","wem/bandit_either_2","A1FQK51ECARQNK","either","3","139","","","","","","","0","0","1","0.1647947233","","0.8","0.6","0.2","0.4","","","","","0.3715517583","0.1647947233","0.330790185","0.3365568187","","","","","","","","74","J","1","","","108","main_expt"
"","bandit","188","834341","0.0-149.0-0.0","60937790","wem/bandit_either_2","A1FQK51ECARQNK","either","3","23","","","","","","","0","0","1","","0.3259779601","0.8","0.6","0.2","0.4","0.3713851569","0.146095753","0.3259779601","0.3200824859","","","","","","","","","","","","75","K","2","","","109","main_expt"
"","bandit","189","836726","0.0-150.0-0.0","60937790","wem/bandit_either_2","A1FQK51ECARQNK","either","3","844","","","","","","","0","0","1","0.3401672382","","0.8","0.6","0.2","0.4","","","","","0.3401672382","0.1691954855","0.3169053314","0.3179471713","","","","","","","","72","H","0","img/none_selected.jpg","","110","main_expt"
"","bandit","190","838337","0.0-151.0-0.0","60937790","wem/bandit_either_2","A1FQK51ECARQNK","either","3","66","","","","","","","0","0","1","0.1690298198","","0.8","0.6","0.2","0.4","","","","","0.3242328008","0.1690298198","0.342138516","0.3168158386","","","","","","","","74","J","1","","","111","main_expt"
"","bandit","191","839915","0.0-152.0-0.0","60937790","wem/bandit_either_2","A1FQK51ECARQNK","either","3","50","","","","","","","0","0","1","0.2196992501","","0.8","0.6","0.2","0.4","","","","","0.2991119965","0.2196992501","0.3597886873","0.3551606626","","","","","","","","74","J","1","","","112","main_expt"
"","bandit","192","1410062","0.0-153.0-0.0","60937790","wem/bandit_either_2","A1FQK51ECARQNK","either","3","568607","","","","","","","1","0","0","0.3364281798","","0.8","0.6","0.2","0.4","","","","","0.3364281798","0.2723467559","0.3580549124","0.3615444015","","","","","","","","72","H","0","img/none_selected.jpg","","113","main_expt"
"","bandit","193","1412168","0.0-154.0-0.0","60937790","wem/bandit_either_2","A1FQK51ECARQNK","either","3","568","","","","","","","0","0","1","","0.2470985199","0.8","0.6","0.2","0.4","0.3495122724","0.2470985199","0.3556181037","0.4043222556","","","","","","","","","","","","74","J","1","","","114","main_expt"
"","bandit","194","1414131","0.0-155.0-0.0","60937790","wem/bandit_either_2","A1FQK51ECARQNK","either","3","436","","","","","","","0","0","1","0.324938203","","0.8","0.6","0.2","0.4","","","","","0.324938203","0.2482590513","0.3489042174","0.4179696435","","","","","","","","72","H","0","img/none_selected.jpg","","115","main_expt"
"","bandit","195","1416044","0.0-156.0-0.0","60937790","wem/bandit_either_2","A1FQK51ECARQNK","either","3","356","","","","","","","0","0","1","","0.3466245191","0.8","0.6","0.2","0.4","0.3227512736","0.1992012358","0.3466245191","0.4324393975","","","","","","","","","","","","75","K","2","","","116","main_expt"
"","bandit","196","1417976","0.0-157.0-0.0","60937790","wem/bandit_either_2","A1FQK51ECARQNK","either","3","398","","","","","","","0","0","1","0.3581754781","","0.8","0.6","0.2","0.4","","","","","0.2585209305","0.216355905","0.3581754781","0.4290779421","","","","","","","","75","K","2","","","117","main_expt"
"","bandit","197","1419879","0.0-158.0-0.0","60937790","wem/bandit_either_2","A1FQK51ECARQNK","either","3","353","","","","","","","0","0","1","0.2817260076","","0.8","0.6","0.2","0.4","","","","","0.2817260076","0.1715453935","0.283939031","0.4459264202","","","","","","","","72","H","0","img/none_selected.jpg","","118","main_expt"
"","bandit","198","1421717","0.0-159.0-0.0","60937790","wem/bandit_either_2","A1FQK51ECARQNK","either","3","302","","","","","","","0","1","0","","0.436995295","0.8","0.6","0.2","0.4","0.328214026","0.1843456939","0.2992634423","0.436995295","","","","","","","","","","","","76","L","3","","","119","main_expt"
"","bandit","199","1423622","0.0-160.0-0.0","60937790","wem/bandit_either_2","A1FQK51ECARQNK","either","3","374","","","","","","","0","0","1","0.4151314625","","0.8","0.6","0.2","0.4","","","","","0.3355603121","0.1848061615","0.1878150733","0.4151314625","","","","","","","","76","L","3","","","120","main_expt"
"","bandit","200","1425566","0.0-161.0-0.0","60937790","wem/bandit_either_2","A1FQK51ECARQNK","either","3","397","","","","","","","0","0","1","0.3829587724","","0.8","0.6","0.2","0.4","","","","","0.3829587724","0.1679578636","0.1447458933","0.4384064527","","","","","","","","72","H","0","img/none_selected.jpg","","121","main_expt"
"","bandit","201","1427537","0.0-162.0-0.0","60937790","wem/bandit_either_2","A1FQK51ECARQNK","either","3","426","","","","","","","0","0","1","","0.197295971","0.8","0.6","0.2","0.4","0.3995678287","0.197295971","0.1176060398","0.4417589501","","","","","","","","","","","","74","J","1","","","122","main_expt"
"","bandit","202","1429597","0.0-163.0-0.0","60937790","wem/bandit_either_2","A1FQK51ECARQNK","either","3","406","","","","","","","0","0","1","","0.2184653352","0.8","0.6","0.2","0.4","0.3656739583","0.2184653352","0.1097677055","0.4017154396","","","","","","","","","","","","74","J","1","","","123","main_expt"
"","bandit","203","1431461","0.0-164.0-0.0","60937790","wem/bandit_either_2","A1FQK51ECARQNK","either","3","335","","","","","","","0","1","0","","0.2147868977","0.8","0.6","0.2","0.4","0.3862549257","0.2147868977","0.08048168986","0.3619070526","","","","","","","","","","","","74","J","1","","","124","main_expt"
"","bandit","204","1433388","0.0-165.0-0.0","60937790","wem/bandit_either_2","A1FQK51ECARQNK","either","3","385","","","","","","","1","0","0","0.3593796239","","0.8","0.6","0.2","0.4","","","","","0.3593796239","0.1667936559","0.07842900555","0.3567490645","","","","","","","","72","H","0","img/none_selected.jpg","","125","main_expt"
"","bandit","205","1435242","0.0-166.0-0.0","60937790","wem/bandit_either_2","A1FQK51ECARQNK","either","3","320","","","","","","","1","0","0","0.3558473019","","0.8","0.6","0.2","0.4","","","","","0.3413194209","0.1453295256","0.08318363027","0.3558473019","","","","","","","","76","L","3","","","126","main_expt"
"","bandit","206","1437084","0.0-167.0-0.0","60937790","wem/bandit_either_2","A1FQK51ECARQNK","either","3","294","","","","","","","1","0","0","0.3369929262","","0.8","0.6","0.2","0.4","","","","","0.3369929262","0.1635755653","0.06812438963","0.3543069734","","","","","","","","72","H","0","img/none_selected.jpg","","127","main_expt"
"","bandit","207","1439222","0.0-168.0-0.0","60937790","wem/bandit_either_2","A1FQK51ECARQNK","either","3","595","","","","","","","1","0","0","0.3328374851","","0.8","0.6","0.2","0.4","","","","","0.2922989636","0.1872639566","0.08303766286","0.3328374851","","","","","","","","76","L","3","","","128","main_expt"
"","bandit","208","1441101","0.0-169.0-0.0","60937790","wem/bandit_either_2","A1FQK51ECARQNK","either","3","336","","","","","","","0","0","1","0.2032718864","","0.8","0.6","0.2","0.4","","","","","0.3095146075","0.2032718864","0.09047360051","0.3238683282","","","","","","","","74","J","1","","","129","main_expt"
"","bandit","209","1443731","0.0-170.0-0.0","60937790","wem/bandit_either_2","A1FQK51ECARQNK","either","3","1079","","","","","","","1","0","0","0.2025864764","","0.8","0.6","0.2","0.4","","","","","0.3068425872","0.2025864764","0.131542256","0.2750329062","","","","","","","","74","J","1","","","130","main_expt"
"","bandit","210","1445573","0.0-171.0-0.0","60937790","wem/bandit_either_2","A1FQK51ECARQNK","either","3","301","","","","","","","0","0","1","0.2751886228","","0.8","0.6","0.2","0.4","","","","","0.3112504131","0.2158584071","0.1492019489","0.2751886228","","","","","","","","76","L","3","","","131","main_expt"
"","bandit","211","1447581","0.0-172.0-0.0","60937790","wem/bandit_either_2","A1FQK51ECARQNK","either","3","386","","","","","","","0","0","1","0.3595653039","","0.8","0.6","0.2","0.4","","","","","0.3595653039","0.2105840197","0.1571188116","0.2729729886","","","","","","","","72","H","0","img/none_selected.jpg","","132","main_expt"
"","bandit","212","1449486","0.0-173.0-0.0","60937790","wem/bandit_either_2","A1FQK51ECARQNK","either","3","377","","","","","","","0","1","0","","0.3873527377","0.8","0.6","0.2","0.4","0.3873527377","0.2328486735","0.2021073832","0.3248088544","","","","","","","","","","","","72","H","0","img/none_selected.jpg","","133","main_expt"
"","bandit","213","1451398","0.0-174.0-0.0","60937790","wem/bandit_either_2","A1FQK51ECARQNK","either","3","372","","","","","","","0","1","0","","0.3973884711","0.8","0.6","0.2","0.4","0.3973884711","0.2589092944","0.2693148074","0.3596446835","","","","","","","","","","","","72","H","0","img/none_selected.jpg","","134","main_expt"
"","bandit","214","1453391","0.0-175.0-0.0","60937790","wem/bandit_either_2","A1FQK51ECARQNK","either","3","452","","","","","","","0","0","1","0.318377279","","0.8","0.6","0.2","0.4","","","","","0.4080523157","0.2637326353","0.2625780805","0.318377279","","","","","","","","76","L","3","","","135","main_expt"
"","bandit","215","1454984","0.0-176.0-0.0","60937790","wem/bandit_either_2","A1FQK51ECARQNK","either","3","44","","","","","","","0","0","1","0.2718680576","","0.8","0.6","0.2","0.4","","","","","0.4176503084","0.2718680576","0.2981707722","0.3160887017","","","","","","","","74","J","1","","","136","main_expt"
"","bandit","216","1456826","0.0-177.0-0.0","60937790","wem/bandit_either_2","A1FQK51ECARQNK","either","3","290","","","","","","","0","0","1","","0.2883225013","0.8","0.6","0.2","0.4","0.3859803947","0.2919957672","0.3148158286","0.2883225013","","","","","","","","","","","","76","L","3","","","137","main_expt"
"","bandit","217","1458745","0.0-178.0-0.0","60937790","wem/bandit_either_2","A1FQK51ECARQNK","either","3","383","","","","","","","0","0","1","0.3193993407","","0.8","0.6","0.2","0.4","","","","","0.358492916","0.3193993407","0.3111523267","0.3009152141","","","","","","","","74","J","1","","","138","main_expt"
"","bandit","218","1460624","0.0-179.0-0.0","60937790","wem/bandit_either_2","A1FQK51ECARQNK","either","3","339","","","","","","","0","0","1","","0.3404434035","0.8","0.6","0.2","0.4","0.3608756281","0.3404434035","0.3034593298","0.293720077","","","","","","","","","","","","74","J","1","","","139","main_expt"
"","bandit","219","1462621","0.0-180.0-0.0","60937790","wem/bandit_either_2","A1FQK51ECARQNK","either","3","399","","","","","","","0","0","1","0.3421836092","","0.8","0.6","0.2","0.4","","","","","0.3421836092","0.3278052243","0.2507495005","0.286059761","","","","","","","","72","H","0","img/none_selected.jpg","","140","main_expt"
"","bandit","220","1464413","0.0-181.0-0.0","60937790","wem/bandit_either_2","A1FQK51ECARQNK","either","3","265","","","","","","","0","0","1","","0.2220694513","0.8","0.6","0.2","0.4","0.3737340371","0.3038906839","0.2220694513","0.2931724706","","","","","","","","","","","","75","K","2","","","141","main_expt"
"","bandit","221","1466343","0.0-182.0-0.0","60937790","wem/bandit_either_2","A1FQK51ECARQNK","either","3","383","","","","","","","1","0","0","0.3461121542","","0.8","0.6","0.2","0.4","","","","","0.3461121542","0.2924195757","0.2119249064","0.2182180164","","","","","","","","72","H","0","img/none_selected.jpg","","142","main_expt"
"","bandit","222","1468248","0.0-183.0-0.0","60937790","wem/bandit_either_2","A1FQK51ECARQNK","either","3","372","","","","","","","0","0","1","0.3305931074","","0.8","0.6","0.2","0.4","","","","","0.3305931074","0.2816149275","0.2665135591","0.2015475508","","","","","","","","72","H","0","img/none_selected.jpg","","143","main_expt"
"","bandit","223","1470218","0.0-184.0-0.0","60937790","wem/bandit_either_2","A1FQK51ECARQNK","either","3","435","","","","","","","0","0","1","","0.2074070562","0.8","0.6","0.2","0.4","0.3561039987","0.2355525614","0.2854155153","0.2074070562","","","","","","","","","","","","76","L","3","","","144","main_expt"
"","bandit","224","1472083","0.0-185.0-0.0","60937790","wem/bandit_either_2","A1FQK51ECARQNK","either","3","324","","","","","","","0","1","0","","0.2521048148","0.8","0.6","0.2","0.4","0.3648023512","0.2185662272","0.2521048148","0.1415368311","","","","","","","","","","","","75","K","2","","","145","main_expt"
"","bandit","225","1473885","0.0-186.0-0.0","60937790","wem/bandit_either_2","A1FQK51ECARQNK","either","3","264","","","","","","","0","0","1","0.3450315","","0.8","0.6","0.2","0.4","","","","","0.3450315","0.2209315791","0.2321266643","0.1549520657","","","","","","","","72","H","0","img/none_selected.jpg","","146","main_expt"
"","bandit","226","1475807","0.0-187.0-0.0","60937790","wem/bandit_either_2","A1FQK51ECARQNK","either","3","376","","","","","","","0","0","1","","0.2720321141","0.8","0.6","0.2","0.4","0.2720321141","0.2889766311","0.3159383216","0.1469310363","","","","","","","","","","","","72","H","0","img/none_selected.jpg","","147","main_expt"
"","bandit","227","1477810","0.0-188.0-0.0","60937790","wem/bandit_either_2","A1FQK51ECARQNK","either","3","457","","","","","","","1","0","0","0.2598972664","","0.8","0.6","0.2","0.4","","","","","0.2598972664","0.2859466156","0.2673485129","0.1332828417","","","","","","","","72","H","0","img/none_selected.jpg","","148","main_expt"
"","bandit","228","1479698","0.0-189.0-0.0","60937790","wem/bandit_either_2","A1FQK51ECARQNK","either","3","343","","","","","","","1","0","0","0.2588478233","","0.8","0.6","0.2","0.4","","","","","0.2343157719","0.2588478233","0.3348600541","0.1102010463","","","","","","","","74","J","1","","","149","main_expt"
"","bandit","229","1482142","0.0-190.0-0.0","60937790","wem/bandit_either_2","A1FQK51ECARQNK","either","3","904","","","","","","","0","1","0","","0.3659656834","0.8","0.6","0.2","0.4","0.2451363599","0.2224653457","0.3659656834","0.1356103494","","","","","","","","","","","","75","K","2","","","150","main_expt"
"","bandit","230","1483872","0.0-191.0-0.0","60937790","wem/bandit_either_2","A1FQK51ECARQNK","either","3","177","","","","","","","0","0","1","0.1621229287","","0.8","0.6","0.2","0.4","","","","","0.2053737132","0.2387237716","0.36397653","0.1621229287","","","","","","","","76","L","3","","","151","main_expt"
"","bandit","231","1485703","0.0-192.0-0.0","60937790","wem/bandit_either_2","A1FQK51ECARQNK","either","3","291","","","","","","","0","0","1","","0.2519133504","0.8","0.6","0.2","0.4","0.2396242378","0.2519133504","0.3710672623","0.1412745606","","","","","","","","","","","","74","J","1","","","152","main_expt"
"","bandit","232","1487642","0.0-193.0-0.0","60937790","wem/bandit_either_2","A1FQK51ECARQNK","either","3","396","","","","","","","0","0","1","","0.3828607765","0.8","0.6","0.2","0.4","0.2923277395","0.3078499427","0.3828607765","0.1707580034","","","","","","","","","","","","75","K","2","","","153","main_expt"
"","bandit","233","1489523","0.0-194.0-0.0","60937790","wem/bandit_either_2","A1FQK51ECARQNK","either","3","351","","","","","","","0","0","1","","0.3166515581","0.8","0.6","0.2","0.4","0.3166515581","0.3283820497","0.3526468527","0.1717455462","","","","","","","","","","","","72","H","0","img/none_selected.jpg","","154","main_expt"
"","bandit","234","1491361","0.0-195.0-0.0","60937790","wem/bandit_either_2","A1FQK51ECARQNK","either","3","301","","","","","","","0","0","1","","0.3194616596","0.8","0.6","0.2","0.4","0.3194616596","0.3303057687","0.3865981945","0.1785539081","","","","","","","","","","","","72","H","0","img/none_selected.jpg","","155","main_expt"
"","bandit","235","1493080","0.0-196.0-0.0","60937790","wem/bandit_either_2","A1FQK51ECARQNK","either","3","164","","","","","","","0","1","0","","0.4328422877","0.8","0.6","0.2","0.4","0.3767011333","0.3178912443","0.4328422877","0.2175815231","","","","","","","","","","","","75","K","2","","","156","main_expt"
"","bandit","236","1495183","0.0-197.0-0.0","60937790","wem/bandit_either_2","A1FQK51ECARQNK","either","3","556","","","","","","","0","0","1","0.216674397","","0.8","0.6","0.2","0.4","","","","","0.3853144204","0.3236874272","0.4224906378","0.216674397","","","","","","","","76","L","3","","","157","main_expt"
"","bandit","237","1496965","0.0-198.0-0.0","60937790","wem/bandit_either_2","A1FQK51ECARQNK","either","3","232","","","","","","","0","1","0","","0.3731337511","0.8","0.6","0.2","0.4","0.3519128793","0.3731337511","0.4428847078","0.2184316938","","","","","","","","","","","","74","J","1","","","158","main_expt"
"","bandit","238","1498834","0.0-199.0-0.0","60937790","wem/bandit_either_2","A1FQK51ECARQNK","either","3","337","","","","","","","0","1","0","","0.3758107074","0.8","0.6","0.2","0.4","0.3255157266","0.3758107074","0.4498083842","0.2603966468","","","","","","","","","","","","74","J","1","","","159","main_expt"
"","bandit","239","1500650","0.0-200.0-0.0","60937790","wem/bandit_either_2","A1FQK51ECARQNK","either","3","285","","","","","","","0","0","1","","0.3494215766","0.8","0.6","0.2","0.4","0.379238532","0.3494215766","0.4319550234","0.2242017374","","","","","","","","","","","","74","J","1","","","160","main_expt"
"","bandit","240","1502494","0.0-201.0-0.0","60937790","wem/bandit_either_2","A1FQK51ECARQNK","either","3","304","","","","","","","0","1","0","","0.4417514389","0.8","0.6","0.2","0.4","0.3776335756","0.3327111917","0.4417514389","0.2014027125","","","","","","","","","","","","75","K","2","","","161","main_expt"
"","bandit","241","1504419","0.0-202.0-0.0","60937790","wem/bandit_either_2","A1FQK51ECARQNK","either","3","383","","","","","","","0","0","1","0.2955751891","","0.8","0.6","0.2","0.4","","","","","0.2955751891","0.3171011618","0.4081293495","0.2038621466","","","","","","","","72","H","0","img/none_selected.jpg","","162","main_expt"
"","bandit","242","1505966","0.0-203.0-0.0","60937790","wem/bandit_either_2","A1FQK51ECARQNK","either","3","4","","","","","","","0","0","1","","0.4265776113","0.8","0.6","0.2","0.4","0.30851492","0.364183239","0.4265776113","0.1238136799","","","","","","","","","","","","75","K","2","","","163","main_expt"
"","bandit","243","1507581","0.0-204.0-0.0","60937790","wem/bandit_either_2","A1FQK51ECARQNK","either","3","62","","","","","","","0","0","1","0.3074756362","","0.8","0.6","0.2","0.4","","","","","0.3074756362","0.3917374524","0.427472809","0.1104941302","","","","","","","","72","H","0","img/none_selected.jpg","","164","main_expt"
"","bandit","244","1509621","0.0-205.0-0.0","60937790","wem/bandit_either_2","A1FQK51ECARQNK","either","3","512","","","","","","","0","1","0","","0.4016343469","0.8","0.6","0.2","0.4","0.2743039079","0.3629360172","0.4016343469","0.1099358877","","","","","","","","","","","","75","K","2","","","165","main_expt"
"","bandit","245","1511349","0.0-206.0-0.0","60937790","wem/bandit_either_2","A1FQK51ECARQNK","either","3","184","","","","","","","0","0","1","","0.3578169927","0.8","0.6","0.2","0.4","0.2900226329","0.3697042915","0.3578169927","0.08082918558","","","","","","","","","","","","75","K","2","","","166","main_expt"
"","bandit","246","1513239","0.0-207.0-0.0","60937790","wem/bandit_either_2","A1FQK51ECARQNK","either","3","352","","","","","","","0","0","1","0.08539074978","","0.8","0.6","0.2","0.4","","","","","0.3444017494","0.3626443337","0.3346076013","0.08539074978","","","","","","","","76","L","3","","","167","main_expt"
"","bandit","247","1514834","0.0-208.0-0.0","60937790","wem/bandit_either_2","A1FQK51ECARQNK","either","3","58","","","","","","","1","0","0","0.3488380128","","0.8","0.6","0.2","0.4","","","","","0.3934904689","0.3488380128","0.36326211","0.1307687804","","","","","","","","74","J","1","","","168","main_expt"
"","bandit","248","1516850","0.0-209.0-0.0","60937790","wem/bandit_either_2","A1FQK51ECARQNK","either","3","478","","","","","","","0","0","1","","0.09435724838","0.8","0.6","0.2","0.4","0.3712778229","0.3338465455","0.3389060657","0.09435724838","","","","","","","","","","","","76","L","3","","","169","main_expt"
"","bandit","249","1518786","0.0-210.0-0.0","60937790","wem/bandit_either_2","A1FQK51ECARQNK","either","3","400","","","","","","","0","0","1","","0.09371103674","0.8","0.6","0.2","0.4","0.3348119161","0.3675902536","0.3820287301","0.09371103674","","","","","","","","","","","","76","L","3","","","170","main_expt"
"","bandit","250","1520600","0.0-211.0-0.0","60937790","wem/bandit_either_2","A1FQK51ECARQNK","either","3","199","","","","","","","0","0","1","","0.0912992704","0.8","0.6","0.2","0.4","0.3697689907","0.3663425941","0.3738350687","0.0912992704","","","","","","","","","","","","76","L","3","","","171","main_expt"
"","bandit","251","1522699","0.0-212.0-0.0","60937790","wem/bandit_either_2","A1FQK51ECARQNK","either","3","555","","","","","","","0","0","1","0.3438364448","","0.8","0.6","0.2","0.4","","","","","0.3438364448","0.3571019768","0.3449486646","0.1053216192","","","","","","","","72","H","0","img/none_selected.jpg","","172","main_expt"
"","bandit","252","1524326","0.0-213.0-0.0","60937790","wem/bandit_either_2","A1FQK51ECARQNK","either","3","91","","","","","","","0","0","1","0.3754463001","","0.8","0.6","0.2","0.4","","","","","0.4064517123","0.383943734","0.3754463001","0.1119971747","","","","","","","","75","K","2","","","173","main_expt"
"","bandit","253","1526127","0.0-214.0-0.0","60937790","wem/bandit_either_2","A1FQK51ECARQNK","either","3","256","","","","","","","1","0","0","0.378453819","","0.8","0.6","0.2","0.4","","","","","0.4266345201","0.378453819","0.3983783957","0.1049574405","","","","","","","","74","J","1","","","174","main_expt"
"","bandit","254","1527888","0.0-215.0-0.0","60937790","wem/bandit_either_2","A1FQK51ECARQNK","either","3","212","","","","","","","0","0","1","","0.3577460836","0.8","0.6","0.2","0.4","0.4413212306","0.3577460836","0.4176958341","0.07351671593","","","","","","","","","","","","74","J","1","","","175","main_expt"
"","bandit","255","1529660","0.0-216.0-0.0","60937790","wem/bandit_either_2","A1FQK51ECARQNK","either","3","227","","","","","","","0","0","1","","0.4336280271","0.8","0.6","0.2","0.4","0.438548454","0.3346789668","0.4336280271","0.06097876817","","","","","","","","","","","","75","K","2","","","176","main_expt"
"","bandit","256","1531547","0.0-217.0-0.0","60937790","wem/bandit_either_2","A1FQK51ECARQNK","either","3","277","","","","","","","0","1","0","","0.3863917124","0.8","0.6","0.2","0.4","0.4350726265","0.3720341948","0.3863917124","0.05873143133","","","","","","","","","","","","75","K","2","","","177","main_expt"
"","bandit","257","1533400","0.0-218.0-0.0","60937790","wem/bandit_either_2","A1FQK51ECARQNK","either","3","301","","","","","","","0","0","1","","0.3826512014","0.8","0.6","0.2","0.4","0.4029859975","0.4243236705","0.3826512014","0.07829718294","","","","","","","","","","","","75","K","2","","","178","main_expt"
"","bandit","258","1535192","0.0-219.0-0.0","60937790","wem/bandit_either_2","A1FQK51ECARQNK","either","3","251","","","","","","","0","1","0","","0.3681046487","0.8","0.6","0.2","0.4","0.3738585124","0.4396564102","0.3681046487","0.05868413977","","","","","","","","","","","","75","K","2","","","179","main_expt"
"","bandit","259","1537109","0.0-220.0-0.0","60937790","wem/bandit_either_2","A1FQK51ECARQNK","either","3","378","","","","","","","0","1","0","","0.374340785","0.8","0.6","0.2","0.4","0.3884150149","0.4501825932","0.374340785","0.04540529238","","","","","","","","","","","","75","K","2","","","180","main_expt"
"","bandit","260","1539092","0.0-221.0-0.0","60937790","wem/bandit_either_2","A1FQK51ECARQNK","either","3","417","","","","","","","0","0","1","0.3977335033","","0.8","0.6","0.2","0.4","","","","","0.3977335033","0.4527537228","0.3844034803","0.04810206047","","","","","","","","72","H","0","img/none_selected.jpg","","181","main_expt"
"","bandit","261","1543185","0.0-222.0-0.0","60937790","wem/bandit_either_2","A1FQK51ECARQNK","either","3","2548","","","","","","","0","0","1","0.4194204302","","0.8","0.6","0.2","0.4","","","","","0.4194204302","0.4733821952","0.3569363444","0.0564969073","","","","","","","","72","H","0","img/none_selected.jpg","","182","main_expt"
"","bandit","262","1545453","0.0-223.0-0.0","60937790","wem/bandit_either_2","A1FQK51ECARQNK","either","3","714","","","","","","","0","0","1","","0.3930074682","0.8","0.6","0.2","0.4","0.4050300101","0.4741352064","0.3930074682","0.06674959941","","","","","","","","","","","","75","K","2","","","183","main_expt"
"","bandit","263","1547140","0.0-224.0-0.0","60937790","wem/bandit_either_2","A1FQK51ECARQNK","either","3","100","","","","","","","0","0","1","0.4835015011","","0.8","0.6","0.2","0.4","","","","","0.4272992256","0.4835015011","0.4105724965","0.05730522946","","","","","","","","74","J","1","","","184","main_expt"
"","bandit","264","1548835","0.0-225.0-0.0","60937790","wem/bandit_either_2","A1FQK51ECARQNK","either","3","138","","","","","","","0","1","0","","0.4213026748","0.8","0.6","0.2","0.4","0.4213026748","0.4907566516","0.4230276401","0.0759668512","","","","","","","","","","","","72","H","0","img/none_selected.jpg","","185","main_expt"
"","bandit","265","1550563","0.0-226.0-0.0","60937790","wem/bandit_either_2","A1FQK51ECARQNK","either","3","146","","","","","","","0","1","0","","0.4243078066","0.8","0.6","0.2","0.4","0.3729626057","0.4777100538","0.4243078066","0.0736669194","","","","","","","","","","","","75","K","2","","","186","main_expt"
"","bandit","266","1552106","0.0-227.0-0.0","60937790","wem/bandit_either_2","A1FQK51ECARQNK","either","3","2","","","","","","","0","1","0","","0.4022080601","0.8","0.6","0.2","0.4","0.4022080601","0.4751658893","0.419104652","0.1020870739","","","","","","","","","","","","72","H","0","img/none_selected.jpg","","187","main_expt"
"","bandit","267","1553685","0.0-228.0-0.0","60937790","wem/bandit_either_2","A1FQK51ECARQNK","either","3","49","","","","","","","0","0","1","0.4711403756","","0.8","0.6","0.2","0.4","","","","","0.4218987807","0.4711403756","0.3917910895","0.110066606","","","","","","","","74","J","1","","","188","main_expt"
"","bandit","268","1555256","0.0-229.0-0.0","60937790","wem/bandit_either_2","A1FQK51ECARQNK","either","3","24","","","","","","","0","0","1","0.3696037293","","0.8","0.6","0.2","0.4","","","","","0.4284519853","0.4848283219","0.3696037293","0.1616324423","","","","","","","","75","K","2","","","189","main_expt"
"","bandit","269","1556882","0.0-230.0-0.0","60937790","wem/bandit_either_2","A1FQK51ECARQNK","either","3","83","","","","","","","0","0","1","0.1401199573","","0.8","0.6","0.2","0.4","","","","","0.4104863902","0.4906713727","0.3722688899","0.1401199573","","","","","","","","76","L","3","","","190","main_expt"
"","bandit","270","1558533","0.0-231.0-0.0","60937790","wem/bandit_either_2","A1FQK51ECARQNK","either","3","100","","","","","","","0","1","0","","0.4071825693","0.8","0.6","0.2","0.4","0.4071825693","0.4944082075","0.3956575009","0.1782786715","","","","","","","","","","","","72","H","0","img/none_selected.jpg","","191","main_expt"
"","bandit","271","1560207","0.0-232.0-0.0","60937790","wem/bandit_either_2","A1FQK51ECARQNK","either","3","139","","","","","","","0","0","1","0.4922337742","","0.8","0.6","0.2","0.4","","","","","0.4172763132","0.4922337742","0.3843500594","0.203517815","","","","","","","","74","J","1","","","192","main_expt"
"","bandit","272","1561818","0.0-233.0-0.0","60937790","wem/bandit_either_2","A1FQK51ECARQNK","either","3","68","","","","","","","0","0","1","","0.3801723293","0.8","0.6","0.2","0.4","0.3965334946","0.4887356563","0.3801723293","0.172030281","","","","","","","","","","","","75","K","2","","","193","main_expt"
"","bandit","273","1563374","0.0-234.0-0.0","60937790","wem/bandit_either_2","A1FQK51ECARQNK","either","3","3","","","","","","","1","0","0","0.383316574","","0.8","0.6","0.2","0.4","","","","","0.383316574","0.4850955297","0.3871645121","0.1813301739","","","","","","","","72","H","0","img/none_selected.jpg","","194","main_expt"
"","bandit","274","1564978","0.0-235.0-0.0","60937790","wem/bandit_either_2","A1FQK51ECARQNK","either","3","55","","","","","","","0","1","0","","0.3633903175","0.8","0.6","0.2","0.4","0.3965345796","0.4848341758","0.3633903175","0.2284295163","","","","","","","","","","","","75","K","2","","","195","main_expt"
"","bandit","275","1566543","0.0-236.0-0.0","60937790","wem/bandit_either_2","A1FQK51ECARQNK","either","3","6","","","","","","","0","0","1","0.490049139","","0.8","0.6","0.2","0.4","","","","","0.3978469093","0.490049139","0.3811675741","0.2501246714","","","","","","","","74","J","1","","","196","main_expt"
"","bandit","276","1568158","0.0-237.0-0.0","60937790","wem/bandit_either_2","A1FQK51ECARQNK","either","3","79","","","","","","","0","0","1","0.4912643012","","0.8","0.6","0.2","0.4","","","","","0.3172926233","0.4912643012","0.3487868089","0.3150809007","","","","","","","","74","J","1","","","197","main_expt"
"","bandit","277","1569736","0.0-238.0-0.0","60937790","wem/bandit_either_2","A1FQK51ECARQNK","either","3","30","","","","","","","0","0","1","0.4793615714","","0.8","0.6","0.2","0.4","","","","","0.3113170709","0.4793615714","0.2986771554","0.3442077965","","","","","","","","74","J","1","","","198","main_expt"
"","bandit","278","1571335","0.0-239.0-0.0","60937790","wem/bandit_either_2","A1FQK51ECARQNK","either","3","41","","","","","","","1","0","0","0.4661622676","","0.8","0.6","0.2","0.4","","","","","0.3066116159","0.4661622676","0.3481418533","0.3675051223","","","","","","","","74","J","1","","","199","main_expt"
"","bandit","279","1572902","0.0-240.0-0.0","60937790","wem/bandit_either_2","A1FQK51ECARQNK","either","3","19","","","","","","","0","0","1","0.353319573","","0.8","0.6","0.2","0.4","","","","","0.2521122026","0.4479238565","0.353319573","0.3044821291","","","","","","","","75","K","2","","","200","main_expt"
"","bandit","280","1574468","0.0-241.0-0.0","60937790","wem/bandit_either_2","A1FQK51ECARQNK","either","3","18","","","","","","","0","0","1","0.4429166455","","0.8","0.6","0.2","0.4","","","","","0.2679963248","0.4429166455","0.3676338631","0.3013824411","","","","","","","","74","J","1","","","201","main_expt"
"","bandit","281","1576132","0.0-242.0-0.0","60937790","wem/bandit_either_2","A1FQK51ECARQNK","either","3","112","","","","","","","0","0","1","","0.442820363","0.8","0.6","0.2","0.4","0.2076546236","0.442820363","0.311657493","0.3001954661","","","","","","","","","","","","74","J","1","","","202","main_expt"
"","bandit","282","1577709","0.0-243.0-0.0","60937790","wem/bandit_either_2","A1FQK51ECARQNK","either","3","33","","","","","","","0","0","1","","0.3189156814","0.8","0.6","0.2","0.4","0.1881707852","0.4539008368","0.3364041998","0.3189156814","","","","","","","","","","","","76","L","3","","","203","main_expt"
"","bandit","283","1579271","0.0-244.0-0.0","60937790","wem/bandit_either_2","A1FQK51ECARQNK","either","3","9","","","","","","","1","0","0","0.4163307037","","0.8","0.6","0.2","0.4","","","","","0.2057853427","0.4163307037","0.3148670147","0.3162062407","","","","","","","","74","J","1","","","204","main_expt"
"","bandit","284","1580837","0.0-245.0-0.0","60937790","wem/bandit_either_2","A1FQK51ECARQNK","either","3","13","","","","","","","1","0","0","0.4045388199","","0.8","0.6","0.2","0.4","","","","","0.2564451259","0.4045388199","0.3293187519","0.347278619","","","","","","","","74","J","1","","","205","main_expt"
"","bandit","285","1582601","0.0-246.0-0.0","60937790","wem/bandit_either_2","A1FQK51ECARQNK","either","3","202","","","","","","","0","1","0","","0.4083422121","0.8","0.6","0.2","0.4","0.3082896296","0.4083422121","0.2705077244","0.2970129147","","","","","","","","","","","","74","J","1","","","206","main_expt"
"","bandit","286","1584152","0.0-247.0-0.0","60937790","wem/bandit_either_2","A1FQK51ECARQNK","either","3","7","","","","","","","0","1","0","","0.3331481178","0.8","0.6","0.2","0.4","0.3235103938","0.4033585138","0.3083591011","0.3331481178","","","","","","","","","","","","76","L","3","","","207","main_expt"
"","bandit","287","1585726","0.0-248.0-0.0","60937790","wem/bandit_either_2","A1FQK51ECARQNK","either","3","15","","","","","","","0","1","0","","0.3195917859","0.8","0.6","0.2","0.4","0.3563539536","0.3753320851","0.2489273718","0.3195917859","","","","","","","","","","","","76","L","3","","","208","main_expt"
"","bandit","288","1587262","0.0-249.0-0.0","60937790","wem/bandit_either_2","A1FQK51ECARQNK","either","3","6","","","","","","","0","1","0","","0.3642345195","0.8","0.6","0.2","0.4","0.3821305916","0.3864970555","0.2224321457","0.3642345195","","","","","","","","","","","","76","L","3","","","209","main_expt"
"","bandit","289","1588837","0.0-250.0-0.0","60937790","wem/bandit_either_2","A1FQK51ECARQNK","either","3","19","","","","","","","0","0","1","","0.3518797164","0.8","0.6","0.2","0.4","0.4067483812","0.3894881908","0.2184729634","0.3518797164","","","","","","","","","","","","76","L","3","","","210","main_expt"
"","bandit","290","1590544","0.0-251.0-0.0","60937790","wem/bandit_either_2","A1FQK51ECARQNK","either","3","158","","","","","","","1","0","0","0.376825818","","0.8","0.6","0.2","0.4","","","","","0.376825818","0.4052823736","0.2178464352","0.3781537602","","","","","","","","72","H","0","img/none_selected.jpg","","211","main_expt"
"","bandit","291","1592102","0.0-252.0-0.0","60937790","wem/bandit_either_2","A1FQK51ECARQNK","either","3","7","","","","","","","1","0","0","0.3783189977","","0.8","0.6","0.2","0.4","","","","","0.3481764155","0.3783189977","0.1644702768","0.3773353051","","","","","","","","74","J","1","","","212","main_expt"
"","bandit","292","1593763","0.0-253.0-0.0","60937790","wem/bandit_either_2","A1FQK51ECARQNK","either","3","118","","","","","","","0","0","1","0.3804187243","","0.8","0.6","0.2","0.4","","","","","0.3239198888","0.3804187243","0.1271660564","0.3448860985","","","","","","","","74","J","1","","","213","main_expt"
"","bandit","293","1595360","0.0-254.0-0.0","60937790","wem/bandit_either_2","A1FQK51ECARQNK","either","3","51","","","","","","","1","0","0","0.3964056757","","0.8","0.6","0.2","0.4","","","","","0.3592643085","0.3964056757","0.1368129038","0.3622000499","","","","","","","","74","J","1","","","214","main_expt"
"","bandit","294","1596999","0.0-255.0-0.0","60937790","wem/bandit_either_2","A1FQK51ECARQNK","either","3","79","","","","","","","1","0","0","0.3939862607","","0.8","0.6","0.2","0.4","","","","","0.3482739819","0.3939862607","0.07615368859","0.3408682726","","","","","","","","74","J","1","","","215","main_expt"
"","bandit","295","1598556","0.0-256.0-0.0","60937790","wem/bandit_either_2","A1FQK51ECARQNK","either","3","7","","","","","","","0","1","0","","0.4062496234","0.8","0.6","0.2","0.4","0.2972527025","0.4062496234","0.07711559412","0.328819006","","","","","","","","","","","","74","J","1","","","216","main_expt"
"","bandit","296","1600116","0.0-257.0-0.0","60937790","wem/bandit_either_2","A1FQK51ECARQNK","either","3","13","","","","","","","0","0","1","","0.07728173513","0.8","0.6","0.2","0.4","0.2850944341","0.3440498305","0.07728173513","0.3229374792","","","","","","","","","","","","75","K","2","","","217","main_expt"
"","bandit","297","1601763","0.0-258.0-0.0","60937790","wem/bandit_either_2","A1FQK51ECARQNK","either","3","104","","","","","","","0","0","1","0.2483413171","","0.8","0.6","0.2","0.4","","","","","0.2483413171","0.3198020565","0.07919919155","0.3616220652","","","","","","","","72","H","0","img/none_selected.jpg","","218","main_expt"
"","bandit","298","1603435","0.0-259.0-0.0","60937790","wem/bandit_either_2","A1FQK51ECARQNK","either","3","111","","","","","","","1","0","0","0.3591176528","","0.8","0.6","0.2","0.4","","","","","0.2680513607","0.3078290176","0.1270410367","0.3591176528","","","","","","","","76","L","3","","","219","main_expt"
"","bandit","299","1605054","0.0-260.0-0.0","60937790","wem/bandit_either_2","A1FQK51ECARQNK","either","3","64","","","","","","","0","0","1","","0.2758994579","0.8","0.6","0.2","0.4","0.304668496","0.2961895162","0.1117499599","0.2758994579","","","","","","","","","","","","76","L","3","","","220","main_expt"
"","bandit","300","1606633","0.0-261.0-0.0","60937790","wem/bandit_either_2","A1FQK51ECARQNK","either","3","8","","","","","","","0","0","1","0.1186324211","","0.8","0.6","0.2","0.4","","","","","0.2773284289","0.2658603678","0.1186324211","0.3119987931","","","","","","","","75","K","2","","","221","main_expt"
"","bandit","301","1608289","0.0-262.0-0.0","60937790","wem/bandit_either_2","A1FQK51ECARQNK","either","3","102","","","","","","","1","0","0","0.3106374463","","0.8","0.6","0.2","0.4","","","","","0.2152506718","0.274695037","0.1141050397","0.3106374463","","","","","","","","76","L","3","","","222","main_expt"
"","bandit","302","1609860","0.0-263.0-0.0","60937790","wem/bandit_either_2","A1FQK51ECARQNK","either","3","21","","","","","","","0","0","1","","0.1007228699","0.8","0.6","0.2","0.4","0.2445797097","0.2210940289","0.1007228699","0.3131570504","","","","","","","","","","","","75","K","2","","","223","main_expt"
"","bandit","303","1611562","0.0-264.0-0.0","60937790","wem/bandit_either_2","A1FQK51ECARQNK","either","3","147","","","","","","","0","0","1","0.3025994915","","0.8","0.6","0.2","0.4","","","","","0.2559263424","0.1843933297","0.1380584308","0.3025994915","","","","","","","","76","L","3","","","224","main_expt"
"","bandit","304","1613108","0.0-265.0-0.0","60937790","wem/bandit_either_2","A1FQK51ECARQNK","either","3","3","","","","","","","1","0","0","0.2702522324","","0.8","0.6","0.2","0.4","","","","","0.2702522324","0.212211923","0.1393521225","0.2994132709","","","","","","","","72","H","0","img/none_selected.jpg","","225","main_expt"
"","bandit","305","1614695","0.0-266.0-0.0","60937790","wem/bandit_either_2","A1FQK51ECARQNK","either","3","46","","","","","","","0","0","1","","0.2094269877","0.8","0.6","0.2","0.4","0.2646860425","0.2315036379","0.2094269877","0.2866794375","","","","","","","","","","","","75","K","2","","","226","main_expt"
"","bandit","306","1616229","0.0-267.0-0.0","60937790","wem/bandit_either_2","A1FQK51ECARQNK","either","3","5","","","","","","","0","0","1","","0.269556559","0.8","0.6","0.2","0.4","0.269556559","0.2646353212","0.2959232149","0.2299222882","","","","","","","","","","","","72","H","0","img/none_selected.jpg","","227","main_expt"
"","bandit","307","1617810","0.0-268.0-0.0","60937790","wem/bandit_either_2","A1FQK51ECARQNK","either","3","33","","","","","","","1","0","0","0.2443517867","","0.8","0.6","0.2","0.4","","","","","0.2498152532","0.2443517867","0.374355758","0.2991813551","","","","","","","","74","J","1","","","228","main_expt"
"","bandit","308","1619434","0.0-269.0-0.0","60937790","wem/bandit_either_2","A1FQK51ECARQNK","either","3","64","","","","","","","0","0","1","","0.3876740502","0.8","0.6","0.2","0.4","0.2495566458","0.2569692975","0.3876740502","0.3295538921","","","","","","","","","","","","75","K","2","","","229","main_expt"
"","bandit","309","1620995","0.0-270.0-0.0","60937790","wem/bandit_either_2","A1FQK51ECARQNK","either","3","7","","","","","","","0","0","1","0.2713593359","","0.8","0.6","0.2","0.4","","","","","0.2134382902","0.2490290172","0.3341674595","0.2713593359","","","","","","","","76","L","3","","","230","main_expt"
"","bandit","310","1622613","0.0-271.0-0.0","60937790","wem/bandit_either_2","A1FQK51ECARQNK","either","3","44","","","","","","","0","0","1","","0.2746975787","0.8","0.6","0.2","0.4","0.2099205747","0.2368643707","0.3558281537","0.2746975787","","","","","","","","","","","","76","L","3","","","231","main_expt"
"","bandit","311","1624306","0.0-272.0-0.0","60937790","wem/bandit_either_2","A1FQK51ECARQNK","either","3","139","","","","","","","0","1","0","","0.3293076861","0.8","0.6","0.2","0.4","0.1598609145","0.2857324616","0.3293076861","0.2817934899","","","","","","","","","","","","75","K","2","","","232","main_expt"
"","bandit","312","1625893","0.0-273.0-0.0","60937790","wem/bandit_either_2","A1FQK51ECARQNK","either","3","41","","","","","","","0","0","1","0.1472569172","","0.8","0.6","0.2","0.4","","","","","0.1472569172","0.226619475","0.3271309306","0.3139736629","","","","","","","","72","H","0","img/none_selected.jpg","","233","main_expt"
"","bandit","313","1627527","0.0-274.0-0.0","60937790","wem/bandit_either_2","A1FQK51ECARQNK","either","3","72","","","","","","","0","0","1","0.1123375355","","0.8","0.6","0.2","0.4","","","","","0.1123375355","0.2448251662","0.3510228885","0.3332560948","","","","","","","","72","H","0","img/none_selected.jpg","","234","main_expt"
"","bandit","314","1629202","0.0-275.0-0.0","60937790","wem/bandit_either_2","A1FQK51ECARQNK","either","3","149","","","","","","","0","1","0","","0.1562424728","0.8","0.6","0.2","0.4","0.1562424728","0.2996798263","0.3346663699","0.3475281657","","","","","","","","","","","","72","H","0","img/none_selected.jpg","","235","main_expt"
"","bandit","315","1630806","0.0-276.0-0.0","60937790","wem/bandit_either_2","A1FQK51ECARQNK","either","3","57","","","","","","","0","0","1","","0.3170984437","0.8","0.6","0.2","0.4","0.1623269298","0.3220329496","0.332043614","0.3170984437","","","","","","","","","","","","76","L","3","","","236","main_expt"
"","bandit","316","1632365","0.0-277.0-0.0","60937790","wem/bandit_either_2","A1FQK51ECARQNK","either","3","5","","","","","","","0","1","0","","0.2780661838","0.8","0.6","0.2","0.4","0.1362759337","0.3672390457","0.2780661838","0.3611259067","","","","","","","","","","","","75","K","2","","","237","main_expt"
"","bandit","317","1634046","0.0-278.0-0.0","60937790","wem/bandit_either_2","A1FQK51ECARQNK","either","3","132","","","","","","","0","0","1","0.3702030288","","0.8","0.6","0.2","0.4","","","","","0.1282223372","0.3702030288","0.3071002506","0.3449339383","","","","","","","","74","J","1","","","238","main_expt"
"","bandit","318","1635812","0.0-279.0-0.0","60937790","wem/bandit_either_2","A1FQK51ECARQNK","either","3","217","","","","","","","0","1","0","","0.3101279526","0.8","0.6","0.2","0.4","0.08262393641","0.3486367063","0.3101279526","0.3006984684","","","","","","","","","","","","75","K","2","","","239","main_expt"
"","bandit","319","1637388","0.0-280.0-0.0","60937790","wem/bandit_either_2","A1FQK51ECARQNK","either","3","8","","","","","","","0","0","1","0.3355390738","","0.8","0.6","0.2","0.4","","","","","0.09366491666","0.3422639114","0.3071576631","0.3355390738","","","","","","","","76","L","3","","","240","main_expt"
"","bandit","320","1638943","0.0-281.0-0.0","60937790","wem/bandit_either_2","A1FQK51ECARQNK","either","3","16","","","","","","","0","0","1","","0.3213727252","0.8","0.6","0.2","0.4","0.09778426954","0.3703795114","0.3213727252","0.3513118525","","","","","","","","","","","","75","K","2","","","241","main_expt"
"","bandit","321","1640623","0.0-282.0-0.0","60937790","wem/bandit_either_2","A1FQK51ECARQNK","either","3","80","","","","","","","0","0","1","","0.3362310887","0.8","0.6","0.2","0.4","0.0684580113","0.3362310887","0.3303042821","0.2871404103","","","","","","","","","","","","74","J","1","","","242","main_expt"
"","bandit","322","1642269","0.0-283.0-0.0","60937790","wem/bandit_either_2","A1FQK51ECARQNK","either","3","102","","","","","","","0","0","1","","0.3855302341","0.8","0.6","0.2","0.4","0.05756719403","0.3855302341","0.386578507","0.2582353252","","","","","","","","","","","","74","J","1","","","243","main_expt"
"","bandit","323","1643841","0.0-284.0-0.0","60937790","wem/bandit_either_2","A1FQK51ECARQNK","either","3","8","","","","","","","0","1","0","","0.2108553612","0.8","0.6","0.2","0.4","0.07954378931","0.3504604058","0.3582196724","0.2108553612","","","","","","","","","","","","76","L","3","","","244","main_expt"
"","bandit","324","1645415","0.0-285.0-0.0","60937790","wem/bandit_either_2","A1FQK51ECARQNK","either","3","9","","","","","","","0","0","1","","0.3626170977","0.8","0.6","0.2","0.4","0.07668718344","0.3586275713","0.3626170977","0.190308294","","","","","","","","","","","","75","K","2","","","245","main_expt"
"","bandit","325","1647054","0.0-286.0-0.0","60937790","wem/bandit_either_2","A1FQK51ECARQNK","either","3","79","","","","","","","0","0","1","0.2079876503","","0.8","0.6","0.2","0.4","","","","","0.08627194322","0.3202710015","0.2778980274","0.2079876503","","","","","","","","76","L","3","","","246","main_expt"
"","bandit","326","1648645","0.0-287.0-0.0","60937790","wem/bandit_either_2","A1FQK51ECARQNK","either","3","18","","","","","","","0","0","1","0.1009858539","","0.8","0.6","0.2","0.4","","","","","0.1009858539","0.2874587678","0.2864864277","0.2053262284","","","","","","","","72","H","0","img/none_selected.jpg","","247","main_expt"
