"consent","trial_type","trial_index","time_elapsed","internal_node_id","subjID","study","MID","cond","drift","rt","responses","key_press","expt_phase","like","value","connected","gems","bombs","no_reward","GemPrChosen","BombPrChosen","GainOverPainPr_0","GainOverPainPr_1","GainOverPainPr_2","GainOverPainPr_3","LosePr_0","LosePr_1","LosePr_2","LosePr_3","WinPr_0","WinPr_1","WinPr_2","WinPr_3","Q0","Q1","Q2","gender","age","ethnicity","target","respCharCode","respKey","respChoiceNum","respChoice","practice","trial_counter","trial_label"
"INL_behavioral_consent_30min_online.html","consent","0","6336","0.0-0.0","61025547","wem/bandit_either_2","A3RIFUEQ95MR16","either","4","","","","","","","","","","","","","","","","","","","","","","","","","","","","","","","","","","","","","",""
"","survey-text","1","11378","0.0-1.0","61025547","wem/bandit_either_2","A3RIFUEQ95MR16","either","4","4035","{""Q0"":""A3RIFUEQ95MR16""}","","","","","","","","","","","","","","","","","","","","","","","","","","","","","","","","","","","",""
"","text","2","19611","0.0-2.0","61025547","wem/bandit_either_2","A3RIFUEQ95MR16","either","4","7230","","32","","","","","","","","","","","","","","","","","","","","","","","","","","","","","","","","","","",""
"","text","3","24553","0.0-3.0","61025547","wem/bandit_either_2","A3RIFUEQ95MR16","either","4","4941","","32","","","","","","","","","","","","","","","","","","","","","","","","","","","","","","","","","","",""
"","text","4","37610","0.0-4.0","61025547","wem/bandit_either_2","A3RIFUEQ95MR16","either","4","13056","","32","","","","","","","","","","","","","","","","","","","","","","","","","","","","","","","","","","",""
"","text","5","48074","0.0-5.0","61025547","wem/bandit_either_2","A3RIFUEQ95MR16","either","4","10462","","32","","","","","","","","","","","","","","","","","","","","","","","","","","","","","","","","","","",""
"","text","6","60649","0.0-6.0","61025547","wem/bandit_either_2","A3RIFUEQ95MR16","either","4","12575","","32","","","","","","","","","","","","","","","","","","","","","","","","","","","","","","","","","","",""
"","text","7","68362","0.0-7.0","61025547","wem/bandit_either_2","A3RIFUEQ95MR16","either","4","7711","","32","","","","","","","","","","","","","","","","","","","","","","","","","","","","","","","","","","",""
"","text","8","73034","0.0-8.0","61025547","wem/bandit_either_2","A3RIFUEQ95MR16","either","4","4671","","32","","","","","","","","","","","","","","","","","","","","","","","","","","","","","","","","","","",""
"","identification","9","80016","0.0-9.0-0.0","61025547","wem/bandit_either_2","A3RIFUEQ95MR16","either","4","6968","","","","1","1","0","","","","","","","","","","","","","","","","","","","","","","","","the village of Zur","","","","","","",""
"","identification","10","86908","0.0-9.0-1.0","61025547","wem/bandit_either_2","A3RIFUEQ95MR16","either","4","5881","","","","3","3","3","","","","","","","","","","","","","","","","","","","","","","","","the village of Nyx","","","","","","",""
"","text","11","92086","0.0-10.0","61025547","wem/bandit_either_2","A3RIFUEQ95MR16","either","4","4176","","32","","","","","","","","","","","","","","","","","","","","","","","","","","","","","","","","","","",""
"","text","12","94230","0.0-11.0","61025547","wem/bandit_either_2","A3RIFUEQ95MR16","either","4","2142","","32","","","","","","","","","","","","","","","","","","","","","","","","","","","","","","","","","","",""
"","text","13","96247","0.0-12.0","61025547","wem/bandit_either_2","A3RIFUEQ95MR16","either","4","2016","","32","","","","","","","","","","","","","","","","","","","","","","","","","","","","","","","","","","",""
"","text","14","101174","0.0-13.0","61025547","wem/bandit_either_2","A3RIFUEQ95MR16","either","4","4926","","32","","","","","","","","","","","","","","","","","","","","","","","","","","","","","","","","","","",""
"","bandit","15","106853","0.0-14.0-0.0","61025547","wem/bandit_either_2","A3RIFUEQ95MR16","either","4","4171","","","","","","","0","0","1","0","0","","","","","0","","","","0","","","","","","","","","","","74","J","0","img/none_selected_demo.jpg","true","0",""
"","bandit","16","109173","0.0-15.0-0.0","61025547","wem/bandit_either_2","A3RIFUEQ95MR16","either","4","815","","","","","","","0","0","1","0","0","","","","","0","","","","0","","","","","","","","","","","75","K","0","img/none_selected_demo.jpg","true","0",""
"","text","17","118375","0.0-16.0","61025547","wem/bandit_either_2","A3RIFUEQ95MR16","either","4","9200","","32","","","","","","","","","","","","","","","","","","","","","","","","","","","","","","","","","","",""
"","text","18","129111","0.0-17.0","61025547","wem/bandit_either_2","A3RIFUEQ95MR16","either","4","10734","","32","","","","","","","","","","","","","","","","","","","","","","","","","","","","","","","","","","",""
"","text","19","139108","0.0-18.0","61025547","wem/bandit_either_2","A3RIFUEQ95MR16","either","4","9995","","32","","","","","","","","","","","","","","","","","","","","","","","","","","","","","","","","","","",""
"","text","20","142212","0.0-19.0","61025547","wem/bandit_either_2","A3RIFUEQ95MR16","either","4","3102","","32","","","","","","","","","","","","","","","","","","","","","","","","","","","","","","","","","","",""
"","bandit","21","144515","0.0-20.0-0.0","61025547","wem/bandit_either_2","A3RIFUEQ95MR16","either","4","795","","","","","","","1","0","0","0.8","","0.5","0.5","","","","","","","0.8","0.2","","","","","","","","","","74","J","0","img/none_selected_demo.jpg","true","0","80_20_practice"
"","bandit","22","146593","0.0-20.0-1.0","61025547","wem/bandit_either_2","A3RIFUEQ95MR16","either","4","575","","","","","","","0","1","0","","0.8","0.5","0.5","","","0.8","0.2","","","","","","","","","","","","","","74","J","0","img/none_selected_demo.jpg","true","0","80_20_practice"
"","bandit","23","148401","0.0-20.0-2.0","61025547","wem/bandit_either_2","A3RIFUEQ95MR16","either","4","302","","","","","","","1","0","0","0.8","","0.5","0.5","","","","","","","0.8","0.2","","","","","","","","","","74","J","0","img/none_selected_demo.jpg","true","0","80_20_practice"
"","bandit","24","150288","0.0-20.0-3.0","61025547","wem/bandit_either_2","A3RIFUEQ95MR16","either","4","383","","","","","","","0","0","1","0.8","","0.5","0.5","","","","","","","0.8","0.2","","","","","","","","","","74","J","0","img/none_selected_demo.jpg","true","0","80_20_practice"
"","bandit","25","152128","0.0-20.0-4.0","61025547","wem/bandit_either_2","A3RIFUEQ95MR16","either","4","336","","","","","","","1","0","0","0.8","","0.5","0.5","","","","","","","0.8","0.2","","","","","","","","","","74","J","0","img/none_selected_demo.jpg","true","0","80_20_practice"
"","bandit","26","153889","0.0-20.0-5.0","61025547","wem/bandit_either_2","A3RIFUEQ95MR16","either","4","256","","","","","","","0","1","0","","0.8","0.5","0.5","","","0.8","0.2","","","","","","","","","","","","","","74","J","0","img/none_selected_demo.jpg","true","0","80_20_practice"
"","bandit","27","155729","0.0-20.0-6.0","61025547","wem/bandit_either_2","A3RIFUEQ95MR16","either","4","335","","","","","","","1","0","0","0.8","","0.5","0.5","","","","","","","0.8","0.2","","","","","","","","","","74","J","0","img/none_selected_demo.jpg","true","0","80_20_practice"
"","bandit","28","157409","0.0-20.0-7.0","61025547","wem/bandit_either_2","A3RIFUEQ95MR16","either","4","174","","","","","","","0","1","0","","0.8","0.5","0.5","","","0.8","0.2","","","","","","","","","","","","","","74","J","0","img/none_selected_demo.jpg","true","0","80_20_practice"
"","bandit","29","159185","0.0-20.0-8.0","61025547","wem/bandit_either_2","A3RIFUEQ95MR16","either","4","271","","","","","","","0","1","0","","0.8","0.5","0.5","","","0.8","0.2","","","","","","","","","","","","","","74","J","0","img/none_selected_demo.jpg","true","0","80_20_practice"
"","bandit","30","160898","0.0-20.0-9.0","61025547","wem/bandit_either_2","A3RIFUEQ95MR16","either","4","207","","","","","","","0","1","0","","0.8","0.5","0.5","","","0.8","0.2","","","","","","","","","","","","","","74","J","0","img/none_selected_demo.jpg","true","0","80_20_practice"
"","bandit","31","162689","0.0-20.0-10.0","61025547","wem/bandit_either_2","A3RIFUEQ95MR16","either","4","287","","","","","","","0","1","0","","0.8","0.5","0.5","","","0.8","0.2","","","","","","","","","","","","","","74","J","0","img/none_selected_demo.jpg","true","0","80_20_practice"
"","bandit","32","164497","0.0-20.0-11.0","61025547","wem/bandit_either_2","A3RIFUEQ95MR16","either","4","304","","","","","","","1","0","0","0.8","","0.5","0.5","","","","","","","0.8","0.2","","","","","","","","","","74","J","0","img/none_selected_demo.jpg","true","0","80_20_practice"
"","bandit","33","166145","0.0-20.0-12.0","61025547","wem/bandit_either_2","A3RIFUEQ95MR16","either","4","144","","","","","","","0","1","0","","0.8","0.5","0.5","","","0.8","0.2","","","","","","","","","","","","","","74","J","0","img/none_selected_demo.jpg","true","0","80_20_practice"
"","bandit","34","167889","0.0-20.0-13.0","61025547","wem/bandit_either_2","A3RIFUEQ95MR16","either","4","239","","","","","","","0","0","1","","0.8","0.5","0.5","","","0.8","0.2","","","","","","","","","","","","","","74","J","0","img/none_selected_demo.jpg","true","0","80_20_practice"
"","bandit","35","169984","0.0-20.0-14.0","61025547","wem/bandit_either_2","A3RIFUEQ95MR16","either","4","590","","","","","","","1","0","0","0.8","","0.5","0.5","","","","","","","0.8","0.2","","","","","","","","","","74","J","0","img/none_selected_demo.jpg","true","0","80_20_practice"
"","bandit","36","171824","0.0-20.0-15.0","61025547","wem/bandit_either_2","A3RIFUEQ95MR16","either","4","336","","","","","","","0","1","0","","0.8","0.5","0.5","","","0.8","0.2","","","","","","","","","","","","","","74","J","0","img/none_selected_demo.jpg","true","0","80_20_practice"
"","bandit","37","173569","0.0-20.0-16.0","61025547","wem/bandit_either_2","A3RIFUEQ95MR16","either","4","241","","","","","","","0","0","1","","0.8","0.5","0.5","","","0.8","0.2","","","","","","","","","","","","","","74","J","0","img/none_selected_demo.jpg","true","0","80_20_practice"
"","bandit","38","175681","0.0-20.0-17.0","61025547","wem/bandit_either_2","A3RIFUEQ95MR16","either","4","607","","","","","","","0","0","1","","0.2","0.5","0.5","","","0.8","0.2","","","","","","","","","","","","","","75","K","1","","true","0","80_20_practice"
"","bandit","39","177473","0.0-20.0-18.0","61025547","wem/bandit_either_2","A3RIFUEQ95MR16","either","4","287","","","","","","","0","0","1","","0.2","0.5","0.5","","","0.8","0.2","","","","","","","","","","","","","","75","K","1","","true","0","80_20_practice"
"","bandit","40","179521","0.0-20.0-19.0","61025547","wem/bandit_either_2","A3RIFUEQ95MR16","either","4","543","","","","","","","0","0","1","0.2","","0.5","0.5","","","","","","","0.8","0.2","","","","","","","","","","75","K","1","","true","0","80_20_practice"
"","text","41","182115","0.0-21.0","61025547","wem/bandit_either_2","A3RIFUEQ95MR16","either","4","2592","","32","","","","","","","","","","","","","","","","","","","","","","","","","","","","","","","","","","",""
"","bandit","42","187297","0.0-22.0-0.0","61025547","wem/bandit_either_2","A3RIFUEQ95MR16","either","4","3679","","","","","","","1","0","0","1","0","","","","","0","1","","","1","0","","","","","","","","","","74","J","0","img/none_selected_demo.jpg","true","0",""
"","text","43","194163","0.0-23.0","61025547","wem/bandit_either_2","A3RIFUEQ95MR16","either","4","6864","","32","","","","","","","","","","","","","","","","","","","","","","","","","","","","","","","","","","",""
"","text","44","197344","0.0-24.0","61025547","wem/bandit_either_2","A3RIFUEQ95MR16","either","4","3179","","32","","","","","","","","","","","","","","","","","","","","","","","","","","","","","","","","","","",""
"","text","45","200767","0.0-25.0","61025547","wem/bandit_either_2","A3RIFUEQ95MR16","either","4","3421","","32","","","","","","","","","","","","","","","","","","","","","","","","","","","","","","","","","","",""
"","text","46","202335","0.0-26.0","61025547","wem/bandit_either_2","A3RIFUEQ95MR16","either","4","1566","","32","","","","","","","","","","","","","","","","","","","","","","","","","","","","","","","","","","",""
"","text","47","205663","0.0-27.0","61025547","wem/bandit_either_2","A3RIFUEQ95MR16","either","4","3326","","32","","","","","","","","","","","","","","","","","","","","","","","","","","","","","","","","","","",""
"","text","48","209206","0.0-28.0","61025547","wem/bandit_either_2","A3RIFUEQ95MR16","either","4","3540","","32","","","","","","","","","","","","","","","","","","","","","","","","","","","","","","","","","","",""
"","text","49","214671","0.0-29.0","61025547","wem/bandit_either_2","A3RIFUEQ95MR16","either","4","5463","","32","","","","","","","","","","","","","","","","","","","","","","","","","","","","","","","","","","",""
"","text","50","216303","0.0-30.0","61025547","wem/bandit_either_2","A3RIFUEQ95MR16","either","4","1629","","32","","","","","","","","","","","","","","","","","","","","","","","","","","","","","","","","","","",""
"","text","51","217967","0.0-31.0","61025547","wem/bandit_either_2","A3RIFUEQ95MR16","either","4","1662","","32","","","","","","","","","","","","","","","","","","","","","","","","","","","","","","","","","","",""
"","text","52","219295","0.0-32.0","61025547","wem/bandit_either_2","A3RIFUEQ95MR16","either","4","1327","","32","","","","","","","","","","","","","","","","","","","","","","","","","","","","","","","","","","",""
"","text","53","224206","0.0-33.0","61025547","wem/bandit_either_2","A3RIFUEQ95MR16","either","4","4909","","32","","","","","","","","","","","","","","","","","","","","","","","","","","","","","","","","","","",""
"","bandit","54","226557","0.0-34.0-0.0","61025547","wem/bandit_either_2","A3RIFUEQ95MR16","either","4","846","","","","","","","0","0","1","0.8","","0.5","0.5","0.5","0.5","","","","","0.8","0.2","0.6","0.2","","","","","","","","72","H","0","img/none_selected.jpg","true","0","full_practice"
"","bandit","55","228516","0.0-34.0-1.0","61025547","wem/bandit_either_2","A3RIFUEQ95MR16","either","4","415","","","","","","","0","0","1","","0.8","0.5","0.5","0.5","0.5","0.8","0.2","0.6","0.2","","","","","","","","","","","","72","H","0","img/none_selected.jpg","true","0","full_practice"
"","bandit","56","230445","0.0-34.0-2.0","61025547","wem/bandit_either_2","A3RIFUEQ95MR16","either","4","422","","","","","","","1","0","0","0.8","","0.5","0.5","0.5","0.5","","","","","0.8","0.2","0.6","0.2","","","","","","","","72","H","0","img/none_selected.jpg","true","0","full_practice"
"","bandit","57","232270","0.0-34.0-3.0","61025547","wem/bandit_either_2","A3RIFUEQ95MR16","either","4","320","","","","","","","0","0","1","","0.8","0.5","0.5","0.5","0.5","0.8","0.2","0.6","0.2","","","","","","","","","","","","72","H","0","img/none_selected.jpg","true","0","full_practice"
"","bandit","58","234045","0.0-34.0-4.0","61025547","wem/bandit_either_2","A3RIFUEQ95MR16","either","4","270","","","","","","","0","0","1","","0.8","0.5","0.5","0.5","0.5","0.8","0.2","0.6","0.2","","","","","","","","","","","","72","H","0","img/none_selected.jpg","true","0","full_practice"
"","bandit","59","235725","0.0-34.0-5.0","61025547","wem/bandit_either_2","A3RIFUEQ95MR16","either","4","175","","","","","","","0","0","1","","0.2","0.5","0.5","0.5","0.5","0.8","0.2","0.6","0.2","","","","","","","","","","","","74","J","1","","true","0","full_practice"
"","bandit","60","237421","0.0-34.0-6.0","61025547","wem/bandit_either_2","A3RIFUEQ95MR16","either","4","191","","","","","","","0","0","1","0.2","","0.5","0.5","0.5","0.5","","","","","0.8","0.2","0.6","0.2","","","","","","","","74","J","1","","true","0","full_practice"
"","bandit","61","239276","0.0-34.0-7.0","61025547","wem/bandit_either_2","A3RIFUEQ95MR16","either","4","350","","","","","","","0","0","1","0.2","","0.5","0.5","0.5","0.5","","","","","0.8","0.2","0.6","0.2","","","","","","","","74","J","1","","true","0","full_practice"
"","bandit","62","240972","0.0-34.0-8.0","61025547","wem/bandit_either_2","A3RIFUEQ95MR16","either","4","191","","","","","","","0","0","1","","0.2","0.5","0.5","0.5","0.5","0.8","0.2","0.6","0.2","","","","","","","","","","","","74","J","1","","true","0","full_practice"
"","bandit","63","242884","0.0-34.0-9.0","61025547","wem/bandit_either_2","A3RIFUEQ95MR16","either","4","405","","","","","","","1","0","0","0.6","","0.5","0.5","0.5","0.5","","","","","0.8","0.2","0.6","0.2","","","","","","","","75","K","2","","true","0","full_practice"
"","bandit","64","244622","0.0-34.0-10.0","61025547","wem/bandit_either_2","A3RIFUEQ95MR16","either","4","232","","","","","","","0","1","0","","0.6","0.5","0.5","0.5","0.5","0.8","0.2","0.6","0.2","","","","","","","","","","","","75","K","2","","true","0","full_practice"
"","bandit","65","246429","0.0-34.0-11.0","61025547","wem/bandit_either_2","A3RIFUEQ95MR16","either","4","302","","","","","","","0","0","1","","0.6","0.5","0.5","0.5","0.5","0.8","0.2","0.6","0.2","","","","","","","","","","","","75","K","2","","true","0","full_practice"
"","bandit","66","247997","0.0-34.0-12.0","61025547","wem/bandit_either_2","A3RIFUEQ95MR16","either","4","64","","","","","","","0","0","1","","0.6","0.5","0.5","0.5","0.5","0.8","0.2","0.6","0.2","","","","","","","","","","","","75","K","2","","true","0","full_practice"
"","bandit","67","249582","0.0-34.0-13.0","61025547","wem/bandit_either_2","A3RIFUEQ95MR16","either","4","78","","","","","","","0","0","1","0.6","","0.5","0.5","0.5","0.5","","","","","0.8","0.2","0.6","0.2","","","","","","","","75","K","2","","true","0","full_practice"
"","bandit","68","251149","0.0-34.0-14.0","61025547","wem/bandit_either_2","A3RIFUEQ95MR16","either","4","62","","","","","","","1","0","0","0.6","","0.5","0.5","0.5","0.5","","","","","0.8","0.2","0.6","0.2","","","","","","","","75","K","2","","true","0","full_practice"
"","bandit","69","252734","0.0-34.0-15.0","61025547","wem/bandit_either_2","A3RIFUEQ95MR16","either","4","79","","","","","","","0","0","1","0.6","","0.5","0.5","0.5","0.5","","","","","0.8","0.2","0.6","0.2","","","","","","","","75","K","2","","true","0","full_practice"
"","bandit","70","254316","0.0-34.0-16.0","61025547","wem/bandit_either_2","A3RIFUEQ95MR16","either","4","78","","","","","","","0","0","1","0.2","","0.5","0.5","0.5","0.5","","","","","0.8","0.2","0.6","0.2","","","","","","","","76","L","3","","true","0","full_practice"
"","bandit","71","255884","0.0-34.0-17.0","61025547","wem/bandit_either_2","A3RIFUEQ95MR16","either","4","63","","","","","","","0","0","1","","0.2","0.5","0.5","0.5","0.5","0.8","0.2","0.6","0.2","","","","","","","","","","","","76","L","3","","true","0","full_practice"
"","bandit","72","257628","0.0-34.0-18.0","61025547","wem/bandit_either_2","A3RIFUEQ95MR16","either","4","240","","","","","","","0","0","1","","0.2","0.5","0.5","0.5","0.5","0.8","0.2","0.6","0.2","","","","","","","","","","","","76","L","3","","true","0","full_practice"
"","bandit","73","259564","0.0-34.0-19.0","61025547","wem/bandit_either_2","A3RIFUEQ95MR16","either","4","429","","","","","","","1","0","0","0.6","","0.5","0.5","0.5","0.5","","","","","0.8","0.2","0.6","0.2","","","","","","","","75","K","2","","true","0","full_practice"
"","text","74","262253","0.0-35.0","61025547","wem/bandit_either_2","A3RIFUEQ95MR16","either","4","2684","","32","","","","","","","","","","","","","","","","","","","","","","","","","","","","","","","","","","",""
"","text","75","272780","0.0-36.0","61025547","wem/bandit_either_2","A3RIFUEQ95MR16","either","4","9525","","32","","","","","","","","","","","","","","","","","","","","","","","","","","","","","","","","","","",""
"","text","76","279756","0.0-37.0","61025547","wem/bandit_either_2","A3RIFUEQ95MR16","either","4","6974","","32","","","","","","","","","","","","","","","","","","","","","","","","","","","","","","","","","","",""
"","text","77","284445","0.0-38.0","61025547","wem/bandit_either_2","A3RIFUEQ95MR16","either","4","4686","","32","","","","","","","","","","","","","","","","","","","","","","","","","","","","","","","","","","",""
"","text","78","289516","0.0-39.0","61025547","wem/bandit_either_2","A3RIFUEQ95MR16","either","4","5068","","32","","","","","","","","","","","","","","","","","","","","","","","","","","","","","","","","","","",""
"","text","79","293628","0.0-40.0","61025547","wem/bandit_either_2","A3RIFUEQ95MR16","either","4","4110","","32","","","","","","","","","","","","","","","","","","","","","","","","","","","","","","","","","","",""
"","bandit","80","296107","0.0-41.0-0.0","61025547","wem/bandit_either_2","A3RIFUEQ95MR16","either","4","975","","","","","","","0","0","1","0.3894728165","","0.8","0.6","0.2","0.4","","","","","0.3894728165","0.3525715257","0.2771551185","0.3242650943","","","","","","","","72","H","0","img/none_selected.jpg","","1","main_expt"
"","bandit","81","297674","0.0-42.0-0.0","61025547","wem/bandit_either_2","A3RIFUEQ95MR16","either","4","61","","","","","","","1","0","0","0.363660736","","0.8","0.6","0.2","0.4","","","","","0.363660736","0.390153736","0.3030893157","0.3296228245","","","","","","","","72","H","0","img/none_selected.jpg","","2","main_expt"
"","bandit","82","299338","0.0-43.0-0.0","61025547","wem/bandit_either_2","A3RIFUEQ95MR16","either","4","159","","","","","","","0","0","1","0.3842171554","","0.8","0.6","0.2","0.4","","","","","0.3842171554","0.3725447061","0.3211059343","0.3102780753","","","","","","","","72","H","0","img/none_selected.jpg","","3","main_expt"
"","bandit","83","300970","0.0-44.0-0.0","61025547","wem/bandit_either_2","A3RIFUEQ95MR16","either","4","126","","","","","","","0","0","1","0.3831963053","","0.8","0.6","0.2","0.4","","","","","0.3831963053","0.3431524481","0.2804386453","0.2749892112","","","","","","","","72","H","0","img/none_selected.jpg","","4","main_expt"
"","bandit","84","302546","0.0-45.0-0.0","61025547","wem/bandit_either_2","A3RIFUEQ95MR16","either","4","64","","","","","","","0","0","1","0.4056596471","","0.8","0.6","0.2","0.4","","","","","0.4056596471","0.3448007793","0.2609559086","0.3037824898","","","","","","","","72","H","0","img/none_selected.jpg","","5","main_expt"
"","bandit","85","304106","0.0-46.0-0.0","61025547","wem/bandit_either_2","A3RIFUEQ95MR16","either","4","56","","","","","","","0","0","1","","0.3980888019","0.8","0.6","0.2","0.4","0.4409946319","0.3980888019","0.2259287768","0.3217417103","","","","","","","","","","","","74","J","1","","","6","main_expt"
"","bandit","86","306155","0.0-47.0-0.0","61025547","wem/bandit_either_2","A3RIFUEQ95MR16","either","4","543","","","","","","","1","0","0","0.3693121862","","0.8","0.6","0.2","0.4","","","","","0.3821747998","0.3693121862","0.2433618728","0.3018715163","","","","","","","","74","J","1","","","7","main_expt"
"","bandit","87","307961","0.0-48.0-0.0","61025547","wem/bandit_either_2","A3RIFUEQ95MR16","either","4","301","","","","","","","0","0","1","","0.2933697555","0.8","0.6","0.2","0.4","0.3841844813","0.2933697555","0.2025356769","0.3643645816","","","","","","","","","","","","74","J","1","","","8","main_expt"
"","bandit","88","309514","0.0-49.0-0.0","61025547","wem/bandit_either_2","A3RIFUEQ95MR16","either","4","47","","","","","","","0","0","1","0.3036212831","","0.8","0.6","0.2","0.4","","","","","0.3412237964","0.3036212831","0.1441028094","0.3418610374","","","","","","","","74","J","1","","","9","main_expt"
"","bandit","89","311241","0.0-50.0-0.0","61025547","wem/bandit_either_2","A3RIFUEQ95MR16","either","4","221","","","","","","","0","0","1","","0.308020301","0.8","0.6","0.2","0.4","0.3256420777","0.308020301","0.1736005971","0.3190157878","","","","","","","","","","","","74","J","1","","","10","main_expt"
"","bandit","90","312826","0.0-51.0-0.0","61025547","wem/bandit_either_2","A3RIFUEQ95MR16","either","4","79","","","","","","","0","1","0","","0.1836365694","0.8","0.6","0.2","0.4","0.3514007431","0.3065973113","0.1836365694","0.2998731478","","","","","","","","","","","","75","K","2","","","11","main_expt"
"","bandit","91","314554","0.0-52.0-0.0","61025547","wem/bandit_either_2","A3RIFUEQ95MR16","either","4","222","","","","","","","0","0","1","","0.2143869662","0.8","0.6","0.2","0.4","0.3722032088","0.3271859636","0.2143869662","0.2942822571","","","","","","","","","","","","75","K","2","","","12","main_expt"
"","bandit","92","316235","0.0-53.0-0.0","61025547","wem/bandit_either_2","A3RIFUEQ95MR16","either","4","174","","","","","","","0","0","1","","0.1637139448","0.8","0.6","0.2","0.4","0.3681707299","0.2761076709","0.1637139448","0.3009212619","","","","","","","","","","","","75","K","2","","","13","main_expt"
"","bandit","93","317846","0.0-54.0-0.0","61025547","wem/bandit_either_2","A3RIFUEQ95MR16","either","4","110","","","","","","","0","0","1","","0.1488535162","0.8","0.6","0.2","0.4","0.3528222564","0.2311164494","0.1488535162","0.3227424667","","","","","","","","","","","","75","K","2","","","14","main_expt"
"","bandit","94","319878","0.0-55.0-0.0","61025547","wem/bandit_either_2","A3RIFUEQ95MR16","either","4","525","","","","","","","0","1","0","","0.1332411271","0.8","0.6","0.2","0.4","0.3738838661","0.2905977425","0.1332411271","0.3547546862","","","","","","","","","","","","75","K","2","","","15","main_expt"
"","bandit","95","321574","0.0-56.0-0.0","61025547","wem/bandit_either_2","A3RIFUEQ95MR16","either","4","189","","","","","","","0","0","1","","0.3241157583","0.8","0.6","0.2","0.4","0.3385239332","0.2924554969","0.09882415698","0.3241157583","","","","","","","","","","","","76","L","3","","","16","main_expt"
"","bandit","96","323222","0.0-57.0-0.0","61025547","wem/bandit_either_2","A3RIFUEQ95MR16","either","4","142","","","","","","","0","0","1","","0.3363410386","0.8","0.6","0.2","0.4","0.3111355138","0.3114836302","0.1069157009","0.3363410386","","","","","","","","","","","","76","L","3","","","17","main_expt"
"","bandit","97","325205","0.0-58.0-0.0","61025547","wem/bandit_either_2","A3RIFUEQ95MR16","either","4","477","","","","","","","0","0","1","","0.3880947854","0.8","0.6","0.2","0.4","0.3487767647","0.3215333475","0.134958137","0.3880947854","","","","","","","","","","","","76","L","3","","","18","main_expt"
"","bandit","98","326943","0.0-59.0-0.0","61025547","wem/bandit_either_2","A3RIFUEQ95MR16","either","4","224","","","","","","","0","1","0","","0.4116912081","0.8","0.6","0.2","0.4","0.3010303499","0.2733398822","0.1230418706","0.4116912081","","","","","","","","","","","","76","L","3","","","19","main_expt"
"","bandit","99","328566","0.0-60.0-0.0","61025547","wem/bandit_either_2","A3RIFUEQ95MR16","either","4","117","","","","","","","0","0","1","0.2907203997","","0.8","0.6","0.2","0.4","","","","","0.2907203997","0.2351410235","0.09866604889","0.3973894305","","","","","","","","72","H","0","img/none_selected.jpg","","20","main_expt"
"","bandit","100","330374","0.0-61.0-0.0","61025547","wem/bandit_either_2","A3RIFUEQ95MR16","either","4","302","","","","","","","0","0","1","","0.3088108907","0.8","0.6","0.2","0.4","0.3088108907","0.2257810982","0.1021222834","0.369037109","","","","","","","","","","","","72","H","0","img/none_selected.jpg","","21","main_expt"
"","bandit","101","332214","0.0-62.0-0.0","61025547","wem/bandit_either_2","A3RIFUEQ95MR16","either","4","335","","","","","","","0","0","1","0.349202701","","0.8","0.6","0.2","0.4","","","","","0.349202701","0.2221856846","0.1234138809","0.4179468344","","","","","","","","72","H","0","img/none_selected.jpg","","22","main_expt"
"","bandit","102","334038","0.0-63.0-0.0","61025547","wem/bandit_either_2","A3RIFUEQ95MR16","either","4","317","","","","","","","1","0","0","0.3785068464","","0.8","0.6","0.2","0.4","","","","","0.3785068464","0.2127124712","0.1030640584","0.4276062926","","","","","","","","72","H","0","img/none_selected.jpg","","23","main_expt"
"","bandit","103","335798","0.0-64.0-0.0","61025547","wem/bandit_either_2","A3RIFUEQ95MR16","either","4","255","","","","","","","0","0","1","0.4012919653","","0.8","0.6","0.2","0.4","","","","","0.4012919653","0.1882566648","0.1261035851","0.4078122208","","","","","","","","72","H","0","img/none_selected.jpg","","24","main_expt"
"","bandit","104","337639","0.0-65.0-0.0","61025547","wem/bandit_either_2","A3RIFUEQ95MR16","either","4","335","","","","","","","0","0","1","0.400899794","","0.8","0.6","0.2","0.4","","","","","0.400899794","0.1273223766","0.1796705612","0.3950411191","","","","","","","","72","H","0","img/none_selected.jpg","","25","main_expt"
"","bandit","105","339445","0.0-66.0-0.0","61025547","wem/bandit_either_2","A3RIFUEQ95MR16","either","4","301","","","","","","","1","0","0","0.4126274585","","0.8","0.6","0.2","0.4","","","","","0.4126274585","0.15747458","0.2414651519","0.4322303329","","","","","","","","72","H","0","img/none_selected.jpg","","26","main_expt"
"","bandit","106","341206","0.0-67.0-0.0","61025547","wem/bandit_either_2","A3RIFUEQ95MR16","either","4","255","","","","","","","0","0","1","0.1442684908","","0.8","0.6","0.2","0.4","","","","","0.3992263875","0.1442684908","0.2005374927","0.4353643722","","","","","","","","74","J","1","","","27","main_expt"
"","bandit","107","342759","0.0-68.0-0.0","61025547","wem/bandit_either_2","A3RIFUEQ95MR16","either","4","46","","","","","","","0","0","1","","0.2255404594","0.8","0.6","0.2","0.4","0.3846584236","0.2255404594","0.3197257227","0.4464017809","","","","","","","","","","","","74","J","1","","","28","main_expt"
"","bandit","108","344469","0.0-69.0-0.0","61025547","wem/bandit_either_2","A3RIFUEQ95MR16","either","4","204","","","","","","","0","0","1","0.2730951691","","0.8","0.6","0.2","0.4","","","","","0.3561298134","0.2730951691","0.3141869899","0.4417109462","","","","","","","","74","J","1","","","29","main_expt"
"","bandit","109","346086","0.0-70.0-0.0","61025547","wem/bandit_either_2","A3RIFUEQ95MR16","either","4","109","","","","","","","0","0","1","0.2890412698","","0.8","0.6","0.2","0.4","","","","","0.3101363315","0.2890412698","0.3445991012","0.4065908859","","","","","","","","74","J","1","","","30","main_expt"
"","bandit","110","347751","0.0-71.0-0.0","61025547","wem/bandit_either_2","A3RIFUEQ95MR16","either","4","158","","","","","","","0","0","1","0.3309226042","","0.8","0.6","0.2","0.4","","","","","0.3322219809","0.3309226042","0.3456655029","0.3954582793","","","","","","","","74","J","1","","","31","main_expt"
"","bandit","111","349350","0.0-72.0-0.0","61025547","wem/bandit_either_2","A3RIFUEQ95MR16","either","4","94","","","","","","","0","0","1","0.3519301717","","0.8","0.6","0.2","0.4","","","","","0.3516269472","0.3519301717","0.3826172224","0.3716723047","","","","","","","","74","J","1","","","32","main_expt"
"","bandit","112","350966","0.0-73.0-0.0","61025547","wem/bandit_either_2","A3RIFUEQ95MR16","either","4","110","","","","","","","1","0","0","0.3852085553","","0.8","0.6","0.2","0.4","","","","","0.3852085553","0.3414953842","0.3804083149","0.3799724366","","","","","","","","72","H","0","img/none_selected.jpg","","33","main_expt"
"","bandit","113","352598","0.0-74.0-0.0","61025547","wem/bandit_either_2","A3RIFUEQ95MR16","either","4","127","","","","","","","0","0","1","0.4196644934","","0.8","0.6","0.2","0.4","","","","","0.4196644934","0.2938412915","0.3808178469","0.409480615","","","","","","","","72","H","0","img/none_selected.jpg","","34","main_expt"
"","bandit","114","354182","0.0-75.0-0.0","61025547","wem/bandit_either_2","A3RIFUEQ95MR16","either","4","78","","","","","","","0","1","0","","0.420891004","0.8","0.6","0.2","0.4","0.420891004","0.2256616696","0.376129724","0.3869649509","","","","","","","","","","","","72","H","0","img/none_selected.jpg","","35","main_expt"
"","bandit","115","355766","0.0-76.0-0.0","61025547","wem/bandit_either_2","A3RIFUEQ95MR16","either","4","79","","","","","","","0","0","1","","0.2525957923","0.8","0.6","0.2","0.4","0.3808881167","0.2525957923","0.4027809904","0.3045389962","","","","","","","","","","","","74","J","1","","","36","main_expt"
"","bandit","116","357350","0.0-77.0-0.0","61025547","wem/bandit_either_2","A3RIFUEQ95MR16","either","4","78","","","","","","","0","0","1","0.2333373749","","0.8","0.6","0.2","0.4","","","","","0.3634360393","0.2333373749","0.3715556026","0.2954217214","","","","","","","","74","J","1","","","37","main_expt"
"","bandit","117","358858","0.0-78.0-0.0","61025547","wem/bandit_either_2","A3RIFUEQ95MR16","either","4","1","","","","","","","0","0","1","0.2126884676","","0.8","0.6","0.2","0.4","","","","","0.3432691328","0.2126884676","0.354842885","0.2749906923","","","","","","","","74","J","1","","","38","main_expt"
"","bandit","118","360821","0.0-79.0-0.0","61025547","wem/bandit_either_2","A3RIFUEQ95MR16","either","4","457","","","","","","","0","0","1","","0.3066825603","0.8","0.6","0.2","0.4","0.3113322025","0.212498526","0.3066825603","0.2911873598","","","","","","","","","","","","75","K","2","","","39","main_expt"
"","bandit","119","362485","0.0-80.0-0.0","61025547","wem/bandit_either_2","A3RIFUEQ95MR16","either","4","127","","","","","","","0","1","0","","0.3208648015","0.8","0.6","0.2","0.4","0.3298138996","0.2031275136","0.3208648015","0.3066149412","","","","","","","","","","","","75","K","2","","","40","main_expt"
"","bandit","120","364069","0.0-81.0-0.0","61025547","wem/bandit_either_2","A3RIFUEQ95MR16","either","4","78","","","","","","","0","0","1","","0.2774570704","0.8","0.6","0.2","0.4","0.3590557929","0.2409224204","0.2774570704","0.2612722093","","","","","","","","","","","","75","K","2","","","41","main_expt"
"","bandit","121","366150","0.0-82.0-0.0","61025547","wem/bandit_either_2","A3RIFUEQ95MR16","either","4","575","","","","","","","1","0","0","0.3092882543","","0.8","0.6","0.2","0.4","","","","","0.3455434044","0.2166695961","0.3092882543","0.2579482203","","","","","","","","75","K","2","","","42","main_expt"
"","bandit","122","367830","0.0-83.0-0.0","61025547","wem/bandit_either_2","A3RIFUEQ95MR16","either","4","173","","","","","","","1","0","0","0.3161251671","","0.8","0.6","0.2","0.4","","","","","0.4020043176","0.2314197793","0.3161251671","0.2232302517","","","","","","","","75","K","2","","","43","main_expt"
"","bandit","123","369447","0.0-84.0-0.0","61025547","wem/bandit_either_2","A3RIFUEQ95MR16","either","4","111","","","","","","","0","0","1","","0.3032549762","0.8","0.6","0.2","0.4","0.4088695108","0.1889371852","0.3032549762","0.2435669349","","","","","","","","","","","","75","K","2","","","44","main_expt"
"","bandit","124","371182","0.0-85.0-0.0","61025547","wem/bandit_either_2","A3RIFUEQ95MR16","either","4","220","","","","","","","0","0","1","","0.3012359134","0.8","0.6","0.2","0.4","0.3914045207","0.2152104473","0.3012359134","0.1885724617","","","","","","","","","","","","75","K","2","","","45","main_expt"
"","bandit","125","372902","0.0-86.0-0.0","61025547","wem/bandit_either_2","A3RIFUEQ95MR16","either","4","215","","","","","","","1","0","0","0.2994346937","","0.8","0.6","0.2","0.4","","","","","0.3682142312","0.2260726972","0.2994346937","0.104230756","","","","","","","","75","K","2","","","46","main_expt"
"","bandit","126","374614","0.0-87.0-0.0","61025547","wem/bandit_either_2","A3RIFUEQ95MR16","either","4","206","","","","","","","0","0","1","","0.3169549043","0.8","0.6","0.2","0.4","0.3462276735","0.2330399618","0.3169549043","0.09013225529","","","","","","","","","","","","75","K","2","","","47","main_expt"
"","bandit","127","376261","0.0-88.0-0.0","61025547","wem/bandit_either_2","A3RIFUEQ95MR16","either","4","141","","","","","","","0","0","1","","0.3137179834","0.8","0.6","0.2","0.4","0.3501405617","0.2769685944","0.3137179834","0.1066227192","","","","","","","","","","","","75","K","2","","","48","main_expt"
"","bandit","128","377874","0.0-89.0-0.0","61025547","wem/bandit_either_2","A3RIFUEQ95MR16","either","4","110","","","","","","","0","1","0","","0.3026837323","0.8","0.6","0.2","0.4","0.3607669766","0.2954986192","0.3026837323","0.1273062614","","","","","","","","","","","","75","K","2","","","49","main_expt"
"","bandit","129","379382","0.0-90.0-0.0","61025547","wem/bandit_either_2","A3RIFUEQ95MR16","either","4","1","","","","","","","0","1","0","","0.2690248343","0.8","0.6","0.2","0.4","0.3776327681","0.2730110453","0.2690248343","0.08158159543","","","","","","","","","","","","75","K","2","","","50","main_expt"
"","bandit","130","381396","0.0-91.0-0.0","61025547","wem/bandit_either_2","A3RIFUEQ95MR16","either","4","507","","","","","","","0","0","1","","0.08035098666","0.8","0.6","0.2","0.4","0.3922012959","0.2672659715","0.2407215714","0.08035098666","","","","","","","","","","","","76","L","3","","","51","main_expt"
"","bandit","131","383260","0.0-92.0-0.0","61025547","wem/bandit_either_2","A3RIFUEQ95MR16","either","4","349","","","","","","","0","0","1","","0.1007468434","0.8","0.6","0.2","0.4","0.3532085343","0.2552972095","0.2758158767","0.1007468434","","","","","","","","","","","","76","L","3","","","52","main_expt"
"","bandit","132","385219","0.0-93.0-0.0","61025547","wem/bandit_either_2","A3RIFUEQ95MR16","either","4","452","","","","","","","1","0","0","0.3597378762","","0.8","0.6","0.2","0.4","","","","","0.3597378762","0.1954439593","0.2661511239","0.1479770317","","","","","","","","72","H","0","img/none_selected.jpg","","53","main_expt"
"","bandit","133","386963","0.0-94.0-0.0","61025547","wem/bandit_either_2","A3RIFUEQ95MR16","either","4","236","","","","","","","0","0","1","0.3553644404","","0.8","0.6","0.2","0.4","","","","","0.3553644404","0.1250298759","0.250303373","0.1450389045","","","","","","","","72","H","0","img/none_selected.jpg","","54","main_expt"
"","bandit","134","388611","0.0-95.0-0.0","61025547","wem/bandit_either_2","A3RIFUEQ95MR16","either","4","140","","","","","","","0","0","1","0.3427354451","","0.8","0.6","0.2","0.4","","","","","0.3427354451","0.1224949652","0.1850572083","0.1678096349","","","","","","","","72","H","0","img/none_selected.jpg","","55","main_expt"
"","bandit","135","390483","0.0-96.0-0.0","61025547","wem/bandit_either_2","A3RIFUEQ95MR16","either","4","365","","","","","","","1","0","0","0.3158877586","","0.8","0.6","0.2","0.4","","","","","0.3158877586","0.1312048923","0.2410157884","0.1748395718","","","","","","","","72","H","0","img/none_selected.jpg","","56","main_expt"
"","bandit","136","392148","0.0-97.0-0.0","61025547","wem/bandit_either_2","A3RIFUEQ95MR16","either","4","158","","","","","","","0","0","1","0.3224611445","","0.8","0.6","0.2","0.4","","","","","0.3224611445","0.14452077","0.2657224069","0.146986137","","","","","","","","72","H","0","img/none_selected.jpg","","57","main_expt"
"","bandit","137","393683","0.0-98.0-0.0","61025547","wem/bandit_either_2","A3RIFUEQ95MR16","either","4","29","","","","","","","0","0","1","0.3378672788","","0.8","0.6","0.2","0.4","","","","","0.3378672788","0.1198415177","0.2361308133","0.1316135006","","","","","","","","72","H","0","img/none_selected.jpg","","58","main_expt"
"","bandit","138","395445","0.0-99.0-0.0","61025547","wem/bandit_either_2","A3RIFUEQ95MR16","either","4","254","","","","","","","0","0","1","0.3438075972","","0.8","0.6","0.2","0.4","","","","","0.3438075972","0.1674914914","0.2078360154","0.1776120447","","","","","","","","72","H","0","img/none_selected.jpg","","59","main_expt"
"","bandit","139","397091","0.0-100.0-0.0","61025547","wem/bandit_either_2","A3RIFUEQ95MR16","either","4","140","","","","","","","0","1","0","","0.2950987239","0.8","0.6","0.2","0.4","0.2950987239","0.147959707","0.2256957235","0.2034864675","","","","","","","","","","","","72","H","0","img/none_selected.jpg","","60","main_expt"
"","bandit","140","398722","0.0-101.0-0.0","61025547","wem/bandit_either_2","A3RIFUEQ95MR16","either","4","125","","","","","","","0","0","1","0.2939622289","","0.8","0.6","0.2","0.4","","","","","0.2939622289","0.1217284172","0.2713547376","0.1325668513","","","","","","","","72","H","0","img/none_selected.jpg","","61","main_expt"
"","bandit","141","400231","0.0-102.0-0.0","61025547","wem/bandit_either_2","A3RIFUEQ95MR16","either","4","2","","","","","","","1","0","0","0.2907096119","","0.8","0.6","0.2","0.4","","","","","0.2907096119","0.1392905859","0.2800078023","0.125492747","","","","","","","","72","H","0","img/none_selected.jpg","","62","main_expt"
"","bandit","142","401876","0.0-103.0-0.0","61025547","wem/bandit_either_2","A3RIFUEQ95MR16","either","4","138","","","","","","","0","0","1","","0.2696382907","0.8","0.6","0.2","0.4","0.2696382907","0.1953314019","0.362183352","0.1081989139","","","","","","","","","","","","72","H","0","img/none_selected.jpg","","63","main_expt"
"","bandit","143","403653","0.0-104.0-0.0","61025547","wem/bandit_either_2","A3RIFUEQ95MR16","either","4","270","","","","","","","0","0","1","0.2496415039","","0.8","0.6","0.2","0.4","","","","","0.2496415039","0.2618523415","0.3354395381","0.09104284411","","","","","","","","72","H","0","img/none_selected.jpg","","64","main_expt"
"","bandit","144","405462","0.0-105.0-0.0","61025547","wem/bandit_either_2","A3RIFUEQ95MR16","either","4","300","","","","","","","0","0","1","","0.2364994079","0.8","0.6","0.2","0.4","0.2364994079","0.2686672798","0.2893845237","0.1264903162","","","","","","","","","","","","72","H","0","img/none_selected.jpg","","65","main_expt"
"","bandit","145","407059","0.0-106.0-0.0","61025547","wem/bandit_either_2","A3RIFUEQ95MR16","either","4","90","","","","","","","0","0","1","","0.2541683514","0.8","0.6","0.2","0.4","0.2541683514","0.2451656397","0.2355717356","0.1665937301","","","","","","","","","","","","72","H","0","img/none_selected.jpg","","66","main_expt"
"","bandit","146","408659","0.0-107.0-0.0","61025547","wem/bandit_either_2","A3RIFUEQ95MR16","either","4","93","","","","","","","0","0","1","","0.2985471382","0.8","0.6","0.2","0.4","0.2985471382","0.2445320338","0.2848755716","0.1740025863","","","","","","","","","","","","72","H","0","img/none_selected.jpg","","67","main_expt"
"","bandit","147","410234","0.0-108.0-0.0","61025547","wem/bandit_either_2","A3RIFUEQ95MR16","either","4","62","","","","","","","0","1","0","","0.3391290389","0.8","0.6","0.2","0.4","0.3391290389","0.2261158315","0.3341158043","0.2300011382","","","","","","","","","","","","72","H","0","img/none_selected.jpg","","68","main_expt"
"","bandit","148","412098","0.0-109.0-0.0","61025547","wem/bandit_either_2","A3RIFUEQ95MR16","either","4","358","","","","","","","0","0","1","0.1627286519","","0.8","0.6","0.2","0.4","","","","","0.3114764975","0.1627286519","0.3253412689","0.1768594062","","","","","","","","74","J","1","","","69","main_expt"
"","bandit","149","413699","0.0-110.0-0.0","61025547","wem/bandit_either_2","A3RIFUEQ95MR16","either","4","95","","","","","","","1","0","0","0.1301009224","","0.8","0.6","0.2","0.4","","","","","0.3056328376","0.1301009224","0.3280915152","0.1906145184","","","","","","","","74","J","1","","","70","main_expt"
"","bandit","150","415299","0.0-111.0-0.0","61025547","wem/bandit_either_2","A3RIFUEQ95MR16","either","4","93","","","","","","","0","0","1","0.1356707761","","0.8","0.6","0.2","0.4","","","","","0.3445325487","0.1356707761","0.3772643828","0.1451664327","","","","","","","","74","J","1","","","71","main_expt"
"","bandit","151","416946","0.0-112.0-0.0","61025547","wem/bandit_either_2","A3RIFUEQ95MR16","either","4","141","","","","","","","0","0","1","0.1045412551","","0.8","0.6","0.2","0.4","","","","","0.364612409","0.1045412551","0.4074174212","0.1091447996","","","","","","","","74","J","1","","","72","main_expt"
"","bandit","152","418595","0.0-113.0-0.0","61025547","wem/bandit_either_2","A3RIFUEQ95MR16","either","4","142","","","","","","","0","0","1","0.0867882282","","0.8","0.6","0.2","0.4","","","","","0.4454774056","0.0867882282","0.3736299767","0.1248737042","","","","","","","","74","J","1","","","73","main_expt"
"","bandit","153","420103","0.0-114.0-0.0","61025547","wem/bandit_either_2","A3RIFUEQ95MR16","either","4","1","","","","","","","1","0","0","0.1018359722","","0.8","0.6","0.2","0.4","","","","","0.4492830973","0.1018359722","0.383211712","0.1073746888","","","","","","","","74","J","1","","","74","main_expt"
"","bandit","154","422403","0.0-115.0-0.0","61025547","wem/bandit_either_2","A3RIFUEQ95MR16","either","4","793","","","","","","","0","0","1","0.09443707336","","0.8","0.6","0.2","0.4","","","","","0.449321966","0.09443707336","0.3681962321","0.1051395745","","","","","","","","74","J","1","","","75","main_expt"
"","bandit","155","424148","0.0-116.0-0.0","61025547","wem/bandit_either_2","A3RIFUEQ95MR16","either","4","239","","","","","","","0","0","1","","0.08768691443","0.8","0.6","0.2","0.4","0.4299726132","0.08768691443","0.3574328021","0.09171451076","","","","","","","","","","","","74","J","1","","","76","main_expt"
"","bandit","156","425683","0.0-117.0-0.0","61025547","wem/bandit_either_2","A3RIFUEQ95MR16","either","4","28","","","","","","","0","0","1","","0.07744448812","0.8","0.6","0.2","0.4","0.4349340462","0.07744448812","0.4041720962","0.1256070833","","","","","","","","","","","","74","J","1","","","77","main_expt"
"","bandit","157","427347","0.0-118.0-0.0","61025547","wem/bandit_either_2","A3RIFUEQ95MR16","either","4","157","","","","","","","0","0","1","0.05712631425","","0.8","0.6","0.2","0.4","","","","","0.4112950215","0.05712631425","0.4000946746","0.1398604905","","","","","","","","74","J","1","","","78","main_expt"
"","bandit","158","429458","0.0-119.0-0.0","61025547","wem/bandit_either_2","A3RIFUEQ95MR16","either","4","605","","","","","","","0","0","1","","0.03981704588","0.8","0.6","0.2","0.4","0.4123046053","0.03981704588","0.425248604","0.1303191282","","","","","","","","","","","","74","J","1","","","79","main_expt"
"","bandit","159","431090","0.0-120.0-0.0","61025547","wem/bandit_either_2","A3RIFUEQ95MR16","either","4","121","","","","","","","0","0","1","","0.02961196177","0.8","0.6","0.2","0.4","0.4345430878","0.02961196177","0.4263383456","0.1491340647","","","","","","","","","","","","74","J","1","","","80","main_expt"
"","bandit","160","432626","0.0-121.0-0.0","61025547","wem/bandit_either_2","A3RIFUEQ95MR16","either","4","30","","","","","","","0","0","1","0.0408206899","","0.8","0.6","0.2","0.4","","","","","0.4255274095","0.0408206899","0.4377411966","0.1484119081","","","","","","","","74","J","1","","","81","main_expt"
"","bandit","161","434405","0.0-122.0-0.0","61025547","wem/bandit_either_2","A3RIFUEQ95MR16","either","4","269","","","","","","","0","0","1","0.03491361241","","0.8","0.6","0.2","0.4","","","","","0.4266934287","0.03491361241","0.4263216968","0.135460029","","","","","","","","74","J","1","","","82","main_expt"
"","bandit","162","436115","0.0-123.0-0.0","61025547","wem/bandit_either_2","A3RIFUEQ95MR16","either","4","204","","","","","","","0","0","1","0.01881925386","","0.8","0.6","0.2","0.4","","","","","0.4321646522","0.01881925386","0.4536492548","0.09497461961","","","","","","","","74","J","1","","","83","main_expt"
"","bandit","163","451584","0.0-124.0-0.0","61025547","wem/bandit_either_2","A3RIFUEQ95MR16","either","4","13961","","","","","","","0","0","1","","0.03441768066","0.8","0.6","0.2","0.4","0.43129245","0.03441768066","0.4344769981","0.0956585677","","","","","","","","","","","","74","J","1","","","84","main_expt"
"","bandit","164","453424","0.0-125.0-0.0","61025547","wem/bandit_either_2","A3RIFUEQ95MR16","either","4","332","","","","","","","0","0","1","0.04015732792","","0.8","0.6","0.2","0.4","","","","","0.4307495417","0.04015732792","0.4167097255","0.08427930603","","","","","","","","74","J","1","","","85","main_expt"
"","bandit","165","454950","0.0-126.0-0.0","61025547","wem/bandit_either_2","A3RIFUEQ95MR16","either","4","12","","","","","","","0","0","1","0.0462821445","","0.8","0.6","0.2","0.4","","","","","0.4327415212","0.0462821445","0.4215971904","0.09540141202","","","","","","","","74","J","1","","","86","main_expt"
"","bandit","166","456799","0.0-127.0-0.0","61025547","wem/bandit_either_2","A3RIFUEQ95MR16","either","4","342","","","","","","","0","0","1","0.07236867375","","0.8","0.6","0.2","0.4","","","","","0.4507305815","0.07236867375","0.3962725568","0.06504543429","","","","","","","","74","J","1","","","87","main_expt"
"","bandit","167","458511","0.0-128.0-0.0","61025547","wem/bandit_either_2","A3RIFUEQ95MR16","either","4","202","","","","","","","0","0","1","","0.1132918069","0.8","0.6","0.2","0.4","0.4571393315","0.1132918069","0.4038430626","0.05894337134","","","","","","","","","","","","74","J","1","","","88","main_expt"
"","bandit","168","460049","0.0-129.0-0.0","61025547","wem/bandit_either_2","A3RIFUEQ95MR16","either","4","28","","","","","","","0","0","1","0.1466354559","","0.8","0.6","0.2","0.4","","","","","0.4639779763","0.1466354559","0.4247877058","0.06803635399","","","","","","","","74","J","1","","","89","main_expt"
"","bandit","169","463076","0.0-130.0-0.0","61025547","wem/bandit_either_2","A3RIFUEQ95MR16","either","4","1514","","","","","","","0","0","1","","0.1746819083","0.8","0.6","0.2","0.4","0.4620017245","0.1746819083","0.4196700557","0.09657856289","","","","","","","","","","","","74","J","1","","","90","main_expt"
"","bandit","170","480339","0.0-131.0-0.0","61025547","wem/bandit_either_2","A3RIFUEQ95MR16","either","4","15747","","","","","","","0","0","1","","0.1864657318","0.8","0.6","0.2","0.4","0.4492963398","0.1864657318","0.401758082","0.08522031428","","","","","","","","","","","","74","J","1","","","91","main_expt"
"","bandit","171","482735","0.0-132.0-0.0","61025547","wem/bandit_either_2","A3RIFUEQ95MR16","either","4","887","","","","","","","0","0","1","","0.3422099147","0.8","0.6","0.2","0.4","0.462009279","0.2124622091","0.3422099147","0.07078380504","","","","","","","","","","","","75","K","2","","","92","main_expt"
"","bandit","172","484590","0.0-133.0-0.0","61025547","wem/bandit_either_2","A3RIFUEQ95MR16","either","4","349","","","","","","","1","0","0","0.245786276","","0.8","0.6","0.2","0.4","","","","","0.4363090379","0.245786276","0.3279059742","0.0564278809","","","","","","","","74","J","1","","","93","main_expt"
"","bandit","173","486135","0.0-134.0-0.0","61025547","wem/bandit_either_2","A3RIFUEQ95MR16","either","4","30","","","","","","","0","1","0","","0.2316759231","0.8","0.6","0.2","0.4","0.4457519602","0.2316759231","0.3155724737","0.06067733924","","","","","","","","","","","","74","J","1","","","94","main_expt"
"","bandit","174","487874","0.0-135.0-0.0","61025547","wem/bandit_either_2","A3RIFUEQ95MR16","either","4","236","","","","","","","0","0","1","0.4231248902","","0.8","0.6","0.2","0.4","","","","","0.4231248902","0.2231756969","0.3519625041","0.08632751489","","","","","","","","72","H","0","img/none_selected.jpg","","95","main_expt"
"","bandit","175","489968","0.0-136.0-0.0","61025547","wem/bandit_either_2","A3RIFUEQ95MR16","either","4","586","","","","","","","0","0","1","0.4210676831","","0.8","0.6","0.2","0.4","","","","","0.4210676831","0.1957128212","0.3661455107","0.08481729553","","","","","","","","72","H","0","img/none_selected.jpg","","96","main_expt"
"","bandit","176","491743","0.0-137.0-0.0","61025547","wem/bandit_either_2","A3RIFUEQ95MR16","either","4","265","","","","","","","0","0","1","0.4022895305","","0.8","0.6","0.2","0.4","","","","","0.4022895305","0.1638116915","0.3558031673","0.08386440452","","","","","","","","72","H","0","img/none_selected.jpg","","97","main_expt"
"","bandit","177","493251","0.0-138.0-0.0","61025547","wem/bandit_either_2","A3RIFUEQ95MR16","either","4","1","","","","","","","0","0","1","","0.4187351015","0.8","0.6","0.2","0.4","0.4187351015","0.1405816365","0.3558230887","0.0940701929","","","","","","","","","","","","72","H","0","img/none_selected.jpg","","98","main_expt"
"","bandit","178","494941","0.0-139.0-0.0","61025547","wem/bandit_either_2","A3RIFUEQ95MR16","either","4","152","","","","","","","0","0","1","0.3981340028","","0.8","0.6","0.2","0.4","","","","","0.3981340028","0.1435678602","0.3064708089","0.1285058524","","","","","","","","72","H","0","img/none_selected.jpg","","99","main_expt"
"","bandit","179","496543","0.0-140.0-0.0","61025547","wem/bandit_either_2","A3RIFUEQ95MR16","either","4","95","","","","","","","0","1","0","","0.3520446815","0.8","0.6","0.2","0.4","0.3520446815","0.1478754355","0.352498313","0.065882019","","","","","","","","","","","","72","H","0","img/none_selected.jpg","","100","main_expt"
"","bandit","180","498076","0.0-141.0-0.0","61025547","wem/bandit_either_2","A3RIFUEQ95MR16","either","4","30","","","","","","","0","0","1","","0.1532559328","0.8","0.6","0.2","0.4","0.3715523215","0.1532559328","0.3511810171","0.05692140794","","","","","","","","","","","","74","J","1","","","101","main_expt"
"","bandit","181","499886","0.0-142.0-0.0","61025547","wem/bandit_either_2","A3RIFUEQ95MR16","either","4","303","","","","","","","0","0","1","0.15857411","","0.8","0.6","0.2","0.4","","","","","0.3966955113","0.15857411","0.3246867477","0.04322280369","","","","","","","","74","J","1","","","102","main_expt"
"","bandit","182","501435","0.0-143.0-0.0","61025547","wem/bandit_either_2","A3RIFUEQ95MR16","either","4","42","","","","","","","0","0","1","0.1552377357","","0.8","0.6","0.2","0.4","","","","","0.3865714765","0.1552377357","0.2827689756","0.05121437093","","","","","","","","74","J","1","","","103","main_expt"
"","bandit","183","503179","0.0-144.0-0.0","61025547","wem/bandit_either_2","A3RIFUEQ95MR16","either","4","238","","","","","","","0","0","1","","0.06548077564","0.8","0.6","0.2","0.4","0.3440646931","0.1584193753","0.3307995119","0.06548077564","","","","","","","","","","","","76","L","3","","","104","main_expt"
"","bandit","184","505388","0.0-145.0-0.0","61025547","wem/bandit_either_2","A3RIFUEQ95MR16","either","4","701","","","","","","","0","0","1","0.07577357845","","0.8","0.6","0.2","0.4","","","","","0.330981063","0.192058402","0.3078297571","0.07577357845","","","","","","","","76","L","3","","","105","main_expt"
"","bandit","185","507004","0.0-146.0-0.0","61025547","wem/bandit_either_2","A3RIFUEQ95MR16","either","4","109","","","","","","","0","0","1","","0.09041352565","0.8","0.6","0.2","0.4","0.3317280627","0.1562344916","0.3202685942","0.09041352565","","","","","","","","","","","","76","L","3","","","106","main_expt"
"","bandit","186","508876","0.0-147.0-0.0","61025547","wem/bandit_either_2","A3RIFUEQ95MR16","either","4","366","","","","","","","0","0","1","0.1184921167","","0.8","0.6","0.2","0.4","","","","","0.2760665195","0.1493116313","0.3163418234","0.1184921167","","","","","","","","76","L","3","","","107","main_expt"
"","bandit","187","510605","0.0-148.0-0.0","61025547","wem/bandit_either_2","A3RIFUEQ95MR16","either","4","220","","","","","","","0","0","1","0.1057615429","","0.8","0.6","0.2","0.4","","","","","0.2826301941","0.1357435498","0.3425943818","0.1057615429","","","","","","","","76","L","3","","","108","main_expt"
"","bandit","188","512252","0.0-149.0-0.0","61025547","wem/bandit_either_2","A3RIFUEQ95MR16","either","4","139","","","","","","","0","0","1","","0.1464484126","0.8","0.6","0.2","0.4","0.318117281","0.1164074326","0.2852030557","0.1464484126","","","","","","","","","","","","76","L","3","","","109","main_expt"
"","bandit","189","513868","0.0-150.0-0.0","61025547","wem/bandit_either_2","A3RIFUEQ95MR16","either","4","99","","","","","","","0","0","1","0.1641354829","","0.8","0.6","0.2","0.4","","","","","0.3358587519","0.1444451916","0.3392406975","0.1641354829","","","","","","","","76","L","3","","","110","main_expt"
"","bandit","190","515404","0.0-151.0-0.0","61025547","wem/bandit_either_2","A3RIFUEQ95MR16","either","4","27","","","","","","","0","0","1","0.1386891192","","0.8","0.6","0.2","0.4","","","","","0.3031660534","0.09905323685","0.3023411017","0.1386891192","","","","","","","","76","L","3","","","111","main_expt"
"","bandit","191","517371","0.0-152.0-0.0","61025547","wem/bandit_either_2","A3RIFUEQ95MR16","either","4","461","","","","","","","0","0","1","","0.1847512065","0.8","0.6","0.2","0.4","0.2773548355","0.09652445584","0.296849772","0.1847512065","","","","","","","","","","","","76","L","3","","","112","main_expt"
"","bandit","192","519323","0.0-153.0-0.0","61025547","wem/bandit_either_2","A3RIFUEQ95MR16","either","4","445","","","","","","","0","0","1","","0.2673419259","0.8","0.6","0.2","0.4","0.2370758425","0.09961189632","0.2673419259","0.1304555333","","","","","","","","","","","","75","K","2","","","113","main_expt"
"","bandit","193","521052","0.0-154.0-0.0","61025547","wem/bandit_either_2","A3RIFUEQ95MR16","either","4","222","","","","","","","0","1","0","","0.2670531803","0.8","0.6","0.2","0.4","0.1821928837","0.1036139638","0.2670531803","0.1770102637","","","","","","","","","","","","75","K","2","","","114","main_expt"
"","bandit","194","522573","0.0-155.0-0.0","61025547","wem/bandit_either_2","A3RIFUEQ95MR16","either","4","12","","","","","","","0","0","1","","0.2825009356","0.8","0.6","0.2","0.4","0.1315453283","0.0968506792","0.2825009356","0.1564651975","","","","","","","","","","","","75","K","2","","","115","main_expt"
"","bandit","195","524220","0.0-156.0-0.0","61025547","wem/bandit_either_2","A3RIFUEQ95MR16","either","4","139","","","","","","","0","0","1","","0.3237719372","0.8","0.6","0.2","0.4","0.1102777544","0.08782875681","0.3237719372","0.1665702367","","","","","","","","","","","","75","K","2","","","116","main_expt"
"","bandit","196","525996","0.0-157.0-0.0","61025547","wem/bandit_either_2","A3RIFUEQ95MR16","either","4","269","","","","","","","0","0","1","","0.3154846423","0.8","0.6","0.2","0.4","0.1101610351","0.06031800864","0.3154846423","0.1530687496","","","","","","","","","","","","75","K","2","","","117","main_expt"
"","bandit","197","527556","0.0-158.0-0.0","61025547","wem/bandit_either_2","A3RIFUEQ95MR16","either","4","29","","","","","","","0","0","1","","0.2584508078","0.8","0.6","0.2","0.4","0.122460482","0.05633053331","0.2584508078","0.1674206906","","","","","","","","","","","","75","K","2","","","118","main_expt"
"","bandit","198","529348","0.0-159.0-0.0","61025547","wem/bandit_either_2","A3RIFUEQ95MR16","either","4","285","","","","","","","0","0","1","","0.07530514027","0.8","0.6","0.2","0.4","0.1451868924","0.07530514027","0.2141905193","0.1990215448","","","","","","","","","","","","74","J","1","","","119","main_expt"
"","bandit","199","531117","0.0-160.0-0.0","61025547","wem/bandit_either_2","A3RIFUEQ95MR16","either","4","261","","","","","","","0","0","1","0.09639595661","","0.8","0.6","0.2","0.4","","","","","0.09092593383","0.09639595661","0.2341954374","0.2208640619","","","","","","","","74","J","1","","","120","main_expt"
"","bandit","200","532908","0.0-161.0-0.0","61025547","wem/bandit_either_2","A3RIFUEQ95MR16","either","4","284","","","","","","","0","0","1","0.1421799471","","0.8","0.6","0.2","0.4","","","","","0.1080456108","0.1421799471","0.1886372651","0.2602917539","","","","","","","","74","J","1","","","121","main_expt"
"","bandit","201","534621","0.0-162.0-0.0","61025547","wem/bandit_either_2","A3RIFUEQ95MR16","either","4","203","","","","","","","0","0","1","","0.1624760489","0.8","0.6","0.2","0.4","0.1169053248","0.1624760489","0.1597592322","0.2512498235","","","","","","","","","","","","74","J","1","","","122","main_expt"
"","bandit","202","536188","0.0-163.0-0.0","61025547","wem/bandit_either_2","A3RIFUEQ95MR16","either","4","60","","","","","","","1","0","0","0.1640214383","","0.8","0.6","0.2","0.4","","","","","0.1571594809","0.1640214383","0.1895266442","0.2266242761","","","","","","","","74","J","1","","","123","main_expt"
"","bandit","203","537708","0.0-164.0-0.0","61025547","wem/bandit_either_2","A3RIFUEQ95MR16","either","4","14","","","","","","","0","0","1","0.2014340991","","0.8","0.6","0.2","0.4","","","","","0.2231804049","0.2014340991","0.2042850732","0.2373824638","","","","","","","","74","J","1","","","124","main_expt"
"","bandit","204","539373","0.0-165.0-0.0","61025547","wem/bandit_either_2","A3RIFUEQ95MR16","either","4","140","","","","","","","0","0","1","","0.2229229076","0.8","0.6","0.2","0.4","0.2232794356","0.2229229076","0.1812515389","0.2538727107","","","","","","","","","","","","74","J","1","","","125","main_expt"
"","bandit","205","540956","0.0-166.0-0.0","61025547","wem/bandit_either_2","A3RIFUEQ95MR16","either","4","74","","","","","","","0","0","1","0.2324712723","","0.8","0.6","0.2","0.4","","","","","0.2316903634","0.2324712723","0.1694736183","0.290219491","","","","","","","","74","J","1","","","126","main_expt"
"","bandit","206","542701","0.0-167.0-0.0","61025547","wem/bandit_either_2","A3RIFUEQ95MR16","either","4","239","","","","","","","0","1","0","","0.2628391623","0.8","0.6","0.2","0.4","0.2337524142","0.2628391623","0.1624528765","0.2542505169","","","","","","","","","","","","74","J","1","","","127","main_expt"
"","bandit","207","544268","0.0-168.0-0.0","61025547","wem/bandit_either_2","A3RIFUEQ95MR16","either","4","60","","","","","","","1","0","0","0.2654356302","","0.8","0.6","0.2","0.4","","","","","0.2198210178","0.2654356302","0.1632982916","0.2582316027","","","","","","","","74","J","1","","","128","main_expt"
"","bandit","208","545996","0.0-169.0-0.0","61025547","wem/bandit_either_2","A3RIFUEQ95MR16","either","4","221","","","","","","","0","0","1","0.2070569149","","0.8","0.6","0.2","0.4","","","","","0.2280168395","0.2070569149","0.2264598068","0.3267566011","","","","","","","","74","J","1","","","129","main_expt"
"","bandit","209","547647","0.0-170.0-0.0","61025547","wem/bandit_either_2","A3RIFUEQ95MR16","either","4","140","","","","","","","0","0","1","0.2579182239","","0.8","0.6","0.2","0.4","","","","","0.243895296","0.2579182239","0.202760285","0.3323271388","","","","","","","","74","J","1","","","130","main_expt"
"","bandit","210","549228","0.0-171.0-0.0","61025547","wem/bandit_either_2","A3RIFUEQ95MR16","either","4","74","","","","","","","0","0","1","","0.2329110821","0.8","0.6","0.2","0.4","0.2164454501","0.2329110821","0.1585094705","0.2666668646","","","","","","","","","","","","74","J","1","","","131","main_expt"
"","bandit","211","550781","0.0-172.0-0.0","61025547","wem/bandit_either_2","A3RIFUEQ95MR16","either","4","44","","","","","","","0","0","1","0.2400232435","","0.8","0.6","0.2","0.4","","","","","0.200468731","0.2400232435","0.1304261544","0.2359119393","","","","","","","","74","J","1","","","132","main_expt"
"","bandit","212","552604","0.0-173.0-0.0","61025547","wem/bandit_either_2","A3RIFUEQ95MR16","either","4","315","","","","","","","0","1","0","","0.2084798617","0.8","0.6","0.2","0.4","0.2038597077","0.2084798617","0.09339990826","0.2540740643","","","","","","","","","","","","74","J","1","","","133","main_expt"
"","bandit","213","554667","0.0-174.0-0.0","61025547","wem/bandit_either_2","A3RIFUEQ95MR16","either","4","556","","","","","","","0","0","1","0.2034544","","0.8","0.6","0.2","0.4","","","","","0.2263269307","0.2034544","0.08524612959","0.2414927735","","","","","","","","74","J","1","","","134","main_expt"
"","bandit","214","556331","0.0-175.0-0.0","61025547","wem/bandit_either_2","A3RIFUEQ95MR16","either","4","157","","","","","","","0","0","1","0.2088958693","","0.8","0.6","0.2","0.4","","","","","0.2686469146","0.2088958693","0.0622033461","0.2632369982","","","","","","","","74","J","1","","","135","main_expt"
"","bandit","215","558009","0.0-176.0-0.0","61025547","wem/bandit_either_2","A3RIFUEQ95MR16","either","4","173","","","","","","","0","1","0","","0.2573758916","0.8","0.6","0.2","0.4","0.3170393738","0.2573758916","0.05632890875","0.3032623762","","","","","","","","","","","","74","J","1","","","136","main_expt"
"","bandit","216","559624","0.0-177.0-0.0","61025547","wem/bandit_either_2","A3RIFUEQ95MR16","either","4","107","","","","","","","1","0","0","0.338962466","","0.8","0.6","0.2","0.4","","","","","0.338962466","0.2467438462","0.06052980877","0.2984046037","","","","","","","","72","H","0","img/none_selected.jpg","","137","main_expt"
"","bandit","217","561240","0.0-178.0-0.0","61025547","wem/bandit_either_2","A3RIFUEQ95MR16","either","4","109","","","","","","","0","0","1","0.3586643031","","0.8","0.6","0.2","0.4","","","","","0.3586643031","0.2221944767","0.1038497792","0.3110629865","","","","","","","","72","H","0","img/none_selected.jpg","","138","main_expt"
"","bandit","218","562935","0.0-179.0-0.0","61025547","wem/bandit_either_2","A3RIFUEQ95MR16","either","4","156","","","","","","","0","0","1","","0.3430902759","0.8","0.6","0.2","0.4","0.3430902759","0.2750517365","0.08561062373","0.3048373826","","","","","","","","","","","","72","H","0","img/none_selected.jpg","","139","main_expt"
"","bandit","219","564777","0.0-180.0-0.0","61025547","wem/bandit_either_2","A3RIFUEQ95MR16","either","4","335","","","","","","","0","0","1","0.3777112835","","0.8","0.6","0.2","0.4","","","","","0.3777112835","0.277474309","0.08025295029","0.3163642845","","","","","","","","72","H","0","img/none_selected.jpg","","140","main_expt"
"","bandit","220","566344","0.0-181.0-0.0","61025547","wem/bandit_either_2","A3RIFUEQ95MR16","either","4","57","","","","","","","0","0","1","0.4276051364","","0.8","0.6","0.2","0.4","","","","","0.4276051364","0.2932007391","0.09309891757","0.2213861514","","","","","","","","72","H","0","img/none_selected.jpg","","141","main_expt"
"","bandit","221","567935","0.0-182.0-0.0","61025547","wem/bandit_either_2","A3RIFUEQ95MR16","either","4","60","","","","","","","0","0","1","","0.1107976638","0.8","0.6","0.2","0.4","0.4312347149","0.3001807938","0.1107976638","0.2492613222","","","","","","","","","","","","75","K","2","","","142","main_expt"
"","bandit","222","569736","0.0-183.0-0.0","61025547","wem/bandit_either_2","A3RIFUEQ95MR16","either","4","291","","","","","","","0","0","1","0.3640878437","","0.8","0.6","0.2","0.4","","","","","0.386657586","0.3640878437","0.09575525052","0.2645663874","","","","","","","","74","J","1","","","143","main_expt"
"","bandit","223","571305","0.0-184.0-0.0","61025547","wem/bandit_either_2","A3RIFUEQ95MR16","either","4","60","","","","","","","0","0","1","0.3409851627","","0.8","0.6","0.2","0.4","","","","","0.3409851627","0.2706796495","0.07222794989","0.2928215939","","","","","","","","72","H","0","img/none_selected.jpg","","144","main_expt"
"","bandit","224","573304","0.0-185.0-0.0","61025547","wem/bandit_either_2","A3RIFUEQ95MR16","either","4","492","","","","","","","0","1","0","","0.2359726437","0.8","0.6","0.2","0.4","0.3538709708","0.2359726437","0.03203798906","0.3178979655","","","","","","","","","","","","74","J","1","","","145","main_expt"
"","bandit","225","574936","0.0-186.0-0.0","61025547","wem/bandit_either_2","A3RIFUEQ95MR16","either","4","95","","","","","","","0","0","1","","0.03073079809","0.8","0.6","0.2","0.4","0.2745956728","0.2200332621","0.03073079809","0.2850957273","","","","","","","","","","","","75","K","2","","","146","main_expt"
"","bandit","226","576568","0.0-187.0-0.0","61025547","wem/bandit_either_2","A3RIFUEQ95MR16","either","4","126","","","","","","","0","0","1","","0.2375793476","0.8","0.6","0.2","0.4","0.2375793476","0.1957794229","0.05105424151","0.2483519338","","","","","","","","","","","","72","H","0","img/none_selected.jpg","","147","main_expt"
"","bandit","227","578184","0.0-188.0-0.0","61025547","wem/bandit_either_2","A3RIFUEQ95MR16","either","4","109","","","","","","","1","0","0","0.1790722045","","0.8","0.6","0.2","0.4","","","","","0.2954602587","0.1790722045","0.04045355104","0.2309770791","","","","","","","","74","J","1","","","148","main_expt"
"","bandit","228","579816","0.0-189.0-0.0","61025547","wem/bandit_either_2","A3RIFUEQ95MR16","either","4","124","","","","","","","0","0","1","0.06416506337","","0.8","0.6","0.2","0.4","","","","","0.3435099865","0.2189150546","0.06416506337","0.1759049641","","","","","","","","75","K","2","","","149","main_expt"
"","bandit","229","581368","0.0-190.0-0.0","61025547","wem/bandit_either_2","A3RIFUEQ95MR16","either","4","45","","","","","","","0","0","1","0.2119229637","","0.8","0.6","0.2","0.4","","","","","0.268900415","0.2119229637","0.07819388902","0.1910702346","","","","","","","","74","J","1","","","150","main_expt"
"","bandit","230","583064","0.0-191.0-0.0","61025547","wem/bandit_either_2","A3RIFUEQ95MR16","either","4","188","","","","","","","1","0","0","0.2326488896","","0.8","0.6","0.2","0.4","","","","","0.2326488896","0.2472398003","0.1186979887","0.1799178466","","","","","","","","72","H","0","img/none_selected.jpg","","151","main_expt"
"","bandit","231","584712","0.0-192.0-0.0","61025547","wem/bandit_either_2","A3RIFUEQ95MR16","either","4","139","","","","","","","0","0","1","0.2768057641","","0.8","0.6","0.2","0.4","","","","","0.2768057641","0.2148428051","0.1084773402","0.1826140084","","","","","","","","72","H","0","img/none_selected.jpg","","152","main_expt"
"","bandit","232","586296","0.0-193.0-0.0","61025547","wem/bandit_either_2","A3RIFUEQ95MR16","either","4","74","","","","","","","0","0","1","0.1598057249","","0.8","0.6","0.2","0.4","","","","","0.2997660112","0.1598057249","0.1314289417","0.147924298","","","","","","","","74","J","1","","","153","main_expt"
"","bandit","233","588151","0.0-194.0-0.0","61025547","wem/bandit_either_2","A3RIFUEQ95MR16","either","4","348","","","","","","","0","0","1","","0.1354051011","0.8","0.6","0.2","0.4","0.3196464983","0.1489099923","0.1354051011","0.1388357139","","","","","","","","","","","","75","K","2","","","154","main_expt"
"","bandit","234","589815","0.0-195.0-0.0","61025547","wem/bandit_either_2","A3RIFUEQ95MR16","either","4","155","","","","","","","0","0","1","","0.1085215933","0.8","0.6","0.2","0.4","0.3141654429","0.1502541116","0.1085215933","0.1658398244","","","","","","","","","","","","75","K","2","","","155","main_expt"
"","bandit","235","591559","0.0-196.0-0.0","61025547","wem/bandit_either_2","A3RIFUEQ95MR16","either","4","237","","","","","","","0","0","1","0.1605084188","","0.8","0.6","0.2","0.4","","","","","0.2667217688","0.1605084188","0.1383379057","0.1104921729","","","","","","","","74","J","1","","","156","main_expt"
"","bandit","236","593512","0.0-197.0-0.0","61025547","wem/bandit_either_2","A3RIFUEQ95MR16","either","4","445","","","","","","","0","0","1","0.1684101418","","0.8","0.6","0.2","0.4","","","","","0.2867075714","0.1684101418","0.1428990181","0.09530810267","","","","","","","","74","J","1","","","157","main_expt"
"","bandit","237","595304","0.0-198.0-0.0","61025547","wem/bandit_either_2","A3RIFUEQ95MR16","either","4","285","","","","","","","0","0","1","0.2788639118","","0.8","0.6","0.2","0.4","","","","","0.2788639118","0.1807688322","0.07455979893","0.1211627972","","","","","","","","72","H","0","img/none_selected.jpg","","158","main_expt"
"","bandit","238","596889","0.0-199.0-0.0","61025547","wem/bandit_either_2","A3RIFUEQ95MR16","either","4","78","","","","","","","1","0","0","0.3020710819","","0.8","0.6","0.2","0.4","","","","","0.3020710819","0.1516426412","0.1009372764","0.1012897464","","","","","","","","72","H","0","img/none_selected.jpg","","159","main_expt"
"","bandit","239","598632","0.0-200.0-0.0","61025547","wem/bandit_either_2","A3RIFUEQ95MR16","either","4","235","","","","","","","0","0","1","0.3404227007","","0.8","0.6","0.2","0.4","","","","","0.3404227007","0.1638698877","0.05118862797","0.1188035868","","","","","","","","72","H","0","img/none_selected.jpg","","160","main_expt"
"","bandit","240","600298","0.0-201.0-0.0","61025547","wem/bandit_either_2","A3RIFUEQ95MR16","either","4","157","","","","","","","0","0","1","0.1645359983","","0.8","0.6","0.2","0.4","","","","","0.2876249865","0.1645359983","0.05265847637","0.1606836622","","","","","","","","74","J","1","","","161","main_expt"
"","bandit","241","602058","0.0-202.0-0.0","61025547","wem/bandit_either_2","A3RIFUEQ95MR16","either","4","250","","","","","","","0","0","1","","0.07938684611","0.8","0.6","0.2","0.4","0.2401308511","0.2509918509","0.07938684611","0.1859884171","","","","","","","","","","","","75","K","2","","","162","main_expt"
"","bandit","242","603703","0.0-203.0-0.0","61025547","wem/bandit_either_2","A3RIFUEQ95MR16","either","4","137","","","","","","","0","0","1","0.1883685458","","0.8","0.6","0.2","0.4","","","","","0.2486605046","0.1883685458","0.0970900163","0.2528258464","","","","","","","","74","J","1","","","163","main_expt"
"","bandit","243","605352","0.0-204.0-0.0","61025547","wem/bandit_either_2","A3RIFUEQ95MR16","either","4","141","","","","","","","0","0","1","0.22675384","","0.8","0.6","0.2","0.4","","","","","0.22675384","0.2179532334","0.07401968201","0.2515292425","","","","","","","","72","H","0","img/none_selected.jpg","","164","main_expt"
"","bandit","244","607224","0.0-205.0-0.0","61025547","wem/bandit_either_2","A3RIFUEQ95MR16","either","4","364","","","","","","","0","0","1","0.2841151948","","0.8","0.6","0.2","0.4","","","","","0.2841151948","0.2143704678","0.06633104104","0.2068970429","","","","","","","","72","H","0","img/none_selected.jpg","","165","main_expt"
"","bandit","245","609287","0.0-206.0-0.0","61025547","wem/bandit_either_2","A3RIFUEQ95MR16","either","4","556","","","","","","","0","0","1","0.2175899085","","0.8","0.6","0.2","0.4","","","","","0.2842980464","0.2175899085","0.05309652092","0.1413778631","","","","","","","","74","J","1","","","166","main_expt"
"","bandit","246","611065","0.0-207.0-0.0","61025547","wem/bandit_either_2","A3RIFUEQ95MR16","either","4","268","","","","","","","0","0","1","","0.07357446968","0.8","0.6","0.2","0.4","0.3007590714","0.2137120923","0.07357446968","0.1999497975","","","","","","","","","","","","75","K","2","","","167","main_expt"
"","bandit","247","614232","0.0-208.0-0.0","61025547","wem/bandit_either_2","A3RIFUEQ95MR16","either","4","1659","","","","","","","1","0","0","0.2331560811","","0.8","0.6","0.2","0.4","","","","","0.2884936601","0.2331560811","0.1054325378","0.1696145944","","","","","","","","74","J","1","","","168","main_expt"
"","bandit","248","616264","0.0-209.0-0.0","61025547","wem/bandit_either_2","A3RIFUEQ95MR16","either","4","524","","","","","","","0","0","1","","0.2803439438","0.8","0.6","0.2","0.4","0.2803439438","0.2367963754","0.08536867429","0.1338518967","","","","","","","","","","","","72","H","0","img/none_selected.jpg","","169","main_expt"
"","bandit","249","617958","0.0-210.0-0.0","61025547","wem/bandit_either_2","A3RIFUEQ95MR16","either","4","188","","","","","","","0","1","0","","0.2378050175","0.8","0.6","0.2","0.4","0.3010437192","0.2378050175","0.1083432756","0.1307598277","","","","","","","","","","","","74","J","1","","","170","main_expt"
"","bandit","250","619877","0.0-211.0-0.0","61025547","wem/bandit_either_2","A3RIFUEQ95MR16","either","4","411","","","","","","","0","1","0","","0.09185370626","0.8","0.6","0.2","0.4","0.3243802095","0.2253696972","0.09185370626","0.1200375331","","","","","","","","","","","","75","K","2","","","171","main_expt"
"","bandit","251","621540","0.0-212.0-0.0","61025547","wem/bandit_either_2","A3RIFUEQ95MR16","either","4","155","","","","","","","0","0","1","0.3140094691","","0.8","0.6","0.2","0.4","","","","","0.3140094691","0.2903394368","0.09458096772","0.07514546963","","","","","","","","72","H","0","img/none_selected.jpg","","172","main_expt"
"","bandit","252","623307","0.0-213.0-0.0","61025547","wem/bandit_either_2","A3RIFUEQ95MR16","either","4","221","","","","","","","0","0","1","0.2384828248","","0.8","0.6","0.2","0.4","","","","","0.2433770114","0.2384828248","0.1016296913","0.07704486673","","","","","","","","74","J","1","","","173","main_expt"
"","bandit","253","625028","0.0-214.0-0.0","61025547","wem/bandit_either_2","A3RIFUEQ95MR16","either","4","213","","","","","","","0","0","1","0.117107939","","0.8","0.6","0.2","0.4","","","","","0.2080779891","0.2823111034","0.117107939","0.04061738922","","","","","","","","75","K","2","","","174","main_expt"
"","bandit","254","626852","0.0-215.0-0.0","61025547","wem/bandit_either_2","A3RIFUEQ95MR16","either","4","309","","","","","","","0","0","1","","0.292147578","0.8","0.6","0.2","0.4","0.2211365803","0.292147578","0.1254773658","0.02968316822","","","","","","","","","","","","74","J","1","","","175","main_expt"
"","bandit","255","628390","0.0-216.0-0.0","61025547","wem/bandit_either_2","A3RIFUEQ95MR16","either","4","29","","","","","","","0","0","1","0.231280906","","0.8","0.6","0.2","0.4","","","","","0.231280906","0.2928295457","0.1518856622","0.04419366322","","","","","","","","72","H","0","img/none_selected.jpg","","176","main_expt"
"","bandit","256","629911","0.0-217.0-0.0","61025547","wem/bandit_either_2","A3RIFUEQ95MR16","either","4","11","","","","","","","0","1","0","","0.1502483312","0.8","0.6","0.2","0.4","0.1689881391","0.297241693","0.1502483312","0.04140429262","","","","","","","","","","","","75","K","2","","","177","main_expt"
"","bandit","257","631589","0.0-218.0-0.0","61025547","wem/bandit_either_2","A3RIFUEQ95MR16","either","4","167","","","","","","","0","0","1","0.276241128","","0.8","0.6","0.2","0.4","","","","","0.1699404395","0.276241128","0.2073149786","0.06103489621","","","","","","","","74","J","1","","","178","main_expt"
"","bandit","258","633205","0.0-219.0-0.0","61025547","wem/bandit_either_2","A3RIFUEQ95MR16","either","4","108","","","","","","","0","0","1","0.1571972967","","0.8","0.6","0.2","0.4","","","","","0.1571972967","0.2405339857","0.1928578162","0.053608248","","","","","","","","72","H","0","img/none_selected.jpg","","179","main_expt"
"","bandit","259","634936","0.0-220.0-0.0","61025547","wem/bandit_either_2","A3RIFUEQ95MR16","either","4","202","","","","","","","0","0","1","","0.1567782565","0.8","0.6","0.2","0.4","0.1567782565","0.233428307","0.1412953234","0.06289379635","","","","","","","","","","","","72","H","0","img/none_selected.jpg","","180","main_expt"
"","bandit","260","636661","0.0-221.0-0.0","61025547","wem/bandit_either_2","A3RIFUEQ95MR16","either","4","217","","","","","","","0","0","1","0.1459310114","","0.8","0.6","0.2","0.4","","","","","0.1492691696","0.1459310114","0.1258774719","0.07748386732","","","","","","","","74","J","1","","","181","main_expt"
"","bandit","261","638405","0.0-222.0-0.0","61025547","wem/bandit_either_2","A3RIFUEQ95MR16","either","4","235","","","","","","","0","0","1","0.1796360657","","0.8","0.6","0.2","0.4","","","","","0.1609613705","0.1796360657","0.1121960069","0.096714051","","","","","","","","74","J","1","","","182","main_expt"
"","bandit","262","640260","0.0-223.0-0.0","61025547","wem/bandit_either_2","A3RIFUEQ95MR16","either","4","347","","","","","","","0","0","1","0.1907874973","","0.8","0.6","0.2","0.4","","","","","0.1982891881","0.1907874973","0.08335286121","0.05351369794","","","","","","","","74","J","1","","","183","main_expt"
"","bandit","263","642053","0.0-224.0-0.0","61025547","wem/bandit_either_2","A3RIFUEQ95MR16","either","4","284","","","","","","","1","0","0","0.1451627339","","0.8","0.6","0.2","0.4","","","","","0.1703318442","0.1451627339","0.1085923678","0.08854511538","","","","","","","","74","J","1","","","184","main_expt"
"","bandit","264","643732","0.0-225.0-0.0","61025547","wem/bandit_either_2","A3RIFUEQ95MR16","either","4","170","","","","","","","0","0","1","0.09566746086","","0.8","0.6","0.2","0.4","","","","","0.09566746086","0.1692531577","0.1113654269","0.136385666","","","","","","","","72","H","0","img/none_selected.jpg","","185","main_expt"
"","bandit","265","645685","0.0-226.0-0.0","61025547","wem/bandit_either_2","A3RIFUEQ95MR16","either","4","444","","","","","","","0","0","1","0.1254261761","","0.8","0.6","0.2","0.4","","","","","0.1254261761","0.1885113298","0.1383531569","0.1848043888","","","","","","","","72","H","0","img/none_selected.jpg","","186","main_expt"
"","bandit","266","647461","0.0-227.0-0.0","61025547","wem/bandit_either_2","A3RIFUEQ95MR16","either","4","267","","","","","","","0","0","1","0.1081798115","","0.8","0.6","0.2","0.4","","","","","0.1081798115","0.2088125345","0.1739713275","0.1640989128","","","","","","","","72","H","0","img/none_selected.jpg","","187","main_expt"
"","bandit","267","649350","0.0-228.0-0.0","61025547","wem/bandit_either_2","A3RIFUEQ95MR16","either","4","382","","","","","","","0","0","1","0.08529062399","","0.8","0.6","0.2","0.4","","","","","0.08529062399","0.2228369986","0.1926366302","0.1301402021","","","","","","","","72","H","0","img/none_selected.jpg","","188","main_expt"
"","bandit","268","651077","0.0-229.0-0.0","61025547","wem/bandit_either_2","A3RIFUEQ95MR16","either","4","218","","","","","","","0","0","1","0.07250281893","","0.8","0.6","0.2","0.4","","","","","0.07250281893","0.2567428292","0.2499935398","0.1980942663","","","","","","","","72","H","0","img/none_selected.jpg","","189","main_expt"
"","bandit","269","652949","0.0-230.0-0.0","61025547","wem/bandit_either_2","A3RIFUEQ95MR16","either","4","363","","","","","","","0","0","1","0.07895395147","","0.8","0.6","0.2","0.4","","","","","0.07895395147","0.3177850294","0.2367317824","0.1842725295","","","","","","","","72","H","0","img/none_selected.jpg","","190","main_expt"
"","bandit","270","654869","0.0-231.0-0.0","61025547","wem/bandit_either_2","A3RIFUEQ95MR16","either","4","410","","","","","","","0","0","1","","0.06204701637","0.8","0.6","0.2","0.4","0.06204701637","0.2876912335","0.2515026666","0.2087081259","","","","","","","","","","","","72","H","0","img/none_selected.jpg","","191","main_expt"
"","bandit","271","656453","0.0-232.0-0.0","61025547","wem/bandit_either_2","A3RIFUEQ95MR16","either","4","75","","","","","","","0","0","1","","0.064067899","0.8","0.6","0.2","0.4","0.064067899","0.2383873749","0.2451916405","0.1800110976","","","","","","","","","","","","72","H","0","img/none_selected.jpg","","192","main_expt"
"","bandit","272","658213","0.0-233.0-0.0","61025547","wem/bandit_either_2","A3RIFUEQ95MR16","either","4","250","","","","","","","0","0","1","0.1286650472","","0.8","0.6","0.2","0.4","","","","","0.1286650472","0.24690957","0.2353451433","0.1519186298","","","","","","","","72","H","0","img/none_selected.jpg","","193","main_expt"
"","bandit","273","660100","0.0-234.0-0.0","61025547","wem/bandit_either_2","A3RIFUEQ95MR16","either","4","379","","","","","","","1","0","0","0.1746490116","","0.8","0.6","0.2","0.4","","","","","0.1746490116","0.2728455101","0.307075739","0.1431656489","","","","","","","","72","H","0","img/none_selected.jpg","","194","main_expt"
"","bandit","274","661623","0.0-235.0-0.0","61025547","wem/bandit_either_2","A3RIFUEQ95MR16","either","4","10","","","","","","","0","0","1","","0.2421292151","0.8","0.6","0.2","0.4","0.129035247","0.2421292151","0.3011001907","0.1868251083","","","","","","","","","","","","74","J","1","","","195","main_expt"
"","bandit","275","663509","0.0-236.0-0.0","61025547","wem/bandit_either_2","A3RIFUEQ95MR16","either","4","377","","","","","","","0","0","1","","0.2598052724","0.8","0.6","0.2","0.4","0.09052040682","0.2598052724","0.2861216794","0.176624335","","","","","","","","","","","","74","J","1","","","196","main_expt"
"","bandit","276","665253","0.0-237.0-0.0","61025547","wem/bandit_either_2","A3RIFUEQ95MR16","either","4","236","","","","","","","0","0","1","0.2540930088","","0.8","0.6","0.2","0.4","","","","","0.08675464884","0.2540930088","0.2121549007","0.2383323772","","","","","","","","74","J","1","","","197","main_expt"
"","bandit","277","666981","0.0-238.0-0.0","61025547","wem/bandit_either_2","A3RIFUEQ95MR16","either","4","218","","","","","","","0","0","1","","0.2460150375","0.8","0.6","0.2","0.4","0.09429549835","0.2460150375","0.260340052","0.260618614","","","","","","","","","","","","74","J","1","","","198","main_expt"
"","bandit","278","668758","0.0-239.0-0.0","61025547","wem/bandit_either_2","A3RIFUEQ95MR16","either","4","268","","","","","","","0","0","1","0.2217343644","","0.8","0.6","0.2","0.4","","","","","0.09303778716","0.2217343644","0.3009562829","0.2935067364","","","","","","","","74","J","1","","","199","main_expt"
"","bandit","279","670486","0.0-240.0-0.0","61025547","wem/bandit_either_2","A3RIFUEQ95MR16","either","4","217","","","","","","","0","0","1","","0.2830302048","0.8","0.6","0.2","0.4","0.07354084322","0.2830302048","0.3430896668","0.362920627","","","","","","","","","","","","74","J","1","","","200","main_expt"
"","bandit","280","672357","0.0-241.0-0.0","61025547","wem/bandit_either_2","A3RIFUEQ95MR16","either","4","361","","","","","","","0","0","1","","0.3175621279","0.8","0.6","0.2","0.4","0.08115367452","0.3175621279","0.2973668079","0.3119044903","","","","","","","","","","","","74","J","1","","","201","main_expt"
"","bandit","281","674277","0.0-242.0-0.0","61025547","wem/bandit_either_2","A3RIFUEQ95MR16","either","4","410","","","","","","","1","0","0","0.3049471546","","0.8","0.6","0.2","0.4","","","","","0.0774842685","0.3049471546","0.3219337599","0.3095695708","","","","","","","","74","J","1","","","202","main_expt"
"","bandit","282","675813","0.0-243.0-0.0","61025547","wem/bandit_either_2","A3RIFUEQ95MR16","either","4","27","","","","","","","0","1","0","","0.3229991028","0.8","0.6","0.2","0.4","0.09704724367","0.2975042969","0.3229991028","0.3005459379","","","","","","","","","","","","75","K","2","","","203","main_expt"
"","bandit","283","677428","0.0-244.0-0.0","61025547","wem/bandit_either_2","A3RIFUEQ95MR16","either","4","106","","","","","","","0","1","0","","0.3077995671","0.8","0.6","0.2","0.4","0.1224111047","0.2268457719","0.3077995671","0.3116824409","","","","","","","","","","","","75","K","2","","","204","main_expt"
"","bandit","284","679026","0.0-245.0-0.0","61025547","wem/bandit_either_2","A3RIFUEQ95MR16","either","4","91","","","","","","","0","0","1","0.3070199156","","0.8","0.6","0.2","0.4","","","","","0.1627664319","0.2582085449","0.3070199156","0.3291635812","","","","","","","","75","K","2","","","205","main_expt"
"","bandit","285","680771","0.0-246.0-0.0","61025547","wem/bandit_either_2","A3RIFUEQ95MR16","either","4","236","","","","","","","0","0","1","","0.3109683939","0.8","0.6","0.2","0.4","0.1604236747","0.2841247045","0.3109683939","0.4008790519","","","","","","","","","","","","75","K","2","","","206","main_expt"
"","bandit","286","682610","0.0-247.0-0.0","61025547","wem/bandit_either_2","A3RIFUEQ95MR16","either","4","331","","","","","","","0","1","0","","0.2845075958","0.8","0.6","0.2","0.4","0.126388554","0.3333225396","0.2845075958","0.4202180382","","","","","","","","","","","","75","K","2","","","207","main_expt"
"","bandit","287","684162","0.0-248.0-0.0","61025547","wem/bandit_either_2","A3RIFUEQ95MR16","either","4","44","","","","","","","0","0","1","","0.2419557814","0.8","0.6","0.2","0.4","0.1602309633","0.290219871","0.2419557814","0.4168586074","","","","","","","","","","","","75","K","2","","","208","main_expt"
"","bandit","288","686051","0.0-249.0-0.0","61025547","wem/bandit_either_2","A3RIFUEQ95MR16","either","4","378","","","","","","","0","0","1","","0.2449545816","0.8","0.6","0.2","0.4","0.2009997365","0.3426384504","0.2449545816","0.3949328033","","","","","","","","","","","","75","K","2","","","209","main_expt"
"","bandit","289","688018","0.0-250.0-0.0","61025547","wem/bandit_either_2","A3RIFUEQ95MR16","either","4","459","","","","","","","0","0","1","0.2176860071","","0.8","0.6","0.2","0.4","","","","","0.1997114924","0.2932754766","0.2176860071","0.41782505","","","","","","","","75","K","2","","","210","main_expt"
"","bandit","290","689794","0.0-251.0-0.0","61025547","wem/bandit_either_2","A3RIFUEQ95MR16","either","4","268","","","","","","","0","0","1","0.2460847292","","0.8","0.6","0.2","0.4","","","","","0.2631807131","0.2522206247","0.2460847292","0.4377941382","","","","","","","","75","K","2","","","211","main_expt"
"","bandit","291","691932","0.0-252.0-0.0","61025547","wem/bandit_either_2","A3RIFUEQ95MR16","either","4","619","","","","","","","0","1","0","","0.4619006446","0.8","0.6","0.2","0.4","0.2008991105","0.2323705111","0.2017704833","0.4619006446","","","","","","","","","","","","76","L","3","","","212","main_expt"
"","bandit","292","693762","0.0-253.0-0.0","61025547","wem/bandit_either_2","A3RIFUEQ95MR16","either","4","321","","","","","","","0","0","1","","0.4508737721","0.8","0.6","0.2","0.4","0.1656487101","0.2815580385","0.1891715169","0.4508737721","","","","","","","","","","","","76","L","3","","","213","main_expt"
"","bandit","293","695553","0.0-254.0-0.0","61025547","wem/bandit_either_2","A3RIFUEQ95MR16","either","4","283","","","","","","","0","1","0","","0.4639731149","0.8","0.6","0.2","0.4","0.213788386","0.2955812139","0.1819308411","0.4639731149","","","","","","","","","","","","76","L","3","","","214","main_expt"
"","bandit","294","697378","0.0-255.0-0.0","61025547","wem/bandit_either_2","A3RIFUEQ95MR16","either","4","316","","","","","","","1","0","0","0.4690757113","","0.8","0.6","0.2","0.4","","","","","0.2206736926","0.2988647484","0.1406935411","0.4690757113","","","","","","","","76","L","3","","","215","main_expt"
"","bandit","295","699010","0.0-256.0-0.0","61025547","wem/bandit_either_2","A3RIFUEQ95MR16","either","4","124","","","","","","","0","1","0","","0.4685680314","0.8","0.6","0.2","0.4","0.2270120675","0.3361974059","0.206739756","0.4685680314","","","","","","","","","","","","76","L","3","","","216","main_expt"
"","bandit","296","700594","0.0-257.0-0.0","61025547","wem/bandit_either_2","A3RIFUEQ95MR16","either","4","76","","","","","","","1","0","0","0.4873952874","","0.8","0.6","0.2","0.4","","","","","0.2561581829","0.2764506131","0.178624692","0.4873952874","","","","","","","","76","L","3","","","217","main_expt"
"","bandit","297","702211","0.0-258.0-0.0","61025547","wem/bandit_either_2","A3RIFUEQ95MR16","either","4","108","","","","","","","1","0","0","0.4790671899","","0.8","0.6","0.2","0.4","","","","","0.2785758431","0.299893698","0.2021641755","0.4790671899","","","","","","","","76","L","3","","","218","main_expt"
"","bandit","298","703986","0.0-259.0-0.0","61025547","wem/bandit_either_2","A3RIFUEQ95MR16","either","4","267","","","","","","","1","0","0","0.4769795117","","0.8","0.6","0.2","0.4","","","","","0.2707863597","0.3213687962","0.2076996705","0.4769795117","","","","","","","","76","L","3","","","219","main_expt"
"","bandit","299","705538","0.0-260.0-0.0","61025547","wem/bandit_either_2","A3RIFUEQ95MR16","either","4","43","","","","","","","0","1","0","","0.4746148145","0.8","0.6","0.2","0.4","0.2262269101","0.3782095139","0.2479045362","0.4746148145","","","","","","","","","","","","76","L","3","","","220","main_expt"
"","bandit","300","707170","0.0-261.0-0.0","61025547","wem/bandit_either_2","A3RIFUEQ95MR16","either","4","124","","","","","","","0","0","1","","0.4789253058","0.8","0.6","0.2","0.4","0.2522421151","0.3572699546","0.251163546","0.4789253058","","","","","","","","","","","","76","L","3","","","221","main_expt"
"","bandit","301","708898","0.0-262.0-0.0","61025547","wem/bandit_either_2","A3RIFUEQ95MR16","either","4","217","","","","","","","0","0","1","0.4765400837","","0.8","0.6","0.2","0.4","","","","","0.2323100388","0.332217079","0.2653622565","0.4765400837","","","","","","","","76","L","3","","","222","main_expt"
"","bandit","302","710626","0.0-263.0-0.0","61025547","wem/bandit_either_2","A3RIFUEQ95MR16","either","4","217","","","","","","","0","0","1","","0.4872993944","0.8","0.6","0.2","0.4","0.2013525365","0.3327789551","0.2034578964","0.4872993944","","","","","","","","","","","","76","L","3","","","223","main_expt"
"","bandit","303","712303","0.0-264.0-0.0","61025547","wem/bandit_either_2","A3RIFUEQ95MR16","either","4","169","","","","","","","0","0","1","","0.1176985371","0.8","0.6","0.2","0.4","0.2017363432","0.3720138676","0.1176985371","0.4864577786","","","","","","","","","","","","75","K","2","","","224","main_expt"
"","bandit","304","714417","0.0-265.0-0.0","61025547","wem/bandit_either_2","A3RIFUEQ95MR16","either","4","605","","","","","","","0","0","1","","0.08531446518","0.8","0.6","0.2","0.4","0.1608447522","0.4035982493","0.08531446518","0.4815865163","","","","","","","","","","","","75","K","2","","","225","main_expt"
"","bandit","305","716114","0.0-266.0-0.0","61025547","wem/bandit_either_2","A3RIFUEQ95MR16","either","4","187","","","","","","","0","0","1","0.2023183299","","0.8","0.6","0.2","0.4","","","","","0.2023183299","0.3538577565","0.0901010045","0.4781941344","","","","","","","","72","H","0","img/none_selected.jpg","","226","main_expt"
"","bandit","306","717908","0.0-267.0-0.0","61025547","wem/bandit_either_2","A3RIFUEQ95MR16","either","4","283","","","","","","","0","0","1","0.1555458008","","0.8","0.6","0.2","0.4","","","","","0.1555458008","0.4205879778","0.06499555022","0.4742279627","","","","","","","","72","H","0","img/none_selected.jpg","","227","main_expt"
"","bandit","307","719585","0.0-268.0-0.0","61025547","wem/bandit_either_2","A3RIFUEQ95MR16","either","4","153","","","","","","","1","0","0","0.4082381823","","0.8","0.6","0.2","0.4","","","","","0.1210896773","0.4082381823","0.06967502077","0.4597327255","","","","","","","","74","J","1","","","228","main_expt"
"","bandit","308","721107","0.0-269.0-0.0","61025547","wem/bandit_either_2","A3RIFUEQ95MR16","either","4","12","","","","","","","0","0","1","0.4274963613","","0.8","0.6","0.2","0.4","","","","","0.1206830913","0.4274963613","0.07642173418","0.4733003713","","","","","","","","74","J","1","","","229","main_expt"
"","bandit","309","722771","0.0-270.0-0.0","61025547","wem/bandit_either_2","A3RIFUEQ95MR16","either","4","156","","","","","","","0","1","0","","0.4362488765","0.8","0.6","0.2","0.4","0.1334008039","0.4362488765","0.04973788902","0.4832022084","","","","","","","","","","","","74","J","1","","","230","main_expt"
"","bandit","310","724322","0.0-271.0-0.0","61025547","wem/bandit_either_2","A3RIFUEQ95MR16","either","4","43","","","","","","","0","0","1","0.4420629534","","0.8","0.6","0.2","0.4","","","","","0.1048467088","0.4420629534","0.07419495466","0.4802630573","","","","","","","","74","J","1","","","231","main_expt"
"","bandit","311","725938","0.0-272.0-0.0","61025547","wem/bandit_either_2","A3RIFUEQ95MR16","either","4","106","","","","","","","1","0","0","0.4287414635","","0.8","0.6","0.2","0.4","","","","","0.1184002818","0.4287414635","0.08125260149","0.4739318499","","","","","","","","74","J","1","","","232","main_expt"
"","bandit","312","727649","0.0-273.0-0.0","61025547","wem/bandit_either_2","A3RIFUEQ95MR16","either","4","202","","","","","","","0","0","1","0.4395511981","","0.8","0.6","0.2","0.4","","","","","0.08533064469","0.4395511981","0.06057073796","0.4709765286","","","","","","","","74","J","1","","","233","main_expt"
"","bandit","313","729266","0.0-274.0-0.0","61025547","wem/bandit_either_2","A3RIFUEQ95MR16","either","4","108","","","","","","","0","0","1","","0.4479240545","0.8","0.6","0.2","0.4","0.1190123434","0.4479240545","0.1037411708","0.4658145356","","","","","","","","","","","","74","J","1","","","234","main_expt"
"","bandit","314","730897","0.0-275.0-0.0","61025547","wem/bandit_either_2","A3RIFUEQ95MR16","either","4","122","","","","","","","1","0","0","0.4476644646","","0.8","0.6","0.2","0.4","","","","","0.1392024459","0.4476644646","0.1267441937","0.4312508187","","","","","","","","74","J","1","","","235","main_expt"
"","bandit","315","732563","0.0-276.0-0.0","61025547","wem/bandit_either_2","A3RIFUEQ95MR16","either","4","157","","","","","","","1","0","0","0.457106966","","0.8","0.6","0.2","0.4","","","","","0.1076242464","0.457106966","0.1002206095","0.4323277229","","","","","","","","74","J","1","","","236","main_expt"
"","bandit","316","734323","0.0-277.0-0.0","61025547","wem/bandit_either_2","A3RIFUEQ95MR16","either","4","252","","","","","","","1","0","0","0.4097288684","","0.8","0.6","0.2","0.4","","","","","0.1539911713","0.4097288684","0.08353940566","0.4517679415","","","","","","","","74","J","1","","","237","main_expt"
"","bandit","317","736018","0.0-278.0-0.0","61025547","wem/bandit_either_2","A3RIFUEQ95MR16","either","4","186","","","","","","","0","0","1","0.4530646831","","0.8","0.6","0.2","0.4","","","","","0.1833253983","0.4530646831","0.07847158511","0.4476427196","","","","","","","","74","J","1","","","238","main_expt"
"","bandit","318","737714","0.0-279.0-0.0","61025547","wem/bandit_either_2","A3RIFUEQ95MR16","either","4","187","","","","","","","0","0","1","0.4532148127","","0.8","0.6","0.2","0.4","","","","","0.185515968","0.4532148127","0.1132310855","0.4421551546","","","","","","","","74","J","1","","","239","main_expt"
"","bandit","319","739374","0.0-280.0-0.0","61025547","wem/bandit_either_2","A3RIFUEQ95MR16","either","4","155","","","","","","","1","0","0","0.4456906816","","0.8","0.6","0.2","0.4","","","","","0.2545144829","0.4456906816","0.130249024","0.4205303603","","","","","","","","74","J","1","","","240","main_expt"
"","bandit","320","741022","0.0-281.0-0.0","61025547","wem/bandit_either_2","A3RIFUEQ95MR16","either","4","139","","","","","","","0","0","1","0.4515134246","","0.8","0.6","0.2","0.4","","","","","0.1902236802","0.4515134246","0.1356270161","0.4304808994","","","","","","","","74","J","1","","","241","main_expt"
"","bandit","321","742799","0.0-282.0-0.0","61025547","wem/bandit_either_2","A3RIFUEQ95MR16","either","4","268","","","","","","","1","0","0","0.4640222466","","0.8","0.6","0.2","0.4","","","","","0.2196571485","0.4640222466","0.1402569013","0.4318168925","","","","","","","","74","J","1","","","242","main_expt"
"","bandit","322","744894","0.0-283.0-0.0","61025547","wem/bandit_either_2","A3RIFUEQ95MR16","either","4","587","","","","","","","0","0","1","0.4305348251","","0.8","0.6","0.2","0.4","","","","","0.2691755858","0.4305348251","0.1851652895","0.4437639365","","","","","","","","74","J","1","","","243","main_expt"
"","bandit","323","746555","0.0-284.0-0.0","61025547","wem/bandit_either_2","A3RIFUEQ95MR16","either","4","139","","","","","","","1","0","0","0.4444417595","","0.8","0.6","0.2","0.4","","","","","0.2689580194","0.4444417595","0.1871667761","0.4444545885","","","","","","","","74","J","1","","","244","main_expt"
"","bandit","324","748333","0.0-285.0-0.0","61025547","wem/bandit_either_2","A3RIFUEQ95MR16","either","4","269","","","","","","","0","0","1","0.4468105605","","0.8","0.6","0.2","0.4","","","","","0.1935089033","0.4468105605","0.1881322931","0.445216333","","","","","","","","74","J","1","","","245","main_expt"
"","bandit","325","750194","0.0-286.0-0.0","61025547","wem/bandit_either_2","A3RIFUEQ95MR16","either","4","283","","","","","","","1","0","0","0.4453418505","","0.8","0.6","0.2","0.4","","","","","0.1466547275","0.4453418505","0.187853128","0.4767449203","","","","","","","","74","J","1","","","246","main_expt"
"","bandit","326","752110","0.0-287.0-0.0","61025547","wem/bandit_either_2","A3RIFUEQ95MR16","either","4","406","","","","","","","1","0","0","0.4426138654","","0.8","0.6","0.2","0.4","","","","","0.1275107348","0.4426138654","0.1952756904","0.4530054638","","","","","","","","74","J","1","","","247","main_expt"
