"consent","trial_type","trial_index","time_elapsed","internal_node_id","subjID","study","MID","cond","drift","rt","responses","key_press","expt_phase","like","value","connected","gems","bombs","no_reward","GemPrChosen","BombPrChosen","GainOverPainPr_0","GainOverPainPr_1","GainOverPainPr_2","GainOverPainPr_3","LosePr_0","LosePr_1","LosePr_2","LosePr_3","WinPr_0","WinPr_1","WinPr_2","WinPr_3","Q0","Q1","Q2","gender","age","ethnicity","target","respCharCode","respKey","respChoiceNum","respChoice","practice","trial_counter","trial_label"
"INL_behavioral_consent_30min_online.html","consent","0","27167","0.0-0.0","62279423","wem/bandit_either_2","A21KGSK2BDVWOA","either","7","","","","","","","","","","","","","","","","","","","","","","","","","","","","","","","","","","","","","",""
"","survey-text","1","41369","0.0-1.0","62279423","wem/bandit_either_2","A21KGSK2BDVWOA","either","7","12934","{""Q0"":""A21KGSK2BDVWOA""}","","","","","","","","","","","","","","","","","","","","","","","","","","","","","","","","","","","",""
"","text","2","57909","0.0-2.0","62279423","wem/bandit_either_2","A21KGSK2BDVWOA","either","7","15526","","32","","","","","","","","","","","","","","","","","","","","","","","","","","","","","","","","","","",""
"","text","3","70223","0.0-3.0","62279423","wem/bandit_either_2","A21KGSK2BDVWOA","either","7","12304","","32","","","","","","","","","","","","","","","","","","","","","","","","","","","","","","","","","","",""
"","text","4","102364","0.0-4.0","62279423","wem/bandit_either_2","A21KGSK2BDVWOA","either","7","32118","","32","","","","","","","","","","","","","","","","","","","","","","","","","","","","","","","","","","",""
"","text","5","124034","0.0-5.0","62279423","wem/bandit_either_2","A21KGSK2BDVWOA","either","7","21650","","32","","","","","","","","","","","","","","","","","","","","","","","","","","","","","","","","","","",""
"","text","6","146605","0.0-6.0","62279423","wem/bandit_either_2","A21KGSK2BDVWOA","either","7","22561","","32","","","","","","","","","","","","","","","","","","","","","","","","","","","","","","","","","","",""
"","text","7","155601","0.0-7.0","62279423","wem/bandit_either_2","A21KGSK2BDVWOA","either","7","8976","","32","","","","","","","","","","","","","","","","","","","","","","","","","","","","","","","","","","",""
"","text","8","163511","0.0-8.0","62279423","wem/bandit_either_2","A21KGSK2BDVWOA","either","7","7899","","32","","","","","","","","","","","","","","","","","","","","","","","","","","","","","","","","","","",""
"","identification","9","176432","0.0-9.0-0.0","62279423","wem/bandit_either_2","A21KGSK2BDVWOA","either","7","12811","","","","6","6","6","","","","","","","","","","","","","","","","","","","","","","","","the village of Zur","","","","","","",""
"","identification","10","183299","0.0-9.0-1.0","62279423","wem/bandit_either_2","A21KGSK2BDVWOA","either","7","5698","","","","3","3","3","","","","","","","","","","","","","","","","","","","","","","","","the village of Nyx","","","","","","",""
"","text","11","192613","0.0-10.0","62279423","wem/bandit_either_2","A21KGSK2BDVWOA","either","7","8241","","32","","","","","","","","","","","","","","","","","","","","","","","","","","","","","","","","","","",""
"","text","12","199014","0.0-11.0","62279423","wem/bandit_either_2","A21KGSK2BDVWOA","either","7","6391","","32","","","","","","","","","","","","","","","","","","","","","","","","","","","","","","","","","","",""
"","text","13","204210","0.0-12.0","62279423","wem/bandit_either_2","A21KGSK2BDVWOA","either","7","5180","","32","","","","","","","","","","","","","","","","","","","","","","","","","","","","","","","","","","",""
"","text","14","210097","0.0-13.0","62279423","wem/bandit_either_2","A21KGSK2BDVWOA","either","7","5868","","32","","","","","","","","","","","","","","","","","","","","","","","","","","","","","","","","","","",""
"","bandit","15","219186","0.0-14.0-0.0","62279423","wem/bandit_either_2","A21KGSK2BDVWOA","either","7","7530","","","","","","","0","0","1","0","0","","","","","0","","","","0","","","","","","","","","","","74","J","0","img/none_selected_demo.jpg","true","0",""
"","bandit","16","222852","0.0-15.0-0.0","62279423","wem/bandit_either_2","A21KGSK2BDVWOA","either","7","2114","","","","","","","0","0","1","0","0","","","","","0","","","","0","","","","","","","","","","","75","K","0","img/none_selected_demo.jpg","true","0",""
"","text","17","236374","0.0-16.0","62279423","wem/bandit_either_2","A21KGSK2BDVWOA","either","7","13511","","32","","","","","","","","","","","","","","","","","","","","","","","","","","","","","","","","","","",""
"","text","18","254401","0.0-17.0","62279423","wem/bandit_either_2","A21KGSK2BDVWOA","either","7","18013","","32","","","","","","","","","","","","","","","","","","","","","","","","","","","","","","","","","","",""
"","text","19","266554","0.0-18.0","62279423","wem/bandit_either_2","A21KGSK2BDVWOA","either","7","12130","","32","","","","","","","","","","","","","","","","","","","","","","","","","","","","","","","","","","",""
"","text","20","273119","0.0-19.0","62279423","wem/bandit_either_2","A21KGSK2BDVWOA","either","7","6552","","32","","","","","","","","","","","","","","","","","","","","","","","","","","","","","","","","","","",""
"","bandit","21","276887","0.0-20.0-0.0","62279423","wem/bandit_either_2","A21KGSK2BDVWOA","either","7","2190","","","","","","","0","1","0","","0.2","0.5","0.5","","","0.8","0.2","","","","","","","","","","","","","","75","K","1","","true","0","80_20_practice"
"","bandit","22","281563","0.0-20.0-1.0","62279423","wem/bandit_either_2","A21KGSK2BDVWOA","either","7","3126","","","","","","","1","0","0","0.8","","0.5","0.5","","","","","","","0.8","0.2","","","","","","","","","","74","J","0","img/none_selected_demo.jpg","true","0","80_20_practice"
"","bandit","23","285955","0.0-20.0-2.0","62279423","wem/bandit_either_2","A21KGSK2BDVWOA","either","7","2844","","","","","","","0","0","1","0.8","","0.5","0.5","","","","","","","0.8","0.2","","","","","","","","","","74","J","0","img/none_selected_demo.jpg","true","0","80_20_practice"
"","bandit","24","288809","0.0-20.0-3.0","62279423","wem/bandit_either_2","A21KGSK2BDVWOA","either","7","885","","","","","","","0","1","0","","0.8","0.5","0.5","","","0.8","0.2","","","","","","","","","","","","","","74","J","0","img/none_selected_demo.jpg","true","0","80_20_practice"
"","bandit","25","291368","0.0-20.0-4.0","62279423","wem/bandit_either_2","A21KGSK2BDVWOA","either","7","972","","","","","","","0","0","1","","0.2","0.5","0.5","","","0.8","0.2","","","","","","","","","","","","","","75","K","1","","true","0","80_20_practice"
"","bandit","26","294881","0.0-20.0-5.0","62279423","wem/bandit_either_2","A21KGSK2BDVWOA","either","7","1269","","","","","","","0","0","1","","0.2","0.5","0.5","","","0.8","0.2","","","","","","","","","","","","","","75","K","1","","true","0","80_20_practice"
"","bandit","27","297745","0.0-20.0-6.0","62279423","wem/bandit_either_2","A21KGSK2BDVWOA","either","7","1295","","","","","","","1","0","0","0.2","","0.5","0.5","","","","","","","0.8","0.2","","","","","","","","","","75","K","1","","true","0","80_20_practice"
"","bandit","28","301401","0.0-20.0-7.0","62279423","wem/bandit_either_2","A21KGSK2BDVWOA","either","7","2058","","","","","","","0","0","1","0.8","","0.5","0.5","","","","","","","0.8","0.2","","","","","","","","","","74","J","0","img/none_selected_demo.jpg","true","0","80_20_practice"
"","bandit","29","304553","0.0-20.0-8.0","62279423","wem/bandit_either_2","A21KGSK2BDVWOA","either","7","1125","","","","","","","0","0","1","0.2","","0.5","0.5","","","","","","","0.8","0.2","","","","","","","","","","75","K","1","","true","0","80_20_practice"
"","bandit","30","307328","0.0-20.0-9.0","62279423","wem/bandit_either_2","A21KGSK2BDVWOA","either","7","1229","","","","","","","0","0","1","","0.2","0.5","0.5","","","0.8","0.2","","","","","","","","","","","","","","75","K","1","","true","0","80_20_practice"
"","bandit","31","310108","0.0-20.0-10.0","62279423","wem/bandit_either_2","A21KGSK2BDVWOA","either","7","1170","","","","","","","1","0","0","0.8","","0.5","0.5","","","","","","","0.8","0.2","","","","","","","","","","74","J","0","img/none_selected_demo.jpg","true","0","80_20_practice"
"","bandit","32","313779","0.0-20.0-11.0","62279423","wem/bandit_either_2","A21KGSK2BDVWOA","either","7","1642","","","","","","","0","1","0","","0.8","0.5","0.5","","","0.8","0.2","","","","","","","","","","","","","","74","J","0","img/none_selected_demo.jpg","true","0","80_20_practice"
"","bandit","33","316017","0.0-20.0-12.0","62279423","wem/bandit_either_2","A21KGSK2BDVWOA","either","7","707","","","","","","","0","1","0","","0.2","0.5","0.5","","","0.8","0.2","","","","","","","","","","","","","","75","K","1","","true","0","80_20_practice"
"","bandit","34","318013","0.0-20.0-13.0","62279423","wem/bandit_either_2","A21KGSK2BDVWOA","either","7","353","","","","","","","0","0","1","0.8","","0.5","0.5","","","","","","","0.8","0.2","","","","","","","","","","74","J","0","img/none_selected_demo.jpg","true","0","80_20_practice"
"","bandit","35","320423","0.0-20.0-14.0","62279423","wem/bandit_either_2","A21KGSK2BDVWOA","either","7","873","","","","","","","1","0","0","0.8","","0.5","0.5","","","","","","","0.8","0.2","","","","","","","","","","74","J","0","img/none_selected_demo.jpg","true","0","80_20_practice"
"","bandit","36","322638","0.0-20.0-15.0","62279423","wem/bandit_either_2","A21KGSK2BDVWOA","either","7","613","","","","","","","1","0","0","0.2","","0.5","0.5","","","","","","","0.8","0.2","","","","","","","","","","75","K","1","","true","0","80_20_practice"
"","bandit","37","325257","0.0-20.0-16.0","62279423","wem/bandit_either_2","A21KGSK2BDVWOA","either","7","1073","","","","","","","0","0","1","","0.2","0.5","0.5","","","0.8","0.2","","","","","","","","","","","","","","75","K","1","","true","0","80_20_practice"
"","bandit","38","328395","0.0-20.0-17.0","62279423","wem/bandit_either_2","A21KGSK2BDVWOA","either","7","1150","","","","","","","0","0","1","0.2","","0.5","0.5","","","","","","","0.8","0.2","","","","","","","","","","75","K","1","","true","0","80_20_practice"
"","bandit","39","331273","0.0-20.0-18.0","62279423","wem/bandit_either_2","A21KGSK2BDVWOA","either","7","1204","","","","","","","0","0","1","","0.8","0.5","0.5","","","0.8","0.2","","","","","","","","","","","","","","74","J","0","img/none_selected_demo.jpg","true","0","80_20_practice"
"","bandit","40","335197","0.0-20.0-19.0","62279423","wem/bandit_either_2","A21KGSK2BDVWOA","either","7","2371","","","","","","","0","0","1","","0.2","0.5","0.5","","","0.8","0.2","","","","","","","","","","","","","","75","K","1","","true","0","80_20_practice"
"","text","41","347923","0.0-21.0","62279423","wem/bandit_either_2","A21KGSK2BDVWOA","either","7","12703","","32","","","","","","","","","","","","","","","","","","","","","","","","","","","","","","","","","","",""
"","bandit","42","351922","0.0-22.0-0.0","62279423","wem/bandit_either_2","A21KGSK2BDVWOA","either","7","2351","","","","","","","1","0","0","1","0","","","","","0","1","","","1","0","","","","","","","","","","74","J","0","img/none_selected_demo.jpg","true","0",""
"","text","43","365273","0.0-23.0","62279423","wem/bandit_either_2","A21KGSK2BDVWOA","either","7","13315","","32","","","","","","","","","","","","","","","","","","","","","","","","","","","","","","","","","","",""
"","text","44","373766","0.0-24.0","62279423","wem/bandit_either_2","A21KGSK2BDVWOA","either","7","8472","","32","","","","","","","","","","","","","","","","","","","","","","","","","","","","","","","","","","",""
"","text","45","379220","0.0-25.0","62279423","wem/bandit_either_2","A21KGSK2BDVWOA","either","7","5444","","32","","","","","","","","","","","","","","","","","","","","","","","","","","","","","","","","","","",""
"","text","46","383143","0.0-26.0","62279423","wem/bandit_either_2","A21KGSK2BDVWOA","either","7","3910","","32","","","","","","","","","","","","","","","","","","","","","","","","","","","","","","","","","","",""
"","text","47","393596","0.0-27.0","62279423","wem/bandit_either_2","A21KGSK2BDVWOA","either","7","10444","","32","","","","","","","","","","","","","","","","","","","","","","","","","","","","","","","","","","",""
"","text","48","398694","0.0-28.0","62279423","wem/bandit_either_2","A21KGSK2BDVWOA","either","7","5071","","32","","","","","","","","","","","","","","","","","","","","","","","","","","","","","","","","","","",""
"","text","49","406265","0.0-29.0","62279423","wem/bandit_either_2","A21KGSK2BDVWOA","either","7","7535","","32","","","","","","","","","","","","","","","","","","","","","","","","","","","","","","","","","","",""
"","text","50","412013","0.0-30.0","62279423","wem/bandit_either_2","A21KGSK2BDVWOA","either","7","5713","","32","","","","","","","","","","","","","","","","","","","","","","","","","","","","","","","","","","",""
"","text","51","426075","0.0-31.0","62279423","wem/bandit_either_2","A21KGSK2BDVWOA","either","7","14041","","32","","","","","","","","","","","","","","","","","","","","","","","","","","","","","","","","","","",""
"","text","52","430096","0.0-32.0","62279423","wem/bandit_either_2","A21KGSK2BDVWOA","either","7","3996","","32","","","","","","","","","","","","","","","","","","","","","","","","","","","","","","","","","","",""
"","text","53","434616","0.0-33.0","62279423","wem/bandit_either_2","A21KGSK2BDVWOA","either","7","4502","","32","","","","","","","","","","","","","","","","","","","","","","","","","","","","","","","","","","",""
"","bandit","54","438185","0.0-34.0-0.0","62279423","wem/bandit_either_2","A21KGSK2BDVWOA","either","7","1534","","","","","","","0","0","1","0.8","","0.5","0.5","0.5","0.5","","","","","0.8","0.2","0.6","0.2","","","","","","","","72","H","0","img/none_selected.jpg","true","0","full_practice"
"","bandit","55","440644","0.0-34.0-1.0","62279423","wem/bandit_either_2","A21KGSK2BDVWOA","either","7","857","","","","","","","0","0","1","","0.6","0.5","0.5","0.5","0.5","0.8","0.2","0.6","0.2","","","","","","","","","","","","75","K","2","","true","0","full_practice"
"","bandit","56","443354","0.0-34.0-2.0","62279423","wem/bandit_either_2","A21KGSK2BDVWOA","either","7","1132","","","","","","","0","0","1","","0.2","0.5","0.5","0.5","0.5","0.8","0.2","0.6","0.2","","","","","","","","","","","","74","J","1","","true","0","full_practice"
"","bandit","57","446078","0.0-34.0-3.0","62279423","wem/bandit_either_2","A21KGSK2BDVWOA","either","7","1173","","","","","","","1","0","0","0.8","","0.5","0.5","0.5","0.5","","","","","0.8","0.2","0.6","0.2","","","","","","","","72","H","0","img/none_selected.jpg","true","0","full_practice"
"","bandit","58","450102","0.0-34.0-4.0","62279423","wem/bandit_either_2","A21KGSK2BDVWOA","either","7","2462","","","","","","","0","0","1","0.2","","0.5","0.5","0.5","0.5","","","","","0.8","0.2","0.6","0.2","","","","","","","","76","L","3","","true","0","full_practice"
"","bandit","59","454077","0.0-34.0-5.0","62279423","wem/bandit_either_2","A21KGSK2BDVWOA","either","7","2219","","","","","","","0","1","0","","0.8","0.5","0.5","0.5","0.5","0.8","0.2","0.6","0.2","","","","","","","","","","","","72","H","0","img/none_selected.jpg","true","0","full_practice"
"","bandit","60","456939","0.0-34.0-6.0","62279423","wem/bandit_either_2","A21KGSK2BDVWOA","either","7","1048","","","","","","","0","0","1","0.6","","0.5","0.5","0.5","0.5","","","","","0.8","0.2","0.6","0.2","","","","","","","","75","K","2","","true","0","full_practice"
"","bandit","61","459373","0.0-34.0-7.0","62279423","wem/bandit_either_2","A21KGSK2BDVWOA","either","7","751","","","","","","","0","0","1","","0.2","0.5","0.5","0.5","0.5","0.8","0.2","0.6","0.2","","","","","","","","","","","","74","J","1","","true","0","full_practice"
"","bandit","62","461662","0.0-34.0-8.0","62279423","wem/bandit_either_2","A21KGSK2BDVWOA","either","7","705","","","","","","","0","0","1","","0.2","0.5","0.5","0.5","0.5","0.8","0.2","0.6","0.2","","","","","","","","","","","","76","L","3","","true","0","full_practice"
"","bandit","63","464290","0.0-34.0-9.0","62279423","wem/bandit_either_2","A21KGSK2BDVWOA","either","7","883","","","","","","","1","0","0","0.8","","0.5","0.5","0.5","0.5","","","","","0.8","0.2","0.6","0.2","","","","","","","","72","H","0","img/none_selected.jpg","true","0","full_practice"
"","bandit","64","467237","0.0-34.0-10.0","62279423","wem/bandit_either_2","A21KGSK2BDVWOA","either","7","1396","","","","","","","1","0","0","0.6","","0.5","0.5","0.5","0.5","","","","","0.8","0.2","0.6","0.2","","","","","","","","75","K","2","","true","0","full_practice"
"","bandit","65","470162","0.0-34.0-11.0","62279423","wem/bandit_either_2","A21KGSK2BDVWOA","either","7","1363","","","","","","","1","0","0","0.8","","0.5","0.5","0.5","0.5","","","","","0.8","0.2","0.6","0.2","","","","","","","","72","H","0","img/none_selected.jpg","true","0","full_practice"
"","bandit","66","472525","0.0-34.0-12.0","62279423","wem/bandit_either_2","A21KGSK2BDVWOA","either","7","794","","","","","","","0","1","0","","0.6","0.5","0.5","0.5","0.5","0.8","0.2","0.6","0.2","","","","","","","","","","","","75","K","2","","true","0","full_practice"
"","bandit","67","475286","0.0-34.0-13.0","62279423","wem/bandit_either_2","A21KGSK2BDVWOA","either","7","938","","","","","","","0","0","1","0.2","","0.5","0.5","0.5","0.5","","","","","0.8","0.2","0.6","0.2","","","","","","","","74","J","1","","true","0","full_practice"
"","bandit","68","477754","0.0-34.0-14.0","62279423","wem/bandit_either_2","A21KGSK2BDVWOA","either","7","737","","","","","","","1","0","0","0.8","","0.5","0.5","0.5","0.5","","","","","0.8","0.2","0.6","0.2","","","","","","","","72","H","0","img/none_selected.jpg","true","0","full_practice"
"","bandit","69","480299","0.0-34.0-15.0","62279423","wem/bandit_either_2","A21KGSK2BDVWOA","either","7","940","","","","","","","0","0","1","0.2","","0.5","0.5","0.5","0.5","","","","","0.8","0.2","0.6","0.2","","","","","","","","74","J","1","","true","0","full_practice"
"","bandit","70","482894","0.0-34.0-16.0","62279423","wem/bandit_either_2","A21KGSK2BDVWOA","either","7","975","","","","","","","1","0","0","0.8","","0.5","0.5","0.5","0.5","","","","","0.8","0.2","0.6","0.2","","","","","","","","72","H","0","img/none_selected.jpg","true","0","full_practice"
"","bandit","71","485157","0.0-34.0-17.0","62279423","wem/bandit_either_2","A21KGSK2BDVWOA","either","7","678","","","","","","","0","0","1","","0.2","0.5","0.5","0.5","0.5","0.8","0.2","0.6","0.2","","","","","","","","","","","","76","L","3","","true","0","full_practice"
"","bandit","72","487509","0.0-34.0-18.0","62279423","wem/bandit_either_2","A21KGSK2BDVWOA","either","7","797","","","","","","","0","1","0","","0.8","0.5","0.5","0.5","0.5","0.8","0.2","0.6","0.2","","","","","","","","","","","","72","H","0","img/none_selected.jpg","true","0","full_practice"
"","bandit","73","490180","0.0-34.0-19.0","62279423","wem/bandit_either_2","A21KGSK2BDVWOA","either","7","1003","","","","","","","0","0","1","0.2","","0.5","0.5","0.5","0.5","","","","","0.8","0.2","0.6","0.2","","","","","","","","74","J","1","","true","0","full_practice"
"","text","74","495826","0.0-35.0","62279423","wem/bandit_either_2","A21KGSK2BDVWOA","either","7","5595","","32","","","","","","","","","","","","","","","","","","","","","","","","","","","","","","","","","","",""
"","text","75","523691","0.0-36.0","62279423","wem/bandit_either_2","A21KGSK2BDVWOA","either","7","26831","","32","","","","","","","","","","","","","","","","","","","","","","","","","","","","","","","","","","",""
"","text","76","540936","0.0-37.0","62279423","wem/bandit_either_2","A21KGSK2BDVWOA","either","7","17222","","32","","","","","","","","","","","","","","","","","","","","","","","","","","","","","","","","","","",""
"","text","77","549540","0.0-38.0","62279423","wem/bandit_either_2","A21KGSK2BDVWOA","either","7","8572","","32","","","","","","","","","","","","","","","","","","","","","","","","","","","","","","","","","","",""
"","text","78","554852","0.0-39.0","62279423","wem/bandit_either_2","A21KGSK2BDVWOA","either","7","5280","","32","","","","","","","","","","","","","","","","","","","","","","","","","","","","","","","","","","",""
"","text","79","566343","0.0-40.0","62279423","wem/bandit_either_2","A21KGSK2BDVWOA","either","7","11468","","32","","","","","","","","","","","","","","","","","","","","","","","","","","","","","","","","","","",""
"","bandit","80","569978","0.0-41.0-0.0","62279423","wem/bandit_either_2","A21KGSK2BDVWOA","either","7","1926","","","","","","","0","0","1","0.1952616071","","0.4","0.8","0.2","0.6","","","","","0.06530018083","0.1952616071","0.01738065524","0.1480066451","","","","","","","","74","J","1","","","1","main_expt"
"","bandit","81","572789","0.0-42.0-0.0","62279423","wem/bandit_either_2","A21KGSK2BDVWOA","either","7","1138","","","","","","","0","0","1","0.1011701763","","0.4","0.8","0.2","0.6","","","","","0.1011701763","0.1652234336","0.0196943787","0.1053714073","","","","","","","","72","H","0","img/none_selected.jpg","","2","main_expt"
"","bandit","82","575848","0.0-43.0-0.0","62279423","wem/bandit_either_2","A21KGSK2BDVWOA","either","7","1494","","","","","","","0","0","1","","0.01678573497","0.4","0.8","0.2","0.6","0.09486719381","0.1347382479","0.01678573497","0.1460078221","","","","","","","","","","","","75","K","2","","","3","main_expt"
"","bandit","83","579204","0.0-44.0-0.0","62279423","wem/bandit_either_2","A21KGSK2BDVWOA","either","7","1373","","","","","","","0","0","1","0.1866138214","","0.4","0.8","0.2","0.6","","","","","0.06705802814","0.1684625442","0.02981965743","0.1866138214","","","","","","","","76","L","3","","","4","main_expt"
"","bandit","84","581244","0.0-45.0-0.0","62279423","wem/bandit_either_2","A21KGSK2BDVWOA","either","7","487","","","","","","","0","0","1","","0.1792029032","0.4","0.8","0.2","0.6","0.0822298525","0.1792029032","0.02600208211","0.2445348717","","","","","","","","","","","","74","J","1","","","5","main_expt"
"","bandit","85","584357","0.0-46.0-0.0","62279423","wem/bandit_either_2","A21KGSK2BDVWOA","either","7","798","","","","","","","1","0","0","0.09162209411","","0.4","0.8","0.2","0.6","","","","","0.09162209411","0.2153873139","0.02332436933","0.2546962146","","","","","","","","72","H","0","img/none_selected.jpg","","6","main_expt"
"","bandit","86","588069","0.0-47.0-0.0","62279423","wem/bandit_either_2","A21KGSK2BDVWOA","either","7","2004","","","","","","","0","0","1","","0.02864040813","0.4","0.8","0.2","0.6","0.1028820098","0.1757762721","0.02864040813","0.2344841702","","","","","","","","","","","","75","K","2","","","7","main_expt"
"","bandit","87","590853","0.0-48.0-0.0","62279423","wem/bandit_either_2","A21KGSK2BDVWOA","either","7","846","","","","","","","0","0","1","","0.1532270122","0.4","0.8","0.2","0.6","0.1532270122","0.2241229746","0.02951264166","0.2473344203","","","","","","","","","","","","72","H","0","img/none_selected.jpg","","8","main_expt"
"","bandit","88","592877","0.0-49.0-0.0","62279423","wem/bandit_either_2","A21KGSK2BDVWOA","either","7","450","","","","","","","0","0","1","0.2199426203","","0.4","0.8","0.2","0.6","","","","","0.2131450397","0.2199426203","0.02997011939","0.2642160399","","","","","","","","74","J","1","","","9","main_expt"
"","bandit","89","595812","0.0-50.0-0.0","62279423","wem/bandit_either_2","A21KGSK2BDVWOA","either","7","1383","","","","","","","0","0","1","","0.2985754635","0.4","0.8","0.2","0.6","0.2985754635","0.1520686932","0.02489651457","0.2104627424","","","","","","","","","","","","72","H","0","img/none_selected.jpg","","10","main_expt"
"","bandit","90","598095","0.0-51.0-0.0","62279423","wem/bandit_either_2","A21KGSK2BDVWOA","either","7","686","","","","","","","0","0","1","","0.219372878","0.4","0.8","0.2","0.6","0.2924640086","0.2013349999","0.01651058827","0.219372878","","","","","","","","","","","","76","L","3","","","11","main_expt"
"","bandit","91","601432","0.0-52.0-0.0","62279423","wem/bandit_either_2","A21KGSK2BDVWOA","either","7","1531","","","","","","","0","0","1","","0.3264291113","0.4","0.8","0.2","0.6","0.3264291113","0.2156800105","0.02341729431","0.2105839871","","","","","","","","","","","","72","H","0","img/none_selected.jpg","","12","main_expt"
"","bandit","92","606272","0.0-53.0-0.0","62279423","wem/bandit_either_2","A21KGSK2BDVWOA","either","7","3144","","","","","","","0","0","1","0.0257410372","","0.4","0.8","0.2","0.6","","","","","0.3254913314","0.1833947696","0.0257410372","0.2511698571","","","","","","","","75","K","2","","","13","main_expt"
"","bandit","93","609012","0.0-54.0-0.0","62279423","wem/bandit_either_2","A21KGSK2BDVWOA","either","7","992","","","","","","","0","0","1","0.243643366","","0.4","0.8","0.2","0.6","","","","","0.3428504842","0.243643366","0.02570014082","0.2158977649","","","","","","","","74","J","1","","","14","main_expt"
"","bandit","94","611633","0.0-55.0-0.0","62279423","wem/bandit_either_2","A21KGSK2BDVWOA","either","7","897","","","","","","","0","0","1","","0.2762480727","0.4","0.8","0.2","0.6","0.3244047679","0.2265365198","0.04268316416","0.2762480727","","","","","","","","","","","","76","L","3","","","15","main_expt"
"","bandit","95","615183","0.0-56.0-0.0","62279423","wem/bandit_either_2","A21KGSK2BDVWOA","either","7","1960","","","","","","","0","0","1","","0.3025313629","0.4","0.8","0.2","0.6","0.3025313629","0.2484951132","0.04667408308","0.3202890724","","","","","","","","","","","","72","H","0","img/none_selected.jpg","","16","main_expt"
"","bandit","96","618251","0.0-57.0-0.0","62279423","wem/bandit_either_2","A21KGSK2BDVWOA","either","7","1500","","","","","","","0","0","1","0.0506688767","","0.4","0.8","0.2","0.6","","","","","0.3291216938","0.2570267238","0.0506688767","0.3680552247","","","","","","","","75","K","2","","","17","main_expt"
"","bandit","97","621293","0.0-58.0-0.0","62279423","wem/bandit_either_2","A21KGSK2BDVWOA","either","7","1141","","","","","","","0","0","1","","0.02988526167","0.4","0.8","0.2","0.6","0.2987881532","0.287418789","0.02988526167","0.3968593921","","","","","","","","","","","","75","K","2","","","18","main_expt"
"","bandit","98","624316","0.0-59.0-0.0","62279423","wem/bandit_either_2","A21KGSK2BDVWOA","either","7","1283","","","","","","","0","0","1","0.4192996399","","0.4","0.8","0.2","0.6","","","","","0.281207523","0.2338710899","0.03476350355","0.4192996399","","","","","","","","76","L","3","","","19","main_expt"
"","bandit","99","627948","0.0-60.0-0.0","62279423","wem/bandit_either_2","A21KGSK2BDVWOA","either","7","2082","","","","","","","0","0","1","","0.291129981","0.4","0.8","0.2","0.6","0.291129981","0.2335293464","0.0233687216","0.4362768361","","","","","","","","","","","","72","H","0","img/none_selected.jpg","","20","main_expt"
"","bandit","100","630454","0.0-61.0-0.0","62279423","wem/bandit_either_2","A21KGSK2BDVWOA","either","7","938","","","","","","","0","0","1","0.2434826965","","0.4","0.8","0.2","0.6","","","","","0.2729578326","0.2434826965","0.01272547494","0.4599691003","","","","","","","","74","J","1","","","21","main_expt"
"","bandit","101","633269","0.0-62.0-0.0","62279423","wem/bandit_either_2","A21KGSK2BDVWOA","either","7","1254","","","","","","","0","0","1","0.2702300591","","0.4","0.8","0.2","0.6","","","","","0.2805141014","0.2702300591","0.01739491555","0.44353765","","","","","","","","74","J","1","","","22","main_expt"
"","bandit","102","636273","0.0-63.0-0.0","62279423","wem/bandit_either_2","A21KGSK2BDVWOA","either","7","1212","","","","","","","1","0","0","0.4105594395","","0.4","0.8","0.2","0.6","","","","","0.3016389313","0.2424740502","0.006692102231","0.4105594395","","","","","","","","76","L","3","","","23","main_expt"
"","bandit","103","640315","0.0-64.0-0.0","62279423","wem/bandit_either_2","A21KGSK2BDVWOA","either","7","2485","","","","","","","0","1","0","","0.4243351486","0.4","0.8","0.2","0.6","0.2475621169","0.1754503809","0.01209419849","0.4243351486","","","","","","","","","","","","76","L","3","","","24","main_expt"
"","bandit","104","644414","0.0-65.0-0.0","62279423","wem/bandit_either_2","A21KGSK2BDVWOA","either","7","1992","","","","","","","0","0","1","0.2023019753","","0.4","0.8","0.2","0.6","","","","","0.2607476102","0.2023019753","0.009734580702","0.4172780312","","","","","","","","74","J","1","","","25","main_expt"
"","bandit","105","647790","0.0-66.0-0.0","62279423","wem/bandit_either_2","A21KGSK2BDVWOA","either","7","1526","","","","","","","0","1","0","","0.3981062588","0.4","0.8","0.2","0.6","0.292589008","0.1887270612","0.008596148908","0.3981062588","","","","","","","","","","","","76","L","3","","","26","main_expt"
"","bandit","106","650808","0.0-67.0-0.0","62279423","wem/bandit_either_2","A21KGSK2BDVWOA","either","7","1240","","","","","","","0","0","1","","0.01380650739","0.4","0.8","0.2","0.6","0.2978950393","0.2526986378","0.01380650739","0.3889188119","","","","","","","","","","","","75","K","2","","","27","main_expt"
"","bandit","107","654660","0.0-68.0-0.0","62279423","wem/bandit_either_2","A21KGSK2BDVWOA","either","7","1645","","","","","","","0","1","0","","0.3699095679","0.4","0.8","0.2","0.6","0.337392419","0.2536033627","0.01160852189","0.3699095679","","","","","","","","","","","","76","L","3","","","28","main_expt"
"","bandit","108","657734","0.0-69.0-0.0","62279423","wem/bandit_either_2","A21KGSK2BDVWOA","either","7","1428","","","","","","","1","0","0","0.4087832773","","0.4","0.8","0.2","0.6","","","","","0.3830759015","0.258258936","0.02858314752","0.4087832773","","","","","","","","76","L","3","","","29","main_expt"
"","bandit","109","661296","0.0-70.0-0.0","62279423","wem/bandit_either_2","A21KGSK2BDVWOA","either","7","1729","","","","","","","0","1","0","","0.3778881599","0.4","0.8","0.2","0.6","0.3778881599","0.3152574144","0.0265596094","0.4162513677","","","","","","","","","","","","72","H","0","img/none_selected.jpg","","30","main_expt"
"","bandit","110","664237","0.0-71.0-0.0","62279423","wem/bandit_either_2","A21KGSK2BDVWOA","either","7","970","","","","","","","0","0","1","0.43337534","","0.4","0.8","0.2","0.6","","","","","0.3585458117","0.3508579725","0.02828816112","0.43337534","","","","","","","","76","L","3","","","31","main_expt"
"","bandit","111","666837","0.0-72.0-0.0","62279423","wem/bandit_either_2","A21KGSK2BDVWOA","either","7","1006","","","","","","","0","0","1","0.3902021543","","0.4","0.8","0.2","0.6","","","","","0.3511664436","0.3902021543","0.03857304495","0.4399105216","","","","","","","","74","J","1","","","32","main_expt"
"","bandit","112","669864","0.0-73.0-0.0","62279423","wem/bandit_either_2","A21KGSK2BDVWOA","either","7","1192","","","","","","","0","0","1","","0.3924960189","0.4","0.8","0.2","0.6","0.3924960189","0.4112626521","0.02642959278","0.3859623535","","","","","","","","","","","","72","H","0","img/none_selected.jpg","","33","main_expt"
"","bandit","113","673814","0.0-74.0-0.0","62279423","wem/bandit_either_2","A21KGSK2BDVWOA","either","7","1753","","","","","","","0","0","1","","0.06800028167","0.4","0.8","0.2","0.6","0.3713907517","0.3912589523","0.06800028167","0.4231921331","","","","","","","","","","","","75","K","2","","","34","main_expt"
"","bandit","114","676044","0.0-75.0-0.0","62279423","wem/bandit_either_2","A21KGSK2BDVWOA","either","7","538","","","","","","","0","0","1","0.3950458867","","0.4","0.8","0.2","0.6","","","","","0.3929004689","0.3663646496","0.05710280771","0.3950458867","","","","","","","","76","L","3","","","35","main_expt"
"","bandit","115","680115","0.0-76.0-0.0","62279423","wem/bandit_either_2","A21KGSK2BDVWOA","either","7","2506","","","","","","","0","1","0","","0.3820467604","0.4","0.8","0.2","0.6","0.3820467604","0.3045225128","0.07756943076","0.4005306787","","","","","","","","","","","","72","H","0","img/none_selected.jpg","","36","main_expt"
"","bandit","116","683152","0.0-77.0-0.0","62279423","wem/bandit_either_2","A21KGSK2BDVWOA","either","7","920","","","","","","","0","0","1","","0.06074629621","0.4","0.8","0.2","0.6","0.3948022939","0.2806474599","0.06074629621","0.3972735937","","","","","","","","","","","","75","K","2","","","37","main_expt"
"","bandit","117","685222","0.0-78.0-0.0","62279423","wem/bandit_either_2","A21KGSK2BDVWOA","either","7","481","","","","","","","0","1","0","","0.3769579019","0.4","0.8","0.2","0.6","0.3769579019","0.3558759705","0.07063042774","0.38339591","","","","","","","","","","","","72","H","0","img/none_selected.jpg","","38","main_expt"
"","bandit","118","687743","0.0-79.0-0.0","62279423","wem/bandit_either_2","A21KGSK2BDVWOA","either","7","972","","","","","","","0","1","0","","0.3194138052","0.4","0.8","0.2","0.6","0.4030344636","0.3194138052","0.06209293178","0.3906354184","","","","","","","","","","","","74","J","1","","","39","main_expt"
"","bandit","119","690162","0.0-80.0-0.0","62279423","wem/bandit_either_2","A21KGSK2BDVWOA","either","7","828","","","","","","","1","0","0","0.3622335218","","0.4","0.8","0.2","0.6","","","","","0.3622335218","0.3549086085","0.06952578958","0.3623676206","","","","","","","","72","H","0","img/none_selected.jpg","","40","main_expt"
"","bandit","120","694150","0.0-81.0-0.0","62279423","wem/bandit_either_2","A21KGSK2BDVWOA","either","7","2276","","","","","","","0","0","1","","0.3873704927","0.4","0.8","0.2","0.6","0.3911596719","0.3452113815","0.1291245709","0.3873704927","","","","","","","","","","","","76","L","3","","","41","main_expt"
"","bandit","121","696458","0.0-82.0-0.0","62279423","wem/bandit_either_2","A21KGSK2BDVWOA","either","7","428","","","","","","","1","0","0","0.3522960267","","0.4","0.8","0.2","0.6","","","","","0.3921858285","0.3522960267","0.1174523948","0.359823116","","","","","","","","74","J","1","","","42","main_expt"
"","bandit","122","699167","0.0-83.0-0.0","62279423","wem/bandit_either_2","A21KGSK2BDVWOA","either","7","867","","","","","","","1","0","0","0.3831213528","","0.4","0.8","0.2","0.6","","","","","0.3831213528","0.3093122096","0.1201484523","0.3710191411","","","","","","","","72","H","0","img/none_selected.jpg","","43","main_expt"
"","bandit","123","701767","0.0-84.0-0.0","62279423","wem/bandit_either_2","A21KGSK2BDVWOA","either","7","541","","","","","","","0","0","1","","0.09958360536","0.4","0.8","0.2","0.6","0.3518708159","0.3026159556","0.09958360536","0.3874065465","","","","","","","","","","","","75","K","2","","","44","main_expt"
"","bandit","124","704476","0.0-85.0-0.0","62279423","wem/bandit_either_2","A21KGSK2BDVWOA","either","7","637","","","","","","","0","0","1","0.3122870636","","0.4","0.8","0.2","0.6","","","","","0.3122870636","0.3336294247","0.05173655998","0.3851533971","","","","","","","","72","H","0","img/none_selected.jpg","","45","main_expt"
"","bandit","125","706765","0.0-86.0-0.0","62279423","wem/bandit_either_2","A21KGSK2BDVWOA","either","7","422","","","","","","","0","0","1","0.3400222736","","0.4","0.8","0.2","0.6","","","","","0.2635721956","0.3400222736","0.05945041096","0.4055883719","","","","","","","","74","J","1","","","46","main_expt"
"","bandit","126","709524","0.0-87.0-0.0","62279423","wem/bandit_either_2","A21KGSK2BDVWOA","either","7","692","","","","","","","0","0","1","0.328707825","","0.4","0.8","0.2","0.6","","","","","0.2856785865","0.328707825","0.04375763727","0.3671593179","","","","","","","","74","J","1","","","47","main_expt"
"","bandit","127","713211","0.0-88.0-0.0","62279423","wem/bandit_either_2","A21KGSK2BDVWOA","either","7","1370","","","","","","","0","0","1","0.3198203038","","0.4","0.8","0.2","0.6","","","","","0.2649087478","0.3307690822","0.0666370861","0.3198203038","","","","","","","","76","L","3","","","48","main_expt"
"","bandit","128","716718","0.0-89.0-0.0","62279423","wem/bandit_either_2","A21KGSK2BDVWOA","either","7","1459","","","","","","","0","0","1","","0.08266213623","0.4","0.8","0.2","0.6","0.2462979357","0.3438067684","0.08266213623","0.3111357295","","","","","","","","","","","","75","K","2","","","49","main_expt"
"","bandit","129","720216","0.0-90.0-0.0","62279423","wem/bandit_either_2","A21KGSK2BDVWOA","either","7","1368","","","","","","","0","0","1","","0.2490076798","0.4","0.8","0.2","0.6","0.2490076798","0.4037002216","0.08795051988","0.3196682981","","","","","","","","","","","","72","H","0","img/none_selected.jpg","","50","main_expt"
"","bandit","130","723472","0.0-91.0-0.0","62279423","wem/bandit_either_2","A21KGSK2BDVWOA","either","7","844","","","","","","","0","0","1","","0.07533366945","0.4","0.8","0.2","0.6","0.305209751","0.3557518394","0.07533366945","0.3088596379","","","","","","","","","","","","75","K","2","","","51","main_expt"
"","bandit","131","726222","0.0-92.0-0.0","62279423","wem/bandit_either_2","A21KGSK2BDVWOA","either","7","953","","","","","","","1","0","0","0.3254324358","","0.4","0.8","0.2","0.6","","","","","0.3087204988","0.3254324358","0.06506638851","0.3060924957","","","","","","","","74","J","1","","","52","main_expt"
"","bandit","132","728863","0.0-93.0-0.0","62279423","wem/bandit_either_2","A21KGSK2BDVWOA","either","7","975","","","","","","","0","0","1","0.3229319808","","0.4","0.8","0.2","0.6","","","","","0.2984188648","0.2952150256","0.06562792832","0.3229319808","","","","","","","","76","L","3","","","53","main_expt"
"","bandit","133","731379","0.0-94.0-0.0","62279423","wem/bandit_either_2","A21KGSK2BDVWOA","either","7","921","","","","","","","0","0","1","0.300320608","","0.4","0.8","0.2","0.6","","","","","0.3353917468","0.300320608","0.04630081711","0.3280138586","","","","","","","","74","J","1","","","54","main_expt"
"","bandit","134","734642","0.0-95.0-0.0","62279423","wem/bandit_either_2","A21KGSK2BDVWOA","either","7","950","","","","","","","0","0","1","","0.3259144651","0.4","0.8","0.2","0.6","0.3259144651","0.2985084879","0.03868373719","0.2777260571","","","","","","","","","","","","72","H","0","img/none_selected.jpg","","55","main_expt"
"","bandit","135","736751","0.0-96.0-0.0","62279423","wem/bandit_either_2","A21KGSK2BDVWOA","either","7","538","","","","","","","0","0","1","","0.06235362297","0.4","0.8","0.2","0.6","0.3259049121","0.2607009345","0.06235362297","0.1791004868","","","","","","","","","","","","75","K","2","","","56","main_expt"
"","bandit","136","739544","0.0-97.0-0.0","62279423","wem/bandit_either_2","A21KGSK2BDVWOA","either","7","1213","","","","","","","0","0","1","","0.2182265394","0.4","0.8","0.2","0.6","0.3687904078","0.2565854794","0.04639461243","0.2182265394","","","","","","","","","","","","76","L","3","","","57","main_expt"
"","bandit","137","742538","0.0-98.0-0.0","62279423","wem/bandit_either_2","A21KGSK2BDVWOA","either","7","1207","","","","","","","0","0","1","","0.319121847","0.4","0.8","0.2","0.6","0.3422038875","0.319121847","0.08954448139","0.2970860181","","","","","","","","","","","","74","J","1","","","58","main_expt"
"","bandit","138","745792","0.0-99.0-0.0","62279423","wem/bandit_either_2","A21KGSK2BDVWOA","either","7","1614","","","","","","","0","0","1","","0.3771421139","0.4","0.8","0.2","0.6","0.3771421139","0.3269923399","0.07390342289","0.3249685468","","","","","","","","","","","","72","H","0","img/none_selected.jpg","","59","main_expt"
"","bandit","139","748534","0.0-100.0-0.0","62279423","wem/bandit_either_2","A21KGSK2BDVWOA","either","7","723","","","","","","","0","0","1","0.05801548519","","0.4","0.8","0.2","0.6","","","","","0.3620124399","0.3150968823","0.05801548519","0.2931470039","","","","","","","","75","K","2","","","60","main_expt"
"","bandit","140","751995","0.0-101.0-0.0","62279423","wem/bandit_either_2","A21KGSK2BDVWOA","either","7","1822","","","","","","","0","0","1","0.3958116198","","0.4","0.8","0.2","0.6","","","","","0.3958116198","0.324539239","0.07333263924","0.2646536279","","","","","","","","72","H","0","img/none_selected.jpg","","61","main_expt"
"","bandit","141","754009","0.0-102.0-0.0","62279423","wem/bandit_either_2","A21KGSK2BDVWOA","either","7","381","","","","","","","0","0","1","0.242461968","","0.4","0.8","0.2","0.6","","","","","0.3615218546","0.3066306166","0.07563430262","0.242461968","","","","","","","","76","L","3","","","62","main_expt"
"","bandit","142","756495","0.0-103.0-0.0","62279423","wem/bandit_either_2","A21KGSK2BDVWOA","either","7","757","","","","","","","0","1","0","","0.3068900116","0.4","0.8","0.2","0.6","0.3574266064","0.3068900116","0.06826526778","0.2206683029","","","","","","","","","","","","74","J","1","","","63","main_expt"
"","bandit","143","759795","0.0-104.0-0.0","62279423","wem/bandit_either_2","A21KGSK2BDVWOA","either","7","524","","","","","","","0","0","1","","0.1175271989","0.4","0.8","0.2","0.6","0.3541915859","0.2936494982","0.1175271989","0.2288959862","","","","","","","","","","","","75","K","2","","","64","main_expt"
"","bandit","144","762575","0.0-105.0-0.0","62279423","wem/bandit_either_2","A21KGSK2BDVWOA","either","7","792","","","","","","","1","0","0","0.290236101","","0.4","0.8","0.2","0.6","","","","","0.3339820985","0.290236101","0.1273865191","0.2346523549","","","","","","","","74","J","1","","","65","main_expt"
"","bandit","145","767242","0.0-106.0-0.0","62279423","wem/bandit_either_2","A21KGSK2BDVWOA","either","7","2317","","","","","","","0","0","1","0.2512036594","","0.4","0.8","0.2","0.6","","","","","0.3195467083","0.2512036594","0.09075088943","0.1881688105","","","","","","","","74","J","1","","","66","main_expt"
"","bandit","146","770029","0.0-107.0-0.0","62279423","wem/bandit_either_2","A21KGSK2BDVWOA","either","7","1068","","","","","","","1","0","0","0.3477383846","","0.4","0.8","0.2","0.6","","","","","0.3477383846","0.263747572","0.08077075725","0.231043846","","","","","","","","72","H","0","img/none_selected.jpg","","67","main_expt"
"","bandit","147","773014","0.0-108.0-0.0","62279423","wem/bandit_either_2","A21KGSK2BDVWOA","either","7","1383","","","","","","","0","0","1","0.2892519303","","0.4","0.8","0.2","0.6","","","","","0.3365352069","0.2892519303","0.08810311296","0.2576664243","","","","","","","","74","J","1","","","68","main_expt"
"","bandit","148","775475","0.0-109.0-0.0","62279423","wem/bandit_either_2","A21KGSK2BDVWOA","either","7","738","","","","","","","0","0","1","0.3148812039","","0.4","0.8","0.2","0.6","","","","","0.3148812039","0.2383664846","0.1260156682","0.2183283259","","","","","","","","72","H","0","img/none_selected.jpg","","69","main_expt"
"","bandit","149","778128","0.0-110.0-0.0","62279423","wem/bandit_either_2","A21KGSK2BDVWOA","either","7","1046","","","","","","","0","0","1","","0.08773951932","0.4","0.8","0.2","0.6","0.3154014692","0.2497111545","0.08773951932","0.2260484764","","","","","","","","","","","","75","K","2","","","70","main_expt"
"","bandit","150","780879","0.0-111.0-0.0","62279423","wem/bandit_either_2","A21KGSK2BDVWOA","either","7","994","","","","","","","0","0","1","","0.3196469567","0.4","0.8","0.2","0.6","0.219815459","0.2095843002","0.1154304285","0.3196469567","","","","","","","","","","","","76","L","3","","","71","main_expt"
"","bandit","151","783653","0.0-112.0-0.0","62279423","wem/bandit_either_2","A21KGSK2BDVWOA","either","7","458","","","","","","","0","0","1","","0.2623730272","0.4","0.8","0.2","0.6","0.2623730272","0.1972488467","0.10097247","0.3644141189","","","","","","","","","","","","72","H","0","img/none_selected.jpg","","72","main_expt"
"","bandit","152","785378","0.0-113.0-0.0","62279423","wem/bandit_either_2","A21KGSK2BDVWOA","either","7","105","","","","","","","0","0","1","0.15494396","","0.4","0.8","0.2","0.6","","","","","0.2639805735","0.15494396","0.0746930591","0.4081842109","","","","","","","","74","J","1","","","73","main_expt"
"","bandit","153","788019","0.0-114.0-0.0","62279423","wem/bandit_either_2","A21KGSK2BDVWOA","either","7","739","","","","","","","0","1","0","","0.2770925356","0.4","0.8","0.2","0.6","0.2770925356","0.1324790415","0.1124392477","0.4506698749","","","","","","","","","","","","72","H","0","img/none_selected.jpg","","74","main_expt"
"","bandit","154","790563","0.0-115.0-0.0","62279423","wem/bandit_either_2","A21KGSK2BDVWOA","either","7","924","","","","","","","0","0","1","","0.2796652475","0.4","0.8","0.2","0.6","0.2796652475","0.179195356","0.113494578","0.454520075","","","","","","","","","","","","72","H","0","img/none_selected.jpg","","75","main_expt"
"","bandit","155","793123","0.0-116.0-0.0","62279423","wem/bandit_either_2","A21KGSK2BDVWOA","either","7","985","","","","","","","0","0","1","0.215808919","","0.4","0.8","0.2","0.6","","","","","0.3153427244","0.215808919","0.1469344428","0.466199952","","","","","","","","74","J","1","","","76","main_expt"
"","bandit","156","795970","0.0-117.0-0.0","62279423","wem/bandit_either_2","A21KGSK2BDVWOA","either","7","940","","","","","","","1","0","0","0.2152215887","","0.4","0.8","0.2","0.6","","","","","0.3676911864","0.2312347408","0.2152215887","0.4402141775","","","","","","","","75","K","2","","","77","main_expt"
"","bandit","157","798833","0.0-118.0-0.0","62279423","wem/bandit_either_2","A21KGSK2BDVWOA","either","7","589","","","","","","","0","1","0","","0.2055177618","0.4","0.8","0.2","0.6","0.3434277392","0.2197025874","0.2055177618","0.4525957793","","","","","","","","","","","","75","K","2","","","78","main_expt"
"","bandit","158","801315","0.0-119.0-0.0","62279423","wem/bandit_either_2","A21KGSK2BDVWOA","either","7","628","","","","","","","1","0","0","0.222262525","","0.4","0.8","0.2","0.6","","","","","0.3758616161","0.2227420924","0.222262525","0.4630799716","","","","","","","","75","K","2","","","79","main_expt"
"","bandit","159","803960","0.0-120.0-0.0","62279423","wem/bandit_either_2","A21KGSK2BDVWOA","either","7","1067","","","","","","","0","0","1","","0.2700860438","0.4","0.8","0.2","0.6","0.3862393514","0.2283057493","0.2700860438","0.423693353","","","","","","","","","","","","75","K","2","","","80","main_expt"
"","bandit","160","806091","0.0-121.0-0.0","62279423","wem/bandit_either_2","A21KGSK2BDVWOA","either","7","570","","","","","","","1","0","0","0.2721525977","","0.4","0.8","0.2","0.6","","","","","0.3593770893","0.2721525977","0.2642688004","0.4319112677","","","","","","","","74","J","1","","","81","main_expt"
"","bandit","161","809398","0.0-122.0-0.0","62279423","wem/bandit_either_2","A21KGSK2BDVWOA","either","7","608","","","","","","","0","0","1","0.2850237184","","0.4","0.8","0.2","0.6","","","","","0.4035110645","0.2850237184","0.2824164754","0.441827487","","","","","","","","74","J","1","","","82","main_expt"
"","bandit","162","811387","0.0-123.0-0.0","62279423","wem/bandit_either_2","A21KGSK2BDVWOA","either","7","324","","","","","","","0","0","1","","0.3719627038","0.4","0.8","0.2","0.6","0.3719627038","0.3236436683","0.2819095575","0.4288861504","","","","","","","","","","","","72","H","0","img/none_selected.jpg","","83","main_expt"
"","bandit","163","814403","0.0-124.0-0.0","62279423","wem/bandit_either_2","A21KGSK2BDVWOA","either","7","796","","","","","","","0","0","1","","0.2589745902","0.4","0.8","0.2","0.6","0.3349288927","0.3339638593","0.2589745902","0.4350385517","","","","","","","","","","","","75","K","2","","","84","main_expt"
"","bandit","164","818100","0.0-125.0-0.0","62279423","wem/bandit_either_2","A21KGSK2BDVWOA","either","7","872","","","","","","","0","0","1","0.3795022601","","0.4","0.8","0.2","0.6","","","","","0.3247899262","0.3795022601","0.3626504113","0.4255505645","","","","","","","","74","J","1","","","85","main_expt"
"","bandit","165","820094","0.0-126.0-0.0","62279423","wem/bandit_either_2","A21KGSK2BDVWOA","either","7","1","","","","","","","0","1","0","","0.4330938692","0.4","0.8","0.2","0.6","0.3443557019","0.3835523064","0.3598915268","0.4330938692","","","","","","","","","","","","76","L","3","","","86","main_expt"
"","bandit","166","822523","0.0-127.0-0.0","62279423","wem/bandit_either_2","A21KGSK2BDVWOA","either","7","787","","","","","","","0","0","1","0.4548398529","","0.4","0.8","0.2","0.6","","","","","0.3648776167","0.3772514457","0.3433052933","0.4548398529","","","","","","","","76","L","3","","","87","main_expt"
"","bandit","167","824513","0.0-128.0-0.0","62279423","wem/bandit_either_2","A21KGSK2BDVWOA","either","7","113","","","","","","","0","0","1","0.3766830519","","0.4","0.8","0.2","0.6","","","","","0.3609631839","0.3766830519","0.4022938878","0.4493124031","","","","","","","","74","J","1","","","88","main_expt"
"","bandit","168","827650","0.0-129.0-0.0","62279423","wem/bandit_either_2","A21KGSK2BDVWOA","either","7","1554","","","","","","","0","1","0","","0.3636167192","0.4","0.8","0.2","0.6","0.3636167192","0.3537755119","0.4141493151","0.4161110063","","","","","","","","","","","","72","H","0","img/none_selected.jpg","","89","main_expt"
"","bandit","169","830670","0.0-130.0-0.0","62279423","wem/bandit_either_2","A21KGSK2BDVWOA","either","7","1340","","","","","","","0","1","0","","0.405260856","0.4","0.8","0.2","0.6","0.3563441379","0.3014761449","0.4136124289","0.405260856","","","","","","","","","","","","76","L","3","","","90","main_expt"
"","bandit","170","833150","0.0-131.0-0.0","62279423","wem/bandit_either_2","A21KGSK2BDVWOA","either","7","507","","","","","","","0","1","0","","0.3389138503","0.4","0.8","0.2","0.6","0.3389138503","0.2694038268","0.4184852842","0.3827048226","","","","","","","","","","","","72","H","0","img/none_selected.jpg","","91","main_expt"
"","bandit","171","835635","0.0-132.0-0.0","62279423","wem/bandit_either_2","A21KGSK2BDVWOA","either","7","444","","","","","","","0","0","1","0.3552182969","","0.4","0.8","0.2","0.6","","","","","0.3263360165","0.2651536323","0.4456808576","0.3552182969","","","","","","","","76","L","3","","","92","main_expt"
"","bandit","172","837894","0.0-133.0-0.0","62279423","wem/bandit_either_2","A21KGSK2BDVWOA","either","7","645","","","","","","","0","0","1","0.2844131911","","0.4","0.8","0.2","0.6","","","","","0.2844131911","0.1997208586","0.4355219805","0.3286897504","","","","","","","","72","H","0","img/none_selected.jpg","","93","main_expt"
"","bandit","173","840011","0.0-134.0-0.0","62279423","wem/bandit_either_2","A21KGSK2BDVWOA","either","7","472","","","","","","","0","1","0","","0.4609821192","0.4","0.8","0.2","0.6","0.2978465223","0.2442555344","0.4609821192","0.3422490236","","","","","","","","","","","","75","K","2","","","94","main_expt"
"","bandit","174","842960","0.0-135.0-0.0","62279423","wem/bandit_either_2","A21KGSK2BDVWOA","either","7","1258","","","","","","","0","0","1","","0.3160161054","0.4","0.8","0.2","0.6","0.2638723705","0.2638839348","0.4419374505","0.3160161054","","","","","","","","","","","","76","L","3","","","95","main_expt"
"","bandit","175","845280","0.0-136.0-0.0","62279423","wem/bandit_either_2","A21KGSK2BDVWOA","either","7","525","","","","","","","0","0","1","","0.39438674","0.4","0.8","0.2","0.6","0.2276010735","0.2265245807","0.39438674","0.2945538732","","","","","","","","","","","","75","K","2","","","96","main_expt"
"","bandit","176","848194","0.0-137.0-0.0","62279423","wem/bandit_either_2","A21KGSK2BDVWOA","either","7","1244","","","","","","","0","0","1","","0.2045446072","0.4","0.8","0.2","0.6","0.2045446072","0.1969189177","0.3617668419","0.393563827","","","","","","","","","","","","72","H","0","img/none_selected.jpg","","97","main_expt"
"","bandit","177","850940","0.0-138.0-0.0","62279423","wem/bandit_either_2","A21KGSK2BDVWOA","either","7","949","","","","","","","0","0","1","","0.1761144245","0.4","0.8","0.2","0.6","0.2436418828","0.1761144245","0.3737913853","0.4046254927","","","","","","","","","","","","74","J","1","","","98","main_expt"
"","bandit","178","853622","0.0-139.0-0.0","62279423","wem/bandit_either_2","A21KGSK2BDVWOA","either","7","701","","","","","","","1","0","0","0.3659012549","","0.4","0.8","0.2","0.6","","","","","0.2473144087","0.1211630765","0.4221129479","0.3659012549","","","","","","","","76","L","3","","","99","main_expt"
"","bandit","179","856128","0.0-140.0-0.0","62279423","wem/bandit_either_2","A21KGSK2BDVWOA","either","7","892","","","","","","","0","0","1","","0.400368336","0.4","0.8","0.2","0.6","0.2707360286","0.1257326749","0.3857893684","0.400368336","","","","","","","","","","","","76","L","3","","","100","main_expt"
"","bandit","180","860084","0.0-141.0-0.0","62279423","wem/bandit_either_2","A21KGSK2BDVWOA","either","7","2334","","","","","","","0","0","1","0.09975532208","","0.4","0.8","0.2","0.6","","","","","0.3250409822","0.09975532208","0.3635527264","0.4367931528","","","","","","","","74","J","1","","","101","main_expt"
"","bandit","181","862975","0.0-142.0-0.0","62279423","wem/bandit_either_2","A21KGSK2BDVWOA","either","7","1162","","","","","","","0","1","0","","0.3738375489","0.4","0.8","0.2","0.6","0.3088580598","0.1127414424","0.3738375489","0.4371155326","","","","","","","","","","","","75","K","2","","","102","main_expt"
"","bandit","182","865970","0.0-143.0-0.0","62279423","wem/bandit_either_2","A21KGSK2BDVWOA","either","7","1343","","","","","","","0","0","1","","0.3860163181","0.4","0.8","0.2","0.6","0.2901001995","0.1232600734","0.3860163181","0.388648264","","","","","","","","","","","","75","K","2","","","103","main_expt"
"","bandit","183","868150","0.0-144.0-0.0","62279423","wem/bandit_either_2","A21KGSK2BDVWOA","either","7","564","","","","","","","0","1","0","","0.309645936","0.4","0.8","0.2","0.6","0.309645936","0.08156843846","0.390692362","0.3718469433","","","","","","","","","","","","72","H","0","img/none_selected.jpg","","104","main_expt"
"","bandit","184","871226","0.0-145.0-0.0","62279423","wem/bandit_either_2","A21KGSK2BDVWOA","either","7","1437","","","","","","","0","0","1","0.3920304628","","0.4","0.8","0.2","0.6","","","","","0.3386062745","0.08245659199","0.4139082553","0.3920304628","","","","","","","","76","L","3","","","105","main_expt"
"","bandit","185","873967","0.0-146.0-0.0","62279423","wem/bandit_either_2","A21KGSK2BDVWOA","either","7","777","","","","","","","0","0","1","","0.3827539061","0.4","0.8","0.2","0.6","0.3827539061","0.1276639339","0.3295275825","0.3733497125","","","","","","","","","","","","72","H","0","img/none_selected.jpg","","106","main_expt"
"","bandit","186","876002","0.0-147.0-0.0","62279423","wem/bandit_either_2","A21KGSK2BDVWOA","either","7","433","","","","","","","0","0","1","","0.3499712774","0.4","0.8","0.2","0.6","0.3401355396","0.1812689745","0.3499712774","0.3878439861","","","","","","","","","","","","75","K","2","","","107","main_expt"
"","bandit","187","880088","0.0-148.0-0.0","62279423","wem/bandit_either_2","A21KGSK2BDVWOA","either","7","2279","","","","","","","0","0","1","0.2187982558","","0.4","0.8","0.2","0.6","","","","","0.3258039352","0.2187982558","0.2666891207","0.3529013302","","","","","","","","74","J","1","","","108","main_expt"
"","bandit","188","882286","0.0-149.0-0.0","62279423","wem/bandit_either_2","A21KGSK2BDVWOA","either","7","522","","","","","","","1","0","0","0.3457683734","","0.4","0.8","0.2","0.6","","","","","0.374919859","0.2201216928","0.2575067634","0.3457683734","","","","","","","","76","L","3","","","109","main_expt"
"","bandit","189","885323","0.0-150.0-0.0","62279423","wem/bandit_either_2","A21KGSK2BDVWOA","either","7","1338","","","","","","","0","0","1","0.3316873257","","0.4","0.8","0.2","0.6","","","","","0.3656186065","0.1789817232","0.2664913793","0.3316873257","","","","","","","","76","L","3","","","110","main_expt"
"","bandit","190","887730","0.0-151.0-0.0","62279423","wem/bandit_either_2","A21KGSK2BDVWOA","either","7","610","","","","","","","1","0","0","0.3649701027","","0.4","0.8","0.2","0.6","","","","","0.3649701027","0.2404947452","0.2233446911","0.3434945318","","","","","","","","72","H","0","img/none_selected.jpg","","111","main_expt"
"","bandit","191","890570","0.0-152.0-0.0","62279423","wem/bandit_either_2","A21KGSK2BDVWOA","either","7","1198","","","","","","","0","0","1","","0.3371716456","0.4","0.8","0.2","0.6","0.3371716456","0.2959558532","0.2170082082","0.2729480053","","","","","","","","","","","","72","H","0","img/none_selected.jpg","","112","main_expt"
"","bandit","192","893327","0.0-153.0-0.0","62279423","wem/bandit_either_2","A21KGSK2BDVWOA","either","7","1045","","","","","","","0","0","1","","0.2966985553","0.4","0.8","0.2","0.6","0.2587224119","0.2966985553","0.1912277411","0.2579672073","","","","","","","","","","","","74","J","1","","","113","main_expt"
"","bandit","193","907695","0.0-154.0-0.0","62279423","wem/bandit_either_2","A21KGSK2BDVWOA","either","7","12721","","","","","","","0","0","1","0.3289730608","","0.4","0.8","0.2","0.6","","","","","0.2384324947","0.3289730608","0.1691995451","0.24654084","","","","","","","","74","J","1","","","114","main_expt"
"","bandit","194","910367","0.0-155.0-0.0","62279423","wem/bandit_either_2","A21KGSK2BDVWOA","either","7","1076","","","","","","","0","0","1","","0.246649757","0.4","0.8","0.2","0.6","0.2705755989","0.2783705844","0.1263730162","0.246649757","","","","","","","","","","","","76","L","3","","","115","main_expt"
"","bandit","195","915091","0.0-156.0-0.0","62279423","wem/bandit_either_2","A21KGSK2BDVWOA","either","7","3146","","","","","","","0","0","1","0.1130092975","","0.4","0.8","0.2","0.6","","","","","0.2666822","0.2990421824","0.1130092975","0.2190482835","","","","","","","","75","K","2","","","116","main_expt"
"","bandit","196","920601","0.0-157.0-0.0","62279423","wem/bandit_either_2","A21KGSK2BDVWOA","either","7","3891","","","","","","","0","0","1","0.3214730448","","0.4","0.8","0.2","0.6","","","","","0.2664749026","0.3214730448","0.1317362661","0.1860086181","","","","","","","","74","J","1","","","117","main_expt"
"","bandit","197","924832","0.0-158.0-0.0","62279423","wem/bandit_either_2","A21KGSK2BDVWOA","either","7","2641","","","","","","","0","0","1","","0.285497096","0.4","0.8","0.2","0.6","0.285497096","0.3996160597","0.08460291254","0.1765749983","","","","","","","","","","","","72","H","0","img/none_selected.jpg","","118","main_expt"
"","bandit","198","928766","0.0-159.0-0.0","62279423","wem/bandit_either_2","A21KGSK2BDVWOA","either","7","624","","","","","","","0","0","1","0.1840588368","","0.4","0.8","0.2","0.6","","","","","0.3004427434","0.4143362638","0.09168363065","0.1840588368","","","","","","","","76","L","3","","","119","main_expt"
"","bandit","199","932152","0.0-160.0-0.0","62279423","wem/bandit_either_2","A21KGSK2BDVWOA","either","7","1753","","","","","","","0","0","1","","0.1988357929","0.4","0.8","0.2","0.6","0.2419855731","0.372340151","0.06729372802","0.1988357929","","","","","","","","","","","","76","L","3","","","120","main_expt"
"","bandit","200","935864","0.0-161.0-0.0","62279423","wem/bandit_either_2","A21KGSK2BDVWOA","either","7","2054","","","","","","","0","0","1","0.3054132847","","0.4","0.8","0.2","0.6","","","","","0.3054132847","0.3910424524","0.08346408207","0.2315674","","","","","","","","72","H","0","img/none_selected.jpg","","121","main_expt"
"","bandit","201","939462","0.0-162.0-0.0","62279423","wem/bandit_either_2","A21KGSK2BDVWOA","either","7","1948","","","","","","","0","0","1","0.3813410711","","0.4","0.8","0.2","0.6","","","","","0.2473202095","0.3813410711","0.05632743158","0.2041322171","","","","","","","","74","J","1","","","122","main_expt"
"","bandit","202","942184","0.0-163.0-0.0","62279423","wem/bandit_either_2","A21KGSK2BDVWOA","either","7","1044","","","","","","","0","0","1","0.1945268209","","0.4","0.8","0.2","0.6","","","","","0.2909195989","0.4247291795","0.05516745574","0.1945268209","","","","","","","","76","L","3","","","123","main_expt"
"","bandit","203","944951","0.0-164.0-0.0","62279423","wem/bandit_either_2","A21KGSK2BDVWOA","either","7","620","","","","","","","0","0","1","","0.05528311039","0.4","0.8","0.2","0.6","0.3493750294","0.4311179713","0.05528311039","0.2206749142","","","","","","","","","","","","75","K","2","","","124","main_expt"
"","bandit","204","947927","0.0-165.0-0.0","62279423","wem/bandit_either_2","A21KGSK2BDVWOA","either","7","1132","","","","","","","0","1","0","","0.3883668019","0.4","0.8","0.2","0.6","0.3883668019","0.4085782939","0.07149807259","0.212012295","","","","","","","","","","","","72","H","0","img/none_selected.jpg","","125","main_expt"
"","bandit","205","950512","0.0-166.0-0.0","62279423","wem/bandit_either_2","A21KGSK2BDVWOA","either","7","911","","","","","","","0","1","0","","0.3888129637","0.4","0.8","0.2","0.6","0.3888129637","0.4110861309","0.1137803622","0.1656684785","","","","","","","","","","","","72","H","0","img/none_selected.jpg","","126","main_expt"
"","bandit","206","953239","0.0-167.0-0.0","62279423","wem/bandit_either_2","A21KGSK2BDVWOA","either","7","956","","","","","","","0","1","0","","0.3659195129","0.4","0.8","0.2","0.6","0.3659195129","0.4214671818","0.1003054442","0.1685301808","","","","","","","","","","","","72","H","0","img/none_selected.jpg","","127","main_expt"
"","bandit","207","955748","0.0-168.0-0.0","62279423","wem/bandit_either_2","A21KGSK2BDVWOA","either","7","860","","","","","","","0","0","1","0.3689954399","","0.4","0.8","0.2","0.6","","","","","0.3689954399","0.36889317","0.1378169536","0.1703551811","","","","","","","","72","H","0","img/none_selected.jpg","","128","main_expt"
"","bandit","208","958926","0.0-169.0-0.0","62279423","wem/bandit_either_2","A21KGSK2BDVWOA","either","7","1432","","","","","","","0","0","1","0.1624753709","","0.4","0.8","0.2","0.6","","","","","0.3600340942","0.3840267129","0.1333081235","0.1624753709","","","","","","","","76","L","3","","","129","main_expt"
"","bandit","209","961377","0.0-170.0-0.0","62279423","wem/bandit_either_2","A21KGSK2BDVWOA","either","7","889","","","","","","","0","0","1","","0.3809677701","0.4","0.8","0.2","0.6","0.3580797835","0.3809677701","0.1682212827","0.2335662737","","","","","","","","","","","","74","J","1","","","130","main_expt"
"","bandit","210","964800","0.0-171.0-0.0","62279423","wem/bandit_either_2","A21KGSK2BDVWOA","either","7","964","","","","","","","0","0","1","0.2193829955","","0.4","0.8","0.2","0.6","","","","","0.3785893338","0.3681933818","0.2193829955","0.240441026","","","","","","","","75","K","2","","","131","main_expt"
"","bandit","211","967493","0.0-172.0-0.0","62279423","wem/bandit_either_2","A21KGSK2BDVWOA","either","7","759","","","","","","","0","0","1","","0.3764735404","0.4","0.8","0.2","0.6","0.3764735404","0.3664045944","0.2693349046","0.2266699971","","","","","","","","","","","","72","H","0","img/none_selected.jpg","","132","main_expt"
"","bandit","212","970723","0.0-173.0-0.0","62279423","wem/bandit_either_2","A21KGSK2BDVWOA","either","7","782","","","","","","","0","0","1","0.1994193025","","0.4","0.8","0.2","0.6","","","","","0.3433534211","0.4046437197","0.2576546077","0.1994193025","","","","","","","","76","L","3","","","133","main_expt"
"","bandit","213","972729","0.0-174.0-0.0","62279423","wem/bandit_either_2","A21KGSK2BDVWOA","either","7","341","","","","","","","0","0","1","","0.364490756","0.4","0.8","0.2","0.6","0.3606247271","0.364490756","0.2412372273","0.1891464922","","","","","","","","","","","","74","J","1","","","134","main_expt"
"","bandit","214","974758","0.0-175.0-0.0","62279423","wem/bandit_either_2","A21KGSK2BDVWOA","either","7","369","","","","","","","0","0","1","","0.2198641054","0.4","0.8","0.2","0.6","0.3268624306","0.311914316","0.2198641054","0.1614798668","","","","","","","","","","","","75","K","2","","","135","main_expt"
"","bandit","215","978147","0.0-176.0-0.0","62279423","wem/bandit_either_2","A21KGSK2BDVWOA","either","7","660","","","","","","","0","0","1","0.2854606769","","0.4","0.8","0.2","0.6","","","","","0.2854606769","0.2653901568","0.2504132697","0.1880386222","","","","","","","","72","H","0","img/none_selected.jpg","","136","main_expt"
"","bandit","216","980675","0.0-177.0-0.0","62279423","wem/bandit_either_2","A21KGSK2BDVWOA","either","7","825","","","","","","","1","0","0","0.1961818793","","0.4","0.8","0.2","0.6","","","","","0.3311747399","0.2413295316","0.1912230989","0.1961818793","","","","","","","","76","L","3","","","137","main_expt"
"","bandit","217","983969","0.0-178.0-0.0","62279423","wem/bandit_either_2","A21KGSK2BDVWOA","either","7","1673","","","","","","","0","0","1","","0.1576256809","0.4","0.8","0.2","0.6","0.2570785188","0.2060295423","0.1576256809","0.2857678963","","","","","","","","","","","","75","K","2","","","138","main_expt"
"","bandit","218","986272","0.0-179.0-0.0","62279423","wem/bandit_either_2","A21KGSK2BDVWOA","either","7","743","","","","","","","0","1","0","","0.3449131854","0.4","0.8","0.2","0.6","0.2858060749","0.1809645164","0.1019788138","0.3449131854","","","","","","","","","","","","76","L","3","","","139","main_expt"
"","bandit","219","988893","0.0-180.0-0.0","62279423","wem/bandit_either_2","A21KGSK2BDVWOA","either","7","950","","","","","","","0","0","1","0.2537716732","","0.4","0.8","0.2","0.6","","","","","0.2975559752","0.1843216893","0.07754087054","0.2537716732","","","","","","","","76","L","3","","","140","main_expt"
"","bandit","220","991150","0.0-181.0-0.0","62279423","wem/bandit_either_2","A21KGSK2BDVWOA","either","7","564","","","","","","","0","0","1","0.1651876155","","0.4","0.8","0.2","0.6","","","","","0.2802168405","0.1651876155","0.09489610577","0.2858111263","","","","","","","","74","J","1","","","141","main_expt"
"","bandit","221","994090","0.0-182.0-0.0","62279423","wem/bandit_either_2","A21KGSK2BDVWOA","either","7","883","","","","","","","0","0","1","","0.2231986748","0.4","0.8","0.2","0.6","0.2231986748","0.1536427928","0.09601428546","0.303049367","","","","","","","","","","","","72","H","0","img/none_selected.jpg","","142","main_expt"
"","bandit","222","995784","0.0-183.0-0.0","62279423","wem/bandit_either_2","A21KGSK2BDVWOA","either","7","94","","","","","","","0","0","1","","0.08301142993","0.4","0.8","0.2","0.6","0.2032880393","0.1546140226","0.08301142993","0.2969419413","","","","","","","","","","","","75","K","2","","","143","main_expt"
"","bandit","223","998192","0.0-184.0-0.0","62279423","wem/bandit_either_2","A21KGSK2BDVWOA","either","7","818","","","","","","","0","0","1","","0.3128690494","0.4","0.8","0.2","0.6","0.1967741464","0.1746031107","0.09599686985","0.3128690494","","","","","","","","","","","","76","L","3","","","144","main_expt"
"","bandit","224","1000133","0.0-185.0-0.0","62279423","wem/bandit_either_2","A21KGSK2BDVWOA","either","7","329","","","","","","","0","0","1","0.2021387556","","0.4","0.8","0.2","0.6","","","","","0.2283154954","0.2021387556","0.07499383622","0.2991796355","","","","","","","","74","J","1","","","145","main_expt"
"","bandit","225","1002792","0.0-186.0-0.0","62279423","wem/bandit_either_2","A21KGSK2BDVWOA","either","7","546","","","","","","","0","1","0","","0.2118700154","0.4","0.8","0.2","0.6","0.2118700154","0.2504344391","0.09566861","0.3163763193","","","","","","","","","","","","72","H","0","img/none_selected.jpg","","146","main_expt"
"","bandit","226","1005313","0.0-187.0-0.0","62279423","wem/bandit_either_2","A21KGSK2BDVWOA","either","7","693","","","","","","","1","0","0","0.210437557","","0.4","0.8","0.2","0.6","","","","","0.210437557","0.2437718569","0.08578591382","0.3198025905","","","","","","","","72","H","0","img/none_selected.jpg","","147","main_expt"
"","bandit","227","1011186","0.0-188.0-0.0","62279423","wem/bandit_either_2","A21KGSK2BDVWOA","either","7","4285","","","","","","","0","1","0","","0.2370661354","0.4","0.8","0.2","0.6","0.2370661354","0.2446677265","0.1147887709","0.2588245921","","","","","","","","","","","","72","H","0","img/none_selected.jpg","","148","main_expt"
"","bandit","228","1013855","0.0-189.0-0.0","62279423","wem/bandit_either_2","A21KGSK2BDVWOA","either","7","881","","","","","","","1","0","0","0.2430363771","","0.4","0.8","0.2","0.6","","","","","0.2430363771","0.2911002833","0.1378203382","0.248712437","","","","","","","","72","H","0","img/none_selected.jpg","","149","main_expt"
"","bandit","229","1017028","0.0-190.0-0.0","62279423","wem/bandit_either_2","A21KGSK2BDVWOA","either","7","1430","","","","","","","0","0","1","0.2242182381","","0.4","0.8","0.2","0.6","","","","","0.2242182381","0.3529655025","0.1414499273","0.179144869","","","","","","","","72","H","0","img/none_selected.jpg","","150","main_expt"
"","bandit","230","1020815","0.0-191.0-0.0","62279423","wem/bandit_either_2","A21KGSK2BDVWOA","either","7","827","","","","","","","0","0","1","","0.07852348772","0.4","0.8","0.2","0.6","0.1997145133","0.3885741111","0.07852348772","0.1545669956","","","","","","","","","","","","75","K","2","","","151","main_expt"
"","bandit","231","1022854","0.0-192.0-0.0","62279423","wem/bandit_either_2","A21KGSK2BDVWOA","either","7","189","","","","","","","1","0","0","0.3690499696","","0.4","0.8","0.2","0.6","","","","","0.2195927633","0.3690499696","0.08485793113","0.1651714415","","","","","","","","74","J","1","","","152","main_expt"
"","bandit","232","1028014","0.0-193.0-0.0","62279423","wem/bandit_either_2","A21KGSK2BDVWOA","either","7","2653","","","","","","","0","0","1","0.3710492515","","0.4","0.8","0.2","0.6","","","","","0.2121816628","0.3710492515","0.1083789561","0.2396245514","","","","","","","","74","J","1","","","153","main_expt"
"","bandit","233","1030441","0.0-194.0-0.0","62279423","wem/bandit_either_2","A21KGSK2BDVWOA","either","7","496","","","","","","","0","0","1","","0.2085838567","0.4","0.8","0.2","0.6","0.1830588608","0.3483335413","0.109098481","0.2085838567","","","","","","","","","","","","76","L","3","","","154","main_expt"
"","bandit","234","1033356","0.0-195.0-0.0","62279423","wem/bandit_either_2","A21KGSK2BDVWOA","either","7","1281","","","","","","","0","1","0","","0.1758262092","0.4","0.8","0.2","0.6","0.2031423662","0.3343760247","0.1758262092","0.1864274254","","","","","","","","","","","","75","K","2","","","155","main_expt"
"","bandit","235","1035939","0.0-196.0-0.0","62279423","wem/bandit_either_2","A21KGSK2BDVWOA","either","7","840","","","","","","","0","0","1","","0.2046597001","0.4","0.8","0.2","0.6","0.2022731065","0.3742013553","0.2046597001","0.1750870897","","","","","","","","","","","","75","K","2","","","156","main_expt"
"","bandit","236","1039216","0.0-197.0-0.0","62279423","wem/bandit_either_2","A21KGSK2BDVWOA","either","7","865","","","","","","","0","0","1","","0.1774751899","0.4","0.8","0.2","0.6","0.1826661219","0.3620366094","0.1774751899","0.1321985386","","","","","","","","","","","","75","K","2","","","157","main_expt"
"","bandit","237","1041443","0.0-198.0-0.0","62279423","wem/bandit_either_2","A21KGSK2BDVWOA","either","7","569","","","","","","","0","0","1","","0.1658993888","0.4","0.8","0.2","0.6","0.1658993888","0.3671714071","0.1612033886","0.1341899746","","","","","","","","","","","","72","H","0","img/none_selected.jpg","","158","main_expt"
"","bandit","238","1045221","0.0-199.0-0.0","62279423","wem/bandit_either_2","A21KGSK2BDVWOA","either","7","1536","","","","","","","0","0","1","","0.1567784951","0.4","0.8","0.2","0.6","0.1620079643","0.4015988616","0.1586838935","0.1567784951","","","","","","","","","","","","76","L","3","","","159","main_expt"
"","bandit","239","1047434","0.0-200.0-0.0","62279423","wem/bandit_either_2","A21KGSK2BDVWOA","either","7","584","","","","","","","0","0","1","","0.4004877553","0.4","0.8","0.2","0.6","0.2453635642","0.4004877553","0.2159944071","0.1615549635","","","","","","","","","","","","74","J","1","","","160","main_expt"
"","bandit","240","1050154","0.0-201.0-0.0","62279423","wem/bandit_either_2","A21KGSK2BDVWOA","either","7","1099","","","","","","","0","1","0","","0.2105769377","0.4","0.8","0.2","0.6","0.2456373749","0.4095849454","0.2105769377","0.1854631015","","","","","","","","","","","","75","K","2","","","161","main_expt"
"","bandit","241","1052399","0.0-202.0-0.0","62279423","wem/bandit_either_2","A21KGSK2BDVWOA","either","7","655","","","","","","","0","1","0","","0.2006925765","0.4","0.8","0.2","0.6","0.2460125232","0.3978002783","0.2006925765","0.21229469","","","","","","","","","","","","75","K","2","","","162","main_expt"
"","bandit","242","1054840","0.0-203.0-0.0","62279423","wem/bandit_either_2","A21KGSK2BDVWOA","either","7","836","","","","","","","0","1","0","","0.2365124807","0.4","0.8","0.2","0.6","0.2013568893","0.4180552148","0.2365124807","0.162194177","","","","","","","","","","","","75","K","2","","","163","main_expt"
"","bandit","243","1056988","0.0-204.0-0.0","62279423","wem/bandit_either_2","A21KGSK2BDVWOA","either","7","488","","","","","","","0","0","1","","0.2157370886","0.4","0.8","0.2","0.6","0.1933595846","0.4407560021","0.2157370886","0.1535707797","","","","","","","","","","","","75","K","2","","","164","main_expt"
"","bandit","244","1059114","0.0-205.0-0.0","62279423","wem/bandit_either_2","A21KGSK2BDVWOA","either","7","404","","","","","","","0","0","1","0.2315934193","","0.4","0.8","0.2","0.6","","","","","0.167552211","0.4582960521","0.2166787898","0.2315934193","","","","","","","","76","L","3","","","165","main_expt"
"","bandit","245","1060794","0.0-206.0-0.0","62279423","wem/bandit_either_2","A21KGSK2BDVWOA","either","7","103","","","","","","","0","0","1","0.2579087381","","0.4","0.8","0.2","0.6","","","","","0.1311237951","0.4337500892","0.1846262972","0.2579087381","","","","","","","","76","L","3","","","166","main_expt"
"","bandit","246","1063582","0.0-207.0-0.0","62279423","wem/bandit_either_2","A21KGSK2BDVWOA","either","7","520","","","","","","","0","0","1","","0.1714029316","0.4","0.8","0.2","0.6","0.1714029316","0.4537582576","0.1888750078","0.2496457694","","","","","","","","","","","","72","H","0","img/none_selected.jpg","","167","main_expt"
"","bandit","247","1065311","0.0-208.0-0.0","62279423","wem/bandit_either_2","A21KGSK2BDVWOA","either","7","11","","","","","","","0","1","0","","0.2315683769","0.4","0.8","0.2","0.6","0.1494402723","0.4473485534","0.2315683769","0.234558796","","","","","","","","","","","","75","K","2","","","168","main_expt"
"","bandit","248","1068615","0.0-209.0-0.0","62279423","wem/bandit_either_2","A21KGSK2BDVWOA","either","7","1639","","","","","","","0","1","0","","0.2018123945","0.4","0.8","0.2","0.6","0.1819888556","0.4471591033","0.2018123945","0.2458600006","","","","","","","","","","","","75","K","2","","","169","main_expt"
"","bandit","249","1071360","0.0-210.0-0.0","62279423","wem/bandit_either_2","A21KGSK2BDVWOA","either","7","1120","","","","","","","0","0","1","0.139238222","","0.4","0.8","0.2","0.6","","","","","0.2329206984","0.4581839475","0.139238222","0.2214583157","","","","","","","","75","K","2","","","170","main_expt"
"","bandit","250","1073850","0.0-211.0-0.0","62279423","wem/bandit_either_2","A21KGSK2BDVWOA","either","7","587","","","","","","","1","0","0","0.4674995421","","0.4","0.8","0.2","0.6","","","","","0.2000607923","0.4674995421","0.1466511374","0.296208115","","","","","","","","74","J","1","","","171","main_expt"
"","bandit","251","1076914","0.0-212.0-0.0","62279423","wem/bandit_either_2","A21KGSK2BDVWOA","either","7","1187","","","","","","","1","0","0","0.4455620345","","0.4","0.8","0.2","0.6","","","","","0.2342957318","0.4455620345","0.1348290388","0.3062379281","","","","","","","","74","J","1","","","172","main_expt"
"","bandit","252","1080667","0.0-213.0-0.0","62279423","wem/bandit_either_2","A21KGSK2BDVWOA","either","7","2158","","","","","","","0","0","1","","0.4471610379","0.4","0.8","0.2","0.6","0.2189308077","0.4471610379","0.1521691919","0.2498067723","","","","","","","","","","","","74","J","1","","","173","main_expt"
"","bandit","253","1083158","0.0-214.0-0.0","62279423","wem/bandit_either_2","A21KGSK2BDVWOA","either","7","389","","","","","","","0","0","1","0.1803522277","","0.4","0.8","0.2","0.6","","","","","0.2373932689","0.4496576915","0.2191935525","0.1803522277","","","","","","","","76","L","3","","","174","main_expt"
"","bandit","254","1086961","0.0-215.0-0.0","62279423","wem/bandit_either_2","A21KGSK2BDVWOA","either","7","1927","","","","","","","0","0","1","","0.2160264752","0.4","0.8","0.2","0.6","0.2160264752","0.4715297358","0.219961305","0.2014319342","","","","","","","","","","","","72","H","0","img/none_selected.jpg","","175","main_expt"
"","bandit","255","1089535","0.0-216.0-0.0","62279423","wem/bandit_either_2","A21KGSK2BDVWOA","either","7","785","","","","","","","0","0","1","","0.1882485239","0.4","0.8","0.2","0.6","0.1990604306","0.477956151","0.1882485239","0.2122003168","","","","","","","","","","","","75","K","2","","","176","main_expt"
"","bandit","256","1093194","0.0-217.0-0.0","62279423","wem/bandit_either_2","A21KGSK2BDVWOA","either","7","1683","","","","","","","0","0","1","0.2629069455","","0.4","0.8","0.2","0.6","","","","","0.1729978196","0.4563721206","0.1644902553","0.2629069455","","","","","","","","76","L","3","","","177","main_expt"
"","bandit","257","1096059","0.0-218.0-0.0","62279423","wem/bandit_either_2","A21KGSK2BDVWOA","either","7","1069","","","","","","","0","0","1","0.4409869931","","0.4","0.8","0.2","0.6","","","","","0.1633080779","0.4409869931","0.1713669852","0.2336104206","","","","","","","","74","J","1","","","178","main_expt"
"","bandit","258","1099188","0.0-219.0-0.0","62279423","wem/bandit_either_2","A21KGSK2BDVWOA","either","7","1319","","","","","","","0","0","1","0.1243251356","","0.4","0.8","0.2","0.6","","","","","0.1243251356","0.4243126063","0.2263400462","0.1887504226","","","","","","","","72","H","0","img/none_selected.jpg","","179","main_expt"
"","bandit","259","1101880","0.0-220.0-0.0","62279423","wem/bandit_either_2","A21KGSK2BDVWOA","either","7","1112","","","","","","","0","0","1","0.2036870175","","0.4","0.8","0.2","0.6","","","","","0.1150149055","0.4312830743","0.2036870175","0.138376641","","","","","","","","75","K","2","","","180","main_expt"
"","bandit","260","1104318","0.0-221.0-0.0","62279423","wem/bandit_either_2","A21KGSK2BDVWOA","either","7","327","","","","","","","0","0","1","","0.1883992559","0.4","0.8","0.2","0.6","0.1407924877","0.4433127893","0.1934599198","0.1883992559","","","","","","","","","","","","76","L","3","","","181","main_expt"
"","bandit","261","1107311","0.0-222.0-0.0","62279423","wem/bandit_either_2","A21KGSK2BDVWOA","either","7","1396","","","","","","","0","0","1","0.440136403","","0.4","0.8","0.2","0.6","","","","","0.09672650852","0.440136403","0.2424515525","0.128889003","","","","","","","","74","J","1","","","182","main_expt"
"","bandit","262","1110006","0.0-223.0-0.0","62279423","wem/bandit_either_2","A21KGSK2BDVWOA","either","7","893","","","","","","","0","0","1","","0.09888002855","0.4","0.8","0.2","0.6","0.09888002855","0.4347693449","0.1961777535","0.1748769843","","","","","","","","","","","","72","H","0","img/none_selected.jpg","","183","main_expt"
"","bandit","263","1112385","0.0-224.0-0.0","62279423","wem/bandit_either_2","A21KGSK2BDVWOA","either","7","627","","","","","","","0","0","1","","0.1489283113","0.4","0.8","0.2","0.6","0.07200145298","0.4277130926","0.1489283113","0.1945994373","","","","","","","","","","","","75","K","2","","","184","main_expt"
"","bandit","264","1115182","0.0-225.0-0.0","62279423","wem/bandit_either_2","A21KGSK2BDVWOA","either","7","616","","","","","","","0","0","1","","0.1644748654","0.4","0.8","0.2","0.6","0.09476413333","0.3956248437","0.1499965078","0.1644748654","","","","","","","","","","","","76","L","3","","","185","main_expt"
"","bandit","265","1117131","0.0-226.0-0.0","62279423","wem/bandit_either_2","A21KGSK2BDVWOA","either","7","351","","","","","","","0","0","1","0.3748928266","","0.4","0.8","0.2","0.6","","","","","0.06556422103","0.3748928266","0.2169832988","0.1504635592","","","","","","","","74","J","1","","","186","main_expt"
"","bandit","266","1119667","0.0-227.0-0.0","62279423","wem/bandit_either_2","A21KGSK2BDVWOA","either","7","917","","","","","","","0","0","1","","0.2655186329","0.4","0.8","0.2","0.6","0.08901149072","0.3848139325","0.2655186329","0.1760039214","","","","","","","","","","","","75","K","2","","","187","main_expt"
"","bandit","267","1121829","0.0-228.0-0.0","62279423","wem/bandit_either_2","A21KGSK2BDVWOA","either","7","537","","","","","","","0","0","1","","0.09471428588","0.4","0.8","0.2","0.6","0.09471428588","0.3990176401","0.2738785118","0.1203267588","","","","","","","","","","","","72","H","0","img/none_selected.jpg","","188","main_expt"
"","bandit","268","1139830","0.0-229.0-0.0","62279423","wem/bandit_either_2","A21KGSK2BDVWOA","either","7","16081","","","","","","","0","0","1","","0.3041874674","0.4","0.8","0.2","0.6","0.05118235823","0.3581396838","0.3041874674","0.1171540391","","","","","","","","","","","","75","K","2","","","189","main_expt"
"","bandit","269","1145503","0.0-230.0-0.0","62279423","wem/bandit_either_2","A21KGSK2BDVWOA","either","7","3683","","","","","","","0","0","1","0.1535230761","","0.4","0.8","0.2","0.6","","","","","0.05788318751","0.2882972244","0.3229453735","0.1535230761","","","","","","","","76","L","3","","","190","main_expt"
"","bandit","270","1152499","0.0-231.0-0.0","62279423","wem/bandit_either_2","A21KGSK2BDVWOA","either","7","5338","","","","","","","0","0","1","0.3145326233","","0.4","0.8","0.2","0.6","","","","","0.08736915481","0.3145326233","0.3818249757","0.1372750947","","","","","","","","74","J","1","","","191","main_expt"
"","bandit","271","1160882","0.0-232.0-0.0","62279423","wem/bandit_either_2","A21KGSK2BDVWOA","either","7","6655","","","","","","","0","0","1","0.08251019118","","0.4","0.8","0.2","0.6","","","","","0.08251019118","0.3270603702","0.4157726243","0.1047771501","","","","","","","","72","H","0","img/none_selected.jpg","","192","main_expt"
"","bandit","272","1164547","0.0-233.0-0.0","62279423","wem/bandit_either_2","A21KGSK2BDVWOA","either","7","1469","","","","","","","0","0","1","0.1100845432","","0.4","0.8","0.2","0.6","","","","","0.06897628064","0.3604030797","0.4611608212","0.1100845432","","","","","","","","76","L","3","","","193","main_expt"
"","bandit","273","1168831","0.0-234.0-0.0","62279423","wem/bandit_either_2","A21KGSK2BDVWOA","either","7","2213","","","","","","","0","0","1","0.357423186","","0.4","0.8","0.2","0.6","","","","","0.06801266305","0.357423186","0.4508818777","0.1468163818","","","","","","","","74","J","1","","","194","main_expt"
"","bandit","274","1173641","0.0-235.0-0.0","62279423","wem/bandit_either_2","A21KGSK2BDVWOA","either","7","3143","","","","","","","0","1","0","","0.4278921451","0.4","0.8","0.2","0.6","0.09923709358","0.3697779856","0.4278921451","0.1495594621","","","","","","","","","","","","75","K","2","","","195","main_expt"
"","bandit","275","1181743","0.0-236.0-0.0","62279423","wem/bandit_either_2","A21KGSK2BDVWOA","either","7","5731","","","","","","","0","0","1","0.2263220537","","0.4","0.8","0.2","0.6","","","","","0.1103063831","0.3617177512","0.4256293003","0.2263220537","","","","","","","","76","L","3","","","196","main_expt"
"","bandit","276","1184539","0.0-237.0-0.0","62279423","wem/bandit_either_2","A21KGSK2BDVWOA","either","7","944","","","","","","","0","1","0","","0.07377144043","0.4","0.8","0.2","0.6","0.07377144043","0.3775990084","0.4476975038","0.2204718804","","","","","","","","","","","","72","H","0","img/none_selected.jpg","","197","main_expt"
"","bandit","277","1189009","0.0-238.0-0.0","62279423","wem/bandit_either_2","A21KGSK2BDVWOA","either","7","2551","","","","","","","0","0","1","0.08863448313","","0.4","0.8","0.2","0.6","","","","","0.08863448313","0.4144042571","0.4434357272","0.2401118457","","","","","","","","72","H","0","img/none_selected.jpg","","198","main_expt"
"","bandit","278","1194665","0.0-239.0-0.0","62279423","wem/bandit_either_2","A21KGSK2BDVWOA","either","7","3616","","","","","","","0","0","1","0.4081775392","","0.4","0.8","0.2","0.6","","","","","0.1082179128","0.4081775392","0.4245114622","0.2673724497","","","","","","","","74","J","1","","","199","main_expt"
"","bandit","279","1203280","0.0-240.0-0.0","62279423","wem/bandit_either_2","A21KGSK2BDVWOA","either","7","6773","","","","","","","0","0","1","0.3125307902","","0.4","0.8","0.2","0.6","","","","","0.09350688576","0.4166156547","0.4087100315","0.3125307902","","","","","","","","76","L","3","","","200","main_expt"
"","bandit","280","1206410","0.0-241.0-0.0","62279423","wem/bandit_either_2","A21KGSK2BDVWOA","either","7","1403","","","","","","","0","0","1","","0.1036625099","0.4","0.8","0.2","0.6","0.1036625099","0.4306537176","0.4361521275","0.2914574258","","","","","","","","","","","","72","H","0","img/none_selected.jpg","","201","main_expt"
"","bandit","281","1211417","0.0-242.0-0.0","62279423","wem/bandit_either_2","A21KGSK2BDVWOA","either","7","3249","","","","","","","1","0","0","0.449382563","","0.4","0.8","0.2","0.6","","","","","0.1216733889","0.449382563","0.3332596158","0.2550600684","","","","","","","","74","J","1","","","202","main_expt"
"","bandit","282","1215117","0.0-243.0-0.0","62279423","wem/bandit_either_2","A21KGSK2BDVWOA","either","7","1971","","","","","","","0","1","0","","0.4506576586","0.4","0.8","0.2","0.6","0.120655788","0.4506576586","0.3581848779","0.2769745997","","","","","","","","","","","","74","J","1","","","203","main_expt"
"","bandit","283","1219025","0.0-244.0-0.0","62279423","wem/bandit_either_2","A21KGSK2BDVWOA","either","7","2239","","","","","","","1","0","0","0.454839243","","0.4","0.8","0.2","0.6","","","","","0.1082970726","0.454839243","0.3597133043","0.2752990059","","","","","","","","74","J","1","","","204","main_expt"
"","bandit","284","1236288","0.0-245.0-0.0","62279423","wem/bandit_either_2","A21KGSK2BDVWOA","either","7","15556","","","","","","","0","0","1","","0.2901512169","0.4","0.8","0.2","0.6","0.09143681274","0.4512889682","0.3630183988","0.2901512169","","","","","","","","","","","","76","L","3","","","205","main_expt"
"","bandit","285","1238970","0.0-246.0-0.0","62279423","wem/bandit_either_2","A21KGSK2BDVWOA","either","7","986","","","","","","","0","0","1","0.4591490044","","0.4","0.8","0.2","0.6","","","","","0.08377413986","0.4591490044","0.3737494834","0.2823763913","","","","","","","","74","J","1","","","206","main_expt"
"","bandit","286","1240981","0.0-247.0-0.0","62279423","wem/bandit_either_2","A21KGSK2BDVWOA","either","7","383","","","","","","","0","0","1","","0.3668784438","0.4","0.8","0.2","0.6","0.1585073664","0.4650593633","0.3668784438","0.2708062506","","","","","","","","","","","","75","K","2","","","207","main_expt"
"","bandit","287","1244064","0.0-248.0-0.0","62279423","wem/bandit_either_2","A21KGSK2BDVWOA","either","7","1268","","","","","","","0","0","1","0.162299901","","0.4","0.8","0.2","0.6","","","","","0.162299901","0.4641513068","0.4045351895","0.2641553663","","","","","","","","72","H","0","img/none_selected.jpg","","208","main_expt"
"","bandit","288","1248877","0.0-249.0-0.0","62279423","wem/bandit_either_2","A21KGSK2BDVWOA","either","7","2604","","","","","","","0","0","1","0.2704675845","","0.4","0.8","0.2","0.6","","","","","0.1542266077","0.4567807332","0.4402386934","0.2704675845","","","","","","","","76","L","3","","","209","main_expt"
"","bandit","289","1252244","0.0-250.0-0.0","62279423","wem/bandit_either_2","A21KGSK2BDVWOA","either","7","1657","","","","","","","0","0","1","0.428253188","","0.4","0.8","0.2","0.6","","","","","0.1890415559","0.428253188","0.4483623408","0.3420868926","","","","","","","","74","J","1","","","210","main_expt"
"","bandit","290","1262935","0.0-251.0-0.0","62279423","wem/bandit_either_2","A21KGSK2BDVWOA","either","7","9004","","","","","","","0","0","1","","0.4471415093","0.4","0.8","0.2","0.6","0.1818133019","0.410271385","0.4471415093","0.3069688952","","","","","","","","","","","","75","K","2","","","211","main_expt"
"","bandit","291","1265645","0.0-252.0-0.0","62279423","wem/bandit_either_2","A21KGSK2BDVWOA","either","7","1002","","","","","","","0","0","1","0.1782747956","","0.4","0.8","0.2","0.6","","","","","0.1782747956","0.4065587724","0.4374655127","0.3005379093","","","","","","","","72","H","0","img/none_selected.jpg","","212","main_expt"
"","bandit","292","1268095","0.0-253.0-0.0","62279423","wem/bandit_either_2","A21KGSK2BDVWOA","either","7","816","","","","","","","1","0","0","0.213882915","","0.4","0.8","0.2","0.6","","","","","0.1935195711","0.4007116542","0.4381457257","0.213882915","","","","","","","","76","L","3","","","213","main_expt"
"","bandit","293","1272067","0.0-254.0-0.0","62279423","wem/bandit_either_2","A21KGSK2BDVWOA","either","7","2300","","","","","","","0","0","1","0.2138557204","","0.4","0.8","0.2","0.6","","","","","0.2421176173","0.4246209323","0.4643769008","0.2138557204","","","","","","","","76","L","3","","","214","main_expt"
"","bandit","294","1285325","0.0-255.0-0.0","62279423","wem/bandit_either_2","A21KGSK2BDVWOA","either","7","11352","","","","","","","0","0","1","","0.4328812357","0.4","0.8","0.2","0.6","0.2629876012","0.3993057066","0.4328812357","0.2142566612","","","","","","","","","","","","75","K","2","","","215","main_expt"
"","bandit","295","1289529","0.0-256.0-0.0","62279423","wem/bandit_either_2","A21KGSK2BDVWOA","either","7","2613","","","","","","","1","0","0","0.3987772474","","0.4","0.8","0.2","0.6","","","","","0.2977714141","0.3987772474","0.4064507999","0.1900351118","","","","","","","","74","J","1","","","216","main_expt"
"","bandit","296","1294861","0.0-257.0-0.0","62279423","wem/bandit_either_2","A21KGSK2BDVWOA","either","7","3593","","","","","","","1","0","0","0.4101433534","","0.4","0.8","0.2","0.6","","","","","0.3017601552","0.4101433534","0.4197961641","0.2185169477","","","","","","","","74","J","1","","","217","main_expt"
"","bandit","297","1300564","0.0-258.0-0.0","62279423","wem/bandit_either_2","A21KGSK2BDVWOA","either","7","4010","","","","","","","1","0","0","0.4448029092","","0.4","0.8","0.2","0.6","","","","","0.2888566207","0.4448029092","0.4167397569","0.2240895604","","","","","","","","74","J","1","","","218","main_expt"
"","bandit","298","1307642","0.0-259.0-0.0","62279423","wem/bandit_either_2","A21KGSK2BDVWOA","either","7","5423","","","","","","","1","0","0","0.4454766299","","0.4","0.8","0.2","0.6","","","","","0.2844008008","0.4454766299","0.4250944588","0.1990808675","","","","","","","","74","J","1","","","219","main_expt"
"","bandit","299","1315929","0.0-260.0-0.0","62279423","wem/bandit_either_2","A21KGSK2BDVWOA","either","7","6570","","","","","","","0","0","1","0.4610997771","","0.4","0.8","0.2","0.6","","","","","0.2225062479","0.4610997771","0.4173336587","0.266602996","","","","","","","","74","J","1","","","220","main_expt"
"","bandit","300","1320895","0.0-261.0-0.0","62279423","wem/bandit_either_2","A21KGSK2BDVWOA","either","7","3260","","","","","","","0","0","1","0.2443661227","","0.4","0.8","0.2","0.6","","","","","0.2409900116","0.4642289789","0.3944711005","0.2443661227","","","","","","","","76","L","3","","","221","main_expt"
"","bandit","301","1323807","0.0-262.0-0.0","62279423","wem/bandit_either_2","A21KGSK2BDVWOA","either","7","1306","","","","","","","0","1","0","","0.3619306912","0.4","0.8","0.2","0.6","0.1989678636","0.4641270597","0.3619306912","0.2205922116","","","","","","","","","","","","75","K","2","","","222","main_expt"
"","bandit","302","1331340","0.0-263.0-0.0","62279423","wem/bandit_either_2","A21KGSK2BDVWOA","either","7","5867","","","","","","","1","0","0","0.1902867071","","0.4","0.8","0.2","0.6","","","","","0.1902867071","0.4697433819","0.4117842179","0.1861223506","","","","","","","","72","H","0","img/none_selected.jpg","","223","main_expt"
"","bandit","303","1334756","0.0-264.0-0.0","62279423","wem/bandit_either_2","A21KGSK2BDVWOA","either","7","423","","","","","","","0","0","1","0.2076415522","","0.4","0.8","0.2","0.6","","","","","0.2076415522","0.460898083","0.3965092367","0.1668884863","","","","","","","","72","H","0","img/none_selected.jpg","","224","main_expt"
"","bandit","304","1336520","0.0-265.0-0.0","62279423","wem/bandit_either_2","A21KGSK2BDVWOA","either","7","4","","","","","","","0","0","1","0.4394890665","","0.4","0.8","0.2","0.6","","","","","0.2393469174","0.4394890665","0.4084477862","0.1481472712","","","","","","","","74","J","1","","","225","main_expt"
"","bandit","305","1340132","0.0-266.0-0.0","62279423","wem/bandit_either_2","A21KGSK2BDVWOA","either","7","1966","","","","","","","0","1","0","","0.4104601526","0.4","0.8","0.2","0.6","0.2425440376","0.4520955237","0.4104601526","0.1140846591","","","","","","","","","","","","75","K","2","","","226","main_expt"
"","bandit","306","1343121","0.0-267.0-0.0","62279423","wem/bandit_either_2","A21KGSK2BDVWOA","either","7","879","","","","","","","0","1","0","","0.3899733519","0.4","0.8","0.2","0.6","0.2365603363","0.4324220164","0.3899733519","0.1074218354","","","","","","","","","","","","75","K","2","","","227","main_expt"
"","bandit","307","1345712","0.0-268.0-0.0","62279423","wem/bandit_either_2","A21KGSK2BDVWOA","either","7","788","","","","","","","0","0","1","0.08065165665","","0.4","0.8","0.2","0.6","","","","","0.2127958296","0.4220482421","0.3796730737","0.08065165665","","","","","","","","76","L","3","","","228","main_expt"
"","bandit","308","1347746","0.0-269.0-0.0","62279423","wem/bandit_either_2","A21KGSK2BDVWOA","either","7","411","","","","","","","0","0","1","","0.2207861463","0.4","0.8","0.2","0.6","0.2207861463","0.3885749154","0.4046866514","0.07774059362","","","","","","","","","","","","72","H","0","img/none_selected.jpg","","229","main_expt"
"","bandit","309","1350398","0.0-270.0-0.0","62279423","wem/bandit_either_2","A21KGSK2BDVWOA","either","7","850","","","","","","","1","0","0","0.3988793555","","0.4","0.8","0.2","0.6","","","","","0.2589226453","0.4023755806","0.3988793555","0.1109483114","","","","","","","","75","K","2","","","230","main_expt"
"","bandit","310","1353020","0.0-271.0-0.0","62279423","wem/bandit_either_2","A21KGSK2BDVWOA","either","7","1007","","","","","","","0","0","1","","0.3981898202","0.4","0.8","0.2","0.6","0.2956158432","0.3768725222","0.3981898202","0.05902300203","","","","","","","","","","","","75","K","2","","","231","main_expt"
"","bandit","311","1356560","0.0-272.0-0.0","62279423","wem/bandit_either_2","A21KGSK2BDVWOA","either","7","1848","","","","","","","0","0","1","","0.3619917427","0.4","0.8","0.2","0.6","0.3202484073","0.3619917427","0.4411941832","0.06675855664","","","","","","","","","","","","74","J","1","","","232","main_expt"
"","bandit","312","1359667","0.0-273.0-0.0","62279423","wem/bandit_either_2","A21KGSK2BDVWOA","either","7","1471","","","","","","","0","0","1","0.06703699679","","0.4","0.8","0.2","0.6","","","","","0.2933644042","0.3833578816","0.42967461","0.06703699679","","","","","","","","76","L","3","","","233","main_expt"
"","bandit","313","1362381","0.0-274.0-0.0","62279423","wem/bandit_either_2","A21KGSK2BDVWOA","either","7","714","","","","","","","0","0","1","","0.4242798354","0.4","0.8","0.2","0.6","0.3106154811","0.3552131768","0.4242798354","0.05331023031","","","","","","","","","","","","75","K","2","","","234","main_expt"
"","bandit","314","1364263","0.0-275.0-0.0","62279423","wem/bandit_either_2","A21KGSK2BDVWOA","either","7","223","","","","","","","0","1","0","","0.3158990995","0.4","0.8","0.2","0.6","0.3158990995","0.3135084543","0.4617388459","0.05187545802","","","","","","","","","","","","72","H","0","img/none_selected.jpg","","235","main_expt"
"","bandit","315","1367114","0.0-276.0-0.0","62279423","wem/bandit_either_2","A21KGSK2BDVWOA","either","7","1031","","","","","","","0","0","1","","0.3036927748","0.4","0.8","0.2","0.6","0.3036927748","0.244945467","0.4619510484","0.06939909985","","","","","","","","","","","","72","H","0","img/none_selected.jpg","","236","main_expt"
"","bandit","316","1369293","0.0-277.0-0.0","62279423","wem/bandit_either_2","A21KGSK2BDVWOA","either","7","558","","","","","","","0","0","1","","0.4482398789","0.4","0.8","0.2","0.6","0.3491021326","0.1823839079","0.4482398789","0.1210409879","","","","","","","","","","","","75","K","2","","","237","main_expt"
"","bandit","317","1372295","0.0-278.0-0.0","62279423","wem/bandit_either_2","A21KGSK2BDVWOA","either","7","1268","","","","","","","0","0","1","0.1685050226","","0.4","0.8","0.2","0.6","","","","","0.3939254097","0.1685050226","0.4193969143","0.1147840357","","","","","","","","74","J","1","","","238","main_expt"
"","bandit","318","1374799","0.0-279.0-0.0","62279423","wem/bandit_either_2","A21KGSK2BDVWOA","either","7","330","","","","","","","0","0","1","","0.1006463842","0.4","0.8","0.2","0.6","0.379108978","0.1606472637","0.4203848948","0.1006463842","","","","","","","","","","","","76","L","3","","","239","main_expt"
"","bandit","319","1377476","0.0-280.0-0.0","62279423","wem/bandit_either_2","A21KGSK2BDVWOA","either","7","1065","","","","","","","0","0","1","","0.3876209848","0.4","0.8","0.2","0.6","0.3876209848","0.1512795466","0.4489383263","0.1008771133","","","","","","","","","","","","72","H","0","img/none_selected.jpg","","240","main_expt"
"","bandit","320","1381161","0.0-281.0-0.0","62279423","wem/bandit_either_2","A21KGSK2BDVWOA","either","7","1962","","","","","","","0","0","1","","0.4636195567","0.4","0.8","0.2","0.6","0.3839625774","0.1916219391","0.4636195567","0.09981833296","","","","","","","","","","","","75","K","2","","","241","main_expt"
"","bandit","321","1383142","0.0-282.0-0.0","62279423","wem/bandit_either_2","A21KGSK2BDVWOA","either","7","322","","","","","","","0","0","1","0.1641013935","","0.4","0.8","0.2","0.6","","","","","0.3477958629","0.1641013935","0.4575307695","0.1171772993","","","","","","","","74","J","1","","","242","main_expt"
"","bandit","322","1387125","0.0-283.0-0.0","62279423","wem/bandit_either_2","A21KGSK2BDVWOA","either","7","1251","","","","","","","0","0","1","0.1239984651","","0.4","0.8","0.2","0.6","","","","","0.3500658948","0.2064320789","0.4449554393","0.1239984651","","","","","","","","76","L","3","","","243","main_expt"
"","bandit","323","1390422","0.0-284.0-0.0","62279423","wem/bandit_either_2","A21KGSK2BDVWOA","either","7","1417","","","","","","","1","0","0","0.4525763452","","0.4","0.8","0.2","0.6","","","","","0.3452717574","0.2205496082","0.4525763452","0.1126152289","","","","","","","","75","K","2","","","244","main_expt"
"","bandit","324","1393943","0.0-285.0-0.0","62279423","wem/bandit_either_2","A21KGSK2BDVWOA","either","7","1847","","","","","","","0","0","1","0.4753838692","","0.4","0.8","0.2","0.6","","","","","0.3162288444","0.214276823","0.4753838692","0.1524829061","","","","","","","","75","K","2","","","245","main_expt"
"","bandit","325","1396306","0.0-286.0-0.0","62279423","wem/bandit_either_2","A21KGSK2BDVWOA","either","7","572","","","","","","","0","0","1","","0.2894596967","0.4","0.8","0.2","0.6","0.2894596967","0.2084567316","0.4623654582","0.1921750243","","","","","","","","","","","","72","H","0","img/none_selected.jpg","","246","main_expt"
"","bandit","326","1398419","0.0-287.0-0.0","62279423","wem/bandit_either_2","A21KGSK2BDVWOA","either","7","484","","","","","","","1","0","0","0.1931065189","","0.4","0.8","0.2","0.6","","","","","0.2642296388","0.2232303491","0.4331165165","0.1931065189","","","","","","","","76","L","3","","","247","main_expt"
