"consent","trial_type","trial_index","time_elapsed","internal_node_id","subjID","study","MID","cond","drift","rt","responses","key_press","expt_phase","like","value","connected","gems","bombs","no_reward","GemPrChosen","BombPrChosen","GainOverPainPr_0","GainOverPainPr_1","GainOverPainPr_2","GainOverPainPr_3","LosePr_0","LosePr_1","LosePr_2","LosePr_3","WinPr_0","WinPr_1","WinPr_2","WinPr_3","Q0","Q1","Q2","gender","age","ethnicity","target","respCharCode","respKey","respChoiceNum","respChoice","practice","trial_counter","trial_label"
"INL_behavioral_consent_30min_online.html","consent","0","20049","0.0-0.0","64775863","wem/bandit_either_2","A5T9IFDZ3W4T6","either","2","","","","","","","","","","","","","","","","","","","","","","","","","","","","","","","","","","","","","",""
"","survey-text","1","27407","0.0-1.0","64775863","wem/bandit_either_2","A5T9IFDZ3W4T6","either","2","6346","{""Q0"":""A5T9IFDZ3W4T6""}","","","","","","","","","","","","","","","","","","","","","","","","","","","","","","","","","","","",""
"","text","2","43856","0.0-2.0","64775863","wem/bandit_either_2","A5T9IFDZ3W4T6","either","2","15443","","32","","","","","","","","","","","","","","","","","","","","","","","","","","","","","","","","","","",""
"","text","3","51525","0.0-3.0","64775863","wem/bandit_either_2","A5T9IFDZ3W4T6","either","2","7667","","32","","","","","","","","","","","","","","","","","","","","","","","","","","","","","","","","","","",""
"","text","4","87226","0.0-4.0","64775863","wem/bandit_either_2","A5T9IFDZ3W4T6","either","2","35698","","32","","","","","","","","","","","","","","","","","","","","","","","","","","","","","","","","","","",""
"","text","5","101284","0.0-5.0","64775863","wem/bandit_either_2","A5T9IFDZ3W4T6","either","2","14055","","32","","","","","","","","","","","","","","","","","","","","","","","","","","","","","","","","","","",""
"","text","6","119485","0.0-6.0","64775863","wem/bandit_either_2","A5T9IFDZ3W4T6","either","2","18199","","32","","","","","","","","","","","","","","","","","","","","","","","","","","","","","","","","","","",""
"","text","7","126234","0.0-7.0","64775863","wem/bandit_either_2","A5T9IFDZ3W4T6","either","2","6747","","32","","","","","","","","","","","","","","","","","","","","","","","","","","","","","","","","","","",""
"","text","8","129984","0.0-8.0","64775863","wem/bandit_either_2","A5T9IFDZ3W4T6","either","2","3748","","32","","","","","","","","","","","","","","","","","","","","","","","","","","","","","","","","","","",""
"","identification","9","140910","0.0-9.0-0.0","64775863","wem/bandit_either_2","A5T9IFDZ3W4T6","either","2","10897","","","","3","5","5","","","","","","","","","","","","","","","","","","","","","","","","the village of Zur","","","","","","",""
"","identification","10","148419","0.0-9.0-1.0","64775863","wem/bandit_either_2","A5T9IFDZ3W4T6","either","2","6486","","","","1","0","4","","","","","","","","","","","","","","","","","","","","","","","","the village of Nyx","","","","","","",""
"","text","11","154635","0.0-10.0","64775863","wem/bandit_either_2","A5T9IFDZ3W4T6","either","2","5214","","32","","","","","","","","","","","","","","","","","","","","","","","","","","","","","","","","","","",""
"","text","12","156500","0.0-11.0","64775863","wem/bandit_either_2","A5T9IFDZ3W4T6","either","2","1863","","32","","","","","","","","","","","","","","","","","","","","","","","","","","","","","","","","","","",""
"","text","13","158898","0.0-12.0","64775863","wem/bandit_either_2","A5T9IFDZ3W4T6","either","2","2395","","32","","","","","","","","","","","","","","","","","","","","","","","","","","","","","","","","","","",""
"","text","14","164004","0.0-13.0","64775863","wem/bandit_either_2","A5T9IFDZ3W4T6","either","2","5104","","32","","","","","","","","","","","","","","","","","","","","","","","","","","","","","","","","","","",""
"","bandit","15","167285","0.0-14.0-0.0","64775863","wem/bandit_either_2","A5T9IFDZ3W4T6","either","2","1767","","","","","","","0","0","1","0","0","","","","","0","","","","0","","","","","","","","","","","74","J","0","img/none_selected_demo.jpg","true","0",""
"","bandit","16","170100","0.0-15.0-0.0","64775863","wem/bandit_either_2","A5T9IFDZ3W4T6","either","2","1306","","","","","","","0","0","1","0","0","","","","","0","","","","0","","","","","","","","","","","75","K","0","img/none_selected_demo.jpg","true","0",""
"","text","17","178476","0.0-16.0","64775863","wem/bandit_either_2","A5T9IFDZ3W4T6","either","2","8372","","32","","","","","","","","","","","","","","","","","","","","","","","","","","","","","","","","","","",""
"","text","18","213382","0.0-17.0","64775863","wem/bandit_either_2","A5T9IFDZ3W4T6","either","2","34902","","32","","","","","","","","","","","","","","","","","","","","","","","","","","","","","","","","","","",""
"","text","19","219443","0.0-18.0","64775863","wem/bandit_either_2","A5T9IFDZ3W4T6","either","2","6057","","32","","","","","","","","","","","","","","","","","","","","","","","","","","","","","","","","","","",""
"","text","20","221404","0.0-19.0","64775863","wem/bandit_either_2","A5T9IFDZ3W4T6","either","2","1959","","32","","","","","","","","","","","","","","","","","","","","","","","","","","","","","","","","","","",""
"","bandit","21","224093","0.0-20.0-0.0","64775863","wem/bandit_either_2","A5T9IFDZ3W4T6","either","2","1179","","","","","","","0","0","1","","0.8","0.5","0.5","","","0.8","0.2","","","","","","","","","","","","","","74","J","0","img/none_selected_demo.jpg","true","0","80_20_practice"
"","bandit","22","225957","0.0-20.0-1.0","64775863","wem/bandit_either_2","A5T9IFDZ3W4T6","either","2","350","","","","","","","0","0","1","","0.8","0.5","0.5","","","0.8","0.2","","","","","","","","","","","","","","74","J","0","img/none_selected_demo.jpg","true","0","80_20_practice"
"","bandit","23","227809","0.0-20.0-2.0","64775863","wem/bandit_either_2","A5T9IFDZ3W4T6","either","2","298","","","","","","","0","0","1","0.2","","0.5","0.5","","","","","","","0.8","0.2","","","","","","","","","","75","K","1","","true","0","80_20_practice"
"","bandit","24","229606","0.0-20.0-3.0","64775863","wem/bandit_either_2","A5T9IFDZ3W4T6","either","2","287","","","","","","","0","1","0","","0.2","0.5","0.5","","","0.8","0.2","","","","","","","","","","","","","","75","K","1","","true","0","80_20_practice"
"","bandit","25","231420","0.0-20.0-4.0","64775863","wem/bandit_either_2","A5T9IFDZ3W4T6","either","2","302","","","","","","","0","0","1","0.2","","0.5","0.5","","","","","","","0.8","0.2","","","","","","","","","","75","K","1","","true","0","80_20_practice"
"","bandit","26","233182","0.0-20.0-5.0","64775863","wem/bandit_either_2","A5T9IFDZ3W4T6","either","2","251","","","","","","","0","1","0","","0.2","0.5","0.5","","","0.8","0.2","","","","","","","","","","","","","","75","K","1","","true","0","80_20_practice"
"","bandit","27","235142","0.0-20.0-6.0","64775863","wem/bandit_either_2","A5T9IFDZ3W4T6","either","2","452","","","","","","","1","0","0","0.2","","0.5","0.5","","","","","","","0.8","0.2","","","","","","","","","","75","K","1","","true","0","80_20_practice"
"","bandit","28","236961","0.0-20.0-7.0","64775863","wem/bandit_either_2","A5T9IFDZ3W4T6","either","2","306","","","","","","","0","0","1","","0.2","0.5","0.5","","","0.8","0.2","","","","","","","","","","","","","","75","K","1","","true","0","80_20_practice"
"","bandit","29","238934","0.0-20.0-8.0","64775863","wem/bandit_either_2","A5T9IFDZ3W4T6","either","2","463","","","","","","","0","0","1","","0.2","0.5","0.5","","","0.8","0.2","","","","","","","","","","","","","","75","K","1","","true","0","80_20_practice"
"","bandit","30","240792","0.0-20.0-9.0","64775863","wem/bandit_either_2","A5T9IFDZ3W4T6","either","2","299","","","","","","","0","0","1","0.2","","0.5","0.5","","","","","","","0.8","0.2","","","","","","","","","","75","K","1","","true","0","80_20_practice"
"","bandit","31","242550","0.0-20.0-10.0","64775863","wem/bandit_either_2","A5T9IFDZ3W4T6","either","2","246","","","","","","","1","0","0","0.2","","0.5","0.5","","","","","","","0.8","0.2","","","","","","","","","","75","K","1","","true","0","80_20_practice"
"","bandit","32","244332","0.0-20.0-11.0","64775863","wem/bandit_either_2","A5T9IFDZ3W4T6","either","2","273","","","","","","","0","0","1","0.2","","0.5","0.5","","","","","","","0.8","0.2","","","","","","","","","","75","K","1","","true","0","80_20_practice"
"","bandit","33","246047","0.0-20.0-12.0","64775863","wem/bandit_either_2","A5T9IFDZ3W4T6","either","2","207","","","","","","","0","0","1","","0.2","0.5","0.5","","","0.8","0.2","","","","","","","","","","","","","","75","K","1","","true","0","80_20_practice"
"","bandit","34","247807","0.0-20.0-13.0","64775863","wem/bandit_either_2","A5T9IFDZ3W4T6","either","2","251","","","","","","","1","0","0","0.8","","0.5","0.5","","","","","","","0.8","0.2","","","","","","","","","","74","J","0","img/none_selected_demo.jpg","true","0","80_20_practice"
"","bandit","35","249599","0.0-20.0-14.0","64775863","wem/bandit_either_2","A5T9IFDZ3W4T6","either","2","280","","","","","","","0","1","0","","0.8","0.5","0.5","","","0.8","0.2","","","","","","","","","","","","","","74","J","0","img/none_selected_demo.jpg","true","0","80_20_practice"
"","bandit","36","251367","0.0-20.0-15.0","64775863","wem/bandit_either_2","A5T9IFDZ3W4T6","either","2","260","","","","","","","0","0","1","0.8","","0.5","0.5","","","","","","","0.8","0.2","","","","","","","","","","74","J","0","img/none_selected_demo.jpg","true","0","80_20_practice"
"","bandit","37","253142","0.0-20.0-16.0","64775863","wem/bandit_either_2","A5T9IFDZ3W4T6","either","2","265","","","","","","","0","0","1","","0.8","0.5","0.5","","","0.8","0.2","","","","","","","","","","","","","","74","J","0","img/none_selected_demo.jpg","true","0","80_20_practice"
"","bandit","38","254908","0.0-20.0-17.0","64775863","wem/bandit_either_2","A5T9IFDZ3W4T6","either","2","254","","","","","","","0","1","0","","0.8","0.5","0.5","","","0.8","0.2","","","","","","","","","","","","","","74","J","0","img/none_selected_demo.jpg","true","0","80_20_practice"
"","bandit","39","256786","0.0-20.0-18.0","64775863","wem/bandit_either_2","A5T9IFDZ3W4T6","either","2","281","","","","","","","0","1","0","","0.8","0.5","0.5","","","0.8","0.2","","","","","","","","","","","","","","74","J","0","img/none_selected_demo.jpg","true","0","80_20_practice"
"","bandit","40","258549","0.0-20.0-19.0","64775863","wem/bandit_either_2","A5T9IFDZ3W4T6","either","2","253","","","","","","","1","0","0","0.8","","0.5","0.5","","","","","","","0.8","0.2","","","","","","","","","","74","J","0","img/none_selected_demo.jpg","true","0","80_20_practice"
"","text","41","265806","0.0-21.0","64775863","wem/bandit_either_2","A5T9IFDZ3W4T6","either","2","7253","","32","","","","","","","","","","","","","","","","","","","","","","","","","","","","","","","","","","",""
"","bandit","42","268178","0.0-22.0-0.0","64775863","wem/bandit_either_2","A5T9IFDZ3W4T6","either","2","859","","","","","","","1","0","0","1","0","","","","","0","1","","","1","0","","","","","","","","","","74","J","0","img/none_selected_demo.jpg","true","0",""
"","text","43","274162","0.0-23.0","64775863","wem/bandit_either_2","A5T9IFDZ3W4T6","either","2","5981","","32","","","","","","","","","","","","","","","","","","","","","","","","","","","","","","","","","","",""
"","text","44","278973","0.0-24.0","64775863","wem/bandit_either_2","A5T9IFDZ3W4T6","either","2","4808","","32","","","","","","","","","","","","","","","","","","","","","","","","","","","","","","","","","","",""
"","text","45","282232","0.0-25.0","64775863","wem/bandit_either_2","A5T9IFDZ3W4T6","either","2","3255","","32","","","","","","","","","","","","","","","","","","","","","","","","","","","","","","","","","","",""
"","text","46","285132","0.0-26.0","64775863","wem/bandit_either_2","A5T9IFDZ3W4T6","either","2","2898","","32","","","","","","","","","","","","","","","","","","","","","","","","","","","","","","","","","","",""
"","text","47","294776","0.0-27.0","64775863","wem/bandit_either_2","A5T9IFDZ3W4T6","either","2","9642","","32","","","","","","","","","","","","","","","","","","","","","","","","","","","","","","","","","","",""
"","text","48","297559","0.0-28.0","64775863","wem/bandit_either_2","A5T9IFDZ3W4T6","either","2","2779","","32","","","","","","","","","","","","","","","","","","","","","","","","","","","","","","","","","","",""
"","text","49","301037","0.0-29.0","64775863","wem/bandit_either_2","A5T9IFDZ3W4T6","either","2","3474","","32","","","","","","","","","","","","","","","","","","","","","","","","","","","","","","","","","","",""
"","text","50","304311","0.0-30.0","64775863","wem/bandit_either_2","A5T9IFDZ3W4T6","either","2","3270","","32","","","","","","","","","","","","","","","","","","","","","","","","","","","","","","","","","","",""
"","text","51","309107","0.0-31.0","64775863","wem/bandit_either_2","A5T9IFDZ3W4T6","either","2","4793","","32","","","","","","","","","","","","","","","","","","","","","","","","","","","","","","","","","","",""
"","text","52","310602","0.0-32.0","64775863","wem/bandit_either_2","A5T9IFDZ3W4T6","either","2","1492","","32","","","","","","","","","","","","","","","","","","","","","","","","","","","","","","","","","","",""
"","text","53","314845","0.0-33.0","64775863","wem/bandit_either_2","A5T9IFDZ3W4T6","either","2","4240","","32","","","","","","","","","","","","","","","","","","","","","","","","","","","","","","","","","","",""
"","bandit","54","317113","0.0-34.0-0.0","64775863","wem/bandit_either_2","A5T9IFDZ3W4T6","either","2","757","","","","","","","0","0","1","0.8","","0.5","0.5","0.5","0.5","","","","","0.8","0.2","0.6","0.2","","","","","","","","72","H","0","img/none_selected.jpg","true","0","full_practice"
"","bandit","55","319042","0.0-34.0-1.0","64775863","wem/bandit_either_2","A5T9IFDZ3W4T6","either","2","414","","","","","","","1","0","0","0.8","","0.5","0.5","0.5","0.5","","","","","0.8","0.2","0.6","0.2","","","","","","","","72","H","0","img/none_selected.jpg","true","0","full_practice"
"","bandit","56","320849","0.0-34.0-2.0","64775863","wem/bandit_either_2","A5T9IFDZ3W4T6","either","2","298","","","","","","","0","1","0","","0.8","0.5","0.5","0.5","0.5","0.8","0.2","0.6","0.2","","","","","","","","","","","","72","H","0","img/none_selected.jpg","true","0","full_practice"
"","bandit","57","322662","0.0-34.0-3.0","64775863","wem/bandit_either_2","A5T9IFDZ3W4T6","either","2","272","","","","","","","0","1","0","","0.8","0.5","0.5","0.5","0.5","0.8","0.2","0.6","0.2","","","","","","","","","","","","72","H","0","img/none_selected.jpg","true","0","full_practice"
"","bandit","58","324494","0.0-34.0-4.0","64775863","wem/bandit_either_2","A5T9IFDZ3W4T6","either","2","322","","","","","","","0","0","1","","0.8","0.5","0.5","0.5","0.5","0.8","0.2","0.6","0.2","","","","","","","","","","","","72","H","0","img/none_selected.jpg","true","0","full_practice"
"","bandit","59","326349","0.0-34.0-5.0","64775863","wem/bandit_either_2","A5T9IFDZ3W4T6","either","2","344","","","","","","","0","1","0","","0.6","0.5","0.5","0.5","0.5","0.8","0.2","0.6","0.2","","","","","","","","","","","","75","K","2","","true","0","full_practice"
"","bandit","60","328129","0.0-34.0-6.0","64775863","wem/bandit_either_2","A5T9IFDZ3W4T6","either","2","269","","","","","","","1","0","0","0.6","","0.5","0.5","0.5","0.5","","","","","0.8","0.2","0.6","0.2","","","","","","","","75","K","2","","true","0","full_practice"
"","bandit","61","329922","0.0-34.0-7.0","64775863","wem/bandit_either_2","A5T9IFDZ3W4T6","either","2","282","","","","","","","1","0","0","0.6","","0.5","0.5","0.5","0.5","","","","","0.8","0.2","0.6","0.2","","","","","","","","75","K","2","","true","0","full_practice"
"","bandit","62","331593","0.0-34.0-8.0","64775863","wem/bandit_either_2","A5T9IFDZ3W4T6","either","2","164","","","","","","","1","0","0","0.6","","0.5","0.5","0.5","0.5","","","","","0.8","0.2","0.6","0.2","","","","","","","","75","K","2","","true","0","full_practice"
"","bandit","63","333339","0.0-34.0-9.0","64775863","wem/bandit_either_2","A5T9IFDZ3W4T6","either","2","232","","","","","","","0","0","1","","0.6","0.5","0.5","0.5","0.5","0.8","0.2","0.6","0.2","","","","","","","","","","","","75","K","2","","true","0","full_practice"
"","bandit","64","334997","0.0-34.0-10.0","64775863","wem/bandit_either_2","A5T9IFDZ3W4T6","either","2","145","","","","","","","0","0","1","","0.2","0.5","0.5","0.5","0.5","0.8","0.2","0.6","0.2","","","","","","","","","","","","74","J","1","","true","0","full_practice"
"","bandit","65","336662","0.0-34.0-11.0","64775863","wem/bandit_either_2","A5T9IFDZ3W4T6","either","2","151","","","","","","","0","0","1","0.2","","0.5","0.5","0.5","0.5","","","","","0.8","0.2","0.6","0.2","","","","","","","","74","J","1","","true","0","full_practice"
"","bandit","66","338289","0.0-34.0-12.0","64775863","wem/bandit_either_2","A5T9IFDZ3W4T6","either","2","111","","","","","","","0","0","1","","0.2","0.5","0.5","0.5","0.5","0.8","0.2","0.6","0.2","","","","","","","","","","","","76","L","3","","true","0","full_practice"
"","bandit","67","340043","0.0-34.0-13.0","64775863","wem/bandit_either_2","A5T9IFDZ3W4T6","either","2","247","","","","","","","0","0","1","0.2","","0.5","0.5","0.5","0.5","","","","","0.8","0.2","0.6","0.2","","","","","","","","76","L","3","","true","0","full_practice"
"","bandit","68","341594","0.0-34.0-14.0","64775863","wem/bandit_either_2","A5T9IFDZ3W4T6","either","2","28","","","","","","","0","0","1","","0.6","0.5","0.5","0.5","0.5","0.8","0.2","0.6","0.2","","","","","","","","","","","","75","K","2","","true","0","full_practice"
"","bandit","69","343214","0.0-34.0-15.0","64775863","wem/bandit_either_2","A5T9IFDZ3W4T6","either","2","108","","","","","","","0","0","1","0.6","","0.5","0.5","0.5","0.5","","","","","0.8","0.2","0.6","0.2","","","","","","","","75","K","2","","true","0","full_practice"
"","bandit","70","344824","0.0-34.0-16.0","64775863","wem/bandit_either_2","A5T9IFDZ3W4T6","either","2","101","","","","","","","0","1","0","","0.8","0.5","0.5","0.5","0.5","0.8","0.2","0.6","0.2","","","","","","","","","","","","72","H","0","img/none_selected.jpg","true","0","full_practice"
"","bandit","71","346471","0.0-34.0-17.0","64775863","wem/bandit_either_2","A5T9IFDZ3W4T6","either","2","135","","","","","","","1","0","0","0.8","","0.5","0.5","0.5","0.5","","","","","0.8","0.2","0.6","0.2","","","","","","","","72","H","0","img/none_selected.jpg","true","0","full_practice"
"","bandit","72","348245","0.0-34.0-18.0","64775863","wem/bandit_either_2","A5T9IFDZ3W4T6","either","2","258","","","","","","","0","0","1","0.8","","0.5","0.5","0.5","0.5","","","","","0.8","0.2","0.6","0.2","","","","","","","","72","H","0","img/none_selected.jpg","true","0","full_practice"
"","bandit","73","349879","0.0-34.0-19.0","64775863","wem/bandit_either_2","A5T9IFDZ3W4T6","either","2","125","","","","","","","0","1","0","","0.8","0.5","0.5","0.5","0.5","0.8","0.2","0.6","0.2","","","","","","","","","","","","72","H","0","img/none_selected.jpg","true","0","full_practice"
"","text","74","355217","0.0-35.0","64775863","wem/bandit_either_2","A5T9IFDZ3W4T6","either","2","5324","","32","","","","","","","","","","","","","","","","","","","","","","","","","","","","","","","","","","",""
"","text","75","370511","0.0-36.0","64775863","wem/bandit_either_2","A5T9IFDZ3W4T6","either","2","14291","","32","","","","","","","","","","","","","","","","","","","","","","","","","","","","","","","","","","",""
"","text","76","381076","0.0-37.0","64775863","wem/bandit_either_2","A5T9IFDZ3W4T6","either","2","10561","","32","","","","","","","","","","","","","","","","","","","","","","","","","","","","","","","","","","",""
"","text","77","386914","0.0-38.0","64775863","wem/bandit_either_2","A5T9IFDZ3W4T6","either","2","5834","","32","","","","","","","","","","","","","","","","","","","","","","","","","","","","","","","","","","",""
"","text","78","393938","0.0-39.0","64775863","wem/bandit_either_2","A5T9IFDZ3W4T6","either","2","7020","","32","","","","","","","","","","","","","","","","","","","","","","","","","","","","","","","","","","",""
"","text","79","398468","0.0-40.0","64775863","wem/bandit_either_2","A5T9IFDZ3W4T6","either","2","4526","","32","","","","","","","","","","","","","","","","","","","","","","","","","","","","","","","","","","",""
"","bandit","80","400885","0.0-41.0-0.0","64775863","wem/bandit_either_2","A5T9IFDZ3W4T6","either","2","791","","","","","","","1","0","0","0.326135308","","0.4","0.8","0.6","0.2","","","","","0.326135308","0.362799796","0.3653736811","0.4781977867","","","","","","","","72","H","0","img/none_selected.jpg","","1","main_expt"
"","bandit","81","402747","0.0-42.0-0.0","64775863","wem/bandit_either_2","A5T9IFDZ3W4T6","either","2","309","","","","","","","0","0","1","0.3564958201","","0.4","0.8","0.6","0.2","","","","","0.3564958201","0.3891507205","0.3999069229","0.4765481994","","","","","","","","72","H","0","img/none_selected.jpg","","2","main_expt"
"","bandit","82","404443","0.0-43.0-0.0","64775863","wem/bandit_either_2","A5T9IFDZ3W4T6","either","2","184","","","","","","","0","1","0","","0.3309056029","0.4","0.8","0.6","0.2","0.3309056029","0.3151339382","0.4363582421","0.4722158263","","","","","","","","","","","","72","H","0","img/none_selected.jpg","","3","main_expt"
"","bandit","83","406295","0.0-44.0-0.0","64775863","wem/bandit_either_2","A5T9IFDZ3W4T6","either","2","337","","","","","","","1","0","0","0.308467875","","0.4","0.8","0.6","0.2","","","","","0.308467875","0.250648122","0.4300921111","0.4609570051","","","","","","","","72","H","0","img/none_selected.jpg","","4","main_expt"
"","bandit","84","407845","0.0-45.0-0.0","64775863","wem/bandit_either_2","A5T9IFDZ3W4T6","either","2","33","","","","","","","0","0","1","","0.3349995635","0.4","0.8","0.6","0.2","0.3349995635","0.2382585344","0.3863220662","0.4707799186","","","","","","","","","","","","72","H","0","img/none_selected.jpg","","5","main_expt"
"","bandit","85","409482","0.0-46.0-0.0","64775863","wem/bandit_either_2","A5T9IFDZ3W4T6","either","2","127","","","","","","","0","0","1","0.3743101545","","0.4","0.8","0.6","0.2","","","","","0.3743101545","0.2088101903","0.4192648028","0.4676743975","","","","","","","","72","H","0","img/none_selected.jpg","","6","main_expt"
"","bandit","86","411224","0.0-47.0-0.0","64775863","wem/bandit_either_2","A5T9IFDZ3W4T6","either","2","226","","","","","","","1","0","0","0.4218548145","","0.4","0.8","0.6","0.2","","","","","0.377506125","0.1884279889","0.4218548145","0.4767364015","","","","","","","","75","K","2","","","7","main_expt"
"","bandit","87","412917","0.0-48.0-0.0","64775863","wem/bandit_either_2","A5T9IFDZ3W4T6","either","2","180","","","","","","","0","0","1","0.4298914749","","0.4","0.8","0.6","0.2","","","","","0.3452849142","0.2297930851","0.4298914749","0.4837409877","","","","","","","","75","K","2","","","8","main_expt"
"","bandit","88","414634","0.0-49.0-0.0","64775863","wem/bandit_either_2","A5T9IFDZ3W4T6","either","2","206","","","","","","","1","0","0","0.4215440671","","0.4","0.8","0.6","0.2","","","","","0.2713567333","0.2219539873","0.4215440671","0.4825212187","","","","","","","","75","K","2","","","9","main_expt"
"","bandit","89","416419","0.0-50.0-0.0","64775863","wem/bandit_either_2","A5T9IFDZ3W4T6","either","2","245","","","","","","","0","0","1","0.3991616263","","0.4","0.8","0.6","0.2","","","","","0.2712708503","0.2398128751","0.3991616263","0.4791264729","","","","","","","","75","K","2","","","10","main_expt"
"","bandit","90","418018","0.0-51.0-0.0","64775863","wem/bandit_either_2","A5T9IFDZ3W4T6","either","2","81","","","","","","","0","1","0","","0.4002673883","0.4","0.8","0.6","0.2","0.2635531688","0.2551733424","0.4002673883","0.4762013833","","","","","","","","","","","","75","K","2","","","11","main_expt"
"","bandit","91","419690","0.0-52.0-0.0","64775863","wem/bandit_either_2","A5T9IFDZ3W4T6","either","2","158","","","","","","","0","0","1","0.368629831","","0.4","0.8","0.6","0.2","","","","","0.2669056975","0.2593424883","0.368629831","0.4729837645","","","","","","","","75","K","2","","","12","main_expt"
"","bandit","92","421432","0.0-53.0-0.0","64775863","wem/bandit_either_2","A5T9IFDZ3W4T6","either","2","158","","","","","","","0","0","1","","0.4749786695","0.4","0.8","0.6","0.2","0.3204456557","0.2493591627","0.4189726289","0.4749786695","","","","","","","","","","","","76","L","3","","","13","main_expt"
"","bandit","93","423019","0.0-54.0-0.0","64775863","wem/bandit_either_2","A5T9IFDZ3W4T6","either","2","80","","","","","","","0","0","1","","0.4810115094","0.4","0.8","0.6","0.2","0.3466526728","0.2686446846","0.4352425359","0.4810115094","","","","","","","","","","","","76","L","3","","","14","main_expt"
"","bandit","94","424744","0.0-55.0-0.0","64775863","wem/bandit_either_2","A5T9IFDZ3W4T6","either","2","213","","","","","","","0","0","1","0.3819090161","","0.4","0.8","0.6","0.2","","","","","0.3736671224","0.2690169042","0.3819090161","0.4705329286","","","","","","","","75","K","2","","","15","main_expt"
"","bandit","95","426453","0.0-56.0-0.0","64775863","wem/bandit_either_2","A5T9IFDZ3W4T6","either","2","202","","","","","","","1","0","0","0.3737760256","","0.4","0.8","0.6","0.2","","","","","0.3778143907","0.2518303543","0.3737760256","0.4687419894","","","","","","","","75","K","2","","","16","main_expt"
"","bandit","96","428119","0.0-57.0-0.0","64775863","wem/bandit_either_2","A5T9IFDZ3W4T6","either","2","152","","","","","","","0","1","0","","0.4151791473","0.4","0.8","0.6","0.2","0.3845750066","0.2406549936","0.4151791473","0.4594180265","","","","","","","","","","","","75","K","2","","","17","main_expt"
"","bandit","97","429894","0.0-58.0-0.0","64775863","wem/bandit_either_2","A5T9IFDZ3W4T6","either","2","262","","","","","","","0","0","1","","0.4137363134","0.4","0.8","0.6","0.2","0.4041286345","0.2670149403","0.4137363134","0.425397146","","","","","","","","","","","","75","K","2","","","18","main_expt"
"","bandit","98","431586","0.0-59.0-0.0","64775863","wem/bandit_either_2","A5T9IFDZ3W4T6","either","2","178","","","","","","","0","0","1","0.4084056464","","0.4","0.8","0.6","0.2","","","","","0.4127350431","0.2658482338","0.4084056464","0.4201246927","","","","","","","","75","K","2","","","19","main_expt"
"","bandit","99","433239","0.0-60.0-0.0","64775863","wem/bandit_either_2","A5T9IFDZ3W4T6","either","2","136","","","","","","","0","0","1","","0.4107359536","0.4","0.8","0.6","0.2","0.4107359536","0.2452433766","0.4129175496","0.3954271328","","","","","","","","","","","","72","H","0","img/none_selected.jpg","","20","main_expt"
"","bandit","100","435051","0.0-61.0-0.0","64775863","wem/bandit_either_2","A5T9IFDZ3W4T6","either","2","302","","","","","","","0","1","0","","0.3954861765","0.4","0.8","0.6","0.2","0.3954861765","0.2298761452","0.3888488162","0.4196431029","","","","","","","","","","","","72","H","0","img/none_selected.jpg","","21","main_expt"
"","bandit","101","437015","0.0-62.0-0.0","64775863","wem/bandit_either_2","A5T9IFDZ3W4T6","either","2","453","","","","","","","0","0","1","","0.3805979297","0.4","0.8","0.6","0.2","0.3805979297","0.266827693","0.3873149631","0.3843335182","","","","","","","","","","","","72","H","0","img/none_selected.jpg","","22","main_expt"
"","bandit","102","438885","0.0-63.0-0.0","64775863","wem/bandit_either_2","A5T9IFDZ3W4T6","either","2","358","","","","","","","0","0","1","0.425451992","","0.4","0.8","0.6","0.2","","","","","0.425451992","0.2519769849","0.3659772031","0.3839977458","","","","","","","","72","H","0","img/none_selected.jpg","","23","main_expt"
"","bandit","103","440763","0.0-64.0-0.0","64775863","wem/bandit_either_2","A5T9IFDZ3W4T6","either","2","255","","","","","","","0","0","1","0.2447613107","","0.4","0.8","0.6","0.2","","","","","0.4699447661","0.2447613107","0.3594327093","0.3338939571","","","","","","","","74","J","1","","","24","main_expt"
"","bandit","104","442465","0.0-65.0-0.0","64775863","wem/bandit_either_2","A5T9IFDZ3W4T6","either","2","193","","","","","","","1","0","0","0.3719143394","","0.4","0.8","0.6","0.2","","","","","0.4484050393","0.2350413847","0.3719143394","0.324486952","","","","","","","","75","K","2","","","25","main_expt"
"","bandit","105","444284","0.0-66.0-0.0","64775863","wem/bandit_either_2","A5T9IFDZ3W4T6","either","2","304","","","","","","","0","0","1","","0.3690014044","0.4","0.8","0.6","0.2","0.4190234423","0.207774486","0.3690014044","0.3095710384","","","","","","","","","","","","75","K","2","","","26","main_expt"
"","bandit","106","445935","0.0-67.0-0.0","64775863","wem/bandit_either_2","A5T9IFDZ3W4T6","either","2","137","","","","","","","1","0","0","0.3940030818","","0.4","0.8","0.6","0.2","","","","","0.4251478254","0.2164182795","0.3940030818","0.3355629191","","","","","","","","75","K","2","","","27","main_expt"
"","bandit","107","447707","0.0-68.0-0.0","64775863","wem/bandit_either_2","A5T9IFDZ3W4T6","either","2","262","","","","","","","1","0","0","0.4111080327","","0.4","0.8","0.6","0.2","","","","","0.4287328697","0.2164031865","0.4111080327","0.3668681485","","","","","","","","75","K","2","","","28","main_expt"
"","bandit","108","449488","0.0-69.0-0.0","64775863","wem/bandit_either_2","A5T9IFDZ3W4T6","either","2","271","","","","","","","1","0","0","0.41290056","","0.4","0.8","0.6","0.2","","","","","0.4106025245","0.2770000278","0.41290056","0.343198694","","","","","","","","75","K","2","","","29","main_expt"
"","bandit","109","451280","0.0-70.0-0.0","64775863","wem/bandit_either_2","A5T9IFDZ3W4T6","either","2","277","","","","","","","0","0","1","0.3937480262","","0.4","0.8","0.6","0.2","","","","","0.3942494676","0.2354797847","0.3937480262","0.326069126","","","","","","","","75","K","2","","","30","main_expt"
"","bandit","110","452938","0.0-71.0-0.0","64775863","wem/bandit_either_2","A5T9IFDZ3W4T6","either","2","147","","","","","","","0","1","0","","0.3997016236","0.4","0.8","0.6","0.2","0.4285056211","0.2692030882","0.3997016236","0.3390127419","","","","","","","","","","","","75","K","2","","","31","main_expt"
"","bandit","111","454626","0.0-72.0-0.0","64775863","wem/bandit_either_2","A5T9IFDZ3W4T6","either","2","175","","","","","","","0","0","1","","0.3574295763","0.4","0.8","0.6","0.2","0.4249454459","0.2471118655","0.3574295763","0.3360649894","","","","","","","","","","","","75","K","2","","","32","main_expt"
"","bandit","112","456297","0.0-73.0-0.0","64775863","wem/bandit_either_2","A5T9IFDZ3W4T6","either","2","155","","","","","","","0","0","1","0.3877818659","","0.4","0.8","0.6","0.2","","","","","0.416417765","0.2879199001","0.3877818659","0.3052602024","","","","","","","","75","K","2","","","33","main_expt"
"","bandit","113","457967","0.0-74.0-0.0","64775863","wem/bandit_either_2","A5T9IFDZ3W4T6","either","2","155","","","","","","","1","0","0","0.3180115212","","0.4","0.8","0.6","0.2","","","","","0.4623714429","0.3180115212","0.3799496232","0.3594788954","","","","","","","","74","J","1","","","34","main_expt"
"","bandit","114","459740","0.0-75.0-0.0","64775863","wem/bandit_either_2","A5T9IFDZ3W4T6","either","2","257","","","","","","","0","0","1","0.2524306687","","0.4","0.8","0.6","0.2","","","","","0.4591977302","0.2524306687","0.3577573403","0.380235832","","","","","","","","74","J","1","","","35","main_expt"
"","bandit","115","461473","0.0-76.0-0.0","64775863","wem/bandit_either_2","A5T9IFDZ3W4T6","either","2","217","","","","","","","1","0","0","0.2351869563","","0.4","0.8","0.6","0.2","","","","","0.4686235256","0.2351869563","0.3895375856","0.3459989602","","","","","","","","74","J","1","","","36","main_expt"
"","bandit","116","463218","0.0-77.0-0.0","64775863","wem/bandit_either_2","A5T9IFDZ3W4T6","either","2","233","","","","","","","1","0","0","0.2629170466","","0.4","0.8","0.6","0.2","","","","","0.4571547709","0.2629170466","0.3783527007","0.3320905149","","","","","","","","74","J","1","","","37","main_expt"
"","bandit","117","465003","0.0-78.0-0.0","64775863","wem/bandit_either_2","A5T9IFDZ3W4T6","either","2","273","","","","","","","1","0","0","0.3090194305","","0.4","0.8","0.6","0.2","","","","","0.4688430709","0.3090194305","0.284076782","0.3471020919","","","","","","","","74","J","1","","","38","main_expt"
"","bandit","118","466747","0.0-79.0-0.0","64775863","wem/bandit_either_2","A5T9IFDZ3W4T6","either","2","234","","","","","","","0","0","1","","0.2845371228","0.4","0.8","0.6","0.2","0.4612923778","0.2845371228","0.3388972186","0.3401763967","","","","","","","","","","","","74","J","1","","","39","main_expt"
"","bandit","119","468567","0.0-80.0-0.0","64775863","wem/bandit_either_2","A5T9IFDZ3W4T6","either","2","309","","","","","","","0","0","1","0.3076259244","","0.4","0.8","0.6","0.2","","","","","0.4576194683","0.3076259244","0.2663655232","0.3260487483","","","","","","","","74","J","1","","","40","main_expt"
"","bandit","120","470247","0.0-81.0-0.0","64775863","wem/bandit_either_2","A5T9IFDZ3W4T6","either","2","164","","","","","","","0","0","1","0.2888769276","","0.4","0.8","0.6","0.2","","","","","0.4473921051","0.2888769276","0.2608266697","0.3390218734","","","","","","","","74","J","1","","","41","main_expt"
"","bandit","121","471757","0.0-82.0-0.0","64775863","wem/bandit_either_2","A5T9IFDZ3W4T6","either","2","1","","","","","","","0","0","1","","0.2889680017","0.4","0.8","0.6","0.2","0.425470286","0.2639198141","0.2287676803","0.2889680017","","","","","","","","","","","","76","L","3","","","42","main_expt"
"","bandit","122","473540","0.0-83.0-0.0","64775863","wem/bandit_either_2","A5T9IFDZ3W4T6","either","2","269","","","","","","","0","0","1","","0.2784828801","0.4","0.8","0.6","0.2","0.4030522017","0.2255441472","0.2043112358","0.2784828801","","","","","","","","","","","","76","L","3","","","43","main_expt"
"","bandit","123","475210","0.0-84.0-0.0","64775863","wem/bandit_either_2","A5T9IFDZ3W4T6","either","2","157","","","","","","","0","0","1","","0.2805729819","0.4","0.8","0.6","0.2","0.4106315797","0.2050272072","0.1957049551","0.2805729819","","","","","","","","","","","","76","L","3","","","44","main_expt"
"","bandit","124","477021","0.0-85.0-0.0","64775863","wem/bandit_either_2","A5T9IFDZ3W4T6","either","2","296","","","","","","","0","0","1","","0.2207366272","0.4","0.8","0.6","0.2","0.4258527362","0.239455925","0.2207366272","0.2195119073","","","","","","","","","","","","75","K","2","","","45","main_expt"
"","bandit","125","478643","0.0-86.0-0.0","64775863","wem/bandit_either_2","A5T9IFDZ3W4T6","either","2","111","","","","","","","0","0","1","0.1727988076","","0.4","0.8","0.6","0.2","","","","","0.4425966235","0.2414778298","0.1727988076","0.2657932304","","","","","","","","75","K","2","","","46","main_expt"
"","bandit","126","480256","0.0-87.0-0.0","64775863","wem/bandit_either_2","A5T9IFDZ3W4T6","either","2","98","","","","","","","0","1","0","","0.4428977597","0.4","0.8","0.6","0.2","0.4428977597","0.1884211613","0.1446735631","0.2678398397","","","","","","","","","","","","72","H","0","img/none_selected.jpg","","47","main_expt"
"","bandit","127","481921","0.0-88.0-0.0","64775863","wem/bandit_either_2","A5T9IFDZ3W4T6","either","2","147","","","","","","","0","1","0","","0.4479964269","0.4","0.8","0.6","0.2","0.4479964269","0.1755274282","0.1681765936","0.2866904938","","","","","","","","","","","","72","H","0","img/none_selected.jpg","","48","main_expt"
"","bandit","128","483726","0.0-89.0-0.0","64775863","wem/bandit_either_2","A5T9IFDZ3W4T6","either","2","290","","","","","","","0","0","1","","0.4660387519","0.4","0.8","0.6","0.2","0.4660387519","0.1646396384","0.1473883531","0.2803848884","","","","","","","","","","","","72","H","0","img/none_selected.jpg","","49","main_expt"
"","bandit","129","485415","0.0-90.0-0.0","64775863","wem/bandit_either_2","A5T9IFDZ3W4T6","either","2","168","","","","","","","0","0","1","","0.4345757832","0.4","0.8","0.6","0.2","0.4345757832","0.2024226619","0.1378170987","0.2587411269","","","","","","","","","","","","72","H","0","img/none_selected.jpg","","50","main_expt"
"","bandit","130","487194","0.0-91.0-0.0","64775863","wem/bandit_either_2","A5T9IFDZ3W4T6","either","2","265","","","","","","","0","1","0","","0.4450950844","0.4","0.8","0.6","0.2","0.4450950844","0.1976760068","0.1430360168","0.2212901065","","","","","","","","","","","","72","H","0","img/none_selected.jpg","","51","main_expt"
"","bandit","131","488897","0.0-92.0-0.0","64775863","wem/bandit_either_2","A5T9IFDZ3W4T6","either","2","189","","","","","","","0","1","0","","0.4475354499","0.4","0.8","0.6","0.2","0.4475354499","0.1796352224","0.1731798725","0.236006857","","","","","","","","","","","","72","H","0","img/none_selected.jpg","","52","main_expt"
"","bandit","132","490530","0.0-93.0-0.0","64775863","wem/bandit_either_2","A5T9IFDZ3W4T6","either","2","115","","","","","","","0","0","1","","0.4627294295","0.4","0.8","0.6","0.2","0.4627294295","0.2451732725","0.1312409056","0.2660825342","","","","","","","","","","","","72","H","0","img/none_selected.jpg","","53","main_expt"
"","bandit","133","492273","0.0-94.0-0.0","64775863","wem/bandit_either_2","A5T9IFDZ3W4T6","either","2","226","","","","","","","0","0","1","","0.44829207","0.4","0.8","0.6","0.2","0.44829207","0.2621482643","0.1862053218","0.2458345041","","","","","","","","","","","","72","H","0","img/none_selected.jpg","","54","main_expt"
"","bandit","134","493955","0.0-95.0-0.0","64775863","wem/bandit_either_2","A5T9IFDZ3W4T6","either","2","172","","","","","","","1","0","0","0.2441780383","","0.4","0.8","0.6","0.2","","","","","0.4505537928","0.2441780383","0.1733563037","0.2265690781","","","","","","","","74","J","1","","","55","main_expt"
"","bandit","135","495696","0.0-96.0-0.0","64775863","wem/bandit_either_2","A5T9IFDZ3W4T6","either","2","220","","","","","","","0","0","1","0.199729785","","0.4","0.8","0.6","0.2","","","","","0.4686400132","0.199729785","0.1728369204","0.2741820357","","","","","","","","74","J","1","","","56","main_expt"
"","bandit","136","497378","0.0-97.0-0.0","64775863","wem/bandit_either_2","A5T9IFDZ3W4T6","either","2","170","","","","","","","0","0","1","0.1945085845","","0.4","0.8","0.6","0.2","","","","","0.4572679106","0.1945085845","0.09176359954","0.2937641054","","","","","","","","74","J","1","","","57","main_expt"
"","bandit","137","499053","0.0-98.0-0.0","64775863","wem/bandit_either_2","A5T9IFDZ3W4T6","either","2","163","","","","","","","0","0","1","0.2614759052","","0.4","0.8","0.6","0.2","","","","","0.4300169527","0.2614759052","0.04991422033","0.2949827607","","","","","","","","74","J","1","","","58","main_expt"
"","bandit","138","500611","0.0-99.0-0.0","64775863","wem/bandit_either_2","A5T9IFDZ3W4T6","either","2","39","","","","","","","0","0","1","","0.4050829606","0.4","0.8","0.6","0.2","0.4050829606","0.2426118991","0.053239915","0.2710075273","","","","","","","","","","","","72","H","0","img/none_selected.jpg","","59","main_expt"
"","bandit","139","502319","0.0-100.0-0.0","64775863","wem/bandit_either_2","A5T9IFDZ3W4T6","either","2","198","","","","","","","0","0","1","","0.4070720156","0.4","0.8","0.6","0.2","0.4070720156","0.2623750897","0.06994226662","0.2766623035","","","","","","","","","","","","72","H","0","img/none_selected.jpg","","60","main_expt"
"","bandit","140","503942","0.0-101.0-0.0","64775863","wem/bandit_either_2","A5T9IFDZ3W4T6","either","2","111","","","","","","","0","1","0","","0.2574592035","0.4","0.8","0.6","0.2","0.3895400789","0.2139103784","0.07064832373","0.2574592035","","","","","","","","","","","","76","L","3","","","61","main_expt"
"","bandit","141","505616","0.0-102.0-0.0","64775863","wem/bandit_either_2","A5T9IFDZ3W4T6","either","2","102","","","","","","","0","0","1","0.2425209234","","0.4","0.8","0.6","0.2","","","","","0.4050708951","0.2566580444","0.08925217872","0.2425209234","","","","","","","","76","L","3","","","62","main_expt"
"","bandit","142","507223","0.0-103.0-0.0","64775863","wem/bandit_either_2","A5T9IFDZ3W4T6","either","2","92","","","","","","","0","0","1","","0.2294211584","0.4","0.8","0.6","0.2","0.3765761212","0.2393402704","0.08505035955","0.2294211584","","","","","","","","","","","","76","L","3","","","63","main_expt"
"","bandit","143","508926","0.0-104.0-0.0","64775863","wem/bandit_either_2","A5T9IFDZ3W4T6","either","2","186","","","","","","","0","0","1","0.2350173232","","0.4","0.8","0.6","0.2","","","","","0.3859881554","0.300105392","0.09892528285","0.2350173232","","","","","","","","76","L","3","","","64","main_expt"
"","bandit","144","510572","0.0-105.0-0.0","64775863","wem/bandit_either_2","A5T9IFDZ3W4T6","either","2","128","","","","","","","0","0","1","0.1428545766","","0.4","0.8","0.6","0.2","","","","","0.3817039273","0.2584268813","0.1428545766","0.2775473173","","","","","","","","75","K","2","","","65","main_expt"
"","bandit","145","512416","0.0-106.0-0.0","64775863","wem/bandit_either_2","A5T9IFDZ3W4T6","either","2","331","","","","","","","0","0","1","0.120440259","","0.4","0.8","0.6","0.2","","","","","0.3622232449","0.2536378703","0.120440259","0.298861572","","","","","","","","75","K","2","","","66","main_expt"
"","bandit","146","514282","0.0-107.0-0.0","64775863","wem/bandit_either_2","A5T9IFDZ3W4T6","either","2","353","","","","","","","0","0","1","0.2019700983","","0.4","0.8","0.6","0.2","","","","","0.3768721334","0.2548884231","0.2019700983","0.3043747659","","","","","","","","75","K","2","","","67","main_expt"
"","bandit","147","516069","0.0-108.0-0.0","64775863","wem/bandit_either_2","A5T9IFDZ3W4T6","either","2","272","","","","","","","0","0","1","0.2105458193","","0.4","0.8","0.6","0.2","","","","","0.3826604183","0.2105458193","0.1467862533","0.2533072519","","","","","","","","74","J","1","","","68","main_expt"
"","bandit","148","517884","0.0-109.0-0.0","64775863","wem/bandit_either_2","A5T9IFDZ3W4T6","either","2","301","","","","","","","0","0","1","0.2901666962","","0.4","0.8","0.6","0.2","","","","","0.3981811202","0.2901666962","0.09022805221","0.2451677402","","","","","","","","74","J","1","","","69","main_expt"
"","bandit","149","519672","0.0-110.0-0.0","64775863","wem/bandit_either_2","A5T9IFDZ3W4T6","either","2","272","","","","","","","1","0","0","0.2973761433","","0.4","0.8","0.6","0.2","","","","","0.3936557204","0.2973761433","0.1128827508","0.2403061491","","","","","","","","74","J","1","","","70","main_expt"
"","bandit","150","521513","0.0-111.0-0.0","64775863","wem/bandit_either_2","A5T9IFDZ3W4T6","either","2","327","","","","","","","0","0","1","0.2737706179","","0.4","0.8","0.6","0.2","","","","","0.3949471057","0.2737706179","0.1184182172","0.1917576795","","","","","","","","74","J","1","","","71","main_expt"
"","bandit","151","523316","0.0-112.0-0.0","64775863","wem/bandit_either_2","A5T9IFDZ3W4T6","either","2","287","","","","","","","1","0","0","0.3005227265","","0.4","0.8","0.6","0.2","","","","","0.3888869603","0.3005227265","0.1038133506","0.1894079546","","","","","","","","74","J","1","","","72","main_expt"
"","bandit","152","525133","0.0-113.0-0.0","64775863","wem/bandit_either_2","A5T9IFDZ3W4T6","either","2","298","","","","","","","0","0","1","0.3205676235","","0.4","0.8","0.6","0.2","","","","","0.4015056825","0.3205676235","0.07830871569","0.235909594","","","","","","","","74","J","1","","","73","main_expt"
"","bandit","153","526933","0.0-114.0-0.0","64775863","wem/bandit_either_2","A5T9IFDZ3W4T6","either","2","283","","","","","","","0","0","1","","0.3040473008","0.4","0.8","0.6","0.2","0.4200542591","0.3040473008","0.09226686474","0.2772030277","","","","","","","","","","","","74","J","1","","","74","main_expt"
"","bandit","154","528770","0.0-115.0-0.0","64775863","wem/bandit_either_2","A5T9IFDZ3W4T6","either","2","323","","","","","","","1","0","0","0.2686744794","","0.4","0.8","0.6","0.2","","","","","0.4353174817","0.2686744794","0.07948082514","0.2237268092","","","","","","","","74","J","1","","","75","main_expt"
"","bandit","155","530807","0.0-116.0-0.0","64775863","wem/bandit_either_2","A5T9IFDZ3W4T6","either","2","426","","","","","","","0","0","1","","0.258707356","0.4","0.8","0.6","0.2","0.4196821318","0.258707356","0.1279570505","0.1739375455","","","","","","","","","","","","74","J","1","","","76","main_expt"
"","bandit","156","532482","0.0-117.0-0.0","64775863","wem/bandit_either_2","A5T9IFDZ3W4T6","either","2","149","","","","","","","0","0","1","0.3010070056","","0.4","0.8","0.6","0.2","","","","","0.3787369199","0.3010070056","0.1202820049","0.1648796623","","","","","","","","74","J","1","","","77","main_expt"
"","bandit","157","534432","0.0-118.0-0.0","64775863","wem/bandit_either_2","A5T9IFDZ3W4T6","either","2","432","","","","","","","0","0","1","","0.4314930014","0.4","0.8","0.6","0.2","0.4314930014","0.2648586626","0.1054071572","0.1637798684","","","","","","","","","","","","72","H","0","img/none_selected.jpg","","78","main_expt"
"","bandit","158","536231","0.0-119.0-0.0","64775863","wem/bandit_either_2","A5T9IFDZ3W4T6","either","2","283","","","","","","","0","0","1","0.4155078174","","0.4","0.8","0.6","0.2","","","","","0.4155078174","0.1984114041","0.1403095361","0.1490076182","","","","","","","","72","H","0","img/none_selected.jpg","","79","main_expt"
"","bandit","159","537916","0.0-120.0-0.0","64775863","wem/bandit_either_2","A5T9IFDZ3W4T6","either","2","173","","","","","","","0","0","1","","0.1093198388","0.4","0.8","0.6","0.2","0.4226243671","0.180325551","0.1891235553","0.1093198388","","","","","","","","","","","","76","L","3","","","80","main_expt"
"","bandit","160","539719","0.0-121.0-0.0","64775863","wem/bandit_either_2","A5T9IFDZ3W4T6","either","2","286","","","","","","","0","0","1","","0.08868186825","0.4","0.8","0.6","0.2","0.4474166549","0.224531153","0.1858030354","0.08868186825","","","","","","","","","","","","76","L","3","","","81","main_expt"
"","bandit","161","541466","0.0-122.0-0.0","64775863","wem/bandit_either_2","A5T9IFDZ3W4T6","either","2","236","","","","","","","0","0","1","","0.1073880826","0.4","0.8","0.6","0.2","0.4636297045","0.221125015","0.2476542501","0.1073880826","","","","","","","","","","","","76","L","3","","","82","main_expt"
"","bandit","162","543202","0.0-123.0-0.0","64775863","wem/bandit_either_2","A5T9IFDZ3W4T6","either","2","215","","","","","","","0","0","1","","0.2188241074","0.4","0.8","0.6","0.2","0.467509749","0.2143237207","0.2188241074","0.1022587498","","","","","","","","","","","","75","K","2","","","83","main_expt"
"","bandit","163","544964","0.0-124.0-0.0","64775863","wem/bandit_either_2","A5T9IFDZ3W4T6","either","2","248","","","","","","","0","0","1","","0.2754771977","0.4","0.8","0.6","0.2","0.4551111531","0.2097367537","0.2754771977","0.1085807699","","","","","","","","","","","","75","K","2","","","84","main_expt"
"","bandit","164","546697","0.0-125.0-0.0","64775863","wem/bandit_either_2","A5T9IFDZ3W4T6","either","2","202","","","","","","","0","0","1","0.1661536269","","0.4","0.8","0.6","0.2","","","","","0.4621419017","0.1661536269","0.2965575968","0.1263918358","","","","","","","","74","J","1","","","85","main_expt"
"","bandit","165","548493","0.0-126.0-0.0","64775863","wem/bandit_either_2","A5T9IFDZ3W4T6","either","2","283","","","","","","","0","0","1","0.1364458955","","0.4","0.8","0.6","0.2","","","","","0.4612050897","0.1364458955","0.257129161","0.1481941301","","","","","","","","74","J","1","","","86","main_expt"
"","bandit","166","550248","0.0-127.0-0.0","64775863","wem/bandit_either_2","A5T9IFDZ3W4T6","either","2","234","","","","","","","0","0","1","0.08235553135","","0.4","0.8","0.6","0.2","","","","","0.4334675206","0.08235553135","0.2338967043","0.1447872846","","","","","","","","74","J","1","","","87","main_expt"
"","bandit","167","551916","0.0-128.0-0.0","64775863","wem/bandit_either_2","A5T9IFDZ3W4T6","either","2","156","","","","","","","0","0","1","0.2161535794","","0.4","0.8","0.6","0.2","","","","","0.4397617206","0.0754832669","0.2161535794","0.1391637727","","","","","","","","75","K","2","","","88","main_expt"
"","bandit","168","553681","0.0-129.0-0.0","64775863","wem/bandit_either_2","A5T9IFDZ3W4T6","either","2","250","","","","","","","0","0","1","","0.2043146745","0.4","0.8","0.6","0.2","0.4635478967","0.109361408","0.2043146745","0.1476089376","","","","","","","","","","","","75","K","2","","","89","main_expt"
"","bandit","169","555439","0.0-130.0-0.0","64775863","wem/bandit_either_2","A5T9IFDZ3W4T6","either","2","242","","","","","","","0","0","1","","0.2346009907","0.4","0.8","0.6","0.2","0.4234969579","0.07391079866","0.2346009907","0.2081489191","","","","","","","","","","","","75","K","2","","","90","main_expt"
"","bandit","170","557136","0.0-131.0-0.0","64775863","wem/bandit_either_2","A5T9IFDZ3W4T6","either","2","184","","","","","","","0","0","1","0.4267507071","","0.4","0.8","0.6","0.2","","","","","0.4267507071","0.1164594673","0.2333967219","0.1834039029","","","","","","","","72","H","0","img/none_selected.jpg","","91","main_expt"
"","bandit","171","558895","0.0-132.0-0.0","64775863","wem/bandit_either_2","A5T9IFDZ3W4T6","either","2","245","","","","","","","0","0","1","","0.4089505196","0.4","0.8","0.6","0.2","0.4089505196","0.113043345","0.2150480475","0.2027314649","","","","","","","","","","","","72","H","0","img/none_selected.jpg","","92","main_expt"
"","bandit","172","560548","0.0-133.0-0.0","64775863","wem/bandit_either_2","A5T9IFDZ3W4T6","either","2","141","","","","","","","0","0","1","","0.4112501448","0.4","0.8","0.6","0.2","0.4112501448","0.1714352716","0.2588080464","0.1738894496","","","","","","","","","","","","72","H","0","img/none_selected.jpg","","93","main_expt"
"","bandit","173","562265","0.0-134.0-0.0","64775863","wem/bandit_either_2","A5T9IFDZ3W4T6","either","2","203","","","","","","","0","1","0","","0.2484708832","0.4","0.8","0.6","0.2","0.452415855","0.1253024032","0.2748849181","0.2484708832","","","","","","","","","","","","76","L","3","","","94","main_expt"
"","bandit","174","564066","0.0-135.0-0.0","64775863","wem/bandit_either_2","A5T9IFDZ3W4T6","either","2","283","","","","","","","1","0","0","0.2914685715","","0.4","0.8","0.6","0.2","","","","","0.4589197587","0.1401284447","0.2791739054","0.2914685715","","","","","","","","76","L","3","","","95","main_expt"
"","bandit","175","565898","0.0-136.0-0.0","64775863","wem/bandit_either_2","A5T9IFDZ3W4T6","either","2","315","","","","","","","0","0","1","","0.2417524935","0.4","0.8","0.6","0.2","0.4481870348","0.1320491369","0.3149564315","0.2417524935","","","","","","","","","","","","76","L","3","","","96","main_expt"
"","bandit","176","567743","0.0-137.0-0.0","64775863","wem/bandit_either_2","A5T9IFDZ3W4T6","either","2","330","","","","","","","0","0","1","","0.2492821404","0.4","0.8","0.6","0.2","0.4597072186","0.1518453759","0.372564007","0.2492821404","","","","","","","","","","","","76","L","3","","","97","main_expt"
"","bandit","177","569598","0.0-138.0-0.0","64775863","wem/bandit_either_2","A5T9IFDZ3W4T6","either","2","337","","","","","","","0","0","1","","0.3002958449","0.4","0.8","0.6","0.2","0.4705619112","0.2173959583","0.393328365","0.3002958449","","","","","","","","","","","","76","L","3","","","98","main_expt"
"","bandit","178","571415","0.0-139.0-0.0","64775863","wem/bandit_either_2","A5T9IFDZ3W4T6","either","2","292","","","","","","","0","0","1","","0.3544832656","0.4","0.8","0.6","0.2","0.4800968761","0.2618725657","0.421239771","0.3544832656","","","","","","","","","","","","76","L","3","","","99","main_expt"
"","bandit","179","573222","0.0-140.0-0.0","64775863","wem/bandit_either_2","A5T9IFDZ3W4T6","either","2","289","","","","","","","0","0","1","","0.3810954338","0.4","0.8","0.6","0.2","0.4780143146","0.2487788848","0.4130759476","0.3810954338","","","","","","","","","","","","76","L","3","","","100","main_expt"
"","bandit","180","574885","0.0-141.0-0.0","64775863","wem/bandit_either_2","A5T9IFDZ3W4T6","either","2","150","","","","","","","0","0","1","","0.4089462913","0.4","0.8","0.6","0.2","0.4849002763","0.2890792313","0.4089462913","0.4042362267","","","","","","","","","","","","75","K","2","","","101","main_expt"
"","bandit","181","576732","0.0-142.0-0.0","64775863","wem/bandit_either_2","A5T9IFDZ3W4T6","either","2","335","","","","","","","0","0","1","","0.370330464","0.4","0.8","0.6","0.2","0.4886078379","0.3136369757","0.370330464","0.4594696392","","","","","","","","","","","","75","K","2","","","102","main_expt"
"","bandit","182","578511","0.0-143.0-0.0","64775863","wem/bandit_either_2","A5T9IFDZ3W4T6","either","2","257","","","","","","","1","0","0","0.2364671533","","0.4","0.8","0.6","0.2","","","","","0.47121906","0.2364671533","0.3306315663","0.4588766667","","","","","","","","74","J","1","","","103","main_expt"
"","bandit","183","580385","0.0-144.0-0.0","64775863","wem/bandit_either_2","A5T9IFDZ3W4T6","either","2","355","","","","","","","0","0","1","0.2202486688","","0.4","0.8","0.6","0.2","","","","","0.4760763377","0.2202486688","0.354634178","0.4372785745","","","","","","","","74","J","1","","","104","main_expt"
"","bandit","184","582289","0.0-145.0-0.0","64775863","wem/bandit_either_2","A5T9IFDZ3W4T6","either","2","389","","","","","","","0","0","1","0.1854418088","","0.4","0.8","0.6","0.2","","","","","0.4701389446","0.1854418088","0.3896605338","0.4063887309","","","","","","","","74","J","1","","","105","main_expt"
"","bandit","185","584014","0.0-146.0-0.0","64775863","wem/bandit_either_2","A5T9IFDZ3W4T6","either","2","205","","","","","","","0","0","1","0.1596754559","","0.4","0.8","0.6","0.2","","","","","0.471324938","0.1596754559","0.414339711","0.3778019321","","","","","","","","74","J","1","","","106","main_expt"
"","bandit","186","585846","0.0-147.0-0.0","64775863","wem/bandit_either_2","A5T9IFDZ3W4T6","either","2","319","","","","","","","1","0","0","0.137099288","","0.4","0.8","0.6","0.2","","","","","0.4786694594","0.137099288","0.4164239898","0.3614143111","","","","","","","","74","J","1","","","107","main_expt"
"","bandit","187","587671","0.0-148.0-0.0","64775863","wem/bandit_either_2","A5T9IFDZ3W4T6","either","2","311","","","","","","","1","0","0","0.1443984823","","0.4","0.8","0.6","0.2","","","","","0.4810065258","0.1443984823","0.3836571442","0.3681250399","","","","","","","","74","J","1","","","108","main_expt"
"","bandit","188","589479","0.0-149.0-0.0","64775863","wem/bandit_either_2","A5T9IFDZ3W4T6","either","2","290","","","","","","","0","0","1","0.1409511773","","0.4","0.8","0.6","0.2","","","","","0.4816764674","0.1409511773","0.3881214568","0.3446081275","","","","","","","","74","J","1","","","109","main_expt"
"","bandit","189","591313","0.0-150.0-0.0","64775863","wem/bandit_either_2","A5T9IFDZ3W4T6","either","2","320","","","","","","","0","0","1","0.1787750665","","0.4","0.8","0.6","0.2","","","","","0.4882082215","0.1787750665","0.4266873791","0.3681270965","","","","","","","","74","J","1","","","110","main_expt"
"","bandit","190","592870","0.0-151.0-0.0","64775863","wem/bandit_either_2","A5T9IFDZ3W4T6","either","2","36","","","","","","","0","0","1","0.1862786225","","0.4","0.8","0.6","0.2","","","","","0.478642168","0.1862786225","0.4475699482","0.391379093","","","","","","","","74","J","1","","","111","main_expt"
"","bandit","191","594606","0.0-152.0-0.0","64775863","wem/bandit_either_2","A5T9IFDZ3W4T6","either","2","213","","","","","","","0","0","1","0.1654620982","","0.4","0.8","0.6","0.2","","","","","0.4841415165","0.1654620982","0.4190314983","0.4131544452","","","","","","","","74","J","1","","","112","main_expt"
"","bandit","192","596313","0.0-153.0-0.0","64775863","wem/bandit_either_2","A5T9IFDZ3W4T6","either","2","186","","","","","","","1","0","0","0.1582981878","","0.4","0.8","0.6","0.2","","","","","0.4883212127","0.1582981878","0.3666128881","0.3963985948","","","","","","","","74","J","1","","","113","main_expt"
"","bandit","193","598172","0.0-154.0-0.0","64775863","wem/bandit_either_2","A5T9IFDZ3W4T6","either","2","339","","","","","","","0","1","0","","0.1922757069","0.4","0.8","0.6","0.2","0.4883790739","0.1922757069","0.3866259854","0.4117985871","","","","","","","","","","","","74","J","1","","","114","main_expt"
"","bandit","194","600016","0.0-155.0-0.0","64775863","wem/bandit_either_2","A5T9IFDZ3W4T6","either","2","330","","","","","","","0","0","1","","0.185618385","0.4","0.8","0.6","0.2","0.4902011966","0.185618385","0.354161152","0.394381103","","","","","","","","","","","","74","J","1","","","115","main_expt"
"","bandit","195","601694","0.0-156.0-0.0","64775863","wem/bandit_either_2","A5T9IFDZ3W4T6","either","2","160","","","","","","","0","0","1","0.2057277395","","0.4","0.8","0.6","0.2","","","","","0.4844723045","0.2057277395","0.3170745426","0.3762408663","","","","","","","","74","J","1","","","116","main_expt"
"","bandit","196","603604","0.0-157.0-0.0","64775863","wem/bandit_either_2","A5T9IFDZ3W4T6","either","2","385","","","","","","","0","0","1","0.2288411079","","0.4","0.8","0.6","0.2","","","","","0.4895589844","0.2288411079","0.304536318","0.3823674378","","","","","","","","74","J","1","","","117","main_expt"
"","bandit","197","605181","0.0-158.0-0.0","64775863","wem/bandit_either_2","A5T9IFDZ3W4T6","either","2","64","","","","","","","0","0","1","","0.3411026949","0.4","0.8","0.6","0.2","0.4899729034","0.2207517482","0.3411026949","0.4050195855","","","","","","","","","","","","75","K","2","","","118","main_expt"
"","bandit","198","607012","0.0-159.0-0.0","64775863","wem/bandit_either_2","A5T9IFDZ3W4T6","either","2","315","","","","","","","1","0","0","0.3447942488","","0.4","0.8","0.6","0.2","","","","","0.4947041593","0.1955286499","0.3447942488","0.4227562767","","","","","","","","75","K","2","","","119","main_expt"
"","bandit","199","608845","0.0-160.0-0.0","64775863","wem/bandit_either_2","A5T9IFDZ3W4T6","either","2","315","","","","","","","1","0","0","0.3686185352","","0.4","0.8","0.6","0.2","","","","","0.4916865355","0.2427950695","0.3686185352","0.4163810796","","","","","","","","75","K","2","","","120","main_expt"
"","bandit","200","610673","0.0-161.0-0.0","64775863","wem/bandit_either_2","A5T9IFDZ3W4T6","either","2","309","","","","","","","0","0","1","0.3547669752","","0.4","0.8","0.6","0.2","","","","","0.4860386064","0.2479682904","0.3547669752","0.406821829","","","","","","","","75","K","2","","","121","main_expt"
"","bandit","201","612494","0.0-162.0-0.0","64775863","wem/bandit_either_2","A5T9IFDZ3W4T6","either","2","302","","","","","","","1","0","0","0.365994073","","0.4","0.8","0.6","0.2","","","","","0.483083859","0.3081985406","0.365994073","0.3999449125","","","","","","","","75","K","2","","","122","main_expt"
"","bandit","202","614354","0.0-163.0-0.0","64775863","wem/bandit_either_2","A5T9IFDZ3W4T6","either","2","346","","","","","","","0","1","0","","0.3120596142","0.4","0.8","0.6","0.2","0.4791491275","0.3089359708","0.3120596142","0.366626489","","","","","","","","","","","","75","K","2","","","123","main_expt"
"","bandit","203","616158","0.0-164.0-0.0","64775863","wem/bandit_either_2","A5T9IFDZ3W4T6","either","2","284","","","","","","","0","1","0","","0.302161917","0.4","0.8","0.6","0.2","0.4776777384","0.3298338218","0.302161917","0.3706278578","","","","","","","","","","","","75","K","2","","","124","main_expt"
"","bandit","204","617949","0.0-165.0-0.0","64775863","wem/bandit_either_2","A5T9IFDZ3W4T6","either","2","274","","","","","","","0","0","1","0.2794370347","","0.4","0.8","0.6","0.2","","","","","0.478983255","0.2795250441","0.2794370347","0.3545504723","","","","","","","","75","K","2","","","125","main_expt"
"","bandit","205","619717","0.0-166.0-0.0","64775863","wem/bandit_either_2","A5T9IFDZ3W4T6","either","2","250","","","","","","","0","0","1","","0.2466154908","0.4","0.8","0.6","0.2","0.4724726719","0.2184127205","0.2466154908","0.3106298006","","","","","","","","","","","","75","K","2","","","126","main_expt"
"","bandit","206","621500","0.0-167.0-0.0","64775863","wem/bandit_either_2","A5T9IFDZ3W4T6","either","2","266","","","","","","","0","0","1","0.2712823261","","0.4","0.8","0.6","0.2","","","","","0.4796244369","0.2488858907","0.2712823261","0.3351405197","","","","","","","","75","K","2","","","127","main_expt"
"","bandit","207","623279","0.0-168.0-0.0","64775863","wem/bandit_either_2","A5T9IFDZ3W4T6","either","2","260","","","","","","","0","0","1","0.4825212971","","0.4","0.8","0.6","0.2","","","","","0.4825212971","0.2850827173","0.2095517986","0.2984422464","","","","","","","","72","H","0","img/none_selected.jpg","","128","main_expt"
"","bandit","208","624967","0.0-169.0-0.0","64775863","wem/bandit_either_2","A5T9IFDZ3W4T6","either","2","173","","","","","","","0","0","1","","0.4877535013","0.4","0.8","0.6","0.2","0.4877535013","0.2867242009","0.1986866195","0.2027892291","","","","","","","","","","","","72","H","0","img/none_selected.jpg","","129","main_expt"
"","bandit","209","626753","0.0-170.0-0.0","64775863","wem/bandit_either_2","A5T9IFDZ3W4T6","either","2","273","","","","","","","0","1","0","","0.4833646461","0.4","0.8","0.6","0.2","0.4833646461","0.2509552002","0.172959111","0.13768179","","","","","","","","","","","","72","H","0","img/none_selected.jpg","","130","main_expt"
"","bandit","210","628646","0.0-171.0-0.0","64775863","wem/bandit_either_2","A5T9IFDZ3W4T6","either","2","372","","","","","","","1","0","0","0.4790990265","","0.4","0.8","0.6","0.2","","","","","0.4790990265","0.2172434631","0.163172462","0.1352832961","","","","","","","","72","H","0","img/none_selected.jpg","","131","main_expt"
"","bandit","211","630473","0.0-172.0-0.0","64775863","wem/bandit_either_2","A5T9IFDZ3W4T6","either","2","308","","","","","","","0","0","1","0.4882311922","","0.4","0.8","0.6","0.2","","","","","0.4882311922","0.158295755","0.161148659","0.08660982753","","","","","","","","72","H","0","img/none_selected.jpg","","132","main_expt"
"","bandit","212","632499","0.0-173.0-0.0","64775863","wem/bandit_either_2","A5T9IFDZ3W4T6","either","2","514","","","","","","","0","1","0","","0.4889625365","0.4","0.8","0.6","0.2","0.4889625365","0.185310911","0.1735641072","0.1020907376","","","","","","","","","","","","72","H","0","img/none_selected.jpg","","133","main_expt"
"","bandit","213","634652","0.0-174.0-0.0","64775863","wem/bandit_either_2","A5T9IFDZ3W4T6","either","2","634","","","","","","","0","0","1","","0.4916783795","0.4","0.8","0.6","0.2","0.4916783795","0.1966535246","0.1597390633","0.1231499397","","","","","","","","","","","","72","H","0","img/none_selected.jpg","","134","main_expt"
"","bandit","214","636457","0.0-175.0-0.0","64775863","wem/bandit_either_2","A5T9IFDZ3W4T6","either","2","289","","","","","","","0","0","1","0.4904315354","","0.4","0.8","0.6","0.2","","","","","0.4904315354","0.2290191974","0.1460070414","0.1524236556","","","","","","","","72","H","0","img/none_selected.jpg","","135","main_expt"
"","bandit","215","638128","0.0-176.0-0.0","64775863","wem/bandit_either_2","A5T9IFDZ3W4T6","either","2","157","","","","","","","0","0","1","","0.1954247664","0.4","0.8","0.6","0.2","0.491666595","0.2929229053","0.105474526","0.1954247664","","","","","","","","","","","","76","L","3","","","136","main_expt"
"","bandit","216","639766","0.0-177.0-0.0","64775863","wem/bandit_either_2","A5T9IFDZ3W4T6","either","2","123","","","","","","","0","0","1","","0.1833989084","0.4","0.8","0.6","0.2","0.4917142499","0.2780805385","0.08835118593","0.1833989084","","","","","","","","","","","","76","L","3","","","137","main_expt"
"","bandit","217","641445","0.0-178.0-0.0","64775863","wem/bandit_either_2","A5T9IFDZ3W4T6","either","2","161","","","","","","","1","0","0","0.217224157","","0.4","0.8","0.6","0.2","","","","","0.4870170403","0.217224157","0.06418360449","0.1490533902","","","","","","","","74","J","1","","","138","main_expt"
"","bandit","218","643265","0.0-179.0-0.0","64775863","wem/bandit_either_2","A5T9IFDZ3W4T6","either","2","309","","","","","","","1","0","0","0.2323391466","","0.4","0.8","0.6","0.2","","","","","0.4834992155","0.2323391466","0.03554325754","0.1318817547","","","","","","","","74","J","1","","","139","main_expt"
"","bandit","219","644963","0.0-180.0-0.0","64775863","wem/bandit_either_2","A5T9IFDZ3W4T6","either","2","180","","","","","","","0","0","1","0.244475209","","0.4","0.8","0.6","0.2","","","","","0.4927392517","0.244475209","0.04477370895","0.1877412345","","","","","","","","74","J","1","","","140","main_expt"
"","bandit","220","646757","0.0-181.0-0.0","64775863","wem/bandit_either_2","A5T9IFDZ3W4T6","either","2","280","","","","","","","0","0","1","0.232604034","","0.4","0.8","0.6","0.2","","","","","0.4872377518","0.232604034","0.03780119019","0.2363671377","","","","","","","","74","J","1","","","141","main_expt"
"","bandit","221","648539","0.0-182.0-0.0","64775863","wem/bandit_either_2","A5T9IFDZ3W4T6","either","2","265","","","","","","","0","0","1","0.2447345556","","0.4","0.8","0.6","0.2","","","","","0.4846254936","0.2447345556","0.03149913875","0.2546402356","","","","","","","","74","J","1","","","142","main_expt"
"","bandit","222","650345","0.0-183.0-0.0","64775863","wem/bandit_either_2","A5T9IFDZ3W4T6","either","2","284","","","","","","","0","0","1","0.04191513266","","0.4","0.8","0.6","0.2","","","","","0.4815328815","0.26413271","0.04191513266","0.2825544685","","","","","","","","75","K","2","","","143","main_expt"
"","bandit","223","652173","0.0-184.0-0.0","64775863","wem/bandit_either_2","A5T9IFDZ3W4T6","either","2","315","","","","","","","0","0","1","","0.05613120157","0.4","0.8","0.6","0.2","0.4854048375","0.1988203511","0.05613120157","0.2731230023","","","","","","","","","","","","75","K","2","","","144","main_expt"
"","bandit","224","653997","0.0-185.0-0.0","64775863","wem/bandit_either_2","A5T9IFDZ3W4T6","either","2","306","","","","","","","0","0","1","0.03827589539","","0.4","0.8","0.6","0.2","","","","","0.4813029389","0.217822638","0.03827589539","0.2943814715","","","","","","","","75","K","2","","","145","main_expt"
"","bandit","225","655853","0.0-186.0-0.0","64775863","wem/bandit_either_2","A5T9IFDZ3W4T6","either","2","334","","","","","","","0","0","1","0.02861175853","","0.4","0.8","0.6","0.2","","","","","0.4884824202","0.2009042904","0.02861175853","0.328634005","","","","","","","","75","K","2","","","146","main_expt"
"","bandit","226","657688","0.0-187.0-0.0","64775863","wem/bandit_either_2","A5T9IFDZ3W4T6","either","2","319","","","","","","","0","0","1","0.2080446297","","0.4","0.8","0.6","0.2","","","","","0.4835291327","0.2080446297","0.02140640811","0.3511209141","","","","","","","","74","J","1","","","147","main_expt"
"","bandit","227","659515","0.0-188.0-0.0","64775863","wem/bandit_either_2","A5T9IFDZ3W4T6","either","2","303","","","","","","","0","0","1","0.1536700415","","0.4","0.8","0.6","0.2","","","","","0.4716003481","0.1536700415","0.0202041473","0.3874996206","","","","","","","","74","J","1","","","148","main_expt"
"","bandit","228","661296","0.0-189.0-0.0","64775863","wem/bandit_either_2","A5T9IFDZ3W4T6","either","2","264","","","","","","","0","0","1","0.3476646045","","0.4","0.8","0.6","0.2","","","","","0.4341886607","0.1593661633","0.01154190459","0.3476646045","","","","","","","","76","L","3","","","149","main_expt"
"","bandit","229","663113","0.0-190.0-0.0","64775863","wem/bandit_either_2","A5T9IFDZ3W4T6","either","2","302","","","","","","","0","0","1","","0.3323010919","0.4","0.8","0.6","0.2","0.4014438172","0.144955896","0.01291237021","0.3323010919","","","","","","","","","","","","76","L","3","","","150","main_expt"
"","bandit","230","664897","0.0-191.0-0.0","64775863","wem/bandit_either_2","A5T9IFDZ3W4T6","either","2","264","","","","","","","0","1","0","","0.3954477196","0.4","0.8","0.6","0.2","0.3980713407","0.2123564028","0.0137789916","0.3954477196","","","","","","","","","","","","76","L","3","","","151","main_expt"
"","bandit","231","666796","0.0-192.0-0.0","64775863","wem/bandit_either_2","A5T9IFDZ3W4T6","either","2","343","","","","","","","0","1","0","","0.4186327087","0.4","0.8","0.6","0.2","0.4002357887","0.2301890466","0.01985271471","0.4186327087","","","","","","","","","","","","76","L","3","","","152","main_expt"
"","bandit","232","668626","0.0-193.0-0.0","64775863","wem/bandit_either_2","A5T9IFDZ3W4T6","either","2","316","","","","","","","0","0","1","","0.4029566754","0.4","0.8","0.6","0.2","0.388677987","0.2295153641","0.02951100453","0.4029566754","","","","","","","","","","","","76","L","3","","","153","main_expt"
"","bandit","233","670445","0.0-194.0-0.0","64775863","wem/bandit_either_2","A5T9IFDZ3W4T6","either","2","301","","","","","","","0","1","0","","0.4037751878","0.4","0.8","0.6","0.2","0.3817747688","0.2163321136","0.02325572033","0.4037751878","","","","","","","","","","","","76","L","3","","","154","main_expt"
"","bandit","234","672356","0.0-195.0-0.0","64775863","wem/bandit_either_2","A5T9IFDZ3W4T6","either","2","395","","","","","","","0","0","1","","0.4078727314","0.4","0.8","0.6","0.2","0.327727533","0.2257858177","0.03925092562","0.4078727314","","","","","","","","","","","","76","L","3","","","155","main_expt"
"","bandit","235","674211","0.0-196.0-0.0","64775863","wem/bandit_either_2","A5T9IFDZ3W4T6","either","2","335","","","","","","","0","1","0","","0.3941681487","0.4","0.8","0.6","0.2","0.2821504166","0.2077891775","0.05532081832","0.3941681487","","","","","","","","","","","","76","L","3","","","156","main_expt"
"","bandit","236","676341","0.0-197.0-0.0","64775863","wem/bandit_either_2","A5T9IFDZ3W4T6","either","2","607","","","","","","","0","0","1","","0.3417147062","0.4","0.8","0.6","0.2","0.2784527126","0.1742908387","0.05983660039","0.3417147062","","","","","","","","","","","","76","L","3","","","157","main_expt"
"","bandit","237","678215","0.0-198.0-0.0","64775863","wem/bandit_either_2","A5T9IFDZ3W4T6","either","2","357","","","","","","","0","0","1","0.2963220618","","0.4","0.8","0.6","0.2","","","","","0.2857058734","0.162057643","0.09347744845","0.2963220618","","","","","","","","76","L","3","","","158","main_expt"
"","bandit","238","680017","0.0-199.0-0.0","64775863","wem/bandit_either_2","A5T9IFDZ3W4T6","either","2","281","","","","","","","0","0","1","","0.2349295223","0.4","0.8","0.6","0.2","0.2349295223","0.1805514511","0.09649648717","0.2961528309","","","","","","","","","","","","72","H","0","img/none_selected.jpg","","159","main_expt"
"","bandit","239","681923","0.0-200.0-0.0","64775863","wem/bandit_either_2","A5T9IFDZ3W4T6","either","2","384","","","","","","","0","0","1","","0.2275717407","0.4","0.8","0.6","0.2","0.2275717407","0.1724629995","0.08382429791","0.2842772575","","","","","","","","","","","","72","H","0","img/none_selected.jpg","","160","main_expt"
"","bandit","240","683726","0.0-201.0-0.0","64775863","wem/bandit_either_2","A5T9IFDZ3W4T6","either","2","289","","","","","","","0","0","1","","0.1660992999","0.4","0.8","0.6","0.2","0.2559884592","0.1660992999","0.1466352983","0.2747674873","","","","","","","","","","","","74","J","1","","","161","main_expt"
"","bandit","241","685669","0.0-202.0-0.0","64775863","wem/bandit_either_2","A5T9IFDZ3W4T6","either","2","424","","","","","","","0","0","1","0.2281832109","","0.4","0.8","0.6","0.2","","","","","0.2670526618","0.2281832109","0.1569467617","0.2993190406","","","","","","","","74","J","1","","","162","main_expt"
"","bandit","242","687482","0.0-203.0-0.0","64775863","wem/bandit_either_2","A5T9IFDZ3W4T6","either","2","293","","","","","","","0","0","1","0.2144285545","","0.4","0.8","0.6","0.2","","","","","0.2618894379","0.2144285545","0.1437935099","0.3102408377","","","","","","","","74","J","1","","","163","main_expt"
"","bandit","243","689280","0.0-204.0-0.0","64775863","wem/bandit_either_2","A5T9IFDZ3W4T6","either","2","275","","","","","","","0","0","1","","0.2607878409","0.4","0.8","0.6","0.2","0.2977476978","0.2131293933","0.1503677763","0.2607878409","","","","","","","","","","","","76","L","3","","","164","main_expt"
"","bandit","244","691293","0.0-205.0-0.0","64775863","wem/bandit_either_2","A5T9IFDZ3W4T6","either","2","489","","","","","","","0","0","1","","0.2470054868","0.4","0.8","0.6","0.2","0.3138636066","0.251698227","0.1574825995","0.2470054868","","","","","","","","","","","","76","L","3","","","165","main_expt"
"","bandit","245","693211","0.0-206.0-0.0","64775863","wem/bandit_either_2","A5T9IFDZ3W4T6","either","2","398","","","","","","","0","0","1","0.1500633275","","0.4","0.8","0.6","0.2","","","","","0.3204338644","0.2831539445","0.1500633275","0.2629624785","","","","","","","","75","K","2","","","166","main_expt"
"","bandit","246","695175","0.0-207.0-0.0","64775863","wem/bandit_either_2","A5T9IFDZ3W4T6","either","2","445","","","","","","","0","0","1","","0.1137242654","0.4","0.8","0.6","0.2","0.3600517585","0.2496169508","0.1137242654","0.2745713682","","","","","","","","","","","","75","K","2","","","167","main_expt"
"","bandit","247","697115","0.0-208.0-0.0","64775863","wem/bandit_either_2","A5T9IFDZ3W4T6","either","2","419","","","","","","","0","0","1","0.145192941","","0.4","0.8","0.6","0.2","","","","","0.3678373827","0.2315540067","0.145192941","0.2557249153","","","","","","","","75","K","2","","","168","main_expt"
"","bandit","248","699007","0.0-209.0-0.0","64775863","wem/bandit_either_2","A5T9IFDZ3W4T6","either","2","371","","","","","","","0","0","1","0.1863479632","","0.4","0.8","0.6","0.2","","","","","0.3421512568","0.1825517174","0.1863479632","0.2016321063","","","","","","","","75","K","2","","","169","main_expt"
"","bandit","249","700804","0.0-210.0-0.0","64775863","wem/bandit_either_2","A5T9IFDZ3W4T6","either","2","270","","","","","","","0","0","1","","0.3917895485","0.4","0.8","0.6","0.2","0.3917895485","0.2535959064","0.142304713","0.2210696627","","","","","","","","","","","","72","H","0","img/none_selected.jpg","","170","main_expt"
"","bandit","250","702762","0.0-211.0-0.0","64775863","wem/bandit_either_2","A5T9IFDZ3W4T6","either","2","438","","","","","","","0","1","0","","0.3206692194","0.4","0.8","0.6","0.2","0.3206692194","0.3004284576","0.1739768979","0.1627904758","","","","","","","","","","","","72","H","0","img/none_selected.jpg","","171","main_expt"
"","bandit","251","704728","0.0-212.0-0.0","64775863","wem/bandit_either_2","A5T9IFDZ3W4T6","either","2","384","","","","","","","1","0","0","0.3198600846","","0.4","0.8","0.6","0.2","","","","","0.3198600846","0.2716191145","0.2172659048","0.1421076649","","","","","","","","72","H","0","img/none_selected.jpg","","172","main_expt"
"","bandit","252","706834","0.0-213.0-0.0","64775863","wem/bandit_either_2","A5T9IFDZ3W4T6","either","2","433","","","","","","","0","0","1","","0.2641483633","0.4","0.8","0.6","0.2","0.2641483633","0.3253138029","0.2419731025","0.165050165","","","","","","","","","","","","72","H","0","img/none_selected.jpg","","173","main_expt"
"","bandit","253","708719","0.0-214.0-0.0","64775863","wem/bandit_either_2","A5T9IFDZ3W4T6","either","2","367","","","","","","","0","0","1","0.2248062597","","0.4","0.8","0.6","0.2","","","","","0.2248062597","0.3419591401","0.2239571331","0.1406738207","","","","","","","","72","H","0","img/none_selected.jpg","","174","main_expt"
"","bandit","254","710591","0.0-215.0-0.0","64775863","wem/bandit_either_2","A5T9IFDZ3W4T6","either","2","351","","","","","","","0","0","1","0.2370379408","","0.4","0.8","0.6","0.2","","","","","0.2370379408","0.3442692367","0.2311410243","0.138310495","","","","","","","","72","H","0","img/none_selected.jpg","","175","main_expt"
"","bandit","255","712465","0.0-216.0-0.0","64775863","wem/bandit_either_2","A5T9IFDZ3W4T6","either","2","357","","","","","","","0","0","1","0.3397266539","","0.4","0.8","0.6","0.2","","","","","0.2157433706","0.3397266539","0.2610077479","0.1675243642","","","","","","","","74","J","1","","","176","main_expt"
"","bandit","256","714214","0.0-217.0-0.0","64775863","wem/bandit_either_2","A5T9IFDZ3W4T6","either","2","225","","","","","","","0","0","1","","0.1919885971","0.4","0.8","0.6","0.2","0.2014791824","0.2997078274","0.2780938204","0.1919885971","","","","","","","","","","","","76","L","3","","","177","main_expt"
"","bandit","257","716066","0.0-218.0-0.0","64775863","wem/bandit_either_2","A5T9IFDZ3W4T6","either","2","337","","","","","","","0","1","0","","0.2365392944","0.4","0.8","0.6","0.2","0.1913564418","0.3064007527","0.3151752793","0.2365392944","","","","","","","","","","","","76","L","3","","","178","main_expt"
"","bandit","258","717915","0.0-219.0-0.0","64775863","wem/bandit_either_2","A5T9IFDZ3W4T6","either","2","332","","","","","","","0","0","1","","0.2509455726","0.4","0.8","0.6","0.2","0.1980728016","0.3533432679","0.2799621139","0.2509455726","","","","","","","","","","","","76","L","3","","","179","main_expt"
"","bandit","259","719729","0.0-220.0-0.0","64775863","wem/bandit_either_2","A5T9IFDZ3W4T6","either","2","296","","","","","","","0","0","1","","0.2767223981","0.4","0.8","0.6","0.2","0.1833491223","0.3652522579","0.3170936092","0.2767223981","","","","","","","","","","","","76","L","3","","","180","main_expt"
"","bandit","260","721533","0.0-221.0-0.0","64775863","wem/bandit_either_2","A5T9IFDZ3W4T6","either","2","285","","","","","","","0","0","1","","0.314600373","0.4","0.8","0.6","0.2","0.1342686697","0.3383156657","0.28101752","0.314600373","","","","","","","","","","","","76","L","3","","","181","main_expt"
"","bandit","261","723265","0.0-222.0-0.0","64775863","wem/bandit_either_2","A5T9IFDZ3W4T6","either","2","183","","","","","","","0","0","1","0.2902116232","","0.4","0.8","0.6","0.2","","","","","0.1636660304","0.2902116232","0.3043342224","0.3943610609","","","","","","","","74","J","1","","","182","main_expt"
"","bandit","262","725196","0.0-223.0-0.0","64775863","wem/bandit_either_2","A5T9IFDZ3W4T6","either","2","413","","","","","","","0","0","1","0.3026157476","","0.4","0.8","0.6","0.2","","","","","0.136761637","0.3026157476","0.3192524042","0.3586422101","","","","","","","","74","J","1","","","183","main_expt"
"","bandit","263","727000","0.0-224.0-0.0","64775863","wem/bandit_either_2","A5T9IFDZ3W4T6","either","2","284","","","","","","","0","0","1","0.3332516821","","0.4","0.8","0.6","0.2","","","","","0.1685989701","0.3360229169","0.3332516821","0.3879999062","","","","","","","","75","K","2","","","184","main_expt"
"","bandit","264","728853","0.0-225.0-0.0","64775863","wem/bandit_either_2","A5T9IFDZ3W4T6","either","2","338","","","","","","","0","0","1","0.3228184693","","0.4","0.8","0.6","0.2","","","","","0.1663529744","0.3336456265","0.3228184693","0.3831340227","","","","","","","","75","K","2","","","185","main_expt"
"","bandit","265","730539","0.0-226.0-0.0","64775863","wem/bandit_either_2","A5T9IFDZ3W4T6","either","2","166","","","","","","","0","0","1","","0.1916836285","0.4","0.8","0.6","0.2","0.1916836285","0.3308881938","0.3111703144","0.3999004662","","","","","","","","","","","","72","H","0","img/none_selected.jpg","","186","main_expt"
"","bandit","266","732343","0.0-227.0-0.0","64775863","wem/bandit_either_2","A5T9IFDZ3W4T6","either","2","289","","","","","","","0","0","1","","0.1686829448","0.4","0.8","0.6","0.2","0.1686829448","0.325530054","0.3353611299","0.3875363153","","","","","","","","","","","","72","H","0","img/none_selected.jpg","","187","main_expt"
"","bandit","267","734083","0.0-228.0-0.0","64775863","wem/bandit_either_2","A5T9IFDZ3W4T6","either","2","220","","","","","","","1","0","0","0.1461675531","","0.4","0.8","0.6","0.2","","","","","0.1461675531","0.3055482451","0.3646937268","0.3875691392","","","","","","","","72","H","0","img/none_selected.jpg","","188","main_expt"
"","bandit","268","735963","0.0-229.0-0.0","64775863","wem/bandit_either_2","A5T9IFDZ3W4T6","either","2","362","","","","","","","0","0","1","","0.1382971047","0.4","0.8","0.6","0.2","0.1382971047","0.3002345065","0.3891323825","0.4166866882","","","","","","","","","","","","72","H","0","img/none_selected.jpg","","189","main_expt"
"","bandit","269","737829","0.0-230.0-0.0","64775863","wem/bandit_either_2","A5T9IFDZ3W4T6","either","2","351","","","","","","","0","1","0","","0.1898135375","0.4","0.8","0.6","0.2","0.1898135375","0.2693931213","0.3860741766","0.4124474499","","","","","","","","","","","","72","H","0","img/none_selected.jpg","","190","main_expt"
"","bandit","270","739723","0.0-231.0-0.0","64775863","wem/bandit_either_2","A5T9IFDZ3W4T6","either","2","375","","","","","","","0","0","1","","0.1264917812","0.4","0.8","0.6","0.2","0.1264917812","0.3009284261","0.3864243721","0.3638199534","","","","","","","","","","","","72","H","0","img/none_selected.jpg","","191","main_expt"
"","bandit","271","741613","0.0-232.0-0.0","64775863","wem/bandit_either_2","A5T9IFDZ3W4T6","either","2","351","","","","","","","0","1","0","","0.1185409567","0.4","0.8","0.6","0.2","0.1185409567","0.3157917784","0.400448014","0.3711146034","","","","","","","","","","","","72","H","0","img/none_selected.jpg","","192","main_expt"
"","bandit","272","743435","0.0-233.0-0.0","64775863","wem/bandit_either_2","A5T9IFDZ3W4T6","either","2","305","","","","","","","0","0","1","","0.09837948322","0.4","0.8","0.6","0.2","0.09837948322","0.2999212614","0.3895367297","0.3654165885","","","","","","","","","","","","72","H","0","img/none_selected.jpg","","193","main_expt"
"","bandit","273","745270","0.0-234.0-0.0","64775863","wem/bandit_either_2","A5T9IFDZ3W4T6","either","2","317","","","","","","","0","0","1","","0.137690802","0.4","0.8","0.6","0.2","0.137690802","0.3287494418","0.4032313792","0.3537818584","","","","","","","","","","","","72","H","0","img/none_selected.jpg","","194","main_expt"
"","bandit","274","747121","0.0-235.0-0.0","64775863","wem/bandit_either_2","A5T9IFDZ3W4T6","either","2","336","","","","","","","0","0","1","0.1683354775","","0.4","0.8","0.6","0.2","","","","","0.1683354775","0.3031978913","0.337234763","0.3597494918","","","","","","","","72","H","0","img/none_selected.jpg","","195","main_expt"
"","bandit","275","748912","0.0-236.0-0.0","64775863","wem/bandit_either_2","A5T9IFDZ3W4T6","either","2","271","","","","","","","0","0","1","","0.2901303692","0.4","0.8","0.6","0.2","0.1561951964","0.2901303692","0.3950764453","0.3479121901","","","","","","","","","","","","74","J","1","","","196","main_expt"
"","bandit","276","750764","0.0-237.0-0.0","64775863","wem/bandit_either_2","A5T9IFDZ3W4T6","either","2","328","","","","","","","0","0","1","0.2444781728","","0.4","0.8","0.6","0.2","","","","","0.1329868482","0.2444781728","0.4193743727","0.3596292454","","","","","","","","74","J","1","","","197","main_expt"
"","bandit","277","752612","0.0-238.0-0.0","64775863","wem/bandit_either_2","A5T9IFDZ3W4T6","either","2","324","","","","","","","0","0","1","0.2140047665","","0.4","0.8","0.6","0.2","","","","","0.1730826789","0.2140047665","0.4375347816","0.3555371828","","","","","","","","74","J","1","","","198","main_expt"
"","bandit","278","754400","0.0-239.0-0.0","64775863","wem/bandit_either_2","A5T9IFDZ3W4T6","either","2","270","","","","","","","1","0","0","0.2077842613","","0.4","0.8","0.6","0.2","","","","","0.1385649096","0.2077842613","0.4315030007","0.4016486285","","","","","","","","74","J","1","","","199","main_expt"
"","bandit","279","756246","0.0-240.0-0.0","64775863","wem/bandit_either_2","A5T9IFDZ3W4T6","either","2","329","","","","","","","0","0","1","0.180488049","","0.4","0.8","0.6","0.2","","","","","0.1941139053","0.180488049","0.4340108373","0.3871107612","","","","","","","","74","J","1","","","200","main_expt"
"","bandit","280","758063","0.0-241.0-0.0","64775863","wem/bandit_either_2","A5T9IFDZ3W4T6","either","2","294","","","","","","","0","0","1","","0.2084987087","0.4","0.8","0.6","0.2","0.1825013029","0.2084987087","0.441078118","0.3856539452","","","","","","","","","","","","74","J","1","","","201","main_expt"
"","bandit","281","759960","0.0-242.0-0.0","64775863","wem/bandit_either_2","A5T9IFDZ3W4T6","either","2","377","","","","","","","0","0","1","0.1869669721","","0.4","0.8","0.6","0.2","","","","","0.162440572","0.1869669721","0.4143682719","0.358588673","","","","","","","","74","J","1","","","202","main_expt"
"","bandit","282","761748","0.0-243.0-0.0","64775863","wem/bandit_either_2","A5T9IFDZ3W4T6","either","2","212","","","","","","","0","0","1","","0.4280720422","0.4","0.8","0.6","0.2","0.1914238456","0.1383076553","0.4280720422","0.3460881607","","","","","","","","","","","","75","K","2","","","203","main_expt"
"","bandit","283","763327","0.0-244.0-0.0","64775863","wem/bandit_either_2","A5T9IFDZ3W4T6","either","2","62","","","","","","","1","0","0","0.4113524858","","0.4","0.8","0.6","0.2","","","","","0.1849793247","0.1656187697","0.4113524858","0.3091432968","","","","","","","","75","K","2","","","204","main_expt"
"","bandit","284","765278","0.0-245.0-0.0","64775863","wem/bandit_either_2","A5T9IFDZ3W4T6","either","2","435","","","","","","","0","0","1","0.4151465815","","0.4","0.8","0.6","0.2","","","","","0.1722293799","0.1699285253","0.4151465815","0.3016396897","","","","","","","","75","K","2","","","205","main_expt"
"","bandit","285","767245","0.0-246.0-0.0","64775863","wem/bandit_either_2","A5T9IFDZ3W4T6","either","2","444","","","","","","","0","1","0","","0.4002359997","0.4","0.8","0.6","0.2","0.1625694713","0.161732949","0.4002359997","0.3300702997","","","","","","","","","","","","75","K","2","","","206","main_expt"
"","bandit","286","769107","0.0-247.0-0.0","64775863","wem/bandit_either_2","A5T9IFDZ3W4T6","either","2","334","","","","","","","0","0","1","","0.3692387261","0.4","0.8","0.6","0.2","0.1079769143","0.1699017951","0.3692387261","0.2648848683","","","","","","","","","","","","75","K","2","","","207","main_expt"
"","bandit","287","770996","0.0-248.0-0.0","64775863","wem/bandit_either_2","A5T9IFDZ3W4T6","either","2","369","","","","","","","1","0","0","0.3283471685","","0.4","0.8","0.6","0.2","","","","","0.1380178959","0.1592107695","0.3283471685","0.2502792914","","","","","","","","75","K","2","","","208","main_expt"
"","bandit","288","772863","0.0-249.0-0.0","64775863","wem/bandit_either_2","A5T9IFDZ3W4T6","either","2","350","","","","","","","0","1","0","","0.2924758898","0.4","0.8","0.6","0.2","0.1538506734","0.1659907122","0.2924758898","0.2770073026","","","","","","","","","","","","75","K","2","","","209","main_expt"
"","bandit","289","774682","0.0-250.0-0.0","64775863","wem/bandit_either_2","A5T9IFDZ3W4T6","either","2","301","","","","","","","0","0","1","0.2279470939","","0.4","0.8","0.6","0.2","","","","","0.1406222791","0.229525517","0.2279470939","0.3451435735","","","","","","","","75","K","2","","","210","main_expt"
"","bandit","290","776728","0.0-251.0-0.0","64775863","wem/bandit_either_2","A5T9IFDZ3W4T6","either","2","381","","","","","","","0","0","1","0.2131844406","","0.4","0.8","0.6","0.2","","","","","0.08987887408","0.2434605193","0.2131844406","0.3514478275","","","","","","","","75","K","2","","","211","main_expt"
"","bandit","291","778683","0.0-252.0-0.0","64775863","wem/bandit_either_2","A5T9IFDZ3W4T6","either","2","441","","","","","","","0","0","1","0.1601793481","","0.4","0.8","0.6","0.2","","","","","0.1277875359","0.1633214123","0.1601793481","0.3579324364","","","","","","","","75","K","2","","","212","main_expt"
"","bandit","292","780536","0.0-253.0-0.0","64775863","wem/bandit_either_2","A5T9IFDZ3W4T6","either","2","333","","","","","","","0","0","1","","0.1354109392","0.4","0.8","0.6","0.2","0.134271297","0.1014835246","0.1354109392","0.3231243524","","","","","","","","","","","","75","K","2","","","213","main_expt"
"","bandit","293","782337","0.0-254.0-0.0","64775863","wem/bandit_either_2","A5T9IFDZ3W4T6","either","2","280","","","","","","","0","0","1","","0.2798540136","0.4","0.8","0.6","0.2","0.1385204111","0.09587264096","0.1142105534","0.2798540136","","","","","","","","","","","","76","L","3","","","214","main_expt"
"","bandit","294","784163","0.0-255.0-0.0","64775863","wem/bandit_either_2","A5T9IFDZ3W4T6","either","2","308","","","","","","","0","0","1","","0.2469391402","0.4","0.8","0.6","0.2","0.1089132689","0.08342689115","0.1031311673","0.2469391402","","","","","","","","","","","","76","L","3","","","215","main_expt"
"","bandit","295","785976","0.0-256.0-0.0","64775863","wem/bandit_either_2","A5T9IFDZ3W4T6","either","2","289","","","","","","","0","1","0","","0.3211823944","0.4","0.8","0.6","0.2","0.1299508563","0.05361264496","0.1031732366","0.3211823944","","","","","","","","","","","","76","L","3","","","216","main_expt"
"","bandit","296","787998","0.0-257.0-0.0","64775863","wem/bandit_either_2","A5T9IFDZ3W4T6","either","2","506","","","","","","","0","1","0","","0.3545519007","0.4","0.8","0.6","0.2","0.131109262","0.09912420903","0.1188097379","0.3545519007","","","","","","","","","","","","76","L","3","","","217","main_expt"
"","bandit","297","789845","0.0-258.0-0.0","64775863","wem/bandit_either_2","A5T9IFDZ3W4T6","either","2","322","","","","","","","0","0","1","","0.3781539282","0.4","0.8","0.6","0.2","0.1039495344","0.1021137889","0.1096623481","0.3781539282","","","","","","","","","","","","76","L","3","","","218","main_expt"
"","bandit","298","791792","0.0-259.0-0.0","64775863","wem/bandit_either_2","A5T9IFDZ3W4T6","either","2","316","","","","","","","0","0","1","0.3674409598","","0.4","0.8","0.6","0.2","","","","","0.09488552944","0.1025207236","0.08679630722","0.3674409598","","","","","","","","76","L","3","","","219","main_expt"
"","bandit","299","793596","0.0-260.0-0.0","64775863","wem/bandit_either_2","A5T9IFDZ3W4T6","either","2","282","","","","","","","0","0","1","","0.315237632","0.4","0.8","0.6","0.2","0.1311925698","0.1049734862","0.1482089448","0.315237632","","","","","","","","","","","","76","L","3","","","220","main_expt"
"","bandit","300","795428","0.0-261.0-0.0","64775863","wem/bandit_either_2","A5T9IFDZ3W4T6","either","2","315","","","","","","","0","1","0","","0.3572442142","0.4","0.8","0.6","0.2","0.08224132258","0.08244295151","0.217172314","0.3572442142","","","","","","","","","","","","76","L","3","","","221","main_expt"
"","bandit","301","797335","0.0-262.0-0.0","64775863","wem/bandit_either_2","A5T9IFDZ3W4T6","either","2","382","","","","","","","0","0","1","","0.2796125419","0.4","0.8","0.6","0.2","0.06870998364","0.09815111748","0.2227738938","0.2796125419","","","","","","","","","","","","76","L","3","","","222","main_expt"
"","bandit","302","799275","0.0-263.0-0.0","64775863","wem/bandit_either_2","A5T9IFDZ3W4T6","either","2","423","","","","","","","0","0","1","","0.2265565182","0.4","0.8","0.6","0.2","0.111762886","0.09925351505","0.2768694491","0.2265565182","","","","","","","","","","","","76","L","3","","","223","main_expt"
"","bandit","303","801095","0.0-264.0-0.0","64775863","wem/bandit_either_2","A5T9IFDZ3W4T6","either","2","300","","","","","","","0","1","0","","0.1727872262","0.4","0.8","0.6","0.2","0.09652303785","0.07842644678","0.2895694018","0.1727872262","","","","","","","","","","","","76","L","3","","","224","main_expt"
"","bandit","304","803177","0.0-265.0-0.0","64775863","wem/bandit_either_2","A5T9IFDZ3W4T6","either","2","558","","","","","","","0","1","0","","0.1580797834","0.4","0.8","0.6","0.2","0.09424892582","0.05284632075","0.3515154126","0.1580797834","","","","","","","","","","","","76","L","3","","","225","main_expt"
"","bandit","305","805123","0.0-266.0-0.0","64775863","wem/bandit_either_2","A5T9IFDZ3W4T6","either","2","423","","","","","","","0","0","1","","0.1206031336","0.4","0.8","0.6","0.2","0.1094697254","0.06788221328","0.3960872924","0.1206031336","","","","","","","","","","","","76","L","3","","","226","main_expt"
"","bandit","306","806943","0.0-267.0-0.0","64775863","wem/bandit_either_2","A5T9IFDZ3W4T6","either","2","301","","","","","","","0","0","1","0.1218099769","","0.4","0.8","0.6","0.2","","","","","0.1055794081","0.04226868229","0.3301105445","0.1218099769","","","","","","","","76","L","3","","","227","main_expt"
"","bandit","307","808840","0.0-268.0-0.0","64775863","wem/bandit_either_2","A5T9IFDZ3W4T6","either","2","379","","","","","","","0","0","1","0.08458740206","","0.4","0.8","0.6","0.2","","","","","0.1210232629","0.06174471126","0.3679650562","0.08458740206","","","","","","","","76","L","3","","","228","main_expt"
"","bandit","308","810733","0.0-269.0-0.0","64775863","wem/bandit_either_2","A5T9IFDZ3W4T6","either","2","281","","","","","","","1","0","0","0.06311990622","","0.4","0.8","0.6","0.2","","","","","0.1249199002","0.06122033102","0.3413725311","0.06311990622","","","","","","","","76","L","3","","","229","main_expt"
"","bandit","309","812715","0.0-270.0-0.0","64775863","wem/bandit_either_2","A5T9IFDZ3W4T6","either","2","465","","","","","","","0","0","1","","0.04674316758","0.4","0.8","0.6","0.2","0.1423167866","0.09369367087","0.3652503211","0.04674316758","","","","","","","","","","","","76","L","3","","","230","main_expt"
"","bandit","310","814677","0.0-271.0-0.0","64775863","wem/bandit_either_2","A5T9IFDZ3W4T6","either","2","444","","","","","","","0","0","1","","0.06697327866","0.4","0.8","0.6","0.2","0.1441411413","0.1378364932","0.3774172636","0.06697327866","","","","","","","","","","","","76","L","3","","","231","main_expt"
"","bandit","311","816618","0.0-272.0-0.0","64775863","wem/bandit_either_2","A5T9IFDZ3W4T6","either","2","321","","","","","","","0","0","1","","0.08617656909","0.4","0.8","0.6","0.2","0.1132866493","0.1138343256","0.3507397895","0.08617656909","","","","","","","","","","","","76","L","3","","","232","main_expt"
"","bandit","312","818396","0.0-273.0-0.0","64775863","wem/bandit_either_2","A5T9IFDZ3W4T6","either","2","260","","","","","","","0","0","1","","0.08388286328","0.4","0.8","0.6","0.2","0.07587191469","0.1602674987","0.3228668676","0.08388286328","","","","","","","","","","","","76","L","3","","","233","main_expt"
"","bandit","313","820452","0.0-274.0-0.0","64775863","wem/bandit_either_2","A5T9IFDZ3W4T6","either","2","532","","","","","","","0","1","0","","0.1399599793","0.4","0.8","0.6","0.2","0.08330376307","0.1399599793","0.3219168209","0.08303297831","","","","","","","","","","","","74","J","1","","","234","main_expt"
"","bandit","314","822299","0.0-275.0-0.0","64775863","wem/bandit_either_2","A5T9IFDZ3W4T6","either","2","328","","","","","","","0","0","1","0.1577883936","","0.4","0.8","0.6","0.2","","","","","0.07960395758","0.1577883936","0.2907257894","0.08228619446","","","","","","","","74","J","1","","","235","main_expt"
"","bandit","315","824095","0.0-276.0-0.0","64775863","wem/bandit_either_2","A5T9IFDZ3W4T6","either","2","272","","","","","","","0","0","1","0.1206463377","","0.4","0.8","0.6","0.2","","","","","0.06703487678","0.1206463377","0.2879125653","0.07856112713","","","","","","","","74","J","1","","","236","main_expt"
"","bandit","316","826138","0.0-277.0-0.0","64775863","wem/bandit_either_2","A5T9IFDZ3W4T6","either","2","522","","","","","","","1","0","0","0.1224948263","","0.4","0.8","0.6","0.2","","","","","0.07970276757","0.1224948263","0.3055933028","0.09394336493","","","","","","","","74","J","1","","","237","main_expt"
"","bandit","317","827997","0.0-278.0-0.0","64775863","wem/bandit_either_2","A5T9IFDZ3W4T6","either","2","341","","","","","","","1","0","0","0.1163601633","","0.4","0.8","0.6","0.2","","","","","0.05589422377","0.1163601633","0.3197806133","0.1044036833","","","","","","","","74","J","1","","","238","main_expt"
"","bandit","318","829746","0.0-279.0-0.0","64775863","wem/bandit_either_2","A5T9IFDZ3W4T6","either","2","221","","","","","","","0","0","1","0.09302868556","","0.4","0.8","0.6","0.2","","","","","0.07304711058","0.09302868556","0.2699970134","0.1010835707","","","","","","","","74","J","1","","","239","main_expt"
"","bandit","319","831518","0.0-280.0-0.0","64775863","wem/bandit_either_2","A5T9IFDZ3W4T6","either","2","252","","","","","","","0","0","1","0.1142909623","","0.4","0.8","0.6","0.2","","","","","0.05193691484","0.1142909623","0.2594796501","0.1196592177","","","","","","","","74","J","1","","","240","main_expt"
"","bandit","320","833405","0.0-281.0-0.0","64775863","wem/bandit_either_2","A5T9IFDZ3W4T6","either","2","361","","","","","","","1","0","0","0.1694552561","","0.4","0.8","0.6","0.2","","","","","0.06844812817","0.1694552561","0.252227353","0.127320561","","","","","","","","74","J","1","","","241","main_expt"
"","bandit","321","835239","0.0-282.0-0.0","64775863","wem/bandit_either_2","A5T9IFDZ3W4T6","either","2","313","","","","","","","0","0","1","0.1828807391","","0.4","0.8","0.6","0.2","","","","","0.07869989264","0.1828807391","0.301231011","0.10641745","","","","","","","","74","J","1","","","242","main_expt"
"","bandit","322","837028","0.0-283.0-0.0","64775863","wem/bandit_either_2","A5T9IFDZ3W4T6","either","2","271","","","","","","","0","0","1","0.1236361748","","0.4","0.8","0.6","0.2","","","","","0.06084245892","0.1236361748","0.2903867436","0.131785075","","","","","","","","74","J","1","","","243","main_expt"
"","bandit","323","838794","0.0-284.0-0.0","64775863","wem/bandit_either_2","A5T9IFDZ3W4T6","either","2","249","","","","","","","0","0","1","0.1131162958","","0.4","0.8","0.6","0.2","","","","","0.04982625113","0.1131162958","0.2659167858","0.1150513838","","","","","","","","74","J","1","","","244","main_expt"
"","bandit","324","840592","0.0-285.0-0.0","64775863","wem/bandit_either_2","A5T9IFDZ3W4T6","either","2","278","","","","","","","0","0","1","0.08611006768","","0.4","0.8","0.6","0.2","","","","","0.04708965441","0.08611006768","0.254087564","0.1651966394","","","","","","","","74","J","1","","","245","main_expt"
"","bandit","325","842356","0.0-286.0-0.0","64775863","wem/bandit_either_2","A5T9IFDZ3W4T6","either","2","243","","","","","","","0","0","1","","0.0280961865","0.4","0.8","0.6","0.2","0.0280961865","0.1123216353","0.2551799517","0.1555796254","","","","","","","","","","","","72","H","0","img/none_selected.jpg","","246","main_expt"
"","bandit","326","844042","0.0-287.0-0.0","64775863","wem/bandit_either_2","A5T9IFDZ3W4T6","either","2","160","","","","","","","0","0","1","0.04499456282","","0.4","0.8","0.6","0.2","","","","","0.04499456282","0.09475638668","0.2629335529","0.1703980626","","","","","","","","72","H","0","img/none_selected.jpg","","247","main_expt"
"","bandit","327","845789","0.0-288.0-0.0","64775863","wem/bandit_either_2","A5T9IFDZ3W4T6","either","2","220","","","","","","","0","0","1","0.03910304398","","0.4","0.8","0.6","0.2","","","","","0.03910304398","0.08309477664","0.2393496224","0.1502680902","","","","","","","","72","H","0","img/none_selected.jpg","","248","main_expt"
"","bandit","328","847549","0.0-289.0-0.0","64775863","wem/bandit_either_2","A5T9IFDZ3W4T6","either","2","242","","","","","","","0","0","1","","0.2612635012","0.4","0.8","0.6","0.2","0.02658952892","0.09118761135","0.2612635012","0.1515252412","","","","","","","","","","","","75","K","2","","","249","main_expt"
