"consent","trial_type","trial_index","time_elapsed","internal_node_id","subjID","study","MID","cond","drift","rt","responses","key_press","expt_phase","like","value","connected","gems","bombs","no_reward","GemPrChosen","BombPrChosen","GainOverPainPr_0","GainOverPainPr_1","GainOverPainPr_2","GainOverPainPr_3","LosePr_0","LosePr_1","LosePr_2","LosePr_3","WinPr_0","WinPr_1","WinPr_2","WinPr_3","Q0","Q1","Q2","gender","age","ethnicity","target","respCharCode","respKey","respChoiceNum","respChoice","practice","trial_counter","trial_label"
"INL_behavioral_consent_30min_online.html","consent","0","29233","0.0-0.0","65051914","wem/bandit_either_2","ABNTDXT618WJQ","either","8","","","","","","","","","","","","","","","","","","","","","","","","","","","","","","","","","","","","","",""
"","survey-text","1","47659","0.0-1.0","65051914","wem/bandit_either_2","ABNTDXT618WJQ","either","8","17409","{""Q0"":""ABNTDXT618WJQ""}","","","","","","","","","","","","","","","","","","","","","","","","","","","","","","","","","","","",""
"","text","2","62993","0.0-2.0","65051914","wem/bandit_either_2","ABNTDXT618WJQ","either","8","14331","","32","","","","","","","","","","","","","","","","","","","","","","","","","","","","","","","","","","",""
"","text","3","73606","0.0-3.0","65051914","wem/bandit_either_2","ABNTDXT618WJQ","either","8","10613","","32","","","","","","","","","","","","","","","","","","","","","","","","","","","","","","","","","","",""
"","text","4","96188","0.0-4.0","65051914","wem/bandit_either_2","ABNTDXT618WJQ","either","8","22582","","32","","","","","","","","","","","","","","","","","","","","","","","","","","","","","","","","","","",""
"","text","5","109181","0.0-5.0","65051914","wem/bandit_either_2","ABNTDXT618WJQ","either","8","12983","","32","","","","","","","","","","","","","","","","","","","","","","","","","","","","","","","","","","",""
"","text","6","128820","0.0-6.0","65051914","wem/bandit_either_2","ABNTDXT618WJQ","either","8","19629","","32","","","","","","","","","","","","","","","","","","","","","","","","","","","","","","","","","","",""
"","text","7","138605","0.0-7.0","65051914","wem/bandit_either_2","ABNTDXT618WJQ","either","8","9785","","32","","","","","","","","","","","","","","","","","","","","","","","","","","","","","","","","","","",""
"","text","8","143611","0.0-8.0","65051914","wem/bandit_either_2","ABNTDXT618WJQ","either","8","5006","","32","","","","","","","","","","","","","","","","","","","","","","","","","","","","","","","","","","",""
"","identification","9","150847","0.0-9.0-0.0","65051914","wem/bandit_either_2","ABNTDXT618WJQ","either","8","7162","","","","6","6","6","","","","","","","","","","","","","","","","","","","","","","","","the village of Zur","","","","","","",""
"","identification","10","159350","0.0-9.0-1.0","65051914","wem/bandit_either_2","ABNTDXT618WJQ","either","8","7447","","","","0","0","3","","","","","","","","","","","","","","","","","","","","","","","","the village of Nyx","","","","","","",""
"","text","11","173586","0.0-10.0","65051914","wem/bandit_either_2","ABNTDXT618WJQ","either","8","13236","","32","","","","","","","","","","","","","","","","","","","","","","","","","","","","","","","","","","",""
"","text","12","177660","0.0-11.0","65051914","wem/bandit_either_2","ABNTDXT618WJQ","either","8","4064","","32","","","","","","","","","","","","","","","","","","","","","","","","","","","","","","","","","","",""
"","text","13","180440","0.0-12.0","65051914","wem/bandit_either_2","ABNTDXT618WJQ","either","8","2780","","32","","","","","","","","","","","","","","","","","","","","","","","","","","","","","","","","","","",""
"","text","14","184630","0.0-13.0","65051914","wem/bandit_either_2","ABNTDXT618WJQ","either","8","4190","","32","","","","","","","","","","","","","","","","","","","","","","","","","","","","","","","","","","",""
"","bandit","15","189640","0.0-14.0-0.0","65051914","wem/bandit_either_2","ABNTDXT618WJQ","either","8","3490","","","","","","","0","0","1","0","0","","","","","0","","","","0","","","","","","","","","","","74","J","0","img/none_selected_demo.jpg","true","0",""
"","bandit","16","193052","0.0-15.0-0.0","65051914","wem/bandit_either_2","ABNTDXT618WJQ","either","8","1909","","","","","","","0","0","1","0","0","","","","","0","","","","0","","","","","","","","","","","75","K","0","img/none_selected_demo.jpg","true","0",""
"","text","17","220544","0.0-16.0","65051914","wem/bandit_either_2","ABNTDXT618WJQ","either","8","27492","","32","","","","","","","","","","","","","","","","","","","","","","","","","","","","","","","","","","",""
"","text","18","231793","0.0-17.0","65051914","wem/bandit_either_2","ABNTDXT618WJQ","either","8","11249","","32","","","","","","","","","","","","","","","","","","","","","","","","","","","","","","","","","","",""
"","text","19","239442","0.0-18.0","65051914","wem/bandit_either_2","ABNTDXT618WJQ","either","8","7649","","32","","","","","","","","","","","","","","","","","","","","","","","","","","","","","","","","","","",""
"","text","20","243465","0.0-19.0","65051914","wem/bandit_either_2","ABNTDXT618WJQ","either","8","4023","","32","","","","","","","","","","","","","","","","","","","","","","","","","","","","","","","","","","",""
"","bandit","21","246498","0.0-20.0-0.0","65051914","wem/bandit_either_2","ABNTDXT618WJQ","either","8","1510","","","","","","","0","0","1","","0.8","0.5","0.5","","","0.8","0.2","","","","","","","","","","","","","","74","J","0","img/none_selected_demo.jpg","true","0","80_20_practice"
"","bandit","22","248555","0.0-20.0-1.0","65051914","wem/bandit_either_2","ABNTDXT618WJQ","either","8","550","","","","","","","1","0","0","0.8","","0.5","0.5","","","","","","","0.8","0.2","","","","","","","","","","74","J","0","img/none_selected_demo.jpg","true","0","80_20_practice"
"","bandit","23","250634","0.0-20.0-2.0","65051914","wem/bandit_either_2","ABNTDXT618WJQ","either","8","572","","","","","","","0","1","0","","0.8","0.5","0.5","","","0.8","0.2","","","","","","","","","","","","","","74","J","0","img/none_selected_demo.jpg","true","0","80_20_practice"
"","bandit","24","252655","0.0-20.0-3.0","65051914","wem/bandit_either_2","ABNTDXT618WJQ","either","8","517","","","","","","","0","0","1","","0.8","0.5","0.5","","","0.8","0.2","","","","","","","","","","","","","","74","J","0","img/none_selected_demo.jpg","true","0","80_20_practice"
"","bandit","25","254971","0.0-20.0-4.0","65051914","wem/bandit_either_2","ABNTDXT618WJQ","either","8","812","","","","","","","0","0","1","","0.2","0.5","0.5","","","0.8","0.2","","","","","","","","","","","","","","75","K","1","","true","0","80_20_practice"
"","bandit","26","256864","0.0-20.0-5.0","65051914","wem/bandit_either_2","ABNTDXT618WJQ","either","8","390","","","","","","","0","1","0","","0.2","0.5","0.5","","","0.8","0.2","","","","","","","","","","","","","","75","K","1","","true","0","80_20_practice"
"","bandit","27","258804","0.0-20.0-6.0","65051914","wem/bandit_either_2","ABNTDXT618WJQ","either","8","440","","","","","","","0","0","1","0.2","","0.5","0.5","","","","","","","0.8","0.2","","","","","","","","","","75","K","1","","true","0","80_20_practice"
"","bandit","28","260687","0.0-20.0-7.0","65051914","wem/bandit_either_2","ABNTDXT618WJQ","either","8","380","","","","","","","0","0","1","","0.2","0.5","0.5","","","0.8","0.2","","","","","","","","","","","","","","75","K","1","","true","0","80_20_practice"
"","bandit","29","264373","0.0-20.0-8.0","65051914","wem/bandit_either_2","ABNTDXT618WJQ","either","8","2179","","","","","","","1","0","0","0.8","","0.5","0.5","","","","","","","0.8","0.2","","","","","","","","","","74","J","0","img/none_selected_demo.jpg","true","0","80_20_practice"
"","bandit","30","266465","0.0-20.0-9.0","65051914","wem/bandit_either_2","ABNTDXT618WJQ","either","8","579","","","","","","","0","1","0","","0.8","0.5","0.5","","","0.8","0.2","","","","","","","","","","","","","","74","J","0","img/none_selected_demo.jpg","true","0","80_20_practice"
"","bandit","31","268400","0.0-20.0-10.0","65051914","wem/bandit_either_2","ABNTDXT618WJQ","either","8","429","","","","","","","0","0","1","","0.8","0.5","0.5","","","0.8","0.2","","","","","","","","","","","","","","74","J","0","img/none_selected_demo.jpg","true","0","80_20_practice"
"","bandit","32","270361","0.0-20.0-11.0","65051914","wem/bandit_either_2","ABNTDXT618WJQ","either","8","458","","","","","","","0","1","0","","0.8","0.5","0.5","","","0.8","0.2","","","","","","","","","","","","","","74","J","0","img/none_selected_demo.jpg","true","0","80_20_practice"
"","bandit","33","272264","0.0-20.0-12.0","65051914","wem/bandit_either_2","ABNTDXT618WJQ","either","8","389","","","","","","","0","0","1","0.8","","0.5","0.5","","","","","","","0.8","0.2","","","","","","","","","","74","J","0","img/none_selected_demo.jpg","true","0","80_20_practice"
"","bandit","34","274712","0.0-20.0-13.0","65051914","wem/bandit_either_2","ABNTDXT618WJQ","either","8","926","","","","","","","0","1","0","","0.8","0.5","0.5","","","0.8","0.2","","","","","","","","","","","","","","74","J","0","img/none_selected_demo.jpg","true","0","80_20_practice"
"","bandit","35","276883","0.0-20.0-14.0","65051914","wem/bandit_either_2","ABNTDXT618WJQ","either","8","668","","","","","","","0","1","0","","0.8","0.5","0.5","","","0.8","0.2","","","","","","","","","","","","","","74","J","0","img/none_selected_demo.jpg","true","0","80_20_practice"
"","bandit","36","279113","0.0-20.0-15.0","65051914","wem/bandit_either_2","ABNTDXT618WJQ","either","8","715","","","","","","","1","0","0","0.8","","0.5","0.5","","","","","","","0.8","0.2","","","","","","","","","","74","J","0","img/none_selected_demo.jpg","true","0","80_20_practice"
"","bandit","37","281143","0.0-20.0-16.0","65051914","wem/bandit_either_2","ABNTDXT618WJQ","either","8","530","","","","","","","0","0","1","0.8","","0.5","0.5","","","","","","","0.8","0.2","","","","","","","","","","74","J","0","img/none_selected_demo.jpg","true","0","80_20_practice"
"","bandit","38","283170","0.0-20.0-17.0","65051914","wem/bandit_either_2","ABNTDXT618WJQ","either","8","520","","","","","","","0","0","1","0.8","","0.5","0.5","","","","","","","0.8","0.2","","","","","","","","","","74","J","0","img/none_selected_demo.jpg","true","0","80_20_practice"
"","bandit","39","284861","0.0-20.0-18.0","65051914","wem/bandit_either_2","ABNTDXT618WJQ","either","8","190","","","","","","","0","1","0","","0.8","0.5","0.5","","","0.8","0.2","","","","","","","","","","","","","","74","J","0","img/none_selected_demo.jpg","true","0","80_20_practice"
"","bandit","40","286756","0.0-20.0-19.0","65051914","wem/bandit_either_2","ABNTDXT618WJQ","either","8","392","","","","","","","1","0","0","0.8","","0.5","0.5","","","","","","","0.8","0.2","","","","","","","","","","74","J","0","img/none_selected_demo.jpg","true","0","80_20_practice"
"","text","41","291843","0.0-21.0","65051914","wem/bandit_either_2","ABNTDXT618WJQ","either","8","5087","","32","","","","","","","","","","","","","","","","","","","","","","","","","","","","","","","","","","",""
"","bandit","42","294778","0.0-22.0-0.0","65051914","wem/bandit_either_2","ABNTDXT618WJQ","either","8","1422","","","","","","","1","0","0","1","0","","","","","0","1","","","1","0","","","","","","","","","","74","J","0","img/none_selected_demo.jpg","true","0",""
"","text","43","301133","0.0-23.0","65051914","wem/bandit_either_2","ABNTDXT618WJQ","either","8","6355","","32","","","","","","","","","","","","","","","","","","","","","","","","","","","","","","","","","","",""
"","text","44","305853","0.0-24.0","65051914","wem/bandit_either_2","ABNTDXT618WJQ","either","8","4720","","32","","","","","","","","","","","","","","","","","","","","","","","","","","","","","","","","","","",""
"","text","45","310783","0.0-25.0","65051914","wem/bandit_either_2","ABNTDXT618WJQ","either","8","4920","","32","","","","","","","","","","","","","","","","","","","","","","","","","","","","","","","","","","",""
"","text","46","315018","0.0-26.0","65051914","wem/bandit_either_2","ABNTDXT618WJQ","either","8","4235","","32","","","","","","","","","","","","","","","","","","","","","","","","","","","","","","","","","","",""
"","text","47","322130","0.0-27.0","65051914","wem/bandit_either_2","ABNTDXT618WJQ","either","8","7112","","32","","","","","","","","","","","","","","","","","","","","","","","","","","","","","","","","","","",""
"","text","48","326922","0.0-28.0","65051914","wem/bandit_either_2","ABNTDXT618WJQ","either","8","4792","","32","","","","","","","","","","","","","","","","","","","","","","","","","","","","","","","","","","",""
"","text","49","331569","0.0-29.0","65051914","wem/bandit_either_2","ABNTDXT618WJQ","either","8","4647","","32","","","","","","","","","","","","","","","","","","","","","","","","","","","","","","","","","","",""
"","text","50","334339","0.0-30.0","65051914","wem/bandit_either_2","ABNTDXT618WJQ","either","8","2770","","32","","","","","","","","","","","","","","","","","","","","","","","","","","","","","","","","","","",""
"","text","51","339812","0.0-31.0","65051914","wem/bandit_either_2","ABNTDXT618WJQ","either","8","5473","","32","","","","","","","","","","","","","","","","","","","","","","","","","","","","","","","","","","",""
"","text","52","341862","0.0-32.0","65051914","wem/bandit_either_2","ABNTDXT618WJQ","either","8","2050","","32","","","","","","","","","","","","","","","","","","","","","","","","","","","","","","","","","","",""
"","text","53","348842","0.0-33.0","65051914","wem/bandit_either_2","ABNTDXT618WJQ","either","8","6980","","32","","","","","","","","","","","","","","","","","","","","","","","","","","","","","","","","","","",""
"","bandit","54","351257","0.0-34.0-0.0","65051914","wem/bandit_either_2","ABNTDXT618WJQ","either","8","898","","","","","","","0","1","0","","0.8","0.5","0.5","0.5","0.5","0.8","0.2","0.6","0.2","","","","","","","","","","","","72","H","0","img/none_selected.jpg","true","0","full_practice"
"","bandit","55","353264","0.0-34.0-1.0","65051914","wem/bandit_either_2","ABNTDXT618WJQ","either","8","500","","","","","","","0","0","1","","0.8","0.5","0.5","0.5","0.5","0.8","0.2","0.6","0.2","","","","","","","","","","","","72","H","0","img/none_selected.jpg","true","0","full_practice"
"","bandit","56","355085","0.0-34.0-2.0","65051914","wem/bandit_either_2","ABNTDXT618WJQ","either","8","319","","","","","","","0","1","0","","0.8","0.5","0.5","0.5","0.5","0.8","0.2","0.6","0.2","","","","","","","","","","","","72","H","0","img/none_selected.jpg","true","0","full_practice"
"","bandit","57","357100","0.0-34.0-3.0","65051914","wem/bandit_either_2","ABNTDXT618WJQ","either","8","500","","","","","","","0","0","1","","0.8","0.5","0.5","0.5","0.5","0.8","0.2","0.6","0.2","","","","","","","","","","","","72","H","0","img/none_selected.jpg","true","0","full_practice"
"","bandit","58","358790","0.0-34.0-4.0","65051914","wem/bandit_either_2","ABNTDXT618WJQ","either","8","180","","","","","","","0","0","1","","0.2","0.5","0.5","0.5","0.5","0.8","0.2","0.6","0.2","","","","","","","","","","","","74","J","1","","true","0","full_practice"
"","bandit","59","360461","0.0-34.0-5.0","65051914","wem/bandit_either_2","ABNTDXT618WJQ","either","8","160","","","","","","","0","0","1","0.2","","0.5","0.5","0.5","0.5","","","","","0.8","0.2","0.6","0.2","","","","","","","","74","J","1","","true","0","full_practice"
"","bandit","60","362810","0.0-34.0-6.0","65051914","wem/bandit_either_2","ABNTDXT618WJQ","either","8","847","","","","","","","1","0","0","0.2","","0.5","0.5","0.5","0.5","","","","","0.8","0.2","0.6","0.2","","","","","","","","74","J","1","","true","0","full_practice"
"","bandit","61","364903","0.0-34.0-7.0","65051914","wem/bandit_either_2","ABNTDXT618WJQ","either","8","587","","","","","","","0","0","1","","0.2","0.5","0.5","0.5","0.5","0.8","0.2","0.6","0.2","","","","","","","","","","","","74","J","1","","true","0","full_practice"
"","bandit","62","367150","0.0-34.0-8.0","65051914","wem/bandit_either_2","ABNTDXT618WJQ","either","8","737","","","","","","","0","0","1","","0.6","0.5","0.5","0.5","0.5","0.8","0.2","0.6","0.2","","","","","","","","","","","","75","K","2","","true","0","full_practice"
"","bandit","63","369043","0.0-34.0-9.0","65051914","wem/bandit_either_2","ABNTDXT618WJQ","either","8","380","","","","","","","0","1","0","","0.6","0.5","0.5","0.5","0.5","0.8","0.2","0.6","0.2","","","","","","","","","","","","75","K","2","","true","0","full_practice"
"","bandit","64","371043","0.0-34.0-10.0","65051914","wem/bandit_either_2","ABNTDXT618WJQ","either","8","487","","","","","","","0","1","0","","0.6","0.5","0.5","0.5","0.5","0.8","0.2","0.6","0.2","","","","","","","","","","","","75","K","2","","true","0","full_practice"
"","bandit","65","372867","0.0-34.0-11.0","65051914","wem/bandit_either_2","ABNTDXT618WJQ","either","8","317","","","","","","","0","0","1","","0.6","0.5","0.5","0.5","0.5","0.8","0.2","0.6","0.2","","","","","","","","","","","","75","K","2","","true","0","full_practice"
"","bandit","66","374689","0.0-34.0-12.0","65051914","wem/bandit_either_2","ABNTDXT618WJQ","either","8","319","","","","","","","0","1","0","","0.6","0.5","0.5","0.5","0.5","0.8","0.2","0.6","0.2","","","","","","","","","","","","75","K","2","","true","0","full_practice"
"","bandit","67","376796","0.0-34.0-13.0","65051914","wem/bandit_either_2","ABNTDXT618WJQ","either","8","600","","","","","","","0","1","0","","0.6","0.5","0.5","0.5","0.5","0.8","0.2","0.6","0.2","","","","","","","","","","","","75","K","2","","true","0","full_practice"
"","bandit","68","378576","0.0-34.0-14.0","65051914","wem/bandit_either_2","ABNTDXT618WJQ","either","8","273","","","","","","","0","0","1","","0.6","0.5","0.5","0.5","0.5","0.8","0.2","0.6","0.2","","","","","","","","","","","","75","K","2","","true","0","full_practice"
"","bandit","69","381099","0.0-34.0-15.0","65051914","wem/bandit_either_2","ABNTDXT618WJQ","either","8","1017","","","","","","","0","1","0","","0.6","0.5","0.5","0.5","0.5","0.8","0.2","0.6","0.2","","","","","","","","","","","","75","K","2","","true","0","full_practice"
"","bandit","70","383039","0.0-34.0-16.0","65051914","wem/bandit_either_2","ABNTDXT618WJQ","either","8","440","","","","","","","0","1","0","","0.6","0.5","0.5","0.5","0.5","0.8","0.2","0.6","0.2","","","","","","","","","","","","75","K","2","","true","0","full_practice"
"","bandit","71","384973","0.0-34.0-17.0","65051914","wem/bandit_either_2","ABNTDXT618WJQ","either","8","430","","","","","","","0","1","0","","0.6","0.5","0.5","0.5","0.5","0.8","0.2","0.6","0.2","","","","","","","","","","","","75","K","2","","true","0","full_practice"
"","bandit","72","386989","0.0-34.0-18.0","65051914","wem/bandit_either_2","ABNTDXT618WJQ","either","8","509","","","","","","","0","0","1","","0.2","0.5","0.5","0.5","0.5","0.8","0.2","0.6","0.2","","","","","","","","","","","","76","L","3","","true","0","full_practice"
"","bandit","73","388753","0.0-34.0-19.0","65051914","wem/bandit_either_2","ABNTDXT618WJQ","either","8","260","","","","","","","0","0","1","0.2","","0.5","0.5","0.5","0.5","","","","","0.8","0.2","0.6","0.2","","","","","","","","76","L","3","","true","0","full_practice"
"","text","74","392337","0.0-35.0","65051914","wem/bandit_either_2","ABNTDXT618WJQ","either","8","3584","","32","","","","","","","","","","","","","","","","","","","","","","","","","","","","","","","","","","",""
"","text","75","404389","0.0-36.0","65051914","wem/bandit_either_2","ABNTDXT618WJQ","either","8","11050","","32","","","","","","","","","","","","","","","","","","","","","","","","","","","","","","","","","","",""
"","text","76","413436","0.0-37.0","65051914","wem/bandit_either_2","ABNTDXT618WJQ","either","8","9047","","32","","","","","","","","","","","","","","","","","","","","","","","","","","","","","","","","","","",""
"","text","77","419398","0.0-38.0","65051914","wem/bandit_either_2","ABNTDXT618WJQ","either","8","5952","","32","","","","","","","","","","","","","","","","","","","","","","","","","","","","","","","","","","",""
"","text","78","425046","0.0-39.0","65051914","wem/bandit_either_2","ABNTDXT618WJQ","either","8","5638","","32","","","","","","","","","","","","","","","","","","","","","","","","","","","","","","","","","","",""
"","text","79","429091","0.0-40.0","65051914","wem/bandit_either_2","ABNTDXT618WJQ","either","8","4035","","32","","","","","","","","","","","","","","","","","","","","","","","","","","","","","","","","","","",""
"","bandit","80","431466","0.0-41.0-0.0","65051914","wem/bandit_either_2","ABNTDXT618WJQ","either","8","866","","","","","","","0","0","1","0.1351790469","","0.2","0.6","0.8","0.4","","","","","0.1351790469","0.3540548627","0.2637293772","0.2928194041","","","","","","","","72","H","0","img/none_selected.jpg","","1","main_expt"
"","bandit","81","433426","0.0-42.0-0.0","65051914","wem/bandit_either_2","ABNTDXT618WJQ","either","8","458","","","","","","","0","0","1","","0.125602744","0.2","0.6","0.8","0.4","0.125602744","0.3812516843","0.2760013096","0.3040419902","","","","","","","","","","","","72","H","0","img/none_selected.jpg","","2","main_expt"
"","bandit","82","435432","0.0-43.0-0.0","65051914","wem/bandit_either_2","ABNTDXT618WJQ","either","8","497","","","","","","","0","0","1","","0.09574082279","0.2","0.6","0.8","0.4","0.09574082279","0.3901316494","0.3240499928","0.2875251023","","","","","","","","","","","","72","H","0","img/none_selected.jpg","","3","main_expt"
"","bandit","83","437713","0.0-44.0-0.0","65051914","wem/bandit_either_2","ABNTDXT618WJQ","either","8","775","","","","","","","0","1","0","","0.3945399471","0.2","0.6","0.8","0.4","0.0913382225","0.3945399471","0.3510822359","0.2965567903","","","","","","","","","","","","74","J","1","","","4","main_expt"
"","bandit","84","440079","0.0-45.0-0.0","65051914","wem/bandit_either_2","ABNTDXT618WJQ","either","8","865","","","","","","","0","1","0","","0.3997977613","0.2","0.6","0.8","0.4","0.106177601","0.3997977613","0.3522827721","0.2681113314","","","","","","","","","","","","74","J","1","","","5","main_expt"
"","bandit","85","442172","0.0-46.0-0.0","65051914","wem/bandit_either_2","ABNTDXT618WJQ","either","8","580","","","","","","","0","0","1","0.390783501","","0.2","0.6","0.8","0.4","","","","","0.08998955495","0.390783501","0.382674005","0.2330443498","","","","","","","","74","J","1","","","6","main_expt"
"","bandit","86","444106","0.0-47.0-0.0","65051914","wem/bandit_either_2","ABNTDXT618WJQ","either","8","427","","","","","","","0","0","1","","0.3305693427","0.2","0.6","0.8","0.4","0.1077526668","0.3305693427","0.3998463606","0.1630509172","","","","","","","","","","","","74","J","1","","","7","main_expt"
"","bandit","87","446021","0.0-48.0-0.0","65051914","wem/bandit_either_2","ABNTDXT618WJQ","either","8","406","","","","","","","0","0","1","0.3832029687","","0.2","0.6","0.8","0.4","","","","","0.1243697388","0.3056545716","0.3832029687","0.2002468685","","","","","","","","75","K","2","","","8","main_expt"
"","bandit","88","448048","0.0-49.0-0.0","65051914","wem/bandit_either_2","ABNTDXT618WJQ","either","8","511","","","","","","","0","0","1","0.3796681134","","0.2","0.6","0.8","0.4","","","","","0.1698108096","0.3278889804","0.3796681134","0.1835034381","","","","","","","","75","K","2","","","9","main_expt"
"","bandit","89","449982","0.0-50.0-0.0","65051914","wem/bandit_either_2","ABNTDXT618WJQ","either","8","407","","","","","","","0","1","0","","0.3614311416","0.2","0.6","0.8","0.4","0.221757114","0.3137855556","0.3614311416","0.1939723001","","","","","","","","","","","","75","K","2","","","10","main_expt"
"","bandit","90","451880","0.0-51.0-0.0","65051914","wem/bandit_either_2","ABNTDXT618WJQ","either","8","397","","","","","","","0","0","1","0.3938737051","","0.2","0.6","0.8","0.4","","","","","0.1961062924","0.3253079181","0.3938737051","0.1949806013","","","","","","","","75","K","2","","","11","main_expt"
"","bandit","91","454089","0.0-52.0-0.0","65051914","wem/bandit_either_2","ABNTDXT618WJQ","either","8","696","","","","","","","0","0","1","0.2587943474","","0.2","0.6","0.8","0.4","","","","","0.1907056259","0.3298150516","0.3810544723","0.2587943474","","","","","","","","76","L","3","","","12","main_expt"
"","bandit","92","456295","0.0-53.0-0.0","65051914","wem/bandit_either_2","ABNTDXT618WJQ","either","8","706","","","","","","","1","0","0","0.3085985727","","0.2","0.6","0.8","0.4","","","","","0.2162865666","0.3673307406","0.3707046684","0.3085985727","","","","","","","","76","L","3","","","13","main_expt"
"","bandit","93","458268","0.0-54.0-0.0","65051914","wem/bandit_either_2","ABNTDXT618WJQ","either","8","470","","","","","","","0","0","1","","0.2464992766","0.2","0.6","0.8","0.4","0.2399362825","0.3679224674","0.3486531997","0.2464992766","","","","","","","","","","","","76","L","3","","","14","main_expt"
"","bandit","94","460322","0.0-55.0-0.0","65051914","wem/bandit_either_2","ABNTDXT618WJQ","either","8","540","","","","","","","0","0","1","0.2474611475","","0.2","0.6","0.8","0.4","","","","","0.1986859052","0.3062507314","0.3263578384","0.2474611475","","","","","","","","76","L","3","","","15","main_expt"
"","bandit","95","462726","0.0-56.0-0.0","65051914","wem/bandit_either_2","ABNTDXT618WJQ","either","8","896","","","","","","","0","0","1","","0.2892976033","0.2","0.6","0.8","0.4","0.1865641621","0.2892976033","0.3514189979","0.2835538477","","","","","","","","","","","","74","J","1","","","16","main_expt"
"","bandit","96","464722","0.0-57.0-0.0","65051914","wem/bandit_either_2","ABNTDXT618WJQ","either","8","481","","","","","","","0","0","1","","0.2861796528","0.2","0.6","0.8","0.4","0.2035525071","0.2861796528","0.3532592314","0.3256112075","","","","","","","","","","","","74","J","1","","","17","main_expt"
"","bandit","97","466606","0.0-58.0-0.0","65051914","wem/bandit_either_2","ABNTDXT618WJQ","either","8","376","","","","","","","0","1","0","","0.2039336531","0.2","0.6","0.8","0.4","0.2039336531","0.2958570682","0.3858608091","0.3802227677","","","","","","","","","","","","72","H","0","img/none_selected.jpg","","18","main_expt"
"","bandit","98","468621","0.0-59.0-0.0","65051914","wem/bandit_either_2","ABNTDXT618WJQ","either","8","515","","","","","","","0","0","1","","0.1598579642","0.2","0.6","0.8","0.4","0.1598579642","0.3353028819","0.3837638756","0.360566968","","","","","","","","","","","","72","H","0","img/none_selected.jpg","","19","main_expt"
"","bandit","99","470645","0.0-60.0-0.0","65051914","wem/bandit_either_2","ABNTDXT618WJQ","either","8","517","","","","","","","0","1","0","","0.1437622327","0.2","0.6","0.8","0.4","0.1437622327","0.3139704528","0.2872100501","0.3696799013","","","","","","","","","","","","72","H","0","img/none_selected.jpg","","20","main_expt"
"","bandit","100","472725","0.0-61.0-0.0","65051914","wem/bandit_either_2","ABNTDXT618WJQ","either","8","570","","","","","","","0","0","1","","0.07974703335","0.2","0.6","0.8","0.4","0.07974703335","0.2524707143","0.2975414498","0.4006907501","","","","","","","","","","","","72","H","0","img/none_selected.jpg","","21","main_expt"
"","bandit","101","474955","0.0-62.0-0.0","65051914","wem/bandit_either_2","ABNTDXT618WJQ","either","8","723","","","","","","","0","0","1","0.1361132429","","0.2","0.6","0.8","0.4","","","","","0.1361132429","0.248326021","0.2741965999","0.4081217326","","","","","","","","72","H","0","img/none_selected.jpg","","22","main_expt"
"","bandit","102","477012","0.0-63.0-0.0","65051914","wem/bandit_either_2","ABNTDXT618WJQ","either","8","553","","","","","","","0","0","1","","0.2937153481","0.2","0.6","0.8","0.4","0.1705973249","0.2937153481","0.2379064449","0.3740207531","","","","","","","","","","","","74","J","1","","","23","main_expt"
"","bandit","103","479145","0.0-64.0-0.0","65051914","wem/bandit_either_2","ABNTDXT618WJQ","either","8","632","","","","","","","1","0","0","0.2625315469","","0.2","0.6","0.8","0.4","","","","","0.1392759225","0.2625315469","0.2078598572","0.3913756451","","","","","","","","74","J","1","","","24","main_expt"
"","bandit","104","481230","0.0-65.0-0.0","65051914","wem/bandit_either_2","ABNTDXT618WJQ","either","8","579","","","","","","","0","0","1","0.2405651368","","0.2","0.6","0.8","0.4","","","","","0.1800538527","0.2405651368","0.2764850733","0.4100905738","","","","","","","","74","J","1","","","25","main_expt"
"","bandit","105","482914","0.0-66.0-0.0","65051914","wem/bandit_either_2","ABNTDXT618WJQ","either","8","177","","","","","","","0","0","1","0.2503350336","","0.2","0.6","0.8","0.4","","","","","0.2146400533","0.2503350336","0.3080191348","0.3600668969","","","","","","","","74","J","1","","","26","main_expt"
"","bandit","106","484597","0.0-67.0-0.0","65051914","wem/bandit_either_2","ABNTDXT618WJQ","either","8","173","","","","","","","0","0","1","0.3606197488","","0.2","0.6","0.8","0.4","","","","","0.1948367851","0.354091838","0.3606197488","0.3703096079","","","","","","","","75","K","2","","","27","main_expt"
"","bandit","107","486605","0.0-68.0-0.0","65051914","wem/bandit_either_2","ABNTDXT618WJQ","either","8","491","","","","","","","1","0","0","0.3696097963","","0.2","0.6","0.8","0.4","","","","","0.2282666016","0.3419366675","0.3696097963","0.3527269899","","","","","","","","75","K","2","","","28","main_expt"
"","bandit","108","488746","0.0-69.0-0.0","65051914","wem/bandit_either_2","ABNTDXT618WJQ","either","8","631","","","","","","","0","1","0","","0.3434444954","0.2","0.6","0.8","0.4","0.1842618798","0.361896517","0.3434444954","0.2854860911","","","","","","","","","","","","75","K","2","","","29","main_expt"
"","bandit","109","490585","0.0-70.0-0.0","65051914","wem/bandit_either_2","ABNTDXT618WJQ","either","8","339","","","","","","","0","0","1","","0.3528183973","0.2","0.6","0.8","0.4","0.1930267653","0.3701160785","0.3528183973","0.2971434158","","","","","","","","","","","","75","K","2","","","30","main_expt"
"","bandit","110","492461","0.0-71.0-0.0","65051914","wem/bandit_either_2","ABNTDXT618WJQ","either","8","370","","","","","","","0","0","1","0.3436926249","","0.2","0.6","0.8","0.4","","","","","0.2279264959","0.3602312343","0.3436926249","0.3192935598","","","","","","","","75","K","2","","","31","main_expt"
"","bandit","111","494361","0.0-72.0-0.0","65051914","wem/bandit_either_2","ABNTDXT618WJQ","either","8","400","","","","","","","1","0","0","0.3392376576","","0.2","0.6","0.8","0.4","","","","","0.1922668126","0.3550043818","0.3392376576","0.2910845839","","","","","","","","75","K","2","","","32","main_expt"
"","bandit","112","496371","0.0-73.0-0.0","65051914","wem/bandit_either_2","ABNTDXT618WJQ","either","8","510","","","","","","","0","0","1","0.2524106513","","0.2","0.6","0.8","0.4","","","","","0.1503247695","0.3927862597","0.2524106513","0.2956883229","","","","","","","","75","K","2","","","33","main_expt"
"","bandit","113","498288","0.0-74.0-0.0","65051914","wem/bandit_either_2","ABNTDXT618WJQ","either","8","407","","","","","","","0","0","1","0.2378308988","","0.2","0.6","0.8","0.4","","","","","0.1875072744","0.4185963197","0.2378308988","0.2918182698","","","","","","","","75","K","2","","","34","main_expt"
"","bandit","114","500167","0.0-75.0-0.0","65051914","wem/bandit_either_2","ABNTDXT618WJQ","either","8","366","","","","","","","0","0","1","0.2683654211","","0.2","0.6","0.8","0.4","","","","","0.2135507624","0.441983755","0.2683654211","0.3063909307","","","","","","","","75","K","2","","","35","main_expt"
"","bandit","115","502094","0.0-76.0-0.0","65051914","wem/bandit_either_2","ABNTDXT618WJQ","either","8","421","","","","","","","1","0","0","0.2645223933","","0.2","0.6","0.8","0.4","","","","","0.2042402853","0.4352827683","0.2645223933","0.2820805085","","","","","","","","75","K","2","","","36","main_expt"
"","bandit","116","503971","0.0-77.0-0.0","65051914","wem/bandit_either_2","ABNTDXT618WJQ","either","8","370","","","","","","","0","0","1","0.2360561858","","0.2","0.6","0.8","0.4","","","","","0.2024605481","0.450520142","0.2360561858","0.2610370824","","","","","","","","75","K","2","","","37","main_expt"
"","bandit","117","505778","0.0-78.0-0.0","65051914","wem/bandit_either_2","ABNTDXT618WJQ","either","8","277","","","","","","","0","0","1","","0.1896233007","0.2","0.6","0.8","0.4","0.1677713785","0.4681224698","0.2001865083","0.1896233007","","","","","","","","","","","","76","L","3","","","38","main_expt"
"","bandit","118","507797","0.0-79.0-0.0","65051914","wem/bandit_either_2","ABNTDXT618WJQ","either","8","509","","","","","","","0","0","1","","0.168851025","0.2","0.6","0.8","0.4","0.221779122","0.4711022053","0.1687915361","0.168851025","","","","","","","","","","","","76","L","3","","","39","main_expt"
"","bandit","119","509821","0.0-80.0-0.0","65051914","wem/bandit_either_2","ABNTDXT618WJQ","either","8","517","","","","","","","0","0","1","","0.1615787635","0.2","0.6","0.8","0.4","0.2722397218","0.4559447699","0.1503151413","0.1615787635","","","","","","","","","","","","76","L","3","","","40","main_expt"
"","bandit","120","511926","0.0-81.0-0.0","65051914","wem/bandit_either_2","ABNTDXT618WJQ","either","8","598","","","","","","","0","0","1","","0.3298230943","0.2","0.6","0.8","0.4","0.3298230943","0.4412687596","0.08168262283","0.1472326003","","","","","","","","","","","","72","H","0","img/none_selected.jpg","","41","main_expt"
"","bandit","121","513929","0.0-82.0-0.0","65051914","wem/bandit_either_2","ABNTDXT618WJQ","either","8","494","","","","","","","0","0","1","","0.3104885444","0.2","0.6","0.8","0.4","0.3104885444","0.4457751761","0.07668629145","0.1533480506","","","","","","","","","","","","72","H","0","img/none_selected.jpg","","42","main_expt"
"","bandit","122","515744","0.0-83.0-0.0","65051914","wem/bandit_either_2","ABNTDXT618WJQ","either","8","306","","","","","","","0","1","0","","0.3005355489","0.2","0.6","0.8","0.4","0.3005355489","0.4298378352","0.07394587158","0.1414351437","","","","","","","","","","","","72","H","0","img/none_selected.jpg","","43","main_expt"
"","bandit","123","517635","0.0-84.0-0.0","65051914","wem/bandit_either_2","ABNTDXT618WJQ","either","8","380","","","","","","","0","0","1","","0.2456242138","0.2","0.6","0.8","0.4","0.2456242138","0.4416915379","0.1192337685","0.1067646429","","","","","","","","","","","","72","H","0","img/none_selected.jpg","","44","main_expt"
"","bandit","124","519604","0.0-85.0-0.0","65051914","wem/bandit_either_2","ABNTDXT618WJQ","either","8","459","","","","","","","0","0","1","","0.2839901561","0.2","0.6","0.8","0.4","0.2839901561","0.3915522423","0.1285724119","0.1250796286","","","","","","","","","","","","72","H","0","img/none_selected.jpg","","45","main_expt"
"","bandit","125","521327","0.0-86.0-0.0","65051914","wem/bandit_either_2","ABNTDXT618WJQ","either","8","216","","","","","","","0","0","1","","0.2353621531","0.2","0.6","0.8","0.4","0.2353621531","0.4318427431","0.1112684106","0.1927264636","","","","","","","","","","","","72","H","0","img/none_selected.jpg","","46","main_expt"
"","bandit","126","523228","0.0-87.0-0.0","65051914","wem/bandit_either_2","ABNTDXT618WJQ","either","8","390","","","","","","","0","0","1","","0.2405257196","0.2","0.6","0.8","0.4","0.2405257196","0.4395998441","0.1207340475","0.1804488412","","","","","","","","","","","","72","H","0","img/none_selected.jpg","","47","main_expt"
"","bandit","127","525561","0.0-88.0-0.0","65051914","wem/bandit_either_2","ABNTDXT618WJQ","either","8","831","","","","","","","0","1","0","","0.4630443269","0.2","0.6","0.8","0.4","0.2629408555","0.4630443269","0.1182533935","0.168268176","","","","","","","","","","","","74","J","1","","","48","main_expt"
"","bandit","128","527711","0.0-89.0-0.0","65051914","wem/bandit_either_2","ABNTDXT618WJQ","either","8","640","","","","","","","0","0","1","","0.4794982466","0.2","0.6","0.8","0.4","0.2902453213","0.4794982466","0.1460801474","0.1466838001","","","","","","","","","","","","74","J","1","","","49","main_expt"
"","bandit","129","529644","0.0-90.0-0.0","65051914","wem/bandit_either_2","ABNTDXT618WJQ","either","8","420","","","","","","","0","0","1","","0.4562783041","0.2","0.6","0.8","0.4","0.3033715012","0.4562783041","0.1765155983","0.1336340117","","","","","","","","","","","","74","J","1","","","50","main_expt"
"","bandit","130","531594","0.0-91.0-0.0","65051914","wem/bandit_either_2","ABNTDXT618WJQ","either","8","430","","","","","","","0","0","1","","0.4515646323","0.2","0.6","0.8","0.4","0.3536831403","0.4515646323","0.1614266163","0.1067821754","","","","","","","","","","","","74","J","1","","","51","main_expt"
"","bandit","131","533472","0.0-92.0-0.0","65051914","wem/bandit_either_2","ABNTDXT618WJQ","either","8","370","","","","","","","0","0","1","0.1938643747","","0.2","0.6","0.8","0.4","","","","","0.3058792917","0.4344137529","0.1938643747","0.07294577227","","","","","","","","75","K","2","","","52","main_expt"
"","bandit","132","535369","0.0-93.0-0.0","65051914","wem/bandit_either_2","ABNTDXT618WJQ","either","8","385","","","","","","","0","0","1","0.1721886996","","0.2","0.6","0.8","0.4","","","","","0.3466820038","0.4421766306","0.1721886996","0.07676454597","","","","","","","","75","K","2","","","53","main_expt"
"","bandit","133","537288","0.0-94.0-0.0","65051914","wem/bandit_either_2","ABNTDXT618WJQ","either","8","408","","","","","","","0","0","1","0.1542880765","","0.2","0.6","0.8","0.4","","","","","0.3159173384","0.4591875032","0.1542880765","0.07707135067","","","","","","","","75","K","2","","","54","main_expt"
"","bandit","134","539161","0.0-95.0-0.0","65051914","wem/bandit_either_2","ABNTDXT618WJQ","either","8","355","","","","","","","0","0","1","0.2155598061","","0.2","0.6","0.8","0.4","","","","","0.3205246683","0.4455250987","0.2155598061","0.08227932488","","","","","","","","75","K","2","","","55","main_expt"
"","bandit","135","541128","0.0-96.0-0.0","65051914","wem/bandit_either_2","ABNTDXT618WJQ","either","8","464","","","","","","","0","0","1","0.199350645","","0.2","0.6","0.8","0.4","","","","","0.3067659888","0.4200701886","0.199350645","0.09013031375","","","","","","","","75","K","2","","","56","main_expt"
"","bandit","136","543087","0.0-97.0-0.0","65051914","wem/bandit_either_2","ABNTDXT618WJQ","either","8","440","","","","","","","0","1","0","","0.1991981904","0.2","0.6","0.8","0.4","0.3786279545","0.3635567377","0.1991981904","0.106866739","","","","","","","","","","","","75","K","2","","","57","main_expt"
"","bandit","137","544970","0.0-98.0-0.0","65051914","wem/bandit_either_2","ABNTDXT618WJQ","either","8","367","","","","","","","0","0","1","0.1307276253","","0.2","0.6","0.8","0.4","","","","","0.3796022377","0.3647217687","0.1307276253","0.0915584437","","","","","","","","75","K","2","","","58","main_expt"
"","bandit","138","546919","0.0-99.0-0.0","65051914","wem/bandit_either_2","ABNTDXT618WJQ","either","8","426","","","","","","","0","0","1","0.1540949786","","0.2","0.6","0.8","0.4","","","","","0.3570845549","0.3975499765","0.1540949786","0.1036540812","","","","","","","","75","K","2","","","59","main_expt"
"","bandit","139","548819","0.0-100.0-0.0","65051914","wem/bandit_either_2","ABNTDXT618WJQ","either","8","378","","","","","","","0","0","1","","0.376383165","0.2","0.6","0.8","0.4","0.398525789","0.376383165","0.1187181044","0.07948280662","","","","","","","","","","","","74","J","1","","","60","main_expt"
"","bandit","140","550892","0.0-101.0-0.0","65051914","wem/bandit_either_2","ABNTDXT618WJQ","either","8","557","","","","","","","0","0","1","","0.3384437455","0.2","0.6","0.8","0.4","0.380986593","0.3384437455","0.1734870435","0.0685056185","","","","","","","","","","","","74","J","1","","","61","main_expt"
"","bandit","141","553035","0.0-102.0-0.0","65051914","wem/bandit_either_2","ABNTDXT618WJQ","either","8","620","","","","","","","0","1","0","","0.3928002855","0.2","0.6","0.8","0.4","0.3928002855","0.3086389155","0.2056999461","0.04196312691","","","","","","","","","","","","72","H","0","img/none_selected.jpg","","62","main_expt"
"","bandit","142","554985","0.0-103.0-0.0","65051914","wem/bandit_either_2","ABNTDXT618WJQ","either","8","427","","","","","","","0","1","0","","0.4097838671","0.2","0.6","0.8","0.4","0.4097838671","0.3098998428","0.2421495796","0.06524357318","","","","","","","","","","","","72","H","0","img/none_selected.jpg","","63","main_expt"
"","bandit","143","557104","0.0-104.0-0.0","65051914","wem/bandit_either_2","ABNTDXT618WJQ","either","8","599","","","","","","","0","0","1","","0.3942475769","0.2","0.6","0.8","0.4","0.3942475769","0.2859800092","0.2678986655","0.04599317762","","","","","","","","","","","","72","H","0","img/none_selected.jpg","","64","main_expt"
"","bandit","144","559309","0.0-105.0-0.0","65051914","wem/bandit_either_2","ABNTDXT618WJQ","either","8","695","","","","","","","0","1","0","","0.3756823908","0.2","0.6","0.8","0.4","0.3756823908","0.2780623804","0.2780805564","0.04738713632","","","","","","","","","","","","72","H","0","img/none_selected.jpg","","65","main_expt"
"","bandit","145","561169","0.0-106.0-0.0","65051914","wem/bandit_either_2","ABNTDXT618WJQ","either","8","350","","","","","","","0","0","1","","0.3780323226","0.2","0.6","0.8","0.4","0.3780323226","0.2740889186","0.2923516192","0.02873144913","","","","","","","","","","","","72","H","0","img/none_selected.jpg","","66","main_expt"
"","bandit","146","563102","0.0-107.0-0.0","65051914","wem/bandit_either_2","ABNTDXT618WJQ","either","8","416","","","","","","","0","0","1","","0.382091886","0.2","0.6","0.8","0.4","0.382091886","0.3122756929","0.3481747094","0.0355516853","","","","","","","","","","","","72","H","0","img/none_selected.jpg","","67","main_expt"
"","bandit","147","565125","0.0-108.0-0.0","65051914","wem/bandit_either_2","ABNTDXT618WJQ","either","8","507","","","","","","","0","1","0","","0.4080562953","0.2","0.6","0.8","0.4","0.4080562953","0.3004294993","0.3540590834","0.04483006882","","","","","","","","","","","","72","H","0","img/none_selected.jpg","","68","main_expt"
"","bandit","148","567326","0.0-109.0-0.0","65051914","wem/bandit_either_2","ABNTDXT618WJQ","either","8","690","","","","","","","0","0","1","0.419826639","","0.2","0.6","0.8","0.4","","","","","0.419826639","0.3312842332","0.3348318208","0.04300650393","","","","","","","","72","H","0","img/none_selected.jpg","","69","main_expt"
"","bandit","149","569235","0.0-110.0-0.0","65051914","wem/bandit_either_2","ABNTDXT618WJQ","either","8","399","","","","","","","0","0","1","","0.3889643965","0.2","0.6","0.8","0.4","0.3889643965","0.2362018798","0.3844983113","0.03960880855","","","","","","","","","","","","72","H","0","img/none_selected.jpg","","70","main_expt"
"","bandit","150","571225","0.0-111.0-0.0","65051914","wem/bandit_either_2","ABNTDXT618WJQ","either","8","477","","","","","","","0","0","1","","0.3492343966","0.2","0.6","0.8","0.4","0.3492343966","0.1838323472","0.3753843975","0.02401392238","","","","","","","","","","","","72","H","0","img/none_selected.jpg","","71","main_expt"
"","bandit","151","572979","0.0-112.0-0.0","65051914","wem/bandit_either_2","ABNTDXT618WJQ","either","8","230","","","","","","","0","0","1","0.3861429343","","0.2","0.6","0.8","0.4","","","","","0.3502155883","0.1749810972","0.3861429343","0.008756159955","","","","","","","","75","K","2","","","72","main_expt"
"","bandit","152","574896","0.0-113.0-0.0","65051914","wem/bandit_either_2","ABNTDXT618WJQ","either","8","402","","","","","","","0","0","1","","0.3978436086","0.2","0.6","0.8","0.4","0.3568691787","0.1664097112","0.3978436086","0.006257651783","","","","","","","","","","","","75","K","2","","","73","main_expt"
"","bandit","153","576795","0.0-114.0-0.0","65051914","wem/bandit_either_2","ABNTDXT618WJQ","either","8","372","","","","","","","1","0","0","0.3847979518","","0.2","0.6","0.8","0.4","","","","","0.3303653739","0.2001176207","0.3847979518","0.004732084297","","","","","","","","75","K","2","","","74","main_expt"
"","bandit","154","578741","0.0-115.0-0.0","65051914","wem/bandit_either_2","ABNTDXT618WJQ","either","8","436","","","","","","","0","1","0","","0.3974319157","0.2","0.6","0.8","0.4","0.3353283381","0.1848717924","0.3974319157","0.006967558871","","","","","","","","","","","","75","K","2","","","75","main_expt"
"","bandit","155","580675","0.0-116.0-0.0","65051914","wem/bandit_either_2","ABNTDXT618WJQ","either","8","420","","","","","","","0","1","0","","0.3987985884","0.2","0.6","0.8","0.4","0.3009524994","0.1510178238","0.3987985884","0.004525860487","","","","","","","","","","","","75","K","2","","","76","main_expt"
"","bandit","156","582668","0.0-117.0-0.0","65051914","wem/bandit_either_2","ABNTDXT618WJQ","either","8","459","","","","","","","0","0","1","0.4127312768","","0.2","0.6","0.8","0.4","","","","","0.3316028908","0.2089633591","0.4127312768","0.007245535115","","","","","","","","75","K","2","","","77","main_expt"
"","bandit","157","584658","0.0-118.0-0.0","65051914","wem/bandit_either_2","ABNTDXT618WJQ","either","8","476","","","","","","","1","0","0","0.4257675477","","0.2","0.6","0.8","0.4","","","","","0.3571024926","0.2285147345","0.4257675477","0.00483057751","","","","","","","","75","K","2","","","78","main_expt"
"","bandit","158","586574","0.0-119.0-0.0","65051914","wem/bandit_either_2","ABNTDXT618WJQ","either","8","405","","","","","","","1","0","0","0.4331167668","","0.2","0.6","0.8","0.4","","","","","0.3542776451","0.2246975601","0.4331167668","0.005956317848","","","","","","","","75","K","2","","","79","main_expt"
"","bandit","159","588634","0.0-120.0-0.0","65051914","wem/bandit_either_2","ABNTDXT618WJQ","either","8","550","","","","","","","1","0","0","0.4294395537","","0.2","0.6","0.8","0.4","","","","","0.3201174307","0.1878766281","0.4294395537","0.0076590047","","","","","","","","75","K","2","","","80","main_expt"
"","bandit","160","590657","0.0-121.0-0.0","65051914","wem/bandit_either_2","ABNTDXT618WJQ","either","8","511","","","","","","","0","0","1","0.4234249918","","0.2","0.6","0.8","0.4","","","","","0.3503003334","0.2436254364","0.4234249918","0.009115568074","","","","","","","","75","K","2","","","81","main_expt"
"","bandit","161","592659","0.0-122.0-0.0","65051914","wem/bandit_either_2","ABNTDXT618WJQ","either","8","490","","","","","","","1","0","0","0.3956977209","","0.2","0.6","0.8","0.4","","","","","0.3509066846","0.2627531714","0.3956977209","0.01382977225","","","","","","","","75","K","2","","","82","main_expt"
"","bandit","162","594648","0.0-123.0-0.0","65051914","wem/bandit_either_2","ABNTDXT618WJQ","either","8","476","","","","","","","0","0","1","0.4248650233","","0.2","0.6","0.8","0.4","","","","","0.3951868033","0.2672212524","0.4248650233","0.01500629599","","","","","","","","75","K","2","","","83","main_expt"
"","bandit","163","596784","0.0-124.0-0.0","65051914","wem/bandit_either_2","ABNTDXT618WJQ","either","8","619","","","","","","","0","0","1","0.4196907627","","0.2","0.6","0.8","0.4","","","","","0.4131477378","0.2817484998","0.4196907627","0.02310127573","","","","","","","","75","K","2","","","84","main_expt"
"","bandit","164","598747","0.0-125.0-0.0","65051914","wem/bandit_either_2","ABNTDXT618WJQ","either","8","451","","","","","","","1","0","0","0.435633498","","0.2","0.6","0.8","0.4","","","","","0.3889697292","0.3074775227","0.435633498","0.02639065846","","","","","","","","75","K","2","","","85","main_expt"
"","bandit","165","600692","0.0-126.0-0.0","65051914","wem/bandit_either_2","ABNTDXT618WJQ","either","8","430","","","","","","","1","0","0","0.4322222521","","0.2","0.6","0.8","0.4","","","","","0.3885636443","0.2717847629","0.4322222521","0.01746441632","","","","","","","","75","K","2","","","86","main_expt"
"","bandit","166","602580","0.0-127.0-0.0","65051914","wem/bandit_either_2","ABNTDXT618WJQ","either","8","378","","","","","","","0","0","1","0.4476119451","","0.2","0.6","0.8","0.4","","","","","0.4028282504","0.2183858348","0.4476119451","0.01256144444","","","","","","","","75","K","2","","","87","main_expt"
"","bandit","167","604469","0.0-128.0-0.0","65051914","wem/bandit_either_2","ABNTDXT618WJQ","either","8","370","","","","","","","1","0","0","0.4073123198","","0.2","0.6","0.8","0.4","","","","","0.4306890759","0.2054961256","0.4073123198","0.01178158386","","","","","","","","75","K","2","","","88","main_expt"
"","bandit","168","606350","0.0-129.0-0.0","65051914","wem/bandit_either_2","ABNTDXT618WJQ","either","8","361","","","","","","","1","0","0","0.3862301724","","0.2","0.6","0.8","0.4","","","","","0.4103738654","0.1452714398","0.3862301724","0.008722555822","","","","","","","","75","K","2","","","89","main_expt"
"","bandit","169","608283","0.0-130.0-0.0","65051914","wem/bandit_either_2","ABNTDXT618WJQ","either","8","407","","","","","","","0","0","1","0.3596745144","","0.2","0.6","0.8","0.4","","","","","0.3980827974","0.1077779513","0.3596745144","0.008232471735","","","","","","","","75","K","2","","","90","main_expt"
"","bandit","170","610432","0.0-131.0-0.0","65051914","wem/bandit_either_2","ABNTDXT618WJQ","either","8","637","","","","","","","0","0","1","0.3082854458","","0.2","0.6","0.8","0.4","","","","","0.4040531024","0.1308407065","0.3082854458","0.01249180717","","","","","","","","75","K","2","","","91","main_expt"
"","bandit","171","612280","0.0-132.0-0.0","65051914","wem/bandit_either_2","ABNTDXT618WJQ","either","8","338","","","","","","","0","0","1","0.312225492","","0.2","0.6","0.8","0.4","","","","","0.3462944796","0.1652322036","0.312225492","0.01470986316","","","","","","","","75","K","2","","","92","main_expt"
"","bandit","172","614090","0.0-133.0-0.0","65051914","wem/bandit_either_2","ABNTDXT618WJQ","either","8","300","","","","","","","0","1","0","","0.3411451966","0.2","0.6","0.8","0.4","0.3411451966","0.1344678182","0.3671658277","0.02655281846","","","","","","","","","","","","72","H","0","img/none_selected.jpg","","93","main_expt"
"","bandit","173","616382","0.0-134.0-0.0","65051914","wem/bandit_either_2","ABNTDXT618WJQ","either","8","780","","","","","","","0","1","0","","0.3384154489","0.2","0.6","0.8","0.4","0.3384154489","0.1301314301","0.3401731108","0.02575246025","","","","","","","","","","","","72","H","0","img/none_selected.jpg","","94","main_expt"
"","bandit","174","618333","0.0-135.0-0.0","65051914","wem/bandit_either_2","ABNTDXT618WJQ","either","8","428","","","","","","","0","0","1","","0.3126988266","0.2","0.6","0.8","0.4","0.3126988266","0.1746055711","0.3413923724","0.02262355665","","","","","","","","","","","","72","H","0","img/none_selected.jpg","","95","main_expt"
"","bandit","175","620290","0.0-136.0-0.0","65051914","wem/bandit_either_2","ABNTDXT618WJQ","either","8","447","","","","","","","0","1","0","","0.3800019137","0.2","0.6","0.8","0.4","0.3800019137","0.1994244555","0.3570420485","0.02047181149","","","","","","","","","","","","72","H","0","img/none_selected.jpg","","96","main_expt"
"","bandit","176","622216","0.0-137.0-0.0","65051914","wem/bandit_either_2","ABNTDXT618WJQ","either","8","410","","","","","","","1","0","0","0.3328121005","","0.2","0.6","0.8","0.4","","","","","0.3328121005","0.1834602947","0.3435474977","0.0207754381","","","","","","","","72","H","0","img/none_selected.jpg","","97","main_expt"
"","bandit","177","624099","0.0-138.0-0.0","65051914","wem/bandit_either_2","ABNTDXT618WJQ","either","8","372","","","","","","","0","1","0","","0.332228596","0.2","0.6","0.8","0.4","0.332228596","0.1719221531","0.3614714926","0.02955834597","","","","","","","","","","","","72","H","0","img/none_selected.jpg","","98","main_expt"
"","bandit","178","626008","0.0-139.0-0.0","65051914","wem/bandit_either_2","ABNTDXT618WJQ","either","8","387","","","","","","","0","1","0","","0.2843854285","0.2","0.6","0.8","0.4","0.2843854285","0.1183399241","0.3176405447","0.0383131093","","","","","","","","","","","","72","H","0","img/none_selected.jpg","","99","main_expt"
"","bandit","179","627824","0.0-140.0-0.0","65051914","wem/bandit_either_2","ABNTDXT618WJQ","either","8","301","","","","","","","0","0","1","","0.309751149","0.2","0.6","0.8","0.4","0.309751149","0.1558635017","0.3586553183","0.03580757471","","","","","","","","","","","","72","H","0","img/none_selected.jpg","","100","main_expt"
"","bandit","180","629662","0.0-141.0-0.0","65051914","wem/bandit_either_2","ABNTDXT618WJQ","either","8","318","","","","","","","0","0","1","","0.2993195944","0.2","0.6","0.8","0.4","0.2993195944","0.1389665978","0.2951503345","0.04899620691","","","","","","","","","","","","72","H","0","img/none_selected.jpg","","101","main_expt"
"","bandit","181","631762","0.0-142.0-0.0","65051914","wem/bandit_either_2","ABNTDXT618WJQ","either","8","590","","","","","","","0","1","0","","0.2998391809","0.2","0.6","0.8","0.4","0.3551890872","0.1377203561","0.2998391809","0.08055650644","","","","","","","","","","","","75","K","2","","","102","main_expt"
"","bandit","182","633906","0.0-143.0-0.0","65051914","wem/bandit_either_2","ABNTDXT618WJQ","either","8","629","","","","","","","0","0","1","","0.2791823827","0.2","0.6","0.8","0.4","0.3148404956","0.1285548106","0.2791823827","0.1040447627","","","","","","","","","","","","75","K","2","","","103","main_expt"
"","bandit","183","635839","0.0-144.0-0.0","65051914","wem/bandit_either_2","ABNTDXT618WJQ","either","8","415","","","","","","","0","0","1","0.3382769334","","0.2","0.6","0.8","0.4","","","","","0.3286912191","0.1555523735","0.3382769334","0.1143547335","","","","","","","","75","K","2","","","104","main_expt"
"","bandit","184","637598","0.0-145.0-0.0","65051914","wem/bandit_either_2","ABNTDXT618WJQ","either","8","241","","","","","","","0","0","1","","0.298340497","0.2","0.6","0.8","0.4","0.298340497","0.1775592141","0.3339697125","0.1487676438","","","","","","","","","","","","72","H","0","img/none_selected.jpg","","105","main_expt"
"","bandit","185","639609","0.0-146.0-0.0","65051914","wem/bandit_either_2","ABNTDXT618WJQ","either","8","487","","","","","","","0","0","1","0.3504464386","","0.2","0.6","0.8","0.4","","","","","0.3504464386","0.2263451353","0.3124129253","0.152088545","","","","","","","","72","H","0","img/none_selected.jpg","","106","main_expt"
"","bandit","186","641611","0.0-147.0-0.0","65051914","wem/bandit_either_2","ABNTDXT618WJQ","either","8","492","","","","","","","0","0","1","","0.3510410077","0.2","0.6","0.8","0.4","0.3510410077","0.1679769802","0.3400683723","0.2406734145","","","","","","","","","","","","72","H","0","img/none_selected.jpg","","107","main_expt"
"","bandit","187","643511","0.0-148.0-0.0","65051914","wem/bandit_either_2","ABNTDXT618WJQ","either","8","380","","","","","","","0","0","1","","0.1999870147","0.2","0.6","0.8","0.4","0.3282766846","0.1999870147","0.3557340834","0.3048040024","","","","","","","","","","","","74","J","1","","","108","main_expt"
"","bandit","188","645415","0.0-149.0-0.0","65051914","wem/bandit_either_2","ABNTDXT618WJQ","either","8","390","","","","","","","1","0","0","0.208992856","","0.2","0.6","0.8","0.4","","","","","0.3561186451","0.208992856","0.3846418901","0.3418503096","","","","","","","","74","J","1","","","109","main_expt"
"","bandit","189","647370","0.0-150.0-0.0","65051914","wem/bandit_either_2","ABNTDXT618WJQ","either","8","432","","","","","","","0","0","1","","0.1716040471","0.2","0.6","0.8","0.4","0.3576445865","0.1716040471","0.4057962062","0.3198501315","","","","","","","","","","","","74","J","1","","","110","main_expt"
"","bandit","190","649388","0.0-151.0-0.0","65051914","wem/bandit_either_2","ABNTDXT618WJQ","either","8","507","","","","","","","0","0","1","0.08984071331","","0.2","0.6","0.8","0.4","","","","","0.3377543854","0.08984071331","0.3692451483","0.3681534847","","","","","","","","74","J","1","","","111","main_expt"
"","bandit","191","651304","0.0-152.0-0.0","65051914","wem/bandit_either_2","ABNTDXT618WJQ","either","8","405","","","","","","","0","0","1","0.1243463141","","0.2","0.6","0.8","0.4","","","","","0.286234052","0.1243463141","0.3577317973","0.3757830796","","","","","","","","74","J","1","","","112","main_expt"
"","bandit","192","653314","0.0-153.0-0.0","65051914","wem/bandit_either_2","ABNTDXT618WJQ","either","8","497","","","","","","","0","0","1","0.3328808086","","0.2","0.6","0.8","0.4","","","","","0.1932674395","0.1433440675","0.3328808086","0.3838999828","","","","","","","","75","K","2","","","113","main_expt"
"","bandit","193","655259","0.0-154.0-0.0","65051914","wem/bandit_either_2","ABNTDXT618WJQ","either","8","427","","","","","","","0","0","1","","0.3416979579","0.2","0.6","0.8","0.4","0.2403040534","0.1510662198","0.3416979579","0.4157938717","","","","","","","","","","","","75","K","2","","","114","main_expt"
"","bandit","194","657304","0.0-155.0-0.0","65051914","wem/bandit_either_2","ABNTDXT618WJQ","either","8","532","","","","","","","0","0","1","","0.3377137281","0.2","0.6","0.8","0.4","0.254937398","0.09845245139","0.3377137281","0.4055870595","","","","","","","","","","","","75","K","2","","","115","main_expt"
"","bandit","195","659253","0.0-156.0-0.0","65051914","wem/bandit_either_2","ABNTDXT618WJQ","either","8","426","","","","","","","1","0","0","0.3039448029","","0.2","0.6","0.8","0.4","","","","","0.2605063941","0.107393795","0.3039448029","0.4161015278","","","","","","","","75","K","2","","","116","main_expt"
"","bandit","196","661155","0.0-157.0-0.0","65051914","wem/bandit_either_2","ABNTDXT618WJQ","either","8","377","","","","","","","0","0","1","0.2974336912","","0.2","0.6","0.8","0.4","","","","","0.2161328783","0.07879800556","0.2974336912","0.414877819","","","","","","","","75","K","2","","","117","main_expt"
"","bandit","197","662970","0.0-158.0-0.0","65051914","wem/bandit_either_2","ABNTDXT618WJQ","either","8","299","","","","","","","0","0","1","0.2651867246","","0.2","0.6","0.8","0.4","","","","","0.1931197841","0.08383735875","0.2651867246","0.3968259953","","","","","","","","75","K","2","","","118","main_expt"
"","bandit","198","664840","0.0-159.0-0.0","65051914","wem/bandit_either_2","ABNTDXT618WJQ","either","8","357","","","","","","","0","0","1","","0.1638183597","0.2","0.6","0.8","0.4","0.1638183597","0.1392474383","0.3131666206","0.4198241006","","","","","","","","","","","","72","H","0","img/none_selected.jpg","","119","main_expt"
"","bandit","199","666848","0.0-160.0-0.0","65051914","wem/bandit_either_2","ABNTDXT618WJQ","either","8","493","","","","","","","0","0","1","","0.1893282748","0.2","0.6","0.8","0.4","0.1893282748","0.1649404926","0.358829095","0.4286088018","","","","","","","","","","","","72","H","0","img/none_selected.jpg","","120","main_expt"
"","bandit","200","668713","0.0-161.0-0.0","65051914","wem/bandit_either_2","ABNTDXT618WJQ","either","8","355","","","","","","","0","0","1","","0.2290368179","0.2","0.6","0.8","0.4","0.2290368179","0.1764152442","0.3189860171","0.4253829576","","","","","","","","","","","","72","H","0","img/none_selected.jpg","","121","main_expt"
"","bandit","201","670662","0.0-162.0-0.0","65051914","wem/bandit_either_2","ABNTDXT618WJQ","either","8","428","","","","","","","1","0","0","0.4235175979","","0.2","0.6","0.8","0.4","","","","","0.2445441383","0.2092397698","0.3011672979","0.4235175979","","","","","","","","76","L","3","","","122","main_expt"
"","bandit","202","672607","0.0-163.0-0.0","65051914","wem/bandit_either_2","ABNTDXT618WJQ","either","8","418","","","","","","","0","0","1","0.4182090072","","0.2","0.6","0.8","0.4","","","","","0.2091075756","0.1884058447","0.3037948063","0.4182090072","","","","","","","","76","L","3","","","123","main_expt"
"","bandit","203","674465","0.0-164.0-0.0","65051914","wem/bandit_either_2","ABNTDXT618WJQ","either","8","333","","","","","","","0","1","0","","0.4356016004","0.2","0.6","0.8","0.4","0.2216111921","0.1876417206","0.2446200253","0.4356016004","","","","","","","","","","","","76","L","3","","","124","main_expt"
"","bandit","204","676463","0.0-165.0-0.0","65051914","wem/bandit_either_2","ABNTDXT618WJQ","either","8","481","","","","","","","0","0","1","","0.403953628","0.2","0.6","0.8","0.4","0.1622020501","0.1890564589","0.2464628806","0.403953628","","","","","","","","","","","","76","L","3","","","125","main_expt"
"","bandit","205","678413","0.0-166.0-0.0","65051914","wem/bandit_either_2","ABNTDXT618WJQ","either","8","437","","","","","","","1","0","0","0.4020675328","","0.2","0.6","0.8","0.4","","","","","0.173533554","0.1659850756","0.281169445","0.4020675328","","","","","","","","76","L","3","","","126","main_expt"
"","bandit","206","680471","0.0-167.0-0.0","65051914","wem/bandit_either_2","ABNTDXT618WJQ","either","8","534","","","","","","","0","1","0","","0.338443572","0.2","0.6","0.8","0.4","0.189829559","0.2006343121","0.290080064","0.338443572","","","","","","","","","","","","76","L","3","","","127","main_expt"
"","bandit","207","682427","0.0-168.0-0.0","65051914","wem/bandit_either_2","ABNTDXT618WJQ","either","8","435","","","","","","","0","1","0","","0.323123489","0.2","0.6","0.8","0.4","0.1764696366","0.2637444583","0.3280989756","0.323123489","","","","","","","","","","","","76","L","3","","","128","main_expt"
"","bandit","208","684536","0.0-169.0-0.0","65051914","wem/bandit_either_2","ABNTDXT618WJQ","either","8","595","","","","","","","0","0","1","0.3615310162","","0.2","0.6","0.8","0.4","","","","","0.172709194","0.2783394686","0.3052704822","0.3615310162","","","","","","","","76","L","3","","","129","main_expt"
"","bandit","209","686696","0.0-170.0-0.0","65051914","wem/bandit_either_2","ABNTDXT618WJQ","either","8","627","","","","","","","0","0","1","0.3667448715","","0.2","0.6","0.8","0.4","","","","","0.1407460215","0.2674474002","0.314718742","0.3667448715","","","","","","","","76","L","3","","","130","main_expt"
"","bandit","210","688665","0.0-171.0-0.0","65051914","wem/bandit_either_2","ABNTDXT618WJQ","either","8","443","","","","","","","0","0","1","0.341745941","","0.2","0.6","0.8","0.4","","","","","0.143826562","0.2122920843","0.2492347367","0.341745941","","","","","","","","76","L","3","","","131","main_expt"
"","bandit","211","690552","0.0-172.0-0.0","65051914","wem/bandit_either_2","ABNTDXT618WJQ","either","8","371","","","","","","","1","0","0","0.2495736985","","0.2","0.6","0.8","0.4","","","","","0.1862992663","0.1969346152","0.2495736985","0.2615325727","","","","","","","","75","K","2","","","132","main_expt"
"","bandit","212","692638","0.0-173.0-0.0","65051914","wem/bandit_either_2","ABNTDXT618WJQ","either","8","567","","","","","","","1","0","0","0.2487120015","","0.2","0.6","0.8","0.4","","","","","0.185648564","0.1390835973","0.2487120015","0.27905624","","","","","","","","75","K","2","","","133","main_expt"
"","bandit","213","694542","0.0-174.0-0.0","65051914","wem/bandit_either_2","ABNTDXT618WJQ","either","8","394","","","","","","","0","0","1","0.3239420422","","0.2","0.6","0.8","0.4","","","","","0.2002276213","0.1437640715","0.3239420422","0.2751163123","","","","","","","","75","K","2","","","134","main_expt"
"","bandit","214","696403","0.0-175.0-0.0","65051914","wem/bandit_either_2","ABNTDXT618WJQ","either","8","350","","","","","","","0","0","1","0.3903525049","","0.2","0.6","0.8","0.4","","","","","0.2474552851","0.1175999949","0.3903525049","0.2586507773","","","","","","","","75","K","2","","","135","main_expt"
"","bandit","215","698445","0.0-176.0-0.0","65051914","wem/bandit_either_2","ABNTDXT618WJQ","either","8","524","","","","","","","0","0","1","","0.3703049055","0.2","0.6","0.8","0.4","0.2454982057","0.1108499649","0.3703049055","0.2385277364","","","","","","","","","","","","75","K","2","","","136","main_expt"
"","bandit","216","700458","0.0-177.0-0.0","65051914","wem/bandit_either_2","ABNTDXT618WJQ","either","8","497","","","","","","","0","0","1","0.1935782534","","0.2","0.6","0.8","0.4","","","","","0.2708690816","0.1208727618","0.3657944308","0.1935782534","","","","","","","","76","L","3","","","137","main_expt"
"","bandit","217","702297","0.0-178.0-0.0","65051914","wem/bandit_either_2","ABNTDXT618WJQ","either","8","323","","","","","","","0","0","1","0.2219039101","","0.2","0.6","0.8","0.4","","","","","0.2219039101","0.1098805161","0.3452946514","0.14087624","","","","","","","","72","H","0","img/none_selected.jpg","","138","main_expt"
"","bandit","218","704219","0.0-179.0-0.0","65051914","wem/bandit_either_2","ABNTDXT618WJQ","either","8","402","","","","","","","0","0","1","","0.2485571535","0.2","0.6","0.8","0.4","0.2485571535","0.1359731218","0.3225052804","0.1340930794","","","","","","","","","","","","72","H","0","img/none_selected.jpg","","139","main_expt"
"","bandit","219","706035","0.0-180.0-0.0","65051914","wem/bandit_either_2","ABNTDXT618WJQ","either","8","306","","","","","","","0","0","1","","0.2605640439","0.2","0.6","0.8","0.4","0.2605640439","0.1419248406","0.2997250911","0.1170750994","","","","","","","","","","","","72","H","0","img/none_selected.jpg","","140","main_expt"
"","bandit","220","707880","0.0-181.0-0.0","65051914","wem/bandit_either_2","ABNTDXT618WJQ","either","8","327","","","","","","","0","0","1","","0.1269577117","0.2","0.6","0.8","0.4","0.2260680923","0.1269577117","0.311933389","0.1316830279","","","","","","","","","","","","74","J","1","","","141","main_expt"
"","bandit","221","709718","0.0-182.0-0.0","65051914","wem/bandit_either_2","ABNTDXT618WJQ","either","8","319","","","","","","","0","0","1","","0.1073819056","0.2","0.6","0.8","0.4","0.2354846983","0.1073819056","0.3442568425","0.09490366034","","","","","","","","","","","","74","J","1","","","142","main_expt"
"","bandit","222","711729","0.0-183.0-0.0","65051914","wem/bandit_either_2","ABNTDXT618WJQ","either","8","477","","","","","","","0","1","0","","0.1152767294","0.2","0.6","0.8","0.4","0.2089358464","0.1152767294","0.3117203045","0.1246024154","","","","","","","","","","","","74","J","1","","","143","main_expt"
"","bandit","223","713627","0.0-184.0-0.0","65051914","wem/bandit_either_2","ABNTDXT618WJQ","either","8","380","","","","","","","0","0","1","0.1317444946","","0.2","0.6","0.8","0.4","","","","","0.1844607625","0.1317444946","0.3080771123","0.1179874238","","","","","","","","74","J","1","","","144","main_expt"
"","bandit","224","715672","0.0-185.0-0.0","65051914","wem/bandit_either_2","ABNTDXT618WJQ","either","8","519","","","","","","","0","0","1","0.3146876691","","0.2","0.6","0.8","0.4","","","","","0.1940384654","0.1058600218","0.3146876691","0.1211842963","","","","","","","","75","K","2","","","145","main_expt"
"","bandit","225","717547","0.0-186.0-0.0","65051914","wem/bandit_either_2","ABNTDXT618WJQ","either","8","364","","","","","","","0","0","1","0.06212451067","","0.2","0.6","0.8","0.4","","","","","0.2532022814","0.1862633901","0.3526806189","0.06212451067","","","","","","","","76","L","3","","","146","main_expt"
"","bandit","226","719471","0.0-187.0-0.0","65051914","wem/bandit_either_2","ABNTDXT618WJQ","either","8","412","","","","","","","0","0","1","","0.05826033827","0.2","0.6","0.8","0.4","0.272856749","0.1944793183","0.3859334927","0.05826033827","","","","","","","","","","","","76","L","3","","","147","main_expt"
"","bandit","227","721309","0.0-188.0-0.0","65051914","wem/bandit_either_2","ABNTDXT618WJQ","either","8","325","","","","","","","0","0","1","0.04847575149","","0.2","0.6","0.8","0.4","","","","","0.2441255329","0.1572605535","0.4089873985","0.04847575149","","","","","","","","76","L","3","","","148","main_expt"
"","bandit","228","723308","0.0-189.0-0.0","65051914","wem/bandit_either_2","ABNTDXT618WJQ","either","8","480","","","","","","","0","0","1","0.07397138717","","0.2","0.6","0.8","0.4","","","","","0.2304797635","0.1632070519","0.3317076441","0.07397138717","","","","","","","","76","L","3","","","149","main_expt"
"","bandit","229","725072","0.0-190.0-0.0","65051914","wem/bandit_either_2","ABNTDXT618WJQ","either","8","251","","","","","","","0","0","1","0.1178437277","","0.2","0.6","0.8","0.4","","","","","0.2645424191","0.2162169298","0.2514439341","0.1178437277","","","","","","","","76","L","3","","","150","main_expt"
"","bandit","230","726880","0.0-191.0-0.0","65051914","wem/bandit_either_2","ABNTDXT618WJQ","either","8","283","","","","","","","0","0","1","","0.1116740648","0.2","0.6","0.8","0.4","0.2919476008","0.2806681102","0.2209696772","0.1116740648","","","","","","","","","","","","76","L","3","","","151","main_expt"
"","bandit","231","728928","0.0-192.0-0.0","65051914","wem/bandit_either_2","ABNTDXT618WJQ","either","8","533","","","","","","","0","0","1","0.2004300668","","0.2","0.6","0.8","0.4","","","","","0.3004198658","0.25223767","0.2004300668","0.09681320826","","","","","","","","75","K","2","","","152","main_expt"
"","bandit","232","730985","0.0-193.0-0.0","65051914","wem/bandit_either_2","ABNTDXT618WJQ","either","8","544","","","","","","","0","0","1","0.1803159607","","0.2","0.6","0.8","0.4","","","","","0.2910243242","0.2259503681","0.1803159607","0.1162344283","","","","","","","","75","K","2","","","153","main_expt"
"","bandit","233","733158","0.0-194.0-0.0","65051914","wem/bandit_either_2","ABNTDXT618WJQ","either","8","661","","","","","","","0","0","1","0.1793353988","","0.2","0.6","0.8","0.4","","","","","0.2858680692","0.2520515582","0.1793353988","0.1441765144","","","","","","","","75","K","2","","","154","main_expt"
"","bandit","234","735145","0.0-195.0-0.0","65051914","wem/bandit_either_2","ABNTDXT618WJQ","either","8","472","","","","","","","1","0","0","0.175125938","","0.2","0.6","0.8","0.4","","","","","0.276906037","0.246895917","0.175125938","0.1506434262","","","","","","","","75","K","2","","","155","main_expt"
"","bandit","235","737126","0.0-196.0-0.0","65051914","wem/bandit_either_2","ABNTDXT618WJQ","either","8","463","","","","","","","0","0","1","0.19004546","","0.2","0.6","0.8","0.4","","","","","0.3087514371","0.2067462234","0.19004546","0.1691825384","","","","","","","","75","K","2","","","156","main_expt"
"","bandit","236","739129","0.0-197.0-0.0","65051914","wem/bandit_either_2","ABNTDXT618WJQ","either","8","479","","","","","","","0","0","1","","0.1538528063","0.2","0.6","0.8","0.4","0.3400763937","0.1736677602","0.1538528063","0.1465267651","","","","","","","","","","","","75","K","2","","","157","main_expt"
"","bandit","237","741079","0.0-198.0-0.0","65051914","wem/bandit_either_2","ABNTDXT618WJQ","either","8","432","","","","","","","0","1","0","","0.3388441277","0.2","0.6","0.8","0.4","0.3388441277","0.2437422656","0.1624419901","0.1517260174","","","","","","","","","","","","72","H","0","img/none_selected.jpg","","158","main_expt"
"","bandit","238","743238","0.0-199.0-0.0","65051914","wem/bandit_either_2","ABNTDXT618WJQ","either","8","635","","","","","","","0","1","0","","0.3496437485","0.2","0.6","0.8","0.4","0.3496437485","0.2627628197","0.1749682205","0.143579764","","","","","","","","","","","","72","H","0","img/none_selected.jpg","","159","main_expt"
"","bandit","239","745151","0.0-200.0-0.0","65051914","wem/bandit_either_2","ABNTDXT618WJQ","either","8","403","","","","","","","0","0","1","","0.3347491532","0.2","0.6","0.8","0.4","0.3347491532","0.2532756584","0.2227833177","0.1701049762","","","","","","","","","","","","72","H","0","img/none_selected.jpg","","160","main_expt"
"","bandit","240","747195","0.0-201.0-0.0","65051914","wem/bandit_either_2","ABNTDXT618WJQ","either","8","527","","","","","","","0","0","1","","0.3036625801","0.2","0.6","0.8","0.4","0.3036625801","0.2846030245","0.1616195486","0.1596038406","","","","","","","","","","","","72","H","0","img/none_selected.jpg","","161","main_expt"
"","bandit","241","749168","0.0-202.0-0.0","65051914","wem/bandit_either_2","ABNTDXT618WJQ","either","8","463","","","","","","","0","0","1","","0.2735804545","0.2","0.6","0.8","0.4","0.2735804545","0.2480450928","0.1440802068","0.1186271452","","","","","","","","","","","","72","H","0","img/none_selected.jpg","","162","main_expt"
"","bandit","242","751390","0.0-203.0-0.0","65051914","wem/bandit_either_2","ABNTDXT618WJQ","either","8","706","","","","","","","0","0","1","","0.2219233964","0.2","0.6","0.8","0.4","0.2219233964","0.3217860246","0.1349250059","0.1460830151","","","","","","","","","","","","72","H","0","img/none_selected.jpg","","163","main_expt"
"","bandit","243","753311","0.0-204.0-0.0","65051914","wem/bandit_either_2","ABNTDXT618WJQ","either","8","411","","","","","","","0","0","1","0.1482528248","","0.2","0.6","0.8","0.4","","","","","0.2489701673","0.3528623486","0.1482528248","0.1924179555","","","","","","","","75","K","2","","","164","main_expt"
"","bandit","244","755128","0.0-205.0-0.0","65051914","wem/bandit_either_2","ABNTDXT618WJQ","either","8","303","","","","","","","0","1","0","","0.1444116863","0.2","0.6","0.8","0.4","0.2424219606","0.3113737792","0.1444116863","0.1909643941","","","","","","","","","","","","75","K","2","","","165","main_expt"
"","bandit","245","757003","0.0-206.0-0.0","65051914","wem/bandit_either_2","ABNTDXT618WJQ","either","8","363","","","","","","","1","0","0","0.1621449425","","0.2","0.6","0.8","0.4","","","","","0.1899742571","0.2820045276","0.1621449425","0.1917506842","","","","","","","","75","K","2","","","166","main_expt"
"","bandit","246","758906","0.0-207.0-0.0","65051914","wem/bandit_either_2","ABNTDXT618WJQ","either","8","384","","","","","","","0","0","1","0.1695256229","","0.2","0.6","0.8","0.4","","","","","0.2298880826","0.2539690707","0.1695256229","0.2238056512","","","","","","","","75","K","2","","","167","main_expt"
"","bandit","247","760787","0.0-208.0-0.0","65051914","wem/bandit_either_2","ABNTDXT618WJQ","either","8","361","","","","","","","0","0","1","","0.1712445676","0.2","0.6","0.8","0.4","0.241220494","0.2177565821","0.1712445676","0.2132240521","","","","","","","","","","","","75","K","2","","","168","main_expt"
"","bandit","248","762707","0.0-209.0-0.0","65051914","wem/bandit_either_2","ABNTDXT618WJQ","either","8","404","","","","","","","0","1","0","","0.2113351254","0.2","0.6","0.8","0.4","0.2113351254","0.183214586","0.191079104","0.1363713625","","","","","","","","","","","","72","H","0","img/none_selected.jpg","","169","main_expt"
"","bandit","249","764801","0.0-210.0-0.0","65051914","wem/bandit_either_2","ABNTDXT618WJQ","either","8","577","","","","","","","0","0","1","","0.2224744884","0.2","0.6","0.8","0.4","0.2224744884","0.1757282231","0.2227666825","0.2007690262","","","","","","","","","","","","72","H","0","img/none_selected.jpg","","170","main_expt"
"","bandit","250","766727","0.0-211.0-0.0","65051914","wem/bandit_either_2","ABNTDXT618WJQ","either","8","416","","","","","","","0","0","1","0.2719914804","","0.2","0.6","0.8","0.4","","","","","0.262177911","0.1679331046","0.2719914804","0.1238998316","","","","","","","","75","K","2","","","171","main_expt"
"","bandit","251","768991","0.0-212.0-0.0","65051914","wem/bandit_either_2","ABNTDXT618WJQ","either","8","753","","","","","","","0","1","0","","0.2822992514","0.2","0.6","0.8","0.4","0.2822992514","0.14560319","0.2330128459","0.09746419185","","","","","","","","","","","","72","H","0","img/none_selected.jpg","","172","main_expt"
"","bandit","252","771270","0.0-213.0-0.0","65051914","wem/bandit_either_2","ABNTDXT618WJQ","either","8","756","","","","","","","0","1","0","","0.2545762091","0.2","0.6","0.8","0.4","0.2545762091","0.1341549344","0.2840251313","0.1018164217","","","","","","","","","","","","72","H","0","img/none_selected.jpg","","173","main_expt"
"","bandit","253","773162","0.0-214.0-0.0","65051914","wem/bandit_either_2","ABNTDXT618WJQ","either","8","374","","","","","","","0","0","1","0.2838184637","","0.2","0.6","0.8","0.4","","","","","0.2838184637","0.1471305278","0.2739042306","0.1401689619","","","","","","","","72","H","0","img/none_selected.jpg","","174","main_expt"
"","bandit","254","775034","0.0-215.0-0.0","65051914","wem/bandit_either_2","ABNTDXT618WJQ","either","8","355","","","","","","","0","0","1","","0.3444735506","0.2","0.6","0.8","0.4","0.3002790513","0.173963405","0.3444735506","0.1697524679","","","","","","","","","","","","75","K","2","","","175","main_expt"
"","bandit","255","776929","0.0-216.0-0.0","65051914","wem/bandit_either_2","ABNTDXT618WJQ","either","8","376","","","","","","","0","0","1","0.3223017316","","0.2","0.6","0.8","0.4","","","","","0.3771690292","0.1821857965","0.3223017316","0.1896898672","","","","","","","","75","K","2","","","176","main_expt"
"","bandit","256","778870","0.0-217.0-0.0","65051914","wem/bandit_either_2","ABNTDXT618WJQ","either","8","426","","","","","","","0","0","1","0.2441254625","","0.2","0.6","0.8","0.4","","","","","0.4047809956","0.1444884472","0.2964924158","0.2441254625","","","","","","","","76","L","3","","","177","main_expt"
"","bandit","257","780884","0.0-218.0-0.0","65051914","wem/bandit_either_2","ABNTDXT618WJQ","either","8","503","","","","","","","0","0","1","0.2427722412","","0.2","0.6","0.8","0.4","","","","","0.4344960837","0.1207783293","0.2780576925","0.2427722412","","","","","","","","76","L","3","","","178","main_expt"
"","bandit","258","783060","0.0-219.0-0.0","65051914","wem/bandit_either_2","ABNTDXT618WJQ","either","8","655","","","","","","","0","1","0","","0.2284650367","0.2","0.6","0.8","0.4","0.4287912686","0.111585665","0.2859751729","0.2284650367","","","","","","","","","","","","76","L","3","","","179","main_expt"
"","bandit","259","784935","0.0-220.0-0.0","65051914","wem/bandit_either_2","ABNTDXT618WJQ","either","8","363","","","","","","","1","0","0","0.2694081366","","0.2","0.6","0.8","0.4","","","","","0.4294180747","0.06891525065","0.283533164","0.2694081366","","","","","","","","76","L","3","","","180","main_expt"
"","bandit","260","786978","0.0-221.0-0.0","65051914","wem/bandit_either_2","ABNTDXT618WJQ","either","8","521","","","","","","","0","1","0","","0.2471628034","0.2","0.6","0.8","0.4","0.3887332701","0.07407739619","0.2430023428","0.2471628034","","","","","","","","","","","","76","L","3","","","181","main_expt"
"","bandit","261","788940","0.0-222.0-0.0","65051914","wem/bandit_either_2","ABNTDXT618WJQ","either","8","452","","","","","","","0","0","1","","0.275372354","0.2","0.6","0.8","0.4","0.3910635387","0.07501704201","0.223254837","0.275372354","","","","","","","","","","","","76","L","3","","","182","main_expt"
"","bandit","262","790885","0.0-223.0-0.0","65051914","wem/bandit_either_2","ABNTDXT618WJQ","either","8","414","","","","","","","0","1","0","","0.2378950907","0.2","0.6","0.8","0.4","0.3957792538","0.09354103142","0.2274286797","0.2378950907","","","","","","","","","","","","76","L","3","","","183","main_expt"
"","bandit","263","792786","0.0-224.0-0.0","65051914","wem/bandit_either_2","ABNTDXT618WJQ","either","8","374","","","","","","","0","0","1","","0.2611999536","0.2","0.6","0.8","0.4","0.3777829694","0.06673830493","0.2485964068","0.2611999536","","","","","","","","","","","","76","L","3","","","184","main_expt"
"","bandit","264","794659","0.0-225.0-0.0","65051914","wem/bandit_either_2","ABNTDXT618WJQ","either","8","358","","","","","","","0","0","1","","0.2799245071","0.2","0.6","0.8","0.4","0.4130939835","0.08617836821","0.2080173303","0.2799245071","","","","","","","","","","","","76","L","3","","","185","main_expt"
"","bandit","265","796543","0.0-226.0-0.0","65051914","wem/bandit_either_2","ABNTDXT618WJQ","either","8","374","","","","","","","0","1","0","","0.2275386122","0.2","0.6","0.8","0.4","0.376930599","0.05054014018","0.2538883687","0.2275386122","","","","","","","","","","","","76","L","3","","","186","main_expt"
"","bandit","266","798493","0.0-227.0-0.0","65051914","wem/bandit_either_2","ABNTDXT618WJQ","either","8","433","","","","","","","0","0","1","","0.2558518805","0.2","0.6","0.8","0.4","0.3934592684","0.1101456656","0.2267652077","0.2558518805","","","","","","","","","","","","76","L","3","","","187","main_expt"
"","bandit","267","800328","0.0-228.0-0.0","65051914","wem/bandit_either_2","ABNTDXT618WJQ","either","8","323","","","","","","","0","0","1","0.2757393749","","0.2","0.6","0.8","0.4","","","","","0.4086060551","0.1076418148","0.2583789709","0.2757393749","","","","","","","","76","L","3","","","188","main_expt"
"","bandit","268","801893","0.0-229.0-0.0","65051914","wem/bandit_either_2","ABNTDXT618WJQ","either","8","50","","","","","","","0","1","0","","0.3326758055","0.2","0.6","0.8","0.4","0.447145564","0.1230456027","0.2329768584","0.3326758055","","","","","","","","","","","","76","L","3","","","189","main_expt"
"","bandit","269","803518","0.0-230.0-0.0","65051914","wem/bandit_either_2","ABNTDXT618WJQ","either","8","113","","","","","","","0","0","1","","0.332927569","0.2","0.6","0.8","0.4","0.386091063","0.1872873117","0.2002510669","0.332927569","","","","","","","","","","","","76","L","3","","","190","main_expt"
"","bandit","270","805141","0.0-231.0-0.0","65051914","wem/bandit_either_2","ABNTDXT618WJQ","either","8","113","","","","","","","0","0","1","","0.3859199101","0.2","0.6","0.8","0.4","0.4221145333","0.1413073252","0.2182600554","0.3859199101","","","","","","","","","","","","76","L","3","","","191","main_expt"
"","bandit","271","807041","0.0-232.0-0.0","65051914","wem/bandit_either_2","ABNTDXT618WJQ","either","8","374","","","","","","","0","0","1","0.2681613901","","0.2","0.6","0.8","0.4","","","","","0.3913199708","0.1868627967","0.2681613901","0.392668484","","","","","","","","75","K","2","","","192","main_expt"
"","bandit","272","808953","0.0-233.0-0.0","65051914","wem/bandit_either_2","ABNTDXT618WJQ","either","8","393","","","","","","","0","0","1","","0.3035027483","0.2","0.6","0.8","0.4","0.4013624592","0.2312719224","0.3035027483","0.3789843676","","","","","","","","","","","","75","K","2","","","193","main_expt"
"","bandit","273","810912","0.0-234.0-0.0","65051914","wem/bandit_either_2","ABNTDXT618WJQ","either","8","441","","","","","","","1","0","0","0.275531754","","0.2","0.6","0.8","0.4","","","","","0.3668237699","0.2585201677","0.275531754","0.3689216281","","","","","","","","75","K","2","","","194","main_expt"
"","bandit","274","812828","0.0-235.0-0.0","65051914","wem/bandit_either_2","ABNTDXT618WJQ","either","8","392","","","","","","","0","0","1","0.2716401532","","0.2","0.6","0.8","0.4","","","","","0.3856266791","0.2786104129","0.2716401532","0.4136905162","","","","","","","","75","K","2","","","195","main_expt"
"","bandit","275","814748","0.0-236.0-0.0","65051914","wem/bandit_either_2","ABNTDXT618WJQ","either","8","410","","","","","","","0","1","0","","0.3702439493","0.2","0.6","0.8","0.4","0.3702439493","0.2407834285","0.2814611543","0.4258575101","","","","","","","","","","","","72","H","0","img/none_selected.jpg","","196","main_expt"
"","bandit","276","816704","0.0-237.0-0.0","65051914","wem/bandit_either_2","ABNTDXT618WJQ","either","8","446","","","","","","","0","0","1","","0.3665926528","0.2","0.6","0.8","0.4","0.3665926528","0.2550568011","0.2588010394","0.3976178043","","","","","","","","","","","","72","H","0","img/none_selected.jpg","","197","main_expt"
"","bandit","277","818516","0.0-238.0-0.0","65051914","wem/bandit_either_2","ABNTDXT618WJQ","either","8","300","","","","","","","0","0","1","","0.3432124584","0.2","0.6","0.8","0.4","0.3432124584","0.3094863904","0.3094610495","0.3802378075","","","","","","","","","","","","72","H","0","img/none_selected.jpg","","198","main_expt"
"","bandit","278","820323","0.0-239.0-0.0","65051914","wem/bandit_either_2","ABNTDXT618WJQ","either","8","285","","","","","","","0","0","1","0.3139278769","","0.2","0.6","0.8","0.4","","","","","0.4096574544","0.3012985694","0.3139278769","0.3926800246","","","","","","","","75","K","2","","","199","main_expt"
"","bandit","279","821987","0.0-240.0-0.0","65051914","wem/bandit_either_2","ABNTDXT618WJQ","either","8","144","","","","","","","0","0","1","0.3149132519","","0.2","0.6","0.8","0.4","","","","","0.3799023259","0.3149132519","0.3459706187","0.3814844917","","","","","","","","74","J","1","","","200","main_expt"
"","bandit","280","824003","0.0-241.0-0.0","65051914","wem/bandit_either_2","ABNTDXT618WJQ","either","8","500","","","","","","","0","0","1","0.3236307962","","0.2","0.6","0.8","0.4","","","","","0.3513783521","0.3236307962","0.3038365479","0.3831630738","","","","","","","","74","J","1","","","201","main_expt"
"","bandit","281","825971","0.0-242.0-0.0","65051914","wem/bandit_either_2","ABNTDXT618WJQ","either","8","439","","","","","","","0","1","0","","0.3957430938","0.2","0.6","0.8","0.4","0.3439351057","0.3163717903","0.2964599608","0.3957430938","","","","","","","","","","","","76","L","3","","","202","main_expt"
"","bandit","282","827907","0.0-243.0-0.0","65051914","wem/bandit_either_2","ABNTDXT618WJQ","either","8","419","","","","","","","0","0","1","0.4175506619","","0.2","0.6","0.8","0.4","","","","","0.2615327891","0.3165936227","0.280336616","0.4175506619","","","","","","","","76","L","3","","","203","main_expt"
"","bandit","283","829517","0.0-244.0-0.0","65051914","wem/bandit_either_2","ABNTDXT618WJQ","either","8","83","","","","","","","0","0","1","","0.4356800279","0.2","0.6","0.8","0.4","0.2211517471","0.3166231072","0.262900641","0.4356800279","","","","","","","","","","","","76","L","3","","","204","main_expt"
"","bandit","284","831785","0.0-245.0-0.0","65051914","wem/bandit_either_2","ABNTDXT618WJQ","either","8","753","","","","","","","0","1","0","","0.4342993254","0.2","0.6","0.8","0.4","0.1955747294","0.2983153058","0.3403150927","0.4342993254","","","","","","","","","","","","76","L","3","","","205","main_expt"
"","bandit","285","833860","0.0-246.0-0.0","65051914","wem/bandit_either_2","ABNTDXT618WJQ","either","8","562","","","","","","","0","1","0","","0.4515967499","0.2","0.6","0.8","0.4","0.3137251184","0.255573156","0.3407188883","0.4515967499","","","","","","","","","","","","76","L","3","","","206","main_expt"
"","bandit","286","835973","0.0-247.0-0.0","65051914","wem/bandit_either_2","ABNTDXT618WJQ","either","8","590","","","","","","","0","0","1","","0.4559700358","0.2","0.6","0.8","0.4","0.2982459604","0.2816724171","0.2955601217","0.4559700358","","","","","","","","","","","","76","L","3","","","207","main_expt"
"","bandit","287","838063","0.0-248.0-0.0","65051914","wem/bandit_either_2","ABNTDXT618WJQ","either","8","574","","","","","","","0","0","1","","0.4711787588","0.2","0.6","0.8","0.4","0.2359404152","0.2462622089","0.2832193826","0.4711787588","","","","","","","","","","","","76","L","3","","","208","main_expt"
"","bandit","288","839888","0.0-249.0-0.0","65051914","wem/bandit_either_2","ABNTDXT618WJQ","either","8","313","","","","","","","0","1","0","","0.4859779177","0.2","0.6","0.8","0.4","0.2396635106","0.2608633631","0.25637755","0.4859779177","","","","","","","","","","","","76","L","3","","","209","main_expt"
"","bandit","289","841806","0.0-250.0-0.0","65051914","wem/bandit_either_2","ABNTDXT618WJQ","either","8","384","","","","","","","0","1","0","","0.4798195452","0.2","0.6","0.8","0.4","0.2320506775","0.2649708152","0.2500912527","0.4798195452","","","","","","","","","","","","76","L","3","","","210","main_expt"
"","bandit","290","843656","0.0-251.0-0.0","65051914","wem/bandit_either_2","ABNTDXT618WJQ","either","8","334","","","","","","","0","0","1","","0.4754072522","0.2","0.6","0.8","0.4","0.1894847828","0.2658594566","0.2481129288","0.4754072522","","","","","","","","","","","","76","L","3","","","211","main_expt"
"","bandit","291","845507","0.0-252.0-0.0","65051914","wem/bandit_either_2","ABNTDXT618WJQ","either","8","334","","","","","","","0","0","1","","0.4780703898","0.2","0.6","0.8","0.4","0.2330804604","0.2648449814","0.3192168596","0.4780703898","","","","","","","","","","","","76","L","3","","","212","main_expt"
"","bandit","292","847344","0.0-253.0-0.0","65051914","wem/bandit_either_2","ABNTDXT618WJQ","either","8","320","","","","","","","0","1","0","","0.4883488692","0.2","0.6","0.8","0.4","0.2484053244","0.286492297","0.2361953268","0.4883488692","","","","","","","","","","","","76","L","3","","","213","main_expt"
"","bandit","293","849371","0.0-254.0-0.0","65051914","wem/bandit_either_2","ABNTDXT618WJQ","either","8","502","","","","","","","0","0","1","","0.4872562331","0.2","0.6","0.8","0.4","0.2182548364","0.2540339129","0.2308921763","0.4872562331","","","","","","","","","","","","76","L","3","","","214","main_expt"
"","bandit","294","851303","0.0-255.0-0.0","65051914","wem/bandit_either_2","ABNTDXT618WJQ","either","8","416","","","","","","","0","0","1","0.2161033537","","0.2","0.6","0.8","0.4","","","","","0.1824073789","0.254651127","0.2161033537","0.4749609167","","","","","","","","75","K","2","","","215","main_expt"
"","bandit","295","853157","0.0-256.0-0.0","65051914","wem/bandit_either_2","ABNTDXT618WJQ","either","8","331","","","","","","","0","0","1","0.1896756427","","0.2","0.6","0.8","0.4","","","","","0.1923730387","0.3140517816","0.1896756427","0.4798413464","","","","","","","","75","K","2","","","216","main_expt"
"","bandit","296","854843","0.0-257.0-0.0","65051914","wem/bandit_either_2","ABNTDXT618WJQ","either","8","173","","","","","","","0","0","1","","0.2266612446","0.2","0.6","0.8","0.4","0.2266612446","0.3338676317","0.1724286307","0.4865144435","","","","","","","","","","","","72","H","0","img/none_selected.jpg","","217","main_expt"
"","bandit","297","856881","0.0-258.0-0.0","65051914","wem/bandit_either_2","ABNTDXT618WJQ","either","8","521","","","","","","","0","1","0","","0.1702705737","0.2","0.6","0.8","0.4","0.1702705737","0.3397001125","0.161168334","0.4789145001","","","","","","","","","","","","72","H","0","img/none_selected.jpg","","218","main_expt"
"","bandit","298","858737","0.0-259.0-0.0","65051914","wem/bandit_either_2","ABNTDXT618WJQ","either","8","346","","","","","","","0","0","1","","0.1159766116","0.2","0.6","0.8","0.4","0.1159766116","0.2982528089","0.2021763003","0.4834748692","","","","","","","","","","","","72","H","0","img/none_selected.jpg","","219","main_expt"
"","bandit","299","860590","0.0-260.0-0.0","65051914","wem/bandit_either_2","ABNTDXT618WJQ","either","8","336","","","","","","","0","0","1","0.09529473055","","0.2","0.6","0.8","0.4","","","","","0.09529473055","0.2770934022","0.2142164272","0.4722371777","","","","","","","","72","H","0","img/none_selected.jpg","","220","main_expt"
"","bandit","300","862355","0.0-261.0-0.0","65051914","wem/bandit_either_2","ABNTDXT618WJQ","either","8","241","","","","","","","1","0","0","0.4654689219","","0.2","0.6","0.8","0.4","","","","","0.09060922323","0.2696770889","0.189068297","0.4654689219","","","","","","","","76","L","3","","","221","main_expt"
"","bandit","301","864190","0.0-262.0-0.0","65051914","wem/bandit_either_2","ABNTDXT618WJQ","either","8","315","","","","","","","0","0","1","0.4533789701","","0.2","0.6","0.8","0.4","","","","","0.1250772464","0.3103502417","0.2120997892","0.4533789701","","","","","","","","76","L","3","","","222","main_expt"
"","bandit","302","866206","0.0-263.0-0.0","65051914","wem/bandit_either_2","ABNTDXT618WJQ","either","8","473","","","","","","","0","0","1","0.4473019993","","0.2","0.6","0.8","0.4","","","","","0.1177235221","0.3477728299","0.1937664477","0.4473019993","","","","","","","","76","L","3","","","223","main_expt"
"","bandit","303","868080","0.0-264.0-0.0","65051914","wem/bandit_either_2","ABNTDXT618WJQ","either","8","364","","","","","","","0","0","1","0.4651086175","","0.2","0.6","0.8","0.4","","","","","0.1589673504","0.3230244909","0.2195846313","0.4651086175","","","","","","","","76","L","3","","","224","main_expt"
"","bandit","304","870023","0.0-265.0-0.0","65051914","wem/bandit_either_2","ABNTDXT618WJQ","either","8","415","","","","","","","0","1","0","","0.4704934375","0.2","0.6","0.8","0.4","0.1582937281","0.3641913847","0.1973587738","0.4704934375","","","","","","","","","","","","76","L","3","","","225","main_expt"
"","bandit","305","871920","0.0-266.0-0.0","65051914","wem/bandit_either_2","ABNTDXT618WJQ","either","8","373","","","","","","","0","1","0","","0.4545632724","0.2","0.6","0.8","0.4","0.1585786296","0.3211822138","0.2029059012","0.4545632724","","","","","","","","","","","","76","L","3","","","226","main_expt"
"","bandit","306","873846","0.0-267.0-0.0","65051914","wem/bandit_either_2","ABNTDXT618WJQ","either","8","407","","","","","","","0","0","1","0.4313330006","","0.2","0.6","0.8","0.4","","","","","0.1614007709","0.3318596792","0.1677618241","0.4313330006","","","","","","","","76","L","3","","","227","main_expt"
"","bandit","307","875568","0.0-268.0-0.0","65051914","wem/bandit_either_2","ABNTDXT618WJQ","either","8","176","","","","","","","0","1","0","","0.4253897179","0.2","0.6","0.8","0.4","0.1160982884","0.3715738924","0.2079318551","0.4253897179","","","","","","","","","","","","76","L","3","","","228","main_expt"
"","bandit","308","877443","0.0-269.0-0.0","65051914","wem/bandit_either_2","ABNTDXT618WJQ","either","8","358","","","","","","","0","1","0","","0.4416009531","0.2","0.6","0.8","0.4","0.1327168588","0.3571583743","0.1860779256","0.4416009531","","","","","","","","","","","","76","L","3","","","229","main_expt"
"","bandit","309","878980","0.0-270.0-0.0","65051914","wem/bandit_either_2","ABNTDXT618WJQ","either","8","1","","","","","","","1","0","0","0.4612445757","","0.2","0.6","0.8","0.4","","","","","0.1751239199","0.3455313741","0.1294985144","0.4612445757","","","","","","","","76","L","3","","","230","main_expt"
"","bandit","310","880539","0.0-271.0-0.0","65051914","wem/bandit_either_2","ABNTDXT618WJQ","either","8","45","","","","","","","0","0","1","","0.4455927364","0.2","0.6","0.8","0.4","0.2080149414","0.3114256563","0.1424139305","0.4455927364","","","","","","","","","","","","76","L","3","","","231","main_expt"
"","bandit","311","882297","0.0-272.0-0.0","65051914","wem/bandit_either_2","ABNTDXT618WJQ","either","8","223","","","","","","","0","0","1","0.4449483857","","0.2","0.6","0.8","0.4","","","","","0.2305008548","0.3127001645","0.1777617008","0.4449483857","","","","","","","","76","L","3","","","232","main_expt"
"","bandit","312","883895","0.0-273.0-0.0","65051914","wem/bandit_either_2","ABNTDXT618WJQ","either","8","65","","","","","","","0","0","1","0.4570404202","","0.2","0.6","0.8","0.4","","","","","0.2331895239","0.2953609795","0.1408291819","0.4570404202","","","","","","","","76","L","3","","","233","main_expt"
"","bandit","313","885802","0.0-274.0-0.0","65051914","wem/bandit_either_2","ABNTDXT618WJQ","either","8","376","","","","","","","1","0","0","0.4785018613","","0.2","0.6","0.8","0.4","","","","","0.2007149185","0.2743769666","0.09563300426","0.4785018613","","","","","","","","76","L","3","","","234","main_expt"
"","bandit","314","887640","0.0-275.0-0.0","65051914","wem/bandit_either_2","ABNTDXT618WJQ","either","8","317","","","","","","","0","0","1","0.4708517218","","0.2","0.6","0.8","0.4","","","","","0.1428876463","0.2842570603","0.06508254785","0.4708517218","","","","","","","","76","L","3","","","235","main_expt"
"","bandit","315","890106","0.0-276.0-0.0","65051914","wem/bandit_either_2","ABNTDXT618WJQ","either","8","932","","","","","","","0","1","0","","0.4721911582","0.2","0.6","0.8","0.4","0.1327756685","0.3536106974","0.05272484418","0.4721911582","","","","","","","","","","","","76","L","3","","","236","main_expt"
"","bandit","316","892106","0.0-277.0-0.0","65051914","wem/bandit_either_2","ABNTDXT618WJQ","either","8","473","","","","","","","0","0","1","0.4567984566","","0.2","0.6","0.8","0.4","","","","","0.1969646424","0.3777879982","0.05000735717","0.4567984566","","","","","","","","76","L","3","","","237","main_expt"
"","bandit","317","894286","0.0-278.0-0.0","65051914","wem/bandit_either_2","ABNTDXT618WJQ","either","8","667","","","","","","","0","0","1","","0.4601910044","0.2","0.6","0.8","0.4","0.2040955009","0.3819628943","0.03409798278","0.4601910044","","","","","","","","","","","","76","L","3","","","238","main_expt"
"","bandit","318","896306","0.0-279.0-0.0","65051914","wem/bandit_either_2","ABNTDXT618WJQ","either","8","485","","","","","","","0","1","0","","0.4663275819","0.2","0.6","0.8","0.4","0.1885012088","0.3590612953","0.03555143528","0.4663275819","","","","","","","","","","","","76","L","3","","","239","main_expt"
"","bandit","319","898246","0.0-280.0-0.0","65051914","wem/bandit_either_2","ABNTDXT618WJQ","either","8","413","","","","","","","0","0","1","0.4781926851","","0.2","0.6","0.8","0.4","","","","","0.1779850251","0.3943681209","0.06633834621","0.4781926851","","","","","","","","76","L","3","","","240","main_expt"
"","bandit","320","900246","0.0-281.0-0.0","65051914","wem/bandit_either_2","ABNTDXT618WJQ","either","8","476","","","","","","","0","0","1","","0.4813407325","0.2","0.6","0.8","0.4","0.2132761508","0.4178476804","0.0332650027","0.4813407325","","","","","","","","","","","","76","L","3","","","241","main_expt"
"","bandit","321","902404","0.0-282.0-0.0","65051914","wem/bandit_either_2","ABNTDXT618WJQ","either","8","635","","","","","","","1","0","0","0.4758201438","","0.2","0.6","0.8","0.4","","","","","0.2181708985","0.4083523659","0.03674005559","0.4758201438","","","","","","","","76","L","3","","","242","main_expt"
"","bandit","322","904306","0.0-283.0-0.0","65051914","wem/bandit_either_2","ABNTDXT618WJQ","either","8","373","","","","","","","0","0","1","0.4739127226","","0.2","0.6","0.8","0.4","","","","","0.1880751836","0.4107673147","0.02732183546","0.4739127226","","","","","","","","76","L","3","","","243","main_expt"
"","bandit","323","906336","0.0-284.0-0.0","65051914","wem/bandit_either_2","ABNTDXT618WJQ","either","8","508","","","","","","","0","0","1","","0.4467527753","0.2","0.6","0.8","0.4","0.2693527465","0.3914084711","0.02742276317","0.4467527753","","","","","","","","","","","","76","L","3","","","244","main_expt"
"","bandit","324","908346","0.0-285.0-0.0","65051914","wem/bandit_either_2","ABNTDXT618WJQ","either","8","474","","","","","","","0","0","1","","0.4492118003","0.2","0.6","0.8","0.4","0.2474629182","0.4117032301","0.03322496416","0.4492118003","","","","","","","","","","","","76","L","3","","","245","main_expt"
"","bandit","325","910455","0.0-286.0-0.0","65051914","wem/bandit_either_2","ABNTDXT618WJQ","either","8","562","","","","","","","1","0","0","0.4702058379","","0.2","0.6","0.8","0.4","","","","","0.3019125269","0.4225436654","0.0538648904","0.4702058379","","","","","","","","76","L","3","","","246","main_expt"
"","bandit","326","912550","0.0-287.0-0.0","65051914","wem/bandit_either_2","ABNTDXT618WJQ","either","8","564","","","","","","","1","0","0","0.4717010128","","0.2","0.6","0.8","0.4","","","","","0.3013832462","0.4327875568","0.05538537946","0.4717010128","","","","","","","","76","L","3","","","247","main_expt"
"","bandit","327","914523","0.0-288.0-0.0","65051914","wem/bandit_either_2","ABNTDXT618WJQ","either","8","441","","","","","","","1","0","0","0.4750055548","","0.2","0.6","0.8","0.4","","","","","0.2917300956","0.4478523955","0.07377210468","0.4750055548","","","","","","","","76","L","3","","","248","main_expt"
